timestamp,ax,ay,az,gx,gy,gz,mx,my,mz,label,subject_id
0,0.1,-0.07,10.145759109311742,-4.2,-1.2,0.6,28.91527918449778,-17.367490494008628,37.683451241993616,6,S01
20,0.1,-0.07,10.145759109311742,-4.2,-1.2,0.6,29.23950330534246,-17.13900480565526,38.01414198125737,6,S01
40,0.1,-0.07,10.145759109311742,-4.2,-1.2,0.6,29.510162596108316,-16.60526305300306,38.037834191658035,6,S01
60,0.1,-0.07,10.145759109311742,-4.2,-1.2,0.6,29.216216953055362,-16.378561662967456,37.74691013648082,6,S01
80,0.1,-0.07,10.145759109311742,-4.2,-1.2,0.6,29.396279170909246,-16.82896739110428,38.4234798820125,6,S01
100,0.1,-0.07,10.145759109311742,-4.2,-1.2,0.6,29.16534753635988,-16.820748595592548,38.10810067555199,6,S01
120,0.1,-0.07,10.145759109311742,-4.2,-1.2,0.6,28.89848563857978,-16.651892184745165,38.361134518374584,6,S01
140,0.1,-0.07,10.145759109311742,-4.2,-1.2,0.6,30.409532276665924,-16.332196613793542,36.58964969971384,6,S01
160,0.1,-0.07,10.145759109311742,-4.2,-1.2,0.6,29.539971079052446,-17.092010740600166,37.439167606469084,6,S01
180,0.1,-0.07,10.145759109311742,-4.2,-1.2,0.6,28.849475319099238,-17.280934935466966,37.87045350074891,6,S01
200,0.1,-0.07,10.145759109311742,-4.2,-1.2,0.6,28.616900459254058,-16.667959938776857,37.77790978254027,6,S01
220,0.1,-0.07,10.145759109311742,-4.2,-1.2,0.6,29.878849302816896,-16.598427361881473,37.350359086235926,6,S01
240,0.1,-0.07,10.145759109311742,-4.2,-1.2,0.6,28.956729428303742,-16.5329575165706,38.311955050910925,6,S01
260,0.1,-0.07,10.145759109311742,-4.2,-1.2,0.6,29.77019222501888,-17.354354152080397,37.9933627486052,6,S01
280,0.1,-0.07,10.145759109311742,-4.2,-1.2,0.6,29.479340919174863,-16.166385153000405,37.728529888704415,6,S01
300,0.1,-0.07,10.145759109311742,-4.2,-1.2,0.6,29.40785865674375,-17.686308535165622,38.359569743133044,6,S01
320,0.1,-0.07,10.145759109311742,-4.2,-1.2,0.6,29.301401915414747,-16.686807925409706,38.72901965067247,6,S01
340,0.1,-0.07,10.145759109311742,-4.2,-1.2,0.6,29.122894495031982,-16.493025062101804,38.47366934828019,6,S01
360,0.1,-0.07,10.145759109311742,-4.2,-1.2,0.6,29.064985071945436,-16.9328916623748,37.98049805105757,6,S01
380,0.1,-0.07,10.145759109311742,-4.2,-1.2,0.6,28.984314653951028,-16.789325195721386,38.371705782743575,6,S01
400,0.1,-0.07,10.145759109311742,-4.2,-1.2,0.6,29.362826881320462,-16.30884031042416,37.42154163421704,6,S01
420,0.1,-0.07,10.145759109311742,-4.2,-1.2,0.6,29.40401164543434,-16.46946717479956,37.63699010401591,6,S01
440,0.1,-0.07,10.145759109311742,-4.2,-1.2,0.6,29.075083271425537,-16.77727935056661,37.93978701431454,6,S01
460,0.1,-0.07,10.145759109311742,-4.2,-1.2,0.6,29.25063244120253,-16.289142103419564,37.698548989802404,6,S01
480,0.1,-0.07,10.145759109311742,-4.2,-1.2,0.6,29.334035224708284,-16.853202254983515,37.88348792002777,6,S01
500,0.1,-0.07,10.145759109311742,-4.2,-1.2,0.6,29.49018784670917,-15.911937285048474,37.84864384861833,6,S01
520,0.1,-0.07,10.145759109311742,-4.2,-1.2,0.6,29.300331616831407,-17.1939137457952,38.06080149256665,6,S01
540,0.1,-0.07,10.145759109311742,-4.2,-1.2,0.6,29.16836419263406,-17.350636418737245,37.46025291466807,6,S01
560,0.1,-0.07,10.145759109311742,-4.2,-1.2,0.6,29.726412796710683,-17.00166650497281,37.62620471223677,6,S01
580,0.1,-0.07,10.145759109311742,-4.2,-1.2,0.6,29.820210034085836,-15.86429567912039,37.818651770362656,6,S01
600,0.1,-0.07,10.145759109311742,-4.2,-1.2,0.6,29.295720624395372,-16.877339781973113,37.59999270349899,6,S01
620,0.1,-0.07,10.145759109311742,-4.2,-1.2,0.6,28.769269154168303,-16.241888506715362,37.97726199157476,6,S01
640,0.1,-0.07,10.145759109311742,-4.2,-1.2,0.6,29.060596187798833,-16.68039332992695,37.73549525468727,6,S01
660,0.1,-0.07,10.145759109311742,-4.2,-1.2,0.6,29.5835305402687,-16.752463625870796,37.51392860655357,6,S01
680,0.1,-0.07,10.145759109311742,-4.2,-1.2,0.6,29.492899637587755,-16.83035411098429,37.74524685397916,6,S01
700,0.1,-0.07,10.145759109311742,-4.2,-1.2,0.6,29.335632970026097,-16.63413942308372,37.94556353775288,6,S01
720,0.1,-0.07,10.145759109311742,-4.2,-1.2,0.6,29.232772538181308,-16.83655030776415,38.07639370090872,6,S01
740,0.1,-0.07,10.145759109311742,-4.2,-1.2,0.6,29.155729830435565,-17.395243362770348,37.995722807646985,6,S01
760,0.1,-0.07,10.145759109311742,-4.2,-1.2,0.6,29.41288083709185,-16.222605102005872,38.60969301197954,6,S01
780,0.1,-0.07,10.145759109311742,-4.2,-1.2,0.6,29.074180838434206,-15.257734915208108,37.43206532216357,6,S01
800,0.1,-0.07,10.145759109311742,-4.2,-1.2,0.6,28.467452100945998,-16.15723087330703,38.1000550808643,6,S01
820,0.1,-0.07,10.145759109311742,-4.2,-1.2,0.6,30.006362198559128,-16.898349944332534,37.862041502749555,6,S01
840,0.1,-0.07,10.145759109311742,-4.2,-1.2,0.6,29.697686945672377,-16.09799065575507,38.342074908171995,6,S01
860,0.1,-0.07,10.145759109311742,-4.2,-1.2,0.6,29.458793167294886,-16.395594567794944,38.12681238247802,6,S01
880,0.1,-0.07,10.145759109311742,-4.2,-1.2,0.6,28.276976708935294,-15.802590622759123,38.714467897733655,6,S01
900,0.1,-0.07,10.145759109311742,-4.2,-1.2,0.6,29.101215611144674,-17.08495302769201,37.38606950020557,6,S01
920,0.1,-0.07,10.145759109311742,-4.2,-1.2,0.6,29.69748998090228,-15.719356268754686,37.44482855711095,6,S01
940,0.1,-0.07,10.145759109311742,-4.2,-1.2,0.6,28.767309210646506,-15.979383792395895,38.00569191811366,6,S01
960,0.1,-0.07,10.145759109311742,-4.2,-1.2,0.6,29.646340731094412,-16.539893832458283,37.05891588518746,6,S01
980,0.1,-0.07,10.145759109311742,-4.2,-1.2,0.6,29.776110209773826,-16.305284318941894,37.650841730224464,6,S01
1000,0.1,-0.07,10.145759109311742,-4.2,-1.2,0.6,29.297967779062688,-17.821709570366757,38.59748854304526,6,S01
1020,0.1,-0.07,10.145759109311742,-4.2,-1.2,0.6,29.595776902083767,-16.662710094846922,37.438881802674196,6,S01
1040,0.1,-0.07,10.145759109311742,-4.2,-1.2,0.6,29.32414818136906,-16.0440233899496,37.992584227228264,6,S01
1060,0.1,-0.07,10.145759109311742,-4.2,-1.2,0.6,29.228449622507778,-15.880476220093529,37.896335704266576,6,S01
1080,0.1,-0.07,10.145759109311742,-4.2,-1.2,0.6,29.22726477571093,-16.242919463791182,37.79382398841657,6,S01
1100,0.1,-0.07,10.145759109311742,-4.2,-1.2,0.6,29.189405746829237,-15.879535726085125,38.54706306384852,6,S01
1120,0.1,-0.07,10.145759109311742,-4.2,-1.2,0.6,28.74557876726589,-16.36852907349581,38.905039389741425,6,S01
1140,0.1,-0.07,10.145759109311742,-4.2,-1.2,0.6,29.184052062040358,-16.164659220746767,38.46039887813094,6,S01
1160,0.1,-0.07,10.145759109311742,-4.2,-1.2,0.6,29.198897720048695,-16.47099443072927,37.90374563032365,6,S01
1180,0.1,-0.07,10.145759109311742,-4.2,-1.2,0.6,30.260923171908768,-15.363937666422958,37.36752178091567,6,S01
1200,0.1,-0.07,10.145759109311742,-4.2,-1.2,0.6,29.923706108459772,-16.912409587600123,37.88032729052516,6,S01
1220,0.1,-0.07,10.145759109311742,-4.2,-1.2,0.6,30.12719996270435,-16.18382712962554,38.00940685344955,6,S01
1240,0.1,-0.07,10.145759109311742,-4.2,-1.2,0.6,30.337515310610723,-15.909939529269954,37.4465414871293,6,S01
1260,0.1,-0.07,10.145759109311742,-4.2,-1.2,0.6,29.591190961423795,-16.609623233815448,38.12360371904917,6,S01
1280,0.1,-0.07,10.145759109311742,-4.2,-1.2,0.6,29.782277735119983,-16.324012608432536,38.25492239292212,6,S01
1300,0.1,-0.07,10.145759109311742,-4.2,-1.2,0.6,28.758909862802277,-16.751763899284583,37.9757561755632,6,S01
1320,0.1,-0.07,10.145759109311742,-4.2,-1.2,0.6,29.74868002473473,-16.798726958350922,37.98025255301109,6,S01
1340,0.1,-0.07,10.145759109311742,-4.2,-1.2,0.6,29.666328889188495,-16.57160138582823,37.91779415073178,6,S01
1360,0.1,-0.07,10.145759109311742,-4.2,-1.2,0.6,29.53877060670607,-16.52368291000931,38.163676041167,6,S01
1380,0.1,-0.07,10.145759109311742,-4.2,-1.2,0.6,28.8824532087153,-16.78308134110572,37.85213185474065,6,S01
1400,0.1,-0.07,10.145759109311742,-4.2,-1.2,0.6,29.640174900255538,-16.745773391437,38.97126503366165,6,S01
1420,0.1,-0.07,10.145759109311742,-4.2,-1.2,0.6,28.762600449771863,-16.584779451249155,37.20279541465582,6,S01
1440,0.1,-0.07,10.145759109311742,-4.2,-1.2,0.6,29.816537888775834,-16.31597254543278,37.55686756593082,6,S01
1460,0.1,-0.07,10.145759109311742,-4.2,-1.2,0.6,30.22653803944803,-16.79505145152565,38.12293382076278,6,S01
1480,0.1,-0.07,10.145759109311742,-4.2,-1.2,0.6,30.48320734046942,-16.168140707918777,37.27311705318726,6,S01
1500,0.1,-0.07,10.145759109311742,-4.2,-1.2,0.6,29.874843991937638,-16.181178412992672,38.13644750341677,6,S01
1520,0.1,-0.07,10.145759109311742,-4.2,-1.2,0.6,28.80286970806941,-16.876877252517055,38.2492866230529,6,S01
1540,0.1,-0.07,10.145759109311742,-4.2,-1.2,0.6,28.991254178000425,-17.33880990798494,37.386670349491496,6,S01
1560,0.1,-0.07,10.145759109311742,-4.2,-1.2,0.6,29.99858835730835,-16.412372799114934,38.030698296797745,6,S01
1580,0.1,-0.07,10.145759109311742,-4.2,-1.2,0.6,28.600346268738445,-16.508928543359268,37.38289988077774,6,S01
1600,0.1,-0.07,10.145759109311742,-4.2,-1.2,0.6,28.821738732337568,-15.666702959151712,37.719326304915576,6,S01
1620,0.1,-0.07,10.145759109311742,-4.2,-1.2,0.6,30.044005531845084,-17.444899066475195,37.47763465301613,6,S01
1640,0.1,-0.07,10.145759109311742,-4.2,-1.2,0.6,28.66693073696037,-16.764296756340777,38.046492229656096,6,S01
1660,0.1,-0.07,10.145759109311742,-4.2,-1.2,0.6,29.881081682191855,-16.925457101942484,38.267660183466816,6,S01
1680,0.1,-0.07,10.145759109311742,-4.2,-1.2,0.6,30.557923251452774,-17.54312486463035,37.127348675901956,6,S01
1700,0.1,-0.07,10.145759109311742,-4.2,-1.2,0.6,29.152694600124025,-16.82864080399422,37.691253409291484,6,S01
1720,0.1,-0.07,10.145759109311742,-4.2,-1.2,0.6,28.91612399280134,-16.405388582628383,38.14454453829547,6,S01
1740,0.1,-0.07,10.145759109311742,-4.2,-1.2,0.6,29.204184651095634,-16.93720696229737,37.49172381543586,6,S01
1760,0.1,-0.07,10.145759109311742,-4.2,-1.2,0.6,28.854661874061843,-17.06185768070849,37.9673056364949,6,S01
1780,0.1,-0.07,10.145759109311742,-4.2,-1.2,0.6,29.256482580367845,-17.04497907232004,37.94166525911663,6,S01
1800,0.1,-0.07,10.145759109311742,-4.2,-1.2,0.6,29.50645879302774,-17.585686266455532,37.972176551188156,6,S01
1820,0.1,-0.07,10.145759109311742,-4.2,-1.2,0.6,29.63679234384943,-15.830013199881835,38.5766697860447,6,S01
1840,0.1,-0.07,10.145759109311742,-4.2,-1.2,0.6,28.588497589860424,-16.241546934996045,38.507832484019275,6,S01
1860,0.1,-0.07,10.145759109311742,-4.2,-1.2,0.6,28.527730599239614,-16.567784997646882,37.82192459252353,6,S01
1880,0.1,-0.07,10.145759109311742,-4.2,-1.2,0.6,29.0572671188266,-16.581017087612757,37.57846049991934,6,S01
1900,0.1,-0.07,10.145759109311742,-4.2,-1.2,0.6,29.090603258889065,-16.990272647636466,36.89538801092631,6,S01
1920,0.1,-0.07,10.145759109311742,-4.2,-1.2,0.6,30.004746275569115,-16.6794844995218,38.113628535783334,6,S01
1940,0.1,-0.07,10.145759109311742,-4.2,-1.2,0.6,29.31781716752117,-16.524147382850966,38.4238532131397,6,S01
1960,0.1,-0.07,10.145759109311742,-4.2,-1.2,0.6,28.932357421612526,-16.23652642769699,37.58643030324796,6,S01
1980,0.1,-0.07,10.145759109311742,-4.2,-1.2,0.6,29.168680288308945,-16.966554792744468,37.72302622192568,6,S01
2000,0.1,-0.07,10.145759109311742,-4.2,-1.2,0.6,30.142178402971247,-17.367448913736155,37.36039178797504,6,S01
2020,0.1,-0.07,10.145759109311742,-4.2,-1.2,0.6,29.356477242994256,-16.25142947084509,36.81380141438006,6,S01
2040,0.1,-0.07,10.145759109311742,-4.2,-1.2,0.6,28.929832032893536,-16.197099932253128,37.55920485945069,6,S01
2060,0.1,-0.07,10.145759109311742,-4.2,-1.2,0.6,29.68509890382537,-16.893197767535835,38.15435355507116,6,S01
2080,0.1,-0.07,10.145759109311742,-4.2,-1.2,0.6,28.38228326318659,-17.244917870277934,39.3198003494097,6,S01
2100,0.1,-0.07,10.145759109311742,-4.2,-1.2,0.6,29.354339383434038,-16.4567547387333,37.77322390585546,6,S01
2120,0.1,-0.07,10.145759109311742,-4.2,-1.2,0.6,29.039407443448898,-16.55576985279296,38.01851769799759,6,S01
2140,0.1,-0.07,10.145759109311742,-4.2,-1.2,0.6,29.48664329988451,-16.56840772895793,39.19144646408082,6,S01
2160,0.1,-0.07,10.145759109311742,-4.2,-1.2,0.6,29.81137666972223,-16.234176316558248,38.07397230144883,6,S01
2180,0.1,-0.07,10.145759109311742,-4.2,-1.2,0.6,29.941760759756647,-16.00863882585134,38.37970571893188,6,S01
2200,0.1,-0.07,10.145759109311742,-4.2,-1.2,0.6,29.440487312132454,-15.13500648741528,37.90347537662265,6,S01
2220,0.1,-0.07,10.145759109311742,-4.2,-1.2,0.6,28.9078575484395,-16.45062379090265,37.960312644264775,6,S01
2240,0.1,-0.07,10.145759109311742,-4.2,-1.2,0.6,28.512331277833407,-16.952062572908794,38.3720946101594,6,S01
2260,0.1,-0.07,10.145759109311742,-4.2,-1.2,0.6,29.341305992961125,-15.963267304773563,37.592051727320474,6,S01
2280,0.1,-0.07,10.145759109311742,-4.2,-1.2,0.6,30.147999217096412,-16.133273308075875,37.50988497703093,6,S01
2300,0.1,-0.07,10.145759109311742,-4.2,-1.2,0.6,28.30463827802338,-17.338705954348665,38.80254699871755,6,S01
2320,0.1,-0.07,10.145759109311742,-4.2,-1.2,0.6,29.058015599085632,-15.9018525314089,38.061049146391476,6,S01
2340,0.1,-0.07,10.145759109311742,-4.2,-1.2,0.6,29.27919339804278,-16.351220317034524,38.07220181412893,6,S01
2360,0.1,-0.07,10.145759109311742,-4.2,-1.2,0.6,29.509927228074147,-17.289181424637803,37.76734737072693,6,S01
2380,0.1,-0.07,10.145759109311742,-4.2,-1.2,0.6,29.444422563333276,-17.09415549433919,38.740774324936645,6,S01
2400,0.1,-0.07,10.145759109311742,-4.2,-1.2,0.6,28.563948341813703,-16.24329809467318,38.008067991115155,6,S01
2420,0.1,-0.07,10.145759109311742,-4.2,-1.2,0.6,29.10544552591748,-15.645635830924295,37.80973269665326,6,S01
2440,0.1,-0.07,10.145759109311742,-4.2,-1.2,0.6,29.36603954489637,-16.584085572777497,38.136363023690265,6,S01
2460,0.1,-0.07,10.145759109311742,-4.2,-1.2,0.6,29.77627607760589,-16.78141122130985,37.92589495737588,6,S01
2480,0.1,-0.07,10.145759109311742,-4.2,-1.2,0.6,29.47490034451749,-16.399230178033804,38.381815459813346,6,S01
2500,0.1,-0.07,10.145759109311742,-4.2,-1.2,0.6,28.546024683389717,-16.280183912406095,38.53397001735877,6,S01
2520,0.1,-0.07,10.145759109311742,-4.2,-1.2,0.6,29.146944920387142,-17.026203057657646,37.44630988446105,6,S01
2540,0.1,-0.07,10.145759109311742,-4.2,-1.2,0.6,29.41659078208195,-17.6379389041866,38.32550464274197,6,S01
2560,0.1,-0.07,10.145759109311742,-4.2,-1.2,0.6,29.51106672672419,-16.022230858475623,38.641505034606844,6,S01
2580,0.1,-0.07,10.145759109311742,-4.2,-1.2,0.6,29.42953037003307,-16.735411951289755,38.39706832632163,6,S01
2600,0.1,-0.07,10.145759109311742,-4.2,-1.2,0.6,29.87676187111038,-17.073477078411372,37.278184923550405,6,S01
2620,0.1,-0.07,10.145759109311742,-4.2,-1.2,0.6,28.984201685206575,-17.333400385843703,37.45395010160417,6,S01
2640,0.1,-0.07,10.145759109311742,-4.2,-1.2,0.6,28.126626613639846,-16.69108189164823,37.139759316188574,6,S01
2660,0.1,-0.07,10.145759109311742,-4.2,-1.2,0.6,28.693564186349228,-16.555303001624516,38.45781533069874,6,S01
2680,0.1,-0.07,10.145759109311742,-4.2,-1.2,0.6,29.246818945143303,-17.193921045756188,39.31796084072775,6,S01
2700,0.1,-0.07,10.145759109311742,-4.2,-1.2,0.6,29.801310940022688,-17.0166591143736,37.28282027504371,6,S01
2720,0.1,-0.07,10.145759109311742,-4.2,-1.2,0.6,29.97049576245887,-17.587008952613353,37.944860861885104,6,S01
2740,0.1,-0.07,10.145759109311742,-4.2,-1.2,0.6,29.036088256146375,-16.584013950529734,37.50278373867866,6,S01
2760,0.1,-0.07,10.145759109311742,-4.2,-1.2,0.6,28.805172765483604,-16.329935638100885,38.016908013330244,6,S01
2780,0.1,-0.07,10.145759109311742,-4.2,-1.2,0.6,29.499380822724042,-16.53908245152236,38.30853943149139,6,S01
2800,0.1,-0.07,10.145759109311742,-4.2,-1.2,0.6,30.00639479548477,-17.950714868172348,38.44128165650921,6,S01
2820,0.1,-0.07,10.145759109311742,-4.2,-1.2,0.6,30.002303566379773,-17.027323110612635,37.35685550271888,6,S01
2840,0.1,-0.07,10.145759109311742,-4.2,-1.2,0.6,29.32682233264835,-15.112670166611016,37.68287498787874,6,S01
2860,0.1,-0.07,10.145759109311742,-4.2,-1.2,0.6,29.71430312521416,-16.991104281540956,38.308999072495766,6,S01
2880,0.1,-0.07,10.145759109311742,-4.2,-1.2,0.6,29.075102694505357,-16.84830804437187,38.23753769870507,6,S01
2900,0.1,-0.07,10.145759109311742,-4.2,-1.2,0.6,29.84641449077963,-17.039013819508583,36.89743251917724,6,S01
2920,0.1,-0.07,10.145759109311742,-4.2,-1.2,0.6,28.831323602302355,-15.837434214125272,38.72378946967855,6,S01
2940,0.1,-0.07,10.145759109311742,-4.2,-1.2,0.6,28.6011596737998,-15.907770825489173,38.41045867051196,6,S01
2960,0.1,-0.07,10.145759109311742,-4.2,-1.2,0.6,29.64952065851134,-15.595732697662946,37.79997088086895,6,S01
2980,0.1,-0.07,10.145759109311742,-4.2,-1.2,0.6,29.08376178678691,-16.839651575793553,38.618144216193954,6,S01
3000,2.112072434607646,3.8982539682539685,8.62754048582996,145.8,78.8,0.6,29.64841278063609,-16.41153111937232,37.8254100829902,6,S01
3020,2.0139425040255814,3.7426565045727114,8.7159546554895,137.06468003763732,74.89835396005712,0.6,30.44082095311094,-15.743066934506736,37.65854487831033,6,S01
3040,1.9205984266317093,3.5931601047088724,8.799219984741159,128.83806550757365,71.18699344287676,0.6,28.73166653073164,-16.125004942407095,36.96637382189213,6,S01
3060,1.8318067936117863,3.449525542528403,8.877636318707584,121.0905317116908,67.65663811400462,0.6,30.262759426376178,-15.574949122965485,37.93855348974969,6,S01
3080,1.7473455796337662,3.3115229720881403,8.95148604089086,113.79417915998302,64.29846024623855,0.6,30.01895090145155,-16.580800374264456,37.95413102816099,6,S01
3100,1.6670035876688227,3.1789315598332615,9.02103509005812,106.92273310225768,61.10406264571239,0.6,29.928444099029793,-16.301737389860023,36.46248145524161,6,S01
3120,1.5905799208887685,3.051539131216482,9.086533917908353,100.45144891065465,58.065457654537425,0.6,29.159695283987137,-17.86434082610006,38.17268239634158,6,S01
3140,1.517883480319343,2.929141831173514,9.148218390969044,94.3570229722585,55.17504717749707,0.6,30.148208765823423,-16.973683202951587,38.07199688697948,6,S01
3160,1.448732486993238,2.811543797911472,9.206310639970434,88.61750877092112,52.42560368285115,0.6,28.749063671538615,-16.569765075992606,37.36089475397733,6,S01
3180,1.3829540274079948,2.6985568494882184,9.261019859756088,83.21223785609844,49.81025212974186,0.6,28.83797200101473,-16.529779527647214,38.495484777712626,6,S01
3200,1.32038362115218,2.5900001826811088,9.312543062610285,78.12174541410397,47.32245277701067,0.6,29.51319077407437,-16.082492668252208,37.86377130733373,6,S01
3220,1.2608648096186854,2.48570008366326,9.361065787715033,73.32770017375488,44.95598483043893,0.6,29.062216838061815,-15.487088733302464,38.19279243295617,6,S01
3240,1.2042487647767133,2.3854896500243687,9.406762769291541,68.81283839399575,42.70493088752212,0.6,29.426171197637323,-15.821489964048887,37.42344180441586,6,S01
3260,1.1503939170241773,2.2892085236912476,9.449798565832152,64.56090169578353,40.56366214088128,0.6,29.31553327896873,-16.814135552598337,37.48076212974235,6,S01
3280,1.0991656011899589,2.196702634320694,9.490328152688644,60.55657851436196,38.52682430331276,0.6,29.5995775796177,-17.245240090345085,38.0650494720084,6,S01
3300,1.0504357198008345,2.1078239527540736,9.528497480150913,56.78544896108986,36.589324219281174,0.6,28.97015823183604,-15.740139347717017,37.74723908666119,6,S01
3320,1.0040824227710696,2.0224302541390817,9.56444399902564,53.23393289626681,34.74631712937772,0.6,30.37516682976015,-16.159166678932294,37.6789569834717,6,S01
3340,0.9599898027137358,1.9403848903396408,9.598297155607675,49.889241025961745,32.993194555898135,0.6,28.69766646332449,-16.06843437028929,36.99567603890346,6,S01
3360,0.9180476051118694,1.8615565712697288,9.63017885782651,46.73932884674086,31.32557277924793,0.6,28.765618135667516,-17.18795471524931,38.77956844584076,6,S01
3380,0.878150952624751,1.785819154801227,9.660203914246502,43.77285327244559,29.7392818763601,0.6,29.46095637103226,-16.339583913414693,38.39239977553869,6,S01
3400,0.8402000828399242,1.7130514449096093,9.688480447501718,40.979131786830315,28.230355293715387,0.6,29.70004718924809,-16.831148945513284,37.77922751726668,6,S01
3420,0.8041000988152018,1.6431369977344432,9.715110283654194,38.348103974965554,26.795019928892426,0.6,29.280783144480413,-16.53423078765647,38.45211607651337,6,S01
3440,0.7697607317868803,1.5759639352443704,9.740189318877759,35.87029529487755,25.429686695846364,0.6,29.251698425208627,-17.318025946811073,37.49552918056958,6,S01
3460,0.7370961154508114,1.5114247662083893,9.763807864787818,33.53678295896347,24.130941550324263,0.6,29.6562544636393,-16.935972871156025,37.81553395955076,6,S01
3480,0.7060245712519158,1.4494162141869527,9.786050973660748,31.339163802318264,22.895536952976173,0.6,29.438296413930896,-15.733907597944912,37.77094384689645,6,S01
3500,0.6764684041452517,1.3898390522676283,9.806998744713923,29.269524022264473,21.72038374881521,0.6,28.65342686160744,-15.995157291620158,37.885575870368854,6,S01
3520,0.6483537083179327,1.3325979442808735,9.826726612549447,27.32041068011471,20.602543442721007,0.6,29.347834359860155,-16.087276833033904,38.17118055782492,6,S01
3540,0.6216101823860996,1.2776012922418218,9.845305618800179,25.484804862542198,19.53922085167132,0.6,28.94358167124803,-17.103898016354798,38.03588667749496,6,S01
3560,0.5961709536048421,1.224761089773966,9.86280266795636,23.756096405911496,18.52775711532852,0.6,30.272097487675172,-15.616080680760883,39.12781177805519,6,S01
3580,0.5719724106515044,1.1739927812801798,9.879280768294032,22.12806009254953,17.565623047503813,0.6,28.678783376705063,-16.52933172355057,37.885505933335146,6,S01
3600,0.5489540445642451,1.1252151266357227,9.894799258772895,20.59483323323798,16.650412811874386,0.6,29.82668688186693,-16.404065606832454,37.76856581617899,6,S01
3620,0.5270582974381148,1.0783500711867087,9.909414022720652,19.150894555199596,15.779837906139445,0.6,29.241884420279305,-16.634795849001073,37.73502484984881,6,S01
3640,0.5062304185003127,1.0333226208460085,9.923177689073356,17.791044319552523,14.951721439572431,0.6,30.146335265136944,-16.645367945342777,37.865980056270374,6,S01
3660,0.48641832720473666,0.9900607220867077,9.936139821896418,16.510385596633924,14.163992689660331,0.6,29.913072735334016,-16.355696601645377,38.78436642863755,6,S01
3680,0.4675724830034903,0.9484951466410947,9.948347098868787,15.304306631763886,13.414681924218774,0.6,28.060005752778757,-16.418266282984362,38.13557030643624,6,S01
3700,0.4496457614697086,0.9085593807206607,9.959843479373003,14.168464237947287,12.701915476035612,0.6,29.45291505662057,-16.62633597858091,37.61717325300566,6,S01
3720,0.43259333646194476,0.8701895185798483,9.970670362796463,13.09876815570938,12.023911057726924,0.6,28.872006400714216,-17.008453745844758,37.910358183758,6,S01
3740,0.41637256803546807,0.8333241602532251,9.980866737613932,12.091366323743696,11.37897330509021,0.6,29.310512539524076,-16.13338746727085,37.77453485960366,6,S01
3760,0.40094289582019127,0.7979043133024395,9.990469321788153,11.142631007330621,10.765489537810806,0.6,30.116722589771246,-17.231313405770592,38.204958911735424,6,S01
3780,0.38626573759861893,0.763873298415733,9.99951269499419,10.249145734573954,10.181925726921088,0.6,29.88344699593914,-16.252012756719598,37.64801359052742,6,S01
3800,-0.07126121979086589,6.634718865338283,7.076538992122343,-4.2,-1.2,0.6,29.237641322874218,-16.72154750501313,38.3612696311345,6,S01
3820,0.2567830684952507,6.572017466628519,7.088221056315405,-4.2,-1.2,0.6,28.747976015502026,-16.345234605164173,38.420609681114534,6,S01
3840,0.11703658998611635,6.894532697524976,6.947028233285257,-4.2,-1.2,0.6,29.657327301005335,-16.29346538882365,38.44045075735403,6,S01
3860,0.35854815309416554,6.84318712366655,6.9531893493369905,-4.2,-1.2,0.6,28.61173589455403,-15.975692814248063,37.95586661905461,6,S01
3880,0.22199834303274152,7.038399968317708,7.2588151260472324,-4.2,-1.2,0.6,29.39188087888651,-16.936828030551183,37.661552545723865,6,S01
3900,0.3846921948343014,6.852296332800581,7.217469570346452,-4.2,-1.2,0.6,30.313592587089307,-16.63207875026165,37.64858751292024,6,S01
3920,-0.044150442100882925,6.851566876240703,7.197378675947588,-4.2,-1.2,0.6,28.926261314254372,-16.8408497736023,38.259534294153596,6,S01
3940,-0.0038130626727460037,6.614867270752733,7.23214287785385,-4.2,-1.2,0.6,29.263536034414,-16.692673594850728,38.22592526370531,6,S01
3960,0.29743850960283946,6.660847602138794,7.277206603596302,-4.2,-1.2,0.6,29.544492417979967,-17.139083232430025,38.15239607419981,6,S01
3980,0.05823703407591122,7.074164580171956,6.883727341117888,-4.2,-1.2,0.6,29.930002444296505,-16.764336393498006,37.27602829165298,6,S01
4000,0.1691847241353927,6.812256885697575,6.849809951816899,-4.2,-1.2,0.6,29.87500212364634,-16.19703911238411,37.3244539608215,6,S01
4020,0.33464319594110714,6.704424293152317,7.213986473084546,-4.2,-1.2,0.6,29.907179876286637,-16.148622076632083,38.984347490065154,6,S01
4040,0.24691943632103105,6.788542130329021,7.462199915289844,-4.2,-1.2,0.6,29.944409095414425,-15.282604404277707,37.36016810266308,6,S01
4060,0.016048496425922223,6.614410956004154,6.965514499156737,-4.2,-1.2,0.6,29.137328609048424,-16.505664680356006,37.612898255324986,6,S01
4080,0.4108670467779323,6.849997420584826,7.242351991446214,-4.2,-1.2,0.6,29.213252846854086,-17.64334330716335,38.27080869024536,6,S01
4100,0.1549743430172695,6.86255061338344,7.117038748468299,-4.2,-1.2,0.6,28.952555288297862,-17.188583503836462,38.14043875465612,6,S01
4120,0.08112277510478276,6.676406134462675,7.134662428794006,-4.2,-1.2,0.6,29.704848349133535,-17.47173767102634,37.07710424766402,6,S01
4140,0.19586423034339473,6.591675603687959,7.395979007524833,-4.2,-1.2,0.6,29.277904672829575,-15.71444591722995,38.224780900997914,6,S01
4160,-0.08914710395663641,6.433730994372443,7.337246832107855,-4.2,-1.2,0.6,30.123236580108212,-17.18518533770537,37.52445562107228,6,S01
4180,0.43918951316243193,6.842691751489927,7.302151797728114,-4.2,-1.2,0.6,28.876885819542974,-16.695872452466517,37.02253620539588,6,S01
4200,-0.1318755687033189,6.721791654404475,7.4519903346070855,-4.2,-1.2,0.6,29.294961775990643,-15.762227917358036,38.42190336261555,6,S01
4220,0.02346746075565935,6.726590467687449,7.153600440349478,-4.2,-1.2,0.6,29.36072001280197,-16.01203732028828,37.083206114098196,6,S01
4240,0.3757399066522221,7.176883254453766,7.186272186499817,-4.2,-1.2,0.6,29.281744461757665,-15.22034544471563,37.70778291508343,6,S01
4260,0.6218660850882886,6.430519659444353,6.914078005158986,-4.2,-1.2,0.6,29.01482093755087,-16.231367853686862,38.08555829255869,6,S01
4280,0.30455806417623565,6.517405644429846,7.40363973621626,-4.2,-1.2,0.6,29.84171684122024,-16.605877265304528,37.755017075610475,6,S01
4300,0.15194302610692573,6.898361395848061,7.0697554394533,-4.2,-1.2,0.6,29.139362678024828,-17.332368613796874,37.39636711836764,6,S01
4320,-0.13195687348522972,6.878298563244791,7.068217379251643,-4.2,-1.2,0.6,29.127191015360843,-16.701371009292018,37.419857309240776,6,S01
4340,0.1425027787558457,7.166524154416714,6.955302871554301,-4.2,-1.2,0.6,29.07920123806975,-16.51869937986954,37.42735856810915,6,S01
4360,0.36375044959388325,6.910238261413198,6.891709961349474,-4.2,-1.2,0.6,29.382865407453824,-16.451475621804565,37.868340162950986,6,S01
4380,0.35505547142596683,7.221181471233001,7.136274218311507,-4.2,-1.2,0.6,29.12182507642387,-16.07057358383629,39.02639920080591,6,S01
4400,0.2230804292865132,6.456466487143326,7.051059267941611,-4.2,-1.2,0.6,29.098085194664932,-16.583672350509985,38.04435163909546,6,S01
4420,0.05092409802638613,6.779715370499978,7.011404299067799,-4.2,-1.2,0.6,30.343430652648028,-16.04995479337573,39.07603177476405,6,S01
4440,0.08180870776404542,7.060101515292697,7.02497031058793,-4.2,-1.2,0.6,29.35404057889082,-16.31655046384761,38.25440716988353,6,S01
4460,-0.12405647199273068,6.943461212198952,7.137848880702669,-4.2,-1.2,0.6,29.5511663300977,-17.230475773162063,38.46058787550845,6,S01
4480,0.4158222942409491,7.175115335789608,7.069913597392709,-4.2,-1.2,0.6,29.166647742989774,-16.68306890702935,37.302361974058776,6,S01
4500,0.2126516191745022,6.540807580835006,7.508149267835849,-4.2,-1.2,0.6,29.65072287224853,-16.752016839969713,37.948647459818446,6,S01
4520,0.23472565621547611,6.771794665352823,7.280216813110963,-4.2,-1.2,0.6,28.878987369771345,-16.171120160300383,37.7399242537784,6,S01
4540,0.039433153681786945,6.957330713472563,7.3630471052635444,-4.2,-1.2,0.6,28.90074625174986,-17.146595759510014,37.74433143263005,6,S01
4560,-0.07734094123313082,6.577069351586783,7.357349683887723,-4.2,-1.2,0.6,29.76301804205683,-16.348477368950697,37.33579189858729,6,S01
4580,-0.012350949335194678,6.487708589073132,6.9027603249333875,-4.2,-1.2,0.6,30.099355499852706,-15.550513597664066,37.437952172453834,6,S01
4600,0.28851494985046344,6.6612677681402825,7.3723968725168865,-4.2,-1.2,0.6,28.738400411014766,-15.895244359216688,37.62737816876758,6,S01
4620,0.30767950959225404,6.4727158654692225,7.122146784508734,-4.2,-1.2,0.6,29.780557807491558,-16.443321791459255,37.724553308579544,6,S01
4640,0.512243863793897,6.605033787976363,6.795178803850403,-4.2,-1.2,0.6,29.088567472571214,-16.28878955581984,38.09741494572473,6,S01
4660,0.27095709918563116,6.539783300424365,6.756089493545686,-4.2,-1.2,0.6,28.883238550090713,-17.400852769376044,36.689053192982605,6,S01
4680,-0.05896476577916379,6.643814966795767,7.175244591624142,-4.2,-1.2,0.6,29.663975306918353,-15.71760562912372,37.673050410853236,6,S01
4700,0.5866662906059599,6.605838150945088,7.360710579218034,-4.2,-1.2,0.6,29.76925660488415,-16.720784361699167,38.12645528106613,6,S01
4720,0.05690828984233246,6.38320915251634,7.323477809126399,-4.2,-1.2,0.6,29.411037090964367,-16.32422412586923,37.899326363053035,6,S01
4740,0.06476526864317769,6.390229922665018,7.302214933520283,-4.2,-1.2,0.6,29.587379720104657,-16.02726453293143,38.282130211718986,6,S01
4760,-0.3572185205597599,6.531517425669297,7.177228517323231,-4.2,-1.2,0.6,29.014405008894375,-15.76583706674755,37.9411362292608,6,S01
4780,0.3347916352700976,6.746860743347624,6.9721485800054745,-4.2,-1.2,0.6,28.764871591465177,-16.585812365982868,37.69519106737108,6,S01
4800,0.0996995750306296,6.728186217688364,7.20536478708601,-4.2,-1.2,0.6,29.14752892230819,-16.975467072221498,38.21815744573509,6,S01
4820,0.11802828389032628,6.731202800948634,7.174315347009329,-4.2,-1.2,0.6,28.78806790508023,-16.14317599929248,37.32161984673526,6,S01
4840,0.08071021583275646,6.75268158517432,7.176622874231633,-4.2,-1.2,0.6,29.06554188342799,-16.25179330922025,38.380610684196306,6,S01
4860,0.10412330287119514,6.742491578190049,7.153021348168822,-4.2,-1.2,0.6,29.502066647694786,-16.381670263805542,37.93634594906416,6,S01
4880,0.10477450508509241,6.743509667019226,7.216920698813593,-4.2,-1.2,0.6,29.59209708496397,-16.24581435035913,37.97479856896211,6,S01
4900,0.08744164830633644,6.759014419566478,7.166485433366746,-4.2,-1.2,0.6,29.143982313343955,-16.63155833858366,37.99080523155572,6,S01
4920,0.0923872987403366,6.749272261555178,7.159563647345053,-4.2,-1.2,0.6,28.72771520119925,-16.536480234712567,38.65560725639822,6,S01
4940,0.13226678663519398,6.753131784808806,7.142216508351413,-4.2,-1.2,0.6,29.209256505179383,-16.502800889854836,37.499070697934755,6,S01
4960,0.14918975192611256,6.775811104585984,7.176820139531478,-4.2,-1.2,0.6,29.615782379238503,-16.44158808536926,38.36899094348523,6,S01
4980,0.0931259726952312,6.738440686181,7.150388083957935,-4.2,-1.2,0.6,29.526808069026345,-16.48688173097527,38.46539636054786,6,S01
5000,0.14119508818030002,6.753833773364559,7.190612419696178,-4.2,-1.2,0.6,29.120906204191645,-16.71946204708493,37.09916383396426,6,S01
5020,0.06708879479923575,6.675917177769667,7.168864996527031,-4.2,-1.2,0.6,29.39137954744132,-16.78752462758851,37.56540777634473,6,S01
5040,0.07449798384844239,6.751535740981449,7.172078517517979,-4.2,-1.2,0.6,28.290726265866773,-16.671685291094185,37.69758299676054,6,S01
5060,0.08462436103331429,6.730707894276906,7.161659731657526,-4.2,-1.2,0.6,29.81448653161717,-16.43976051270282,37.88838568804038,6,S01
5080,0.07898430858344227,6.764369662362871,7.220952790529488,-4.2,-1.2,0.6,29.200134790469274,-16.40943775988869,37.854553920669154,6,S01
5100,0.09270657926443757,6.726945119073576,7.170476546446181,-4.2,-1.2,0.6,30.477283931730025,-15.936343070628315,37.40264826203655,6,S01
5120,0.10356459431329287,6.733874073820755,7.184900147413117,-4.2,-1.2,0.6,28.653215415621847,-16.727325474217977,38.071717943270585,6,S01
5140,0.1385408537950074,6.758976706213685,7.157900111575809,-4.2,-1.2,0.6,28.621728244910194,-16.30620050349937,37.58123350673478,6,S01
5160,0.1037302730008357,6.762949023181623,7.157101626436031,-4.2,-1.2,0.6,28.696132094964526,-16.45910692211646,37.96570644555616,6,S01
5180,0.09210793449928294,6.706672759903547,7.176573580974205,-4.2,-1.2,0.6,29.084242146327085,-15.910522135391918,38.03916198644747,6,S01
5200,0.10210503973046314,6.765991710560874,7.149997148271135,-4.2,-1.2,0.6,29.935012383121784,-15.980336510677223,37.38961314492529,6,S01
5220,0.10472010402316694,6.732373211747104,7.198811847899923,-4.2,-1.2,0.6,29.55673413002438,-16.409010477018377,37.471801723201615,6,S01
5240,0.14394506453591865,6.734073662994047,7.163249365647691,-4.2,-1.2,0.6,30.060807283008334,-16.647039168368785,37.210016767869455,6,S01
5260,0.13304922712790584,6.73132943651102,7.163692571278002,-4.2,-1.2,0.6,28.85949223572293,-16.970657351156444,37.91281999400187,6,S01
5280,0.12440094046679427,6.758898140349943,7.17277668385052,-4.2,-1.2,0.6,29.608062172592696,-16.847560854322232,38.01549091912518,6,S01
5300,0.09552021904125364,6.729451574077897,7.12884680428639,-4.2,-1.2,0.6,29.480902230149436,-17.23374601901866,37.75358138211907,6,S01
5320,0.120112767106985,6.70882226160747,7.14266146523209,-4.2,-1.2,0.6,28.947919728747262,-16.986927702240784,38.744907110498005,6,S01
5340,0.08535134108223535,6.735645501289094,7.169124515135889,-4.2,-1.2,0.6,29.410272575341214,-16.774518264947275,38.62395143965369,6,S01
5360,0.09856275129793715,6.7624247298586075,7.1686960497150976,-4.2,-1.2,0.6,29.55969303776849,-16.567340931024376,37.61704135252996,6,S01
5380,0.11742417412441188,6.7521011977454055,7.158398238848292,-4.2,-1.2,0.6,29.610905003581994,-16.923508585814744,38.31848158261918,6,S01
5400,0.10088314755316675,6.7599918892613795,7.217855210186447,-4.2,-1.2,0.6,28.738863617935248,-16.25060817220112,37.64844585397849,6,S01
5420,0.15796868847834936,6.713064275912933,7.186814678567493,-4.2,-1.2,0.6,29.336563620974587,-16.966283077925524,37.774690367986345,6,S01
5440,0.11463414984326888,6.706426543259508,7.161813303527054,-4.2,-1.2,0.6,28.910085659651877,-15.850075419366618,37.835772014538456,6,S01
5460,0.08185342592503894,6.7315041508587266,7.1519477679915315,-4.2,-1.2,0.6,29.99185638369934,-15.80507487756698,37.28908158409063,6,S01
5480,0.08773093394336784,6.732928450260281,7.185523738782539,-4.2,-1.2,0.6,29.62347091232715,-16.158599882792103,37.33560754178453,6,S01
5500,0.09431837797361443,6.734144349430116,7.182254188657014,-4.2,-1.2,0.6,29.642375843111175,-16.36714721980504,38.79080573940867,6,S01
5520,0.1355530264370128,6.707691613434593,7.191195693363616,-4.2,-1.2,0.6,29.031137068750816,-16.31868694629718,37.51742427075715,6,S01
5540,0.05622736674705579,6.722302781237964,7.1728966274610775,-4.2,-1.2,0.6,29.449224692102543,-17.469947802086175,38.90516715398447,6,S01
5560,0.11708792340925399,6.766899028900832,7.17235953321569,-4.2,-1.2,0.6,28.852841058835036,-16.5318206728764,38.00757753899687,6,S01
5580,0.0917607192060417,6.728476018534843,7.164516550654139,-4.2,-1.2,0.6,28.447187152690066,-15.85475239514621,38.5136161971777,6,S01
5600,0.11858581525856346,6.73363419961651,7.21139561965161,-4.2,-1.2,0.6,29.30349400264604,-16.845505092378378,38.21588896915454,6,S01
5620,0.10265612205988477,6.729858917218777,7.15837099999337,-4.2,-1.2,0.6,30.066989067975772,-15.528087111238827,37.54489836997659,6,S01
5640,0.07993561019149327,6.764871027961501,7.1591979949245195,-4.2,-1.2,0.6,28.82903283662046,-16.742991850156322,37.140433384934454,6,S01
5660,0.09555486939732465,6.740633601813451,7.135986831934544,-4.2,-1.2,0.6,29.095074633370736,-17.011674029468708,37.66475143788538,6,S01
5680,0.08867342198084348,6.749420986332714,7.135423616707838,-4.2,-1.2,0.6,28.92317067439108,-16.668623784714338,38.90851197124376,6,S01
5700,0.12839864488666392,6.749229149305713,7.168311290851921,-4.2,-1.2,0.6,29.25105263779181,-16.111660622337393,38.150360426718606,6,S01
5720,0.1436715750358782,6.745922630005565,7.169240216924063,-4.2,-1.2,0.6,30.654058669552146,-16.74326492026576,36.95344515261979,6,S01
5740,0.08467114681016738,6.758490617606947,7.184424215937226,-4.2,-1.2,0.6,29.4772592214237,-16.68531396422027,37.68251593802376,6,S01
5760,0.09156499800082908,6.7275128382274865,7.136354122487139,-4.2,-1.2,0.6,29.21806682344684,-16.874819551729416,38.376566997618184,6,S01
5780,0.12072440599684528,6.717062841180105,7.151166215619036,-4.2,-1.2,0.6,30.078761642758934,-16.942563292449634,37.629660293674064,6,S01
5800,0.056545203819140265,6.72660600416798,7.152165258792935,-4.2,-1.2,0.6,28.935832592565728,-17.233114577711564,37.87956746350408,6,S01
5820,0.07733252867734476,6.811951505817824,7.149013683982233,-4.2,-1.2,0.6,29.882234463919374,-17.230772421911674,37.499578996792835,6,S01
5840,0.08571882213283938,6.724091941873541,7.161693325829673,-4.2,-1.2,0.6,29.389830768856896,-15.666678694956298,37.48694512509224,6,S01
5860,0.08683866858662317,6.704657364088795,7.1693144502116875,-4.2,-1.2,0.6,29.53919892181958,-16.616823881583848,38.142612407524,6,S01
5880,0.0653776785889133,6.7410050580422505,7.175893005507846,-4.2,-1.2,0.6,29.271435962264224,-16.092748683014136,37.754715895191175,6,S01
5900,0.065478547362573,6.726884441608581,7.1899443796620846,-4.2,-1.2,0.6,29.870886915710415,-16.37010310300829,38.27094090196612,6,S01
5920,0.11535674251075335,6.742639232982291,7.194499726411058,-4.2,-1.2,0.6,29.015650319977176,-16.627548099111394,37.93095660057928,6,S01
5940,0.09427372077023996,6.741864751027686,7.1684081918072815,-4.2,-1.2,0.6,29.437085932223507,-15.273066019580869,38.03392226892636,6,S01
5960,0.11375432400344629,6.721150383249922,7.151690771890792,-4.2,-1.2,0.6,30.08046145408145,-16.96368976418792,37.79777655527402,6,S01
5980,0.11812860221289125,6.755713323072237,7.189136667693432,-4.2,-1.2,0.6,29.65173288113542,-17.414078637594677,37.440001611044295,6,S01
6000,0.08753509834148752,6.755829189822501,7.166034120889799,-4.2,-1.2,0.6,29.946691365489183,-15.842599642555083,38.33825128217081,6,S01
6020,0.09535078289248176,6.730645445966673,7.153577272711654,-4.2,-1.2,0.6,29.329038543415543,-16.752207636136276,37.58937556238745,6,S01
6040,0.10692205137792987,6.756483288785336,7.19327409785088,-4.2,-1.2,0.6,29.624950992955295,-15.904549791109579,37.4006099481691,6,S01
6060,0.06023019653764315,6.737909956160874,7.221976144604162,-4.2,-1.2,0.6,29.02699308155192,-16.379622683052283,38.123774471380436,6,S01
6080,0.10442793916697318,6.767278762266254,7.140237919331349,-4.2,-1.2,0.6,28.760692475875366,-15.24155442508575,37.989701707111216,6,S01
6100,0.08517378541072128,6.74792171145472,7.167587770710352,-4.2,-1.2,0.6,29.346891461558116,-16.644739248913048,37.57648669859551,6,S01
6120,0.12457294620184034,6.747537097651762,7.177238513402169,-4.2,-1.2,0.6,29.21070225525553,-16.33458268112657,36.91185461905742,6,S01
6140,0.10447147846845861,6.717134303400365,7.1606711369669,-4.2,-1.2,0.6,29.474146755172363,-16.411177745511154,38.03087128214079,6,S01
6160,0.0723330511538416,6.779019269277318,7.1752233358379645,-4.2,-1.2,0.6,29.304944517722657,-15.5923723039883,37.72671453340886,6,S01
6180,0.0989881293908393,6.750273277761454,7.214368661071535,-4.2,-1.2,0.6,28.462404966665076,-16.606301857160176,37.21440538180895,6,S01
6200,0.09120117031810732,6.7738297501826175,7.154248257195032,-4.2,-1.2,0.6,30.107338347400564,-16.431557727622433,37.239560031355545,6,S01
6220,0.1196675861762069,6.752966800366037,7.165704871951534,-4.2,-1.2,0.6,28.56274023153694,-15.692171156110662,37.755116235836134,6,S01
6240,0.11484933963247726,6.743821763388742,7.176440425929983,-4.2,-1.2,0.6,28.820946378181805,-16.150073698876206,37.64427340153433,6,S01
6260,0.09943398831090111,6.732052159598843,7.168628882470007,-4.2,-1.2,0.6,29.38814986290877,-16.571363769524623,37.77352156956696,6,S01
6280,0.09532315662853066,6.757077949294106,7.186809067140461,-4.2,-1.2,0.6,29.59485187859466,-16.718164967242068,38.22079281813366,6,S01
6300,0.09196633933730433,6.764449473692417,7.158244256997941,-4.2,-1.2,0.6,29.46371475137009,-16.836616365445817,37.81825701040925,6,S01
6320,0.07540452668070467,6.718873925928204,7.181289806327951,-4.2,-1.2,0.6,29.000442966374322,-16.602999222726318,37.49302014159859,6,S01
6340,0.09623834014432787,6.770149822451561,7.154418759672906,-4.2,-1.2,0.6,29.09752522826723,-16.34728258016223,39.474764431325575,6,S01
6360,0.06877015918691452,6.739521404364461,7.156294787356066,-4.2,-1.2,0.6,28.798783119202554,-15.929905931802013,38.48037025059542,6,S01
6380,0.09818063844220164,6.713449881491592,7.193708387349239,-4.2,-1.2,0.6,29.534500155513626,-16.36823967543871,38.087353807233306,6,S01
6400,0.124426423963201,6.744739917077859,7.201724724506111,-4.2,-1.2,0.6,29.24854131194057,-16.511322633399374,37.830803862229246,6,S01
6420,0.07109074865417685,6.76298443415705,7.162401489222338,-4.2,-1.2,0.6,29.382458975408888,-17.285136172227936,37.29319730764193,6,S01
6440,0.09184737893710344,6.73607160424539,7.167308543890044,-4.2,-1.2,0.6,29.22601622830384,-16.198316626466728,38.10105355776232,6,S01
6460,0.11381684763679593,6.732782583873731,7.14903014703409,-4.2,-1.2,0.6,28.905584757890527,-16.10383118230652,38.03505837487839,6,S01
6480,0.0914578265289118,6.773992345227725,7.2205674385422665,-4.2,-1.2,0.6,28.82703877512871,-15.914668268629772,38.642943657382105,6,S01
6500,0.0641224563811233,6.715474417866452,7.164716010353832,-4.2,-1.2,0.6,29.87657283511959,-16.184620986344854,37.95173149792713,6,S01
6520,0.1284781330023635,6.7237561685020255,7.17514595483693,-4.2,-1.2,0.6,30.534205388604146,-16.37140117370541,37.5770988498486,6,S01
6540,0.10589854547971594,6.726520472254609,7.1875989650295615,-4.2,-1.2,0.6,29.915913164611716,-16.7945420409404,37.13406407877502,6,S01
6560,0.11219026636984603,6.71576240496925,7.164751583335564,-4.2,-1.2,0.6,29.369473582699328,-15.974337067001693,37.7967438189744,6,S01
6580,0.109370478016092,6.7526233602351,7.1404338908169205,-4.2,-1.2,0.6,29.94482355839573,-16.766444943221053,37.06689851507771,6,S01
6600,0.09488291146056832,6.75374843991373,7.191911650305466,-4.2,-1.2,0.6,29.816635622779266,-16.79307398306695,37.88530495767433,6,S01
6620,0.07563499871054156,6.755933430448807,7.143453657264938,-4.2,-1.2,0.6,29.39506725528946,-15.552544283309054,37.39746500755458,6,S01
6640,0.12126198640231874,6.746048471712748,7.1974702597137545,-4.2,-1.2,0.6,30.051997337987103,-16.763518494828688,37.743811167741924,6,S01
6660,0.08749417489975495,6.757940824796614,7.17354486954102,-4.2,-1.2,0.6,29.6466211531843,-15.90203308051893,37.68542159160591,6,S01
6680,0.07138256110994323,6.704675951474229,7.17632267402962,-4.2,-1.2,0.6,29.35567994751479,-15.663132263185721,38.170587906631916,6,S01
6700,0.09952654318719484,6.718766084994228,7.1583078850781465,-4.2,-1.2,0.6,28.60042853125225,-16.997647863781637,37.599984313929596,6,S01
6720,0.08525930560282012,6.754634792851998,7.132420717383983,-4.2,-1.2,0.6,29.36179937783908,-17.041447862629788,38.38060855603309,6,S01
6740,0.12086649355326123,6.76533275976805,7.164001946943454,-4.2,-1.2,0.6,29.828545865256977,-16.678933899441393,37.95435554039326,6,S01
6760,0.09031683600219904,6.744787118107073,7.158801847082801,-4.2,-1.2,0.6,29.2905681103107,-15.853292305525073,38.20524128717839,6,S01
6780,0.09190598500772522,6.741067393587846,7.124317794405869,-4.2,-1.2,0.6,28.76753815526808,-16.447707645608038,37.57635725019396,6,S01
6800,0.11489869006785436,6.773810504831418,7.176008985536097,-4.2,-1.2,0.6,28.993845537471287,-17.27208083533486,37.5664173224181,6,S01
6820,0.11923778498471699,6.741597304118612,7.1521276140572665,-4.2,-1.2,0.6,29.71526421683079,-15.927637101938904,38.30049871814532,6,S01
6840,0.0999448743402235,6.751771632189628,7.209170000601105,-4.2,-1.2,0.6,28.566137221987066,-16.30177564180172,37.62242853766138,6,S01
6860,0.08889814870750175,6.712642493723259,7.193019655962462,-4.2,-1.2,0.6,29.741875593121353,-16.454779083832157,38.7265648387687,6,S01
6880,0.09319130612116308,6.7638383988856425,7.215471192967626,-4.2,-1.2,0.6,28.91427856740568,-16.109507705035714,38.028313547033925,6,S01
6900,0.08345547412480192,6.760625227338896,7.163269379854312,-4.2,-1.2,0.6,29.35978388752712,-16.858027461565534,37.370515644143524,6,S01
6920,0.0942833174586566,6.746874444307169,7.136298978114019,-4.2,-1.2,0.6,28.8983317861169,-16.22395472047537,37.582449117360234,6,S01
6940,0.07504763281315176,6.758600730469259,7.15836977526859,-4.2,-1.2,0.6,28.514801753715382,-16.070537867473103,38.43721689105411,6,S01
6960,0.1277471224501837,6.760045628959669,7.1552484416926445,-4.2,-1.2,0.6,29.811805083574253,-16.162521333315514,37.520237459201894,6,S01
6980,0.09210072121648408,6.743955641782403,7.1722796966025895,-4.2,-1.2,0.6,28.93597158872665,-16.058570974566223,37.67215750542274,6,S01
7000,0.11754188996948968,6.733569067481889,7.14637576559084,-4.2,-1.2,0.6,28.84458695481292,-17.26613026784834,36.90160635451811,6,S01
7020,0.09247086697807372,6.749934472395925,7.158636423324653,-4.2,-1.2,0.6,29.63545016748762,-15.837777856206925,38.06528338068009,6,S01
7040,0.06491624509532523,6.733324595106665,7.145169843431763,-4.2,-1.2,0.6,28.84648494443851,-15.871507127637525,38.10089871166986,6,S01
7060,0.12678371282719067,6.739373028294433,7.193930352051463,-4.2,-1.2,0.6,29.17214051663636,-16.564215544355022,37.49272105277361,6,S01
7080,0.10219641265660268,6.728361590321797,7.203159322585241,-4.2,-1.2,0.6,29.177786286832593,-16.690643056905913,38.217580460925376,6,S01
7100,0.05626630807098297,6.730766074022632,7.1735485255560665,-4.2,-1.2,0.6,29.689469768461127,-16.175655145449248,37.88266194386014,6,S01
7120,0.11430313171119422,6.7401057900797525,7.186788340893573,-4.2,-1.2,0.6,30.156188587349217,-17.284246269718324,37.19863617749722,6,S01
7140,0.1144733002244531,6.766632891089805,7.1775101105166526,-4.2,-1.2,0.6,29.205399724588972,-16.633010504587915,37.51512370342748,6,S01
7160,0.10676133951925096,6.702610872887218,7.177119981365424,-4.2,-1.2,0.6,29.879775274471946,-16.77346300409114,38.87233736719923,6,S01
7180,0.13644384010916255,6.733916926764094,7.167436514289767,-4.2,-1.2,0.6,29.243912744289055,-16.566882450861254,37.67728683572873,6,S01
7200,0.12305703047161978,6.735548293067741,7.163690740853362,-4.2,-1.2,0.6,30.612049262311526,-16.68883793149368,38.21014212239825,6,S01
7220,0.10876187904191766,6.71705427105338,7.171835408391288,-4.2,-1.2,0.6,29.414799781830556,-17.302091446451964,37.78263463503405,6,S01
7240,0.07235626896036773,6.782459313934412,7.180485771357154,-4.2,-1.2,0.6,29.447723903035918,-16.5317850325036,38.13403696014251,6,S01
7260,0.06978141322789021,6.768139493702675,7.1332391297788,-4.2,-1.2,0.6,30.08031146957756,-16.0224591298834,37.65632272118798,6,S01
7280,0.10291418034242063,6.764504211953102,7.176223600532352,-4.2,-1.2,0.6,28.699394091360507,-15.9335460308057,37.14960459843562,6,S01
7300,0.09184156452170888,6.741047359729794,7.169435229348957,-4.2,-1.2,0.6,28.143718782523138,-16.034273731237604,37.69509478195003,6,S01
7320,0.11890116782600511,6.751980464634102,7.170398326443229,-4.2,-1.2,0.6,29.873382682639335,-16.8267750075272,37.901374007491484,6,S01
7340,0.08404654674873081,6.755719100935157,7.153025471837451,-4.2,-1.2,0.6,29.142496952137467,-16.818360104244398,36.7235235665563,6,S01
7360,0.0999515883105869,6.769854111737906,7.1357070201989705,-4.2,-1.2,0.6,29.458112012264444,-16.697700182995767,38.53601232750829,6,S01
7380,0.09545982089032362,6.73649557743843,7.1537937906386215,-4.2,-1.2,0.6,29.054993639421028,-16.83469685685393,37.42469231367015,6,S01
7400,0.06929463731377696,6.740522505409887,7.165232436029277,-4.2,-1.2,0.6,29.06821120269343,-16.360045550442294,38.11644407040763,6,S01
7420,0.10994840786230138,6.724448941135013,7.173496900662082,-4.2,-1.2,0.6,29.768107798350727,-16.184530071668384,38.11158975149359,6,S01
7440,0.10666702637590388,6.751217507774581,7.193576548664873,-4.2,-1.2,0.6,29.662815911601893,-16.139501621549506,38.26744098207954,6,S01
7460,0.07685748152867367,6.756780517272746,7.182059338292634,-4.2,-1.2,0.6,29.058733822925387,-17.629383708146506,37.785707248453704,6,S01
7480,0.09460522764581049,6.7029449088204,7.158765848501201,-4.2,-1.2,0.6,28.661017644001635,-17.50014561501613,37.50167886224655,6,S01
7500,0.11733497789798067,6.736785610040823,7.152175676386493,-4.2,-1.2,0.6,29.81697794948943,-16.926685015419956,37.39481799569518,6,S01
7520,0.0849067247147578,6.74134534511666,7.210751698933154,-4.2,-1.2,0.6,29.41992307666236,-16.59881779075183,37.26486906130567,6,S01
7540,0.13269340449563927,6.790589332946412,7.162407358439525,-4.2,-1.2,0.6,29.4638208164715,-16.52366957413716,37.24689721210231,6,S01
7560,0.08401736525582762,6.7691882892358475,7.1828987598862115,-4.2,-1.2,0.6,29.140062582846102,-16.26211806202798,38.26309419058949,6,S01
7580,0.08404842246519549,6.727010811856943,7.185260117835946,-4.2,-1.2,0.6,29.107441701477033,-16.50452566443602,38.67566556220216,6,S01
7600,0.1407405891079605,6.764984630455945,7.157642599263826,-4.2,-1.2,0.6,29.402155956999316,-16.825078372339156,36.86515449385949,6,S01
7620,0.11677752727475753,6.739596016043553,7.1720482748562615,-4.2,-1.2,0.6,28.627897498273718,-16.466950033118458,38.335601039873566,6,S01
7640,0.12837186969572428,6.750312986061651,7.1667443032897715,-4.2,-1.2,0.6,28.972800849215282,-16.42619897072007,37.81188033925325,6,S01
7660,0.08790797388140417,6.724291562627513,7.153700175778554,-4.2,-1.2,0.6,28.377327851802452,-16.930891395635932,38.18529340239035,6,S01
7680,0.0962092368016337,6.755561135224849,7.173871618871777,-4.2,-1.2,0.6,29.363512340357246,-15.749937529283434,37.554423532212624,6,S01
7700,0.09720220921751788,6.748421869554959,7.197405532474275,-4.2,-1.2,0.6,29.183729993837574,-16.705520695415018,37.94645634011609,6,S01
7720,0.10827201989762222,6.719573749032655,7.166912813405456,-4.2,-1.2,0.6,29.55689671516128,-16.117191925653934,37.72684759538318,6,S01
7740,0.14367342309340045,6.756124147505201,7.16375737846617,-4.2,-1.2,0.6,29.988005180545283,-15.491485638940654,38.38668253194215,6,S01
7760,0.08343861866303937,6.745057897820029,7.171711818318013,-4.2,-1.2,0.6,29.160428890264473,-15.684070162404064,37.57130804274158,6,S01
7780,0.09057485483300708,6.723167813671076,7.157724700393583,-4.2,-1.2,0.6,28.608353064839502,-16.350324552780492,37.60730766675558,6,S01
7800,0.11101635039311643,6.744545151857888,7.142903188431931,-4.2,-1.2,0.6,28.60682875828677,-16.88508496056029,37.18589511632557,6,S01
7820,0.10353424703201247,6.739837901760497,7.168468435918544,-4.2,-1.2,0.6,28.65127433666325,-16.30489671998554,38.36095034395111,6,S01
7840,0.07697224237868532,6.767226243266769,7.15223907183586,-4.2,-1.2,0.6,29.752195206175063,-16.179982371634193,38.00691570404306,6,S01
7860,0.0498145064310588,6.738408987515195,7.122662012318256,-4.2,-1.2,0.6,29.233996300514647,-17.517298203060847,37.42034066060688,6,S01
7880,0.09210589287963927,6.729975936345038,7.136855935835878,-4.2,-1.2,0.6,30.006794634259798,-16.17796465091083,38.41090257508172,6,S01
7900,0.11268433584899343,6.742289954228837,7.171674777732242,-4.2,-1.2,0.6,29.247843851969005,-17.37788622119367,37.81657427511402,6,S01
7920,0.1150559799408374,6.741326768248459,7.155028822860863,-4.2,-1.2,0.6,29.77755017828398,-16.476323615776,38.13908630698223,6,S01
7940,0.07186921291797133,6.772931997117109,7.135778356819341,-4.2,-1.2,0.6,29.6391340314373,-15.737123175758029,38.08743893971772,6,S01
7960,0.12314621504687384,6.7511182961975065,7.200837644417247,-4.2,-1.2,0.6,29.967863208902997,-16.310291087901433,37.395217577614666,6,S01
7980,0.10705862219043681,6.7371623414613495,7.1865592039167225,-4.2,-1.2,0.6,29.439387245376427,-17.554963099860466,37.031491271895256,6,S01
8000,0.11062956963438007,6.729247073185783,7.1725372131540635,-4.2,-1.2,0.6,29.196547633944533,-17.641705348948616,38.19529325652797,6,S01
8020,0.1257286427597413,6.754138174734358,7.16038401912839,-4.2,-1.2,0.6,29.160092266505806,-16.374311804233702,37.20527154776401,6,S01
8040,0.08374712825897263,6.7489743733726755,7.156292728669891,-4.2,-1.2,0.6,29.960870029397483,-16.539923887093572,37.68351595694054,6,S01
8060,0.10472786764986258,6.739063514347422,7.157785301646898,-4.2,-1.2,0.6,30.140509576465966,-17.04097111209183,37.27131497153647,6,S01
8080,0.07962321806661458,6.762509370842701,7.144003970095777,-4.2,-1.2,0.6,29.40285182469406,-16.624453156898532,38.280747731956055,6,S01
8100,0.09857372144375916,6.766416652980213,7.1874361290703215,-4.2,-1.2,0.6,29.219796528811305,-15.665146362734415,37.392346278612905,6,S01
8120,0.09941085777573207,6.759347880132385,7.132555648418402,-4.2,-1.2,0.6,29.583914211050793,-17.050300550972644,37.26744843670096,6,S01
8140,0.07478997428622869,6.744080980592473,7.198582833617653,-4.2,-1.2,0.6,29.975569235796502,-16.327255608030097,38.426589998955244,6,S01
8160,0.12523724814735424,6.729496632300649,7.198224751545496,-4.2,-1.2,0.6,29.46796232312027,-16.644253553214142,37.605412136444606,6,S01
8180,0.09364531327469046,6.760872441992527,7.152011295283384,-4.2,-1.2,0.6,29.39902685604953,-16.21309025019187,38.26392488331349,6,S01
8200,0.08319337871382611,6.742862080800753,7.166245307186484,-4.2,-1.2,0.6,29.65436163647661,-16.560610887941838,38.17463180700562,6,S01
8220,0.12879631671106692,6.741734918786448,7.166689543229016,-4.2,-1.2,0.6,29.60282671232268,-16.871347961184796,37.952359481781954,6,S01
8240,0.09514165631658272,6.749236392337614,7.176927707562788,-4.2,-1.2,0.6,29.723773430899623,-15.75350867844923,37.7647954617838,6,S01
8260,0.10625217250750757,6.7333878629659365,7.175670378833746,-4.2,-1.2,0.6,28.94753773621284,-17.04202198361044,37.86762545926347,6,S01
8280,0.10965942056519667,6.731173021592766,7.176954793665792,-4.2,-1.2,0.6,29.582086805411816,-16.56775460301978,38.52612108578652,6,S01
8300,0.08854033468108262,6.694835879365158,7.145968276832441,-4.2,-1.2,0.6,30.368680784356204,-16.603025278154654,37.296689878772696,6,S01
8320,0.1045133676432147,6.734480509093885,7.156593017077556,-4.2,-1.2,0.6,28.316356775711782,-17.187917160199675,37.32091007471369,6,S01
8340,0.10250680928625563,6.747601226839801,7.156504594124335,-4.2,-1.2,0.6,29.879420211506698,-15.92301629771094,37.87659160328239,6,S01
8360,0.10196179476318643,6.728570070244276,7.182794245342308,-4.2,-1.2,0.6,29.509449687846143,-15.95536159360971,38.20304157613826,6,S01
8380,0.08991545159952011,6.736575223996486,7.188949929479965,-4.2,-1.2,0.6,28.755941061066363,-16.247759903323228,38.05069902929189,6,S01
8400,0.12011749622374895,6.704489154792548,7.1962934753979795,-4.2,-1.2,0.6,28.63715258448503,-16.19633553956868,37.832103140406666,6,S01
8420,0.12561081772309693,6.755745354114218,7.158620632109599,-4.2,-1.2,0.6,29.004614884449076,-15.050807166982628,37.921589080558654,6,S01
8440,0.09556441572589801,6.738432435708881,7.180138070972403,-4.2,-1.2,0.6,28.573163319871696,-16.228790674278123,39.25932193847547,6,S01
8460,0.07974726821190259,6.7325418277843205,7.171338376132495,-4.2,-1.2,0.6,29.574126109888287,-16.751449388247558,37.51580873794732,6,S01
8480,0.052192976269334806,6.751614822926425,7.160346042862065,-4.2,-1.2,0.6,28.969264779138697,-17.029276541471386,37.480270555715514,6,S01
8500,0.11309744890330556,6.75418815009442,7.192387098856554,-4.2,-1.2,0.6,29.329271795793638,-16.40420135871093,38.31559813268945,6,S01
8520,0.11567785239947777,6.755949783220402,7.215032758653478,-4.2,-1.2,0.6,30.21747552540223,-16.21064379103126,37.738498446335015,6,S01
8540,0.10273735474994541,6.706428547204931,7.161971315469664,-4.2,-1.2,0.6,29.554207167503076,-16.44642711988768,37.88186563444305,6,S01
8560,0.13275454457102798,6.752858475364486,7.169441994394186,-4.2,-1.2,0.6,30.17839379179399,-16.63011965430541,37.6567403180857,6,S01
8580,0.06875940289455434,6.739988048464537,7.167811142764689,-4.2,-1.2,0.6,29.54548196321566,-16.623700885370525,37.211874464828824,6,S01
8600,0.10956238849652036,6.793602136487522,7.173301672678336,-4.2,-1.2,0.6,28.994544819461616,-16.51859311044425,38.130882956360665,6,S01
8620,0.1189907482453119,6.725507298739139,7.187778730756415,-4.2,-1.2,0.6,29.032783179553217,-15.697601784149256,38.36671089188422,6,S01
8640,0.07922056772281148,6.740924271666004,7.189735779495256,-4.2,-1.2,0.6,30.26340401143262,-15.979620746398625,38.37152125983392,6,S01
8660,0.12112254307722779,6.733079428743294,7.171843942880688,-4.2,-1.2,0.6,28.781123391359273,-16.167932891298744,37.989888778159965,6,S01
8680,0.09182434478851537,6.73575604543624,7.1630392841387645,-4.2,-1.2,0.6,29.47931488454146,-16.760432970398114,37.65556685758269,6,S01
8700,0.09781208999583148,6.760879489170248,7.199014941911753,-4.2,-1.2,0.6,29.62236000959888,-16.73386289877387,37.67933685018522,6,S01
8720,0.11700158025657899,6.76916117547143,7.176046355145748,-4.2,-1.2,0.6,30.621958336206422,-16.45094319082693,38.76584275578116,6,S01
8740,0.06033095631656004,6.724956801108687,7.173949413220886,-4.2,-1.2,0.6,29.302647438177274,-16.50145284147655,38.38056694782231,6,S01
8760,0.09797730026527199,6.7371504939035445,7.148781445691251,-4.2,-1.2,0.6,30.10089296267914,-16.344348466432088,37.54736222106106,6,S01
8780,0.09629662723373557,6.721401577693675,7.1286434788734425,-4.2,-1.2,0.6,27.76060426444934,-15.82769409239846,38.51813607731927,6,S01
8800,0.09973277428604055,6.7533640448474275,7.172934779911816,-4.2,-1.2,0.6,28.41536069263782,-16.718515238551134,37.22796508847339,6,S01
8820,0.09409403103984672,6.756258070339843,7.139846312911322,-4.2,-1.2,0.6,30.41574159977035,-16.48709933478126,37.86705499171787,6,S01
8840,0.09467097576787178,6.789997723742295,7.164394626064826,-4.2,-1.2,0.6,29.19663381181794,-16.692406859007598,38.18788136514095,6,S01
8860,0.0946603625622324,6.762946424078077,7.153670227416303,-4.2,-1.2,0.6,29.394285289786087,-15.98841039837626,38.471653430564054,6,S01
8880,0.10051963028613208,6.749344169216586,7.1618364152395495,-4.2,-1.2,0.6,29.688660125407587,-16.14455821876239,37.82159100379809,6,S01
8900,0.11481469147950224,6.754222327342477,7.180368652793537,-4.2,-1.2,0.6,29.436058870728402,-16.13297261851841,37.338982087815886,6,S01
8920,0.10488494279533324,6.747781230866671,7.197300716694718,-4.2,-1.2,0.6,29.002680691535307,-15.720825186723445,38.62888677444496,6,S01
8940,0.0905120394738673,6.753111938361911,7.16341218127207,-4.2,-1.2,0.6,29.337912843208414,-16.323710385991397,38.40830234691187,6,S01
8960,0.07759524215805914,6.724474313195901,7.160391579821332,-4.2,-1.2,0.6,28.817010106103268,-17.363251620794827,38.63244589252687,6,S01
8980,0.10341926869264578,6.766577287757144,7.172086531343114,-4.2,-1.2,0.6,29.031195059203103,-16.23582168563522,38.240262531570345,6,S01
9000,0.0996226390066386,6.794741480701887,7.218719912294629,-4.2,-1.2,0.6,29.592996617968293,-16.935007339654796,38.069786941178904,6,S01
9020,0.12345871969243495,6.708072913779112,7.189789611896248,-4.2,-1.2,0.6,28.71182105000099,-15.715939115960145,37.73919667876315,6,S01
9040,0.0779839043215895,6.766238438711143,7.164539944769465,-4.2,-1.2,0.6,29.17990819797503,-16.568884235006927,37.440923843240824,6,S01
9060,0.10481048231298933,6.769532917050748,7.161668482233372,-4.2,-1.2,0.6,29.8596801245976,-16.87221011652194,36.979867916963705,6,S01
9080,0.07126518612833277,6.745607392342053,7.131442068240215,-4.2,-1.2,0.6,29.11652911774892,-15.900528603062238,38.19120879517907,6,S01
9100,0.09315382862993456,6.730998419620347,7.1453102490420015,-4.2,-1.2,0.6,29.127786133057583,-16.10314813080494,37.56563847035182,6,S01
9120,0.11697617026410534,6.6881292789377635,7.171257986717362,-4.2,-1.2,0.6,29.720152495246527,-15.864368790776059,38.31896301874526,6,S01
9140,0.07584347550407963,6.729103737574469,7.135993471854311,-4.2,-1.2,0.6,29.6899241444674,-16.954708788009825,37.64399508201842,6,S01
9160,0.08549226397784859,6.7497411380511005,7.185900909450051,-4.2,-1.2,0.6,30.200270695538773,-15.84464615284392,37.7601590422929,6,S01
9180,0.07030722370279073,6.731681366362426,7.18355045830892,-4.2,-1.2,0.6,28.903793067516556,-16.45627475610413,38.57495523035688,6,S01
9200,0.112761439282986,6.722748021605643,7.144821707924712,-4.2,-1.2,0.6,29.834582745294334,-16.255216483640588,38.2805612241748,6,S01
9220,0.10109860916184485,6.726030086386161,7.152389114485558,-4.2,-1.2,0.6,28.95517429384941,-16.908929414684017,38.03451730095769,6,S01
9240,0.10128583394990642,6.724452240326876,7.2072017755729405,-4.2,-1.2,0.6,29.54074313086855,-16.6446944910871,38.03004923397787,6,S01
9260,0.11507090752530165,6.74114970902054,7.164622243828081,-4.2,-1.2,0.6,29.44504745062084,-16.756937791570213,37.387515417838905,6,S01
9280,0.08566306074558756,6.731160160395826,7.176229603570398,-4.2,-1.2,0.6,29.573193659744465,-15.728470754391637,38.5535690398779,6,S01
9300,0.07456882854948566,6.691971401785427,7.178262014694787,-4.2,-1.2,0.6,29.991938716447653,-15.535991332319309,37.189336486824864,6,S01
9320,0.12624050637847037,6.744163532859866,7.174490760435123,-4.2,-1.2,0.6,29.849208797871608,-15.825332786614808,38.088139404001254,6,S01
9340,0.09483153145960868,6.756374936289217,7.171800986186907,-4.2,-1.2,0.6,29.435923151542703,-15.558798254660685,38.03993993256861,6,S01
9360,0.11583136718318647,6.726660202407031,7.165509030792566,-4.2,-1.2,0.6,29.180116991217975,-16.91952365012674,38.044338187894986,6,S01
9380,0.10893248132052095,6.725572651978707,7.184676416813219,-4.2,-1.2,0.6,29.562294447683357,-16.644774484800912,38.437586199019094,6,S01
9400,0.10418833597934558,6.748901270493288,7.152023894429255,-4.2,-1.2,0.6,28.933397345819706,-16.114542210161698,38.23052547964685,6,S01
9420,0.11743046779232591,6.724463523024372,7.162499542547523,-4.2,-1.2,0.6,29.22059171985944,-15.746107386230715,38.28305824266445,6,S01
9440,0.0791155035749921,6.739029579055812,7.136196355151735,-4.2,-1.2,0.6,28.960080121392483,-16.39403410954387,38.49465510887366,6,S01
9460,0.10867413234696725,6.734008532455196,7.145935357416328,-4.2,-1.2,0.6,29.62806128276998,-15.970444304637317,37.53848799800594,6,S01
9480,0.11070018514829093,6.73111152574968,7.1364364784861145,-4.2,-1.2,0.6,28.760893531102923,-16.693660170863204,37.18635537711557,6,S01
9500,0.09805761871869562,6.7534976131590705,7.189439431108624,-4.2,-1.2,0.6,29.745595218595092,-17.6531567137254,37.523887774450564,6,S01
9520,0.09632211241572289,6.735084765399078,7.202850202623775,-4.2,-1.2,0.6,29.655191245983403,-17.110825444869693,36.093358615171404,6,S01
9540,0.08984600113587643,6.753310732394584,7.181166322245501,-4.2,-1.2,0.6,29.404055138254304,-16.17191884492736,38.19913110308634,6,S01
9560,0.0985711414685079,6.749373901285409,7.156922279740097,-4.2,-1.2,0.6,28.89990650781151,-16.03964633628182,37.95114938295343,6,S01
9580,0.092118800859815,6.7378660799765315,7.186683296478439,-4.2,-1.2,0.6,28.623920364084103,-16.155435333146933,38.20261018496447,6,S01
9600,0.08750754432015766,6.732889855302414,7.169830619789495,-4.2,-1.2,0.6,28.89168135959674,-16.57160452055291,38.58128125289232,6,S01
9620,0.05553115260144761,6.742046874916673,7.187675181670062,-4.2,-1.2,0.6,29.679663880810352,-16.939886460536115,37.7475295731471,6,S01
9640,0.12055656811806692,6.714592241266253,7.163884927432821,-4.2,-1.2,0.6,29.708322550157845,-16.55909997122706,36.49345607052432,6,S01
9660,0.10473873440163517,6.7807144662891305,7.175306607479113,-4.2,-1.2,0.6,29.924024343475573,-16.57251751545255,37.6308831214042,6,S01
9680,0.0728223655533572,6.7379574698713975,7.184103586271978,-4.2,-1.2,0.6,29.21170733533246,-15.49899498723892,37.95352110161084,6,S01
9700,0.11342151429674537,6.758337435257341,7.138102933414916,-4.2,-1.2,0.6,29.879581365432017,-16.552376303122927,38.77326280875259,6,S01
9720,0.08647918565392203,6.756827091703155,7.184087574260863,-4.2,-1.2,0.6,28.99845550188508,-16.39227360498395,37.323065366158275,6,S01
9740,0.10164414945312042,6.74326754547751,7.183388945729268,-4.2,-1.2,0.6,29.17883491850664,-16.571474897295204,37.938939127375804,6,S01
9760,0.08985499318011803,6.763801088935583,7.199398676785772,-4.2,-1.2,0.6,28.436463410608944,-15.963248125130269,38.24435559460193,6,S01
9780,0.10552016802479997,6.767077684694177,7.181224807859584,-4.2,-1.2,0.6,29.265101403169304,-17.00681021083136,38.100736049650685,6,S01
9800,0.09707771808844974,6.743938241217519,7.189045499309561,-4.2,-1.2,0.6,28.394088636810732,-16.848748225939858,38.25828770669692,6,S01
9820,0.1409198446735995,6.725894496519278,7.197313526418287,-4.2,-1.2,0.6,29.462654342440825,-16.634756933120734,38.30691689970903,6,S01
9840,0.09516277213660844,6.747723178811404,7.166352661390671,-4.2,-1.2,0.6,30.392758839158933,-17.006747444937325,38.54093665706447,6,S01
9860,0.05901349082293186,6.727242251872982,7.196315852150855,-4.2,-1.2,0.6,29.174765306748707,-17.473631173662405,37.93401079144751,6,S01
9880,0.12201530784408682,6.759211927517998,7.1541658949320786,-4.2,-1.2,0.6,29.278705063671516,-16.33899715869132,37.43963224463594,6,S01
9900,0.11232285915127647,6.73222127812377,7.159824196650505,-4.2,-1.2,0.6,29.048435004707855,-16.924330852030355,38.07562053395984,6,S01
9920,0.08679681073967675,6.784932897678558,7.152692651383344,-4.2,-1.2,0.6,28.885421357504203,-16.240566358101123,37.82610693464218,6,S01
9940,0.11760778836145841,6.726030557540975,7.198597081522588,-4.2,-1.2,0.6,29.235600713953847,-16.232788387455678,37.579468777161665,6,S01
9960,0.10911367604222105,6.76289159026999,7.157874820910089,-4.2,-1.2,0.6,29.63804331987172,-17.141268127699448,38.23401877717368,6,S01
9980,0.1039611036276277,6.766809627831894,7.162091977281286,-4.2,-1.2,0.6,29.032509755956664,-17.25860757008828,37.809132182943095,6,S01
10000,0.0669392349462708,6.73168903257724,7.168060094339652,-4.2,-1.2,0.6,29.275395499317643,-15.699932405992701,37.62612008893166,6,S01
10020,0.09943976966179018,6.720505784715433,7.190059129905131,-4.2,-1.2,0.6,29.12811155055832,-16.41708139519193,38.340656985575876,6,S01
10040,0.10273450365829082,6.723421591979683,7.18797522738282,-4.2,-1.2,0.6,30.011796004762044,-16.813681882658102,37.83531874503228,6,S01
10060,0.12315095463166323,6.761158712829519,7.1504567786044175,-4.2,-1.2,0.6,29.19060057337867,-16.0929837995716,37.123382538311944,6,S01
10080,0.09731893456243117,6.740173537584481,7.153245984014894,-4.2,-1.2,0.6,29.442963445708752,-15.928659588740397,37.787309313360325,6,S01
10100,0.0881933123778198,6.762345674817204,7.152291007900441,-4.2,-1.2,0.6,29.73783287607827,-17.759903249933423,37.56276293070211,6,S01
10120,0.11856240191448657,6.728514319061862,7.159786657708756,-4.2,-1.2,0.6,29.46673057435539,-17.157530767615917,38.20922918641027,6,S01
10140,0.12608426417021776,6.743019630652728,7.129284575138695,-4.2,-1.2,0.6,29.469868460600484,-16.265809728332908,37.40035045421921,6,S01
10160,0.0894730893992224,6.740558071636651,7.157818413344754,-4.2,-1.2,0.6,29.052410282390834,-16.275795096791832,38.22842702746133,6,S01
10180,0.10760824743038808,6.729025646710561,7.168661697138472,-4.2,-1.2,0.6,28.644993572063047,-16.058161327826628,38.21744863036383,6,S01
10200,0.12287211895071105,6.761429146005941,7.1503320974676425,-4.2,-1.2,0.6,28.819125617795596,-16.21751593471987,38.070423251036495,6,S01
10220,0.08064037285293521,6.702715212517774,7.1975738858883185,-4.2,-1.2,0.6,28.719589835709648,-17.132120834312172,37.95683883627078,6,S01
10240,0.1027553272969556,6.714709502101887,7.226888344116743,-4.2,-1.2,0.6,29.112613898084433,-17.143078400080284,37.12520685733358,6,S01
10260,0.07870972694077294,6.7542215258165665,7.1338250017049045,-4.2,-1.2,0.6,29.03802835175084,-16.86322178622661,38.14097845362788,6,S01
10280,0.08222587992786753,6.7112186568047845,7.168279696678777,-4.2,-1.2,0.6,29.330475379043893,-16.878414657350334,38.21407958523055,6,S01
10300,0.10895668796932442,6.701035363569454,7.1652549333663265,-4.2,-1.2,0.6,29.48415922775764,-16.62957501873494,38.091294508091806,6,S01
10320,0.08202522071909651,6.740423585953188,7.184450577566308,-4.2,-1.2,0.6,29.181867014507972,-15.938521041801227,38.63393692897373,6,S01
10340,0.10692324741520966,6.717465300001626,7.171550211324351,-4.2,-1.2,0.6,29.88977494489269,-16.31486801086607,38.44232507104167,6,S01
10360,0.09328070688740418,6.72199145459791,7.187093356823446,-4.2,-1.2,0.6,28.97920887123669,-16.14158433860958,37.73631656791654,6,S01
10380,0.11698086486191321,6.7520864776991525,7.195096631774426,-4.2,-1.2,0.6,30.261406593056353,-16.219043555177834,37.4592509484598,6,S01
10400,0.08379523881903025,6.730385186048358,7.2148954101126,-4.2,-1.2,0.6,29.74960545068294,-15.50932640797635,37.93322257027267,6,S01
10420,0.13081691575087454,6.724143307359374,7.122352431552498,-4.2,-1.2,0.6,28.790229145192093,-16.382037847737354,37.948937389821964,6,S01
10440,0.10026319981984004,6.762154150370975,7.172635897923757,-4.2,-1.2,0.6,29.41639042048012,-16.21519041338192,37.62643165943606,6,S01
10460,0.10600104536269364,6.765475401911756,7.16609482091035,-4.2,-1.2,0.6,28.755948868945968,-16.22856878705687,37.98686841011432,6,S01
10480,0.0833135999416196,6.750514572760857,7.159237457877134,-4.2,-1.2,0.6,29.96258062637219,-16.961514354555465,37.43315648943093,6,S01
10500,0.08982826025145343,6.751191576329102,7.1822759425107945,-4.2,-1.2,0.6,28.85612877005334,-16.402758709423466,37.155732993860646,6,S01
10520,0.06808610536799081,6.73604866793402,7.1896139414671545,-4.2,-1.2,0.6,29.96015920067271,-16.412118481855746,38.262823267169715,6,S01
10540,0.08468382068442264,6.716829581889285,7.181192693700835,-4.2,-1.2,0.6,28.96497461544384,-16.218390463226257,37.621902211836115,6,S01
10560,0.06670299700092719,6.728499760918745,7.176489352719453,-4.2,-1.2,0.6,29.197650930282432,-16.589578765734686,37.489034925255154,6,S01
10580,0.10173125912723247,6.747939108517685,7.183117210027155,-4.2,-1.2,0.6,29.14197222841109,-16.74459349886654,38.516998322164945,6,S01
10600,0.0897832117367892,6.757494745723707,7.1906851301666945,-4.2,-1.2,0.6,29.62610721837476,-17.640224224091753,38.5414962720177,6,S01
10620,0.08089049942135587,6.759637975443638,7.159961989962556,-4.2,-1.2,0.6,29.00890355628582,-16.298029789292464,37.33767013875815,6,S01
10640,0.12032003370488713,6.737435813547865,7.177249722643594,-4.2,-1.2,0.6,29.369350089306966,-16.20678910511444,37.96798581550645,6,S01
10660,0.14040954376332512,6.714086776970677,7.196396466331389,-4.2,-1.2,0.6,29.59879329782359,-16.361840300228796,37.43423409634922,6,S01
10680,0.10568960947008336,6.737715306543007,7.1809512901799195,-4.2,-1.2,0.6,28.716752150187624,-16.139368644030135,38.46769099410619,6,S01
10700,0.0929890680886271,6.751421792917269,7.169513602325203,-4.2,-1.2,0.6,29.094529777011285,-16.11590742861115,37.897772149830594,6,S01
10720,0.07900751054897398,6.721852818283025,7.154336198503701,-4.2,-1.2,0.6,28.565629601662685,-15.256803250713363,37.92032340568389,6,S01
10740,0.10353737183285687,6.7313231861422285,7.181288176905936,-4.2,-1.2,0.6,29.949338264221506,-16.85312815374671,37.933224638062875,6,S01
10760,0.08745977206208556,6.74803897549423,7.181202197923395,-4.2,-1.2,0.6,28.250580515273967,-15.737222446136405,37.4268506290244,6,S01
10780,0.08698394564193504,6.735406221742704,7.1612097467214975,-4.2,-1.2,0.6,28.470668128571326,-15.341657751442423,37.99888265823334,6,S01
10800,0.10167154855117222,6.757899032408545,7.166351265808024,-4.2,-1.2,0.6,28.590959995791994,-16.41245615676027,38.657257770827734,6,S01
10820,0.1109934292241931,6.7325741508018995,7.1587618685639995,-4.2,-1.2,0.6,29.743303171953148,-15.474800681325245,37.977988589806905,6,S01
10840,0.09312760932109918,6.745734851030073,7.177635625916357,-4.2,-1.2,0.6,29.911601814949442,-17.526205628591537,37.785097856066734,6,S01
10860,0.1166395865118047,6.714585213640453,7.182572311030413,-4.2,-1.2,0.6,29.335449544612047,-16.072946298087984,38.121217665359985,6,S01
10880,0.10343668347910139,6.727026921268406,7.121084551251636,-4.2,-1.2,0.6,29.42342667207025,-16.89194283617737,37.77239299203099,6,S01
10900,0.10055090557114167,6.743068078856941,7.155237035531106,-4.2,-1.2,0.6,29.445525330524855,-16.41745885117402,37.85386051838826,6,S01
10920,0.08852181247781528,6.725657247999538,7.134931392950169,-4.2,-1.2,0.6,29.91579788740186,-16.30085057566034,37.996832184113686,6,S01
10940,0.1433866585662668,6.765668572719272,7.1568468579118605,-4.2,-1.2,0.6,28.507623553591962,-15.994288050943924,37.79966659328991,6,S01
10960,0.098398628509274,6.7244619983474765,7.179124928397526,-4.2,-1.2,0.6,28.974674954569778,-16.748464992088223,37.88235686906244,6,S01
10980,0.11986717447974554,6.722645572373285,7.145442079685687,-4.2,-1.2,0.6,30.20931922454333,-16.10939649847647,38.715234304513054,6,S01
11000,0.1396587912828985,6.744367423961202,7.118850941808612,-4.2,-1.2,0.6,29.943181891161657,-16.50127647754493,37.698575152148166,6,S01
11020,0.10979316608302302,6.734136065786485,7.190144462507607,-4.2,-1.2,0.6,28.821279786744938,-18.13615622659003,36.89955563687551,6,S01
11040,0.11883001399923207,6.720320877915266,7.174501397331554,-4.2,-1.2,0.6,29.777650044967974,-15.996058383579086,37.74129590173218,6,S01
11060,0.08499212977780055,6.734443546506423,7.173393890931229,-4.2,-1.2,0.6,29.14207062691624,-16.1151509589343,39.19547611558773,6,S01
11080,0.09583960968740954,6.719969954941733,7.196348276579611,-4.2,-1.2,0.6,29.44976596274216,-15.907162599549522,37.58227926187608,6,S01
11100,0.09183188301608626,6.739715409958006,7.155304174346661,-4.2,-1.2,0.6,29.486882125920978,-17.313468513155808,37.87304416409542,6,S01
11120,0.12106328091808376,6.74496734664592,7.172216814988797,-4.2,-1.2,0.6,29.751210652176255,-16.318610569529625,37.753025923469764,6,S01
11140,0.09650779067988999,6.741288644015043,7.145814843903205,-4.2,-1.2,0.6,29.078037289072107,-15.822147267860712,37.78878757560691,6,S01
11160,0.1257894950842795,6.758150981650104,7.169548535530395,-4.2,-1.2,0.6,29.384186920451295,-16.053738770580388,37.83228060527722,6,S01
11180,0.08726525826465518,6.7493104395084424,7.159859939039615,-4.2,-1.2,0.6,29.467741058182927,-16.813490766231016,38.4976932166742,6,S01
11200,0.10431569749496372,6.778784959538347,7.159171658278342,-4.2,-1.2,0.6,29.338167584311336,-16.903223764975355,38.12704916971148,6,S01
11220,0.11249479546047553,6.723868105744902,7.1539782972652635,-4.2,-1.2,0.6,29.069536877968307,-16.772039921719028,37.56622690403407,6,S01
11240,0.09441658980975777,6.725216399058587,7.1636560901689545,-4.2,-1.2,0.6,29.251431876747212,-16.78494801932547,37.22772290085812,6,S01
11260,0.0968872875134053,6.762306419961078,7.179428263530622,-4.2,-1.2,0.6,30.032001525803697,-16.951973684048657,38.33555435519459,6,S01
11280,0.09028423936916825,6.736253494179394,7.179275055723166,-4.2,-1.2,0.6,29.08306792106489,-16.326052957497453,38.00872047823512,6,S01
11300,0.13033991061429134,6.727427425357529,7.186893379838888,-4.2,-1.2,0.6,28.651819704875273,-17.134045853670195,37.765799646347496,6,S01
11320,0.10974822402526191,6.757074285709405,7.186960515899451,-4.2,-1.2,0.6,28.692486576287926,-16.54149400100256,37.67311471899068,6,S01
11340,0.09727303025979728,6.761253993178742,7.15137517463126,-4.2,-1.2,0.6,28.899683230612883,-16.66413673321407,37.7880298374886,6,S01
11360,0.0913568062998792,6.744623980588296,7.201726922651104,-4.2,-1.2,0.6,29.86279129172076,-16.642525891621226,37.43005161856665,6,S01
11380,0.13917055136816858,6.740315530169147,7.1638463814958,-4.2,-1.2,0.6,29.556505371052722,-17.403654066057502,37.570047001482195,6,S01
11400,0.13643974745096205,6.756001890495394,7.1799539580517875,-4.2,-1.2,0.6,29.186970522298882,-15.770341264925102,38.27616352433638,6,S01
11420,0.09515189057106718,6.726937846759101,7.175795117374515,-4.2,-1.2,0.6,29.189775411843346,-16.283032295894287,39.39131844223048,6,S01
11440,0.09657457984016365,6.740535829422811,7.162086077995839,-4.2,-1.2,0.6,29.865284752810847,-16.637027712968568,37.833081941767404,6,S01
11460,0.12697467207200455,6.764640474971645,7.1586970934290175,-4.2,-1.2,0.6,29.97207797850176,-16.489551655018953,38.46403851367376,6,S01
11480,0.10198776440972843,6.714247048040851,7.170329130229397,-4.2,-1.2,0.6,28.884289876465317,-15.23098601413683,37.859925996448965,6,S01
11500,0.06041105437916087,6.7339961837850435,7.130931070198232,-4.2,-1.2,0.6,29.73836063022044,-17.056641457420604,37.81377473026012,6,S01
11520,0.10638191827133238,6.739400285750444,7.14168280130296,-4.2,-1.2,0.6,29.780154008276252,-15.849610860292197,38.374881018303334,6,S01
11540,0.11293990063377317,6.7030052251485275,7.122325767768865,-4.2,-1.2,0.6,30.09277177673265,-17.117783139090385,37.75435856037112,6,S01
11560,0.12004798547230135,6.756599347037986,7.176093097523306,-4.2,-1.2,0.6,29.065783082686046,-15.84057373459351,38.52550772791146,6,S01
11580,0.12202525013327033,6.7249389708003715,7.179598258731295,-4.2,-1.2,0.6,28.700692673642394,-16.452532253875148,37.525041500870906,6,S01
11600,0.07486409199218275,6.7283512232510265,7.153524604336921,-4.2,-1.2,0.6,28.93140416644902,-16.0100451084293,38.36183852912722,6,S01
11620,0.05317171854667094,6.748041220563836,7.1472713532814,-4.2,-1.2,0.6,29.414738549956756,-17.32720900257439,37.91232837473388,6,S01
11640,0.10821137836073717,6.727351576840135,7.178413051258189,-4.2,-1.2,0.6,29.568245292580993,-16.605577323182054,37.92282227345541,6,S01
11660,0.11769414260494827,6.740489911189036,7.165291206046289,-4.2,-1.2,0.6,29.71818566507655,-15.767130375632682,38.68979035003071,6,S01
11680,0.08942045219197284,6.782692742096889,7.159199193420043,-4.2,-1.2,0.6,28.94644461604344,-16.563799119024,37.78305802004411,6,S01
11700,0.08364429310044502,6.750403359680939,7.171952880933031,-4.2,-1.2,0.6,29.07161177063496,-17.10737130857692,38.0679914290128,6,S01
11720,0.06958712418304107,6.763598223759397,7.189254589962199,-4.2,-1.2,0.6,29.78832936313775,-16.63976546537492,38.647883819850385,6,S01
11740,0.08137414221346458,6.742546498751311,7.175641078089147,-4.2,-1.2,0.6,29.738288103645313,-16.937808521206616,37.682432553886215,6,S01
11760,0.10117921244772432,6.741405550660432,7.157502744397831,-4.2,-1.2,0.6,29.34491421748804,-16.34694924267488,37.700977065086384,6,S01
11780,0.09013119345090498,6.77903576603707,7.153455593543459,-4.2,-1.2,0.6,29.591339980483507,-16.86129696534214,37.3396918233159,6,S01
11800,0.10573237236274892,6.711398326116114,7.1373170555484124,-4.2,-1.2,0.6,29.899443600181435,-16.529814417632238,37.41907668847492,6,S01
11820,0.060325442805611605,6.766417227960305,7.175564786583564,-4.2,-1.2,0.6,29.637227569164153,-17.044513372005145,38.356448219131316,6,S01
11840,0.1268625870027652,6.7412085960049435,7.167598713185058,-4.2,-1.2,0.6,29.402152496620563,-16.398717849229342,38.07803748492747,6,S01
11860,0.10502240076391191,6.735609717122063,7.154107965118767,-4.2,-1.2,0.6,28.96600013184511,-17.002770066201737,38.29787072036497,6,S01
11880,0.08480130845062032,6.749334815657995,7.1474771188640425,-4.2,-1.2,0.6,29.17075424380216,-15.998972262675139,38.35483954137908,6,S01
11900,0.10843406975083895,6.748586469322078,7.207081411860941,-4.2,-1.2,0.6,30.037848659403867,-16.62188574652557,37.34570472325487,6,S01
11920,0.13058213530212992,6.730469789795958,7.158688809264962,-4.2,-1.2,0.6,29.306321759905153,-17.21229452622675,36.871658435009444,6,S01
11940,0.09644664514304392,6.699880254997633,7.182387203581307,-4.2,-1.2,0.6,29.490799606402586,-17.05269779346423,36.675488374395286,6,S01
11960,0.07133584914254182,6.701551291580231,7.1746278797862635,-4.2,-1.2,0.6,29.113992586782544,-16.289835114083367,38.294680191513976,6,S01
11980,0.13608091877734857,6.7983180711679765,7.173473339349685,-4.2,-1.2,0.6,29.940899154181537,-16.74532494121734,37.506454688156566,6,S01
12000,0.09960884010563664,6.731477695086929,7.134830239222299,-4.2,-1.2,0.6,29.217476455290758,-16.63625437380819,37.54277613633236,6,S01
12020,0.10335133909825064,6.744840100603875,7.154624146278958,-4.2,-1.2,0.6,28.76627792448438,-16.537656281446075,37.91505925361419,6,S01
12040,0.12764243400889216,6.7322296237384895,7.168776953480217,-4.2,-1.2,0.6,29.255524858985282,-15.904096951957639,37.48781453117364,6,S01
12060,0.08778773503804753,6.713195731990518,7.147180234623494,-4.2,-1.2,0.6,29.494615574049273,-16.76369147509574,37.75468158589077,6,S01
12080,0.06204792752201189,6.741195795215181,7.175597252488724,-4.2,-1.2,0.6,29.136696659288607,-15.813491235951586,37.65827443138095,6,S01
12100,0.11127661917705381,6.745231851808914,7.136333655873099,-4.2,-1.2,0.6,29.836884891513126,-16.667547595061414,37.34071751502574,6,S01
12120,0.09634882956379899,6.764732587873231,7.163602519405788,-4.2,-1.2,0.6,28.929706288861635,-16.840124542726606,37.882515535947185,6,S01
12140,0.09891589663392655,6.756161567723381,7.169929693633174,-4.2,-1.2,0.6,28.404522585852096,-16.610388799009414,38.02776837265262,6,S01
12160,0.10330863264475602,6.767720979384173,7.160219419780341,-4.2,-1.2,0.6,30.494969381486303,-16.16649297165293,37.31373351654542,6,S01
12180,0.08392689610238552,6.745851293840681,7.157938864812968,-4.2,-1.2,0.6,29.04852544187004,-17.023291884519406,38.99216598582903,6,S01
12200,0.11427087515450694,6.73167426193107,7.159717163134806,-4.2,-1.2,0.6,28.674745605208653,-16.62650398832278,38.57845053723845,6,S01
12220,0.09663096111216417,6.728335554866227,7.146739312079819,-4.2,-1.2,0.6,29.480444551230676,-16.80177551838518,37.91169959941729,6,S01
12240,0.10010905830786901,6.74769004386434,7.1638878048450225,-4.2,-1.2,0.6,28.782219917278926,-15.879097984656363,38.32021075904583,6,S01
12260,0.10564454717677084,6.685847398139445,7.215369138862669,-4.2,-1.2,0.6,28.64294721764729,-17.2457387714034,37.54466781656099,6,S01
12280,0.10656264445575106,6.72952113600007,7.177758568926274,-4.2,-1.2,0.6,30.02380626484744,-16.940359336973465,38.18118469541098,6,S01
12300,0.12766042060988492,6.764264240201668,7.150628118312732,-4.2,-1.2,0.6,29.82755268611029,-17.29166127695939,38.10655434442815,6,S01
12320,0.07996669834872061,6.703159436871846,7.159396693930269,-4.2,-1.2,0.6,28.969010968219088,-17.846594327985102,37.663086476257206,6,S01
12340,0.11004036742566645,6.747354788686743,7.139108805352317,-4.2,-1.2,0.6,28.423219755796268,-15.935192846933434,37.87114180469584,6,S01
12360,0.10518170521104561,6.7420553635832805,7.163439161602056,-4.2,-1.2,0.6,29.991433081106386,-17.02552094718754,38.527140053315655,6,S01
12380,0.11484533834201402,6.782490330524235,7.184475799974892,-4.2,-1.2,0.6,29.155534759280158,-15.805945967215042,38.68275449269121,6,S01
12400,0.08152000967699818,6.756998641936131,7.177958425518523,-4.2,-1.2,0.6,28.880845798670943,-16.772234823373964,38.44110623574221,6,S01
12420,0.08700294073085019,6.753233709068474,7.179458930966316,-4.2,-1.2,0.6,28.417384414757063,-16.471026539028117,37.43427252424744,6,S01
12440,0.12270305454769544,6.74917590025807,7.182095009391909,-4.2,-1.2,0.6,29.045472492791887,-16.1072496342228,37.653190009955466,6,S01
12460,0.09245787697540614,6.737262402279347,7.166661637954946,-4.2,-1.2,0.6,29.344899962131223,-17.01764617698018,37.76176438787277,6,S01
12480,0.057556351898105734,6.703610039811004,7.172232706575795,-4.2,-1.2,0.6,29.493828816601237,-15.700627306116445,38.358245189581545,6,S01
12500,0.07187809220665511,6.72761485631495,7.189878715610432,-4.2,-1.2,0.6,30.349785929354656,-16.41686954501185,38.122757425116525,6,S01
12520,0.09864993039228415,6.680955337475763,7.113005662222764,-4.2,-1.2,0.6,29.349507017625307,-17.496127755708063,37.48884096740586,6,S01
12540,0.12642931929304355,6.751350286526733,7.194767041885492,-4.2,-1.2,0.6,29.3772066061081,-16.03234449578458,38.306485259817684,6,S01
12560,0.07008261908157665,6.733258291328867,7.188476370960945,-4.2,-1.2,0.6,29.2955440267227,-16.87595392132704,37.55195395779638,6,S01
12580,0.08105468741025731,6.738014019792789,7.176788798105654,-4.2,-1.2,0.6,29.627424236636788,-17.049392149114418,38.387127611998466,6,S01
12600,0.1306246434326045,6.724825095720964,7.181521331219226,-4.2,-1.2,0.6,29.799574475963436,-17.016391032049036,38.64956291400028,6,S01
12620,0.10334460597805856,6.733168135066466,7.161600783728511,-4.2,-1.2,0.6,29.56519364733923,-16.84767350454581,38.10018726010282,6,S01
12640,0.0923374314053357,6.811784711331221,7.178181191036244,-4.2,-1.2,0.6,29.262485642206524,-16.780981199027675,38.199835593649645,6,S01
12660,0.10966432921181869,6.75764209979193,7.163725640112686,-4.2,-1.2,0.6,29.705835079225256,-17.11091753950735,36.88291146874695,6,S01
12680,0.07465332677740735,6.775797476584416,7.178249364978256,-4.2,-1.2,0.6,29.47932836192348,-17.391030070999186,38.2436463959322,6,S01
12700,0.1093883461632166,6.754690358280262,7.170010335766282,-4.2,-1.2,0.6,29.691032967527228,-17.34202622697157,37.346415056599426,6,S01
12720,0.09110738351990363,6.699455351701451,7.16842924283519,-4.2,-1.2,0.6,29.20616976287832,-16.952647718880407,37.80677327116838,6,S01
12740,0.08254043539921566,6.747461715045724,7.201745418978594,-4.2,-1.2,0.6,29.710823774775463,-16.686910566920716,37.70794412924399,6,S01
12760,0.07331109579028153,6.707680636855964,7.129609268691789,-4.2,-1.2,0.6,28.992219967747243,-15.474964464326215,38.33319151204473,6,S01
12780,0.11982956004457056,6.750601845735877,7.135413852140312,-4.2,-1.2,0.6,29.099820800716444,-16.60607862543035,38.59734279849911,6,S01
12800,0.1004511684235333,6.751013053038308,7.1324470307262775,-4.2,-1.2,0.6,29.15757131110046,-15.66372712709961,38.1620220226132,6,S01
12820,0.07981886395802391,6.749025962392017,7.165421043786236,-4.2,-1.2,0.6,29.470534966776146,-16.70263642002122,38.03603130485342,6,S01
12840,0.09769802378416795,6.742886314970288,7.154629170393101,-4.2,-1.2,0.6,28.77822253414281,-15.499853560020856,37.62772580589432,6,S01
12860,0.1274220496312751,6.76538106744072,7.1347965543449865,-4.2,-1.2,0.6,29.55540356312506,-16.31452378227728,38.42399315346287,6,S01
12880,0.03905215015695554,6.757524774519186,7.151855962691078,-4.2,-1.2,0.6,28.926668415830466,-16.515620002118254,38.21926554611202,6,S01
12900,0.13306827310048697,6.728545370635631,7.1661407957456404,-4.2,-1.2,0.6,30.03895963839005,-16.599875332638454,38.207174807791866,6,S01
12920,0.11744942507206724,6.804140646910094,7.168400279891023,-4.2,-1.2,0.6,29.485997098665035,-16.915833720244045,37.89916856742807,6,S01
12940,0.10483190664356251,6.743002192264303,7.1542592767601745,-4.2,-1.2,0.6,28.39153580170044,-16.760851996592535,38.06865778878819,6,S01
12960,0.08681371334972124,6.713643062917801,7.1586903334154455,-4.2,-1.2,0.6,29.25227769536789,-16.69261517638003,38.263635160533084,6,S01
12980,0.08954636491584013,6.755333942263129,7.175472722266285,-4.2,-1.2,0.6,30.360815643422086,-15.571266616434647,38.140434411675805,6,S01
13000,0.10213439901737184,6.714721217902529,7.168233524608248,-4.2,-1.2,0.6,29.65930379309307,-16.099347650969,37.15634582902567,6,S01
13020,0.070147956201117,6.74579543994603,7.177304437755123,-4.2,-1.2,0.6,29.000823263655825,-16.65742837956656,37.9187776756353,6,S01
13040,0.12007895781960616,6.743207144079589,7.17621544276061,-4.2,-1.2,0.6,28.447574993875755,-16.667674320585377,37.9675608917585,6,S01
13060,0.12773788973256225,6.728485038499276,7.147791498332592,-4.2,-1.2,0.6,29.386252267072624,-16.81117237471433,37.68111551764613,6,S01
13080,0.08430497640897962,6.71633185691249,7.138645756114414,-4.2,-1.2,0.6,31.098233852043727,-16.569573597176408,37.54160017635194,6,S01
13100,0.0594338893916471,6.730353710945626,7.1728456486768755,-4.2,-1.2,0.6,28.56199425225959,-16.198492578658417,36.85396131477244,6,S01
13120,0.09783674932572167,6.714324990140748,7.139644481571882,-4.2,-1.2,0.6,29.536223470174424,-16.840838380834963,37.43628231661423,6,S01
13140,0.06928023465435702,6.747320647018813,7.143307484351077,-4.2,-1.2,0.6,29.383419008994764,-16.65193902140486,37.23291808347366,6,S01
13160,0.1420977278356108,6.756117390497613,7.152610452370382,-4.2,-1.2,0.6,29.669107841093183,-17.52197877646958,38.09417946810012,6,S01
13180,0.1050447747455285,6.687921059324495,7.167425827371326,-4.2,-1.2,0.6,29.82661284176815,-15.802630882878068,37.3018609462296,6,S01
13200,0.11783979032123934,6.776067811949211,7.160508781503762,-4.2,-1.2,0.6,29.348264627437302,-17.594689203985958,37.329488633602345,6,S01
13220,0.11731492790906217,6.719894459158569,7.1958456355553295,-4.2,-1.2,0.6,29.873650601267816,-16.750246836586705,37.81094694151855,6,S01
13240,0.13551859865534915,6.74264658577558,7.1787089979678695,-4.2,-1.2,0.6,29.585881702884446,-16.97120311099357,37.707397286201704,6,S01
13260,0.11820257875332967,6.738650212360595,7.157583647448988,-4.2,-1.2,0.6,29.705288007974918,-16.791413206063034,37.678087579923925,6,S01
13280,0.12677056225860456,6.757968596308576,7.187484088602007,-4.2,-1.2,0.6,28.659474169017678,-16.591258818092697,38.481779892689474,6,S01
13300,0.10092672948906603,6.734949173391005,7.190766964463521,-4.2,-1.2,0.6,30.377338086475998,-15.747912817114294,38.066950564781045,6,S01
13320,0.0831486349770113,6.720683520797149,7.204062404211027,-4.2,-1.2,0.6,28.847322087061983,-16.210067649274,37.72590275727891,6,S01
13340,0.06157530792401736,6.73013909797908,7.194871298396786,-4.2,-1.2,0.6,28.50190340106201,-16.67098369657394,38.526882509881865,6,S01
13360,0.10274901720575336,6.718834853826665,7.162056809382318,-4.2,-1.2,0.6,28.830001984554112,-16.23739157675292,38.26118810140855,6,S01
13380,0.1022376144288995,6.72205616896882,7.183761907301174,-4.2,-1.2,0.6,28.809927173376813,-16.037091191332472,37.760466101934476,6,S01
13400,0.12728510136800947,6.73680086947458,7.15582224404403,-4.2,-1.2,0.6,30.618863938558043,-16.594383919489246,38.44603322254273,6,S01
13420,0.12302883161563144,6.747564554546263,7.157094715069256,-4.2,-1.2,0.6,30.091778067034777,-17.370525870894177,38.0501814346723,6,S01
13440,0.07790263090091998,6.72969817068464,7.17634550073308,-4.2,-1.2,0.6,29.00317491432582,-16.18514120377556,37.68793835764134,6,S01
13460,0.11601371098844206,6.734877996383401,7.131480282482598,-4.2,-1.2,0.6,29.140196647585725,-16.15749892477509,37.99289405637244,6,S01
13480,0.09212083613674023,6.735737022898192,7.187705859215607,-4.2,-1.2,0.6,28.87441578849667,-17.321110286340097,37.109913425740125,6,S01
13500,0.09410823801232668,6.74647474929568,7.177389636104883,-4.2,-1.2,0.6,29.489440687287612,-17.183899425066233,37.71864965930704,6,S01
13520,0.11598790056874887,6.73197197053376,7.137397415075216,-4.2,-1.2,0.6,30.191949807325134,-16.6040698243953,38.00375531517287,6,S01
13540,0.07116753991688748,6.767288157937971,7.153054296416509,-4.2,-1.2,0.6,29.72810610802923,-15.577770561163215,37.52530748210349,6,S01
13560,0.06910348575668067,6.7364608832767,7.178620475316591,-4.2,-1.2,0.6,29.322800172295704,-16.377329323238982,38.086147656123735,6,S01
13580,0.09590417280493883,6.763036285225753,7.20337073444198,-4.2,-1.2,0.6,28.890032722113506,-16.09926608262061,39.34070521376205,6,S01
13600,0.11698076122622358,6.769325895335975,7.1447125790143815,-4.2,-1.2,0.6,29.361204318502633,-16.71079059447058,38.415272600184984,6,S01
13620,0.10931023968398587,6.712569187497702,7.163300097798561,-4.2,-1.2,0.6,30.226028993287173,-17.77162153538405,37.4922916433507,6,S01
13640,0.07820753772922837,6.719931094378085,7.161663935708595,-4.2,-1.2,0.6,29.697354890348777,-16.113676929326665,38.54754629524571,6,S01
13660,0.10945384547170374,6.7280975338873645,7.1593614310775,-4.2,-1.2,0.6,29.545534458867994,-17.123182762839072,38.86019621199223,6,S01
13680,0.09213755486276504,6.7419724620006125,7.206516703013249,-4.2,-1.2,0.6,29.753786160415828,-16.335510678837288,38.12516897322593,6,S01
13700,0.12503552491674982,6.759927653983524,7.1760368841849465,-4.2,-1.2,0.6,29.193236283172627,-16.120618819202374,37.6571934181934,6,S01
13720,0.08401678690209041,6.763097248495666,7.170183819931775,-4.2,-1.2,0.6,29.72906980289407,-16.706953573790795,37.39626230077924,6,S01
13740,0.09270293023812762,6.739616787394863,7.137940919254969,-4.2,-1.2,0.6,28.979968749205444,-16.053484371049098,37.835334723529925,6,S01
13760,0.15125962315830666,6.729682639573041,7.173769696044578,-4.2,-1.2,0.6,28.754079451431025,-15.5181314566052,38.553654633616276,6,S01
13780,0.09405714234412842,6.732802359438379,7.150133104592021,-4.2,-1.2,0.6,29.869162230003177,-16.115306404107088,38.36626279682949,6,S01
13800,0.10964947036193196,6.738905633126231,7.182226314312174,-4.2,-1.2,0.6,28.823248418141464,-15.783737754949353,38.08802793243124,6,S01
13820,0.1290105112749,6.736506575952935,7.177118610022885,-4.2,-1.2,0.6,28.903748026339258,-16.605084924815912,37.12319513526446,6,S01
13840,0.11918978043182352,6.732416256357384,7.1735111373411735,-4.2,-1.2,0.6,29.223059809361352,-17.660008276893443,37.992396411056404,6,S01
13860,0.10074058128035239,6.714444228790019,7.162872386253272,-4.2,-1.2,0.6,28.46909637473429,-16.28938763509266,38.459128681765826,6,S01
13880,0.08510646865146741,6.7414827707933895,7.14662588854614,-4.2,-1.2,0.6,29.675846531221314,-16.867950529654337,37.94669585012481,6,S01
13900,0.12590225436437566,6.709656765564719,7.140814316461153,-4.2,-1.2,0.6,28.958891601264686,-16.872085212311312,37.58653176803068,6,S01
13920,0.0754901109430498,6.733132674921322,7.162931490928617,-4.2,-1.2,0.6,29.70463693822976,-16.36356939327625,37.83181307765545,6,S01
13940,0.08604332696786987,6.741730472620727,7.1744659735725405,-4.2,-1.2,0.6,29.678649211072354,-16.236140925294254,37.276280239609676,6,S01
13960,0.07244069676861721,6.750993492466146,7.20598838304931,-4.2,-1.2,0.6,29.89253417115246,-17.118113274740686,37.68685755321107,6,S01
13980,0.07375337053302844,6.755447171705772,7.190654409820186,-4.2,-1.2,0.6,29.945062447157497,-16.69600399577302,37.18817052523759,6,S01
14000,0.09767685098854992,6.735682333160943,7.129114080595099,-4.2,-1.2,0.6,29.39201778796025,-16.155297056419247,38.04046260312938,6,S01
14020,0.11298229710078912,6.742044409636345,7.15551162837812,-4.2,-1.2,0.6,29.838655412949144,-16.993973962082016,37.462321462423354,6,S01
14040,0.09756676742762442,6.760752111297458,7.185721692949267,-4.2,-1.2,0.6,29.280340712873862,-16.712666058428784,38.12376788347893,6,S01
14060,0.10942690912478989,6.738924470805843,7.154619879917205,-4.2,-1.2,0.6,29.717580927447013,-16.849911459960065,38.16416416680288,6,S01
14080,0.09297405002368525,6.75288418595715,7.186512432299988,-4.2,-1.2,0.6,29.502150573188466,-16.19520465638612,37.4653039763683,6,S01
14100,0.0645578492362619,6.768344790270518,7.1414657088483615,-4.2,-1.2,0.6,29.194654380970853,-16.497635363363834,37.3355879973374,6,S01
14120,0.1293699786894838,6.742253470708572,7.16874583218924,-4.2,-1.2,0.6,28.69182329709597,-16.71552690045066,38.15296885433175,6,S01
14140,0.12249647140967794,6.737904307691376,7.186040853032276,-4.2,-1.2,0.6,30.60238219680022,-15.984906927960523,38.55365530645695,6,S01
14160,0.0833757032288305,6.77076159639136,7.202379802142271,-4.2,-1.2,0.6,29.762214335261202,-16.68218287946536,38.24201705980219,6,S01
14180,0.09118960501251577,6.703815814638009,7.171686194746213,-4.2,-1.2,0.6,28.891815539518166,-15.901643104594184,38.15710540526335,6,S01
14200,0.09648120297770947,6.6982031158175905,7.181229648151274,-4.2,-1.2,0.6,28.757763034543164,-15.693130738808568,37.90129965058904,6,S01
14220,0.08006030687533414,6.741676899127084,7.172457328947173,-4.2,-1.2,0.6,28.212630642643596,-16.47220227375759,38.226544498590904,6,S01
14240,0.10058039731933886,6.738918508187799,7.17027687500399,-4.2,-1.2,0.6,29.492679828847916,-16.347644488599734,38.32061001562632,6,S01
14260,0.04740746441063149,6.728541135740945,7.155881274159125,-4.2,-1.2,0.6,29.15798090939349,-16.0925852868968,37.03632691032339,6,S01
14280,0.14034550877107693,6.737629794796601,7.218120665885028,-4.2,-1.2,0.6,30.114882393519967,-16.65816060940857,37.22212609354306,6,S01
14300,0.10915155789893084,6.740631450532077,7.17974665110191,-4.2,-1.2,0.6,29.585050638057083,-17.191717854684185,37.18879220053509,6,S01
14320,0.12603185728232977,6.763861495449653,7.170073337434208,-4.2,-1.2,0.6,28.869341255122375,-16.368772209698363,37.701905449201064,6,S01
14340,0.0847502480705982,6.753617782113986,7.157994719694784,-4.2,-1.2,0.6,29.220931000562704,-16.36541346142377,38.66629512418383,6,S01
14360,0.07984413438414886,6.720872309277956,7.163802904513065,-4.2,-1.2,0.6,29.583905731169374,-15.990423384589445,38.057106507898425,6,S01
14380,0.14493412066555755,6.743475236528977,7.176119589938579,-4.2,-1.2,0.6,29.24632409075696,-16.453834581647374,37.426118483095955,6,S01
14400,0.09646087804018041,6.7218693679825074,7.164716087638741,-4.2,-1.2,0.6,29.650199076275584,-16.605142915064626,38.132936616334405,6,S01
14420,0.1099622674806496,6.764315918136263,7.179741914425139,-4.2,-1.2,0.6,29.60698735795192,-16.058089717775772,37.61806781018426,6,S01
14440,0.10626977751489004,6.754452425811356,7.158184471780734,-4.2,-1.2,0.6,29.18370615831121,-16.13335710483855,37.32570036392185,6,S01
14460,0.11564250898604683,6.747378129777174,7.181910107186112,-4.2,-1.2,0.6,29.074191209448582,-17.066547055481294,39.04236186567746,6,S01
14480,0.09999590958912587,6.7449366389084435,7.157434363075953,-4.2,-1.2,0.6,28.641933415045845,-16.774727152370446,37.51635279068219,6,S01
14500,0.10345325040112625,6.764225015383263,7.165201978630584,-4.2,-1.2,0.6,30.594250855823667,-16.43314041813948,37.885956114584936,6,S01
14520,0.05741846391908463,6.759295295437116,7.17095344850608,-4.2,-1.2,0.6,30.1254045474622,-16.737340162928962,37.87123787724404,6,S01
14540,0.06451290165129234,6.727426287982023,7.173796581566989,-4.2,-1.2,0.6,28.806490739943133,-17.210081889988448,37.21230034757869,6,S01
14560,0.10326520821338019,6.756533709273008,7.160082100132112,-4.2,-1.2,0.6,28.87484331643865,-16.235964006201797,37.89803782487591,6,S01
14580,0.05841288164689086,6.7264324601093435,7.163776812246444,-4.2,-1.2,0.6,29.794491726206076,-17.629326186751552,37.861357683104636,6,S01
14600,0.06499025588678659,6.735374809653162,7.162630833740196,-4.2,-1.2,0.6,28.856428405387668,-16.08638893821437,38.09903534756375,6,S01
14620,0.15729467280326662,6.7521662387440315,7.16881661359563,-4.2,-1.2,0.6,29.050994960311613,-16.685481210438205,37.54685651427994,6,S01
14640,0.10440303243975141,6.739095631404641,7.173243380885532,-4.2,-1.2,0.6,29.817769724911795,-17.117227209079115,37.56918758592393,6,S01
14660,0.11097794217054983,6.76753641875579,7.124907238957801,-4.2,-1.2,0.6,29.187117122250342,-16.311764623955515,38.16874701450024,6,S01
14680,0.10635860972627456,6.707752471767999,7.163873209652355,-4.2,-1.2,0.6,29.544169607498127,-16.098579468804257,38.07336924379224,6,S01
14700,0.06527454902085253,6.734039347341445,7.193982425273383,-4.2,-1.2,0.6,29.12240560247362,-16.380646118500263,38.00685111294784,6,S01
14720,0.10442043480532916,6.7204184127467945,7.189364154342572,-4.2,-1.2,0.6,28.949451360233926,-17.576556242559835,38.10245143212659,6,S01
14740,0.11032980314834763,6.706338572900235,7.17371180755047,-4.2,-1.2,0.6,29.335087444993164,-16.329948433696572,37.730480266494204,6,S01
14760,0.11982367947131843,6.7287276737778585,7.160634083469655,-4.2,-1.2,0.6,28.98498700963214,-15.142478593069006,38.23014318293765,6,S01
14780,0.08240204890192147,6.7349435921042,7.133037809282972,-4.2,-1.2,0.6,29.853296344152184,-16.13157539274127,37.025512906387526,6,S01
14800,0.1576350367333702,6.719602738839236,7.180545691814049,-4.2,-1.2,0.6,28.915481518681133,-17.020678563031577,37.11778286403115,6,S01
14820,0.1121312708636318,6.737769325408959,7.155866405150591,-4.2,-1.2,0.6,29.175068573813792,-16.79369358714422,37.89912490014919,6,S01
14840,0.13487157809825695,6.744050913864628,7.168606055091884,-4.2,-1.2,0.6,29.43701024675858,-16.676350223337124,38.347213741159656,6,S01
14860,0.09078609818283628,6.700054505711945,7.156865059483622,-4.2,-1.2,0.6,28.845861174008643,-17.166646810003265,37.816052918318235,6,S01
14880,0.09389176090151741,6.733201252298222,7.108317024844505,-4.2,-1.2,0.6,29.44997389859984,-16.555355742498115,38.194805548487025,6,S01
14900,0.09124217233011778,6.740324051140505,7.1708132430645,-4.2,-1.2,0.6,28.941048236611014,-16.850583227775672,38.60751106673658,6,S01
14920,0.09140660119994752,6.740774637707249,7.168713278018803,-4.2,-1.2,0.6,29.33669444127238,-16.87270337702211,38.1471521612407,6,S01
14940,0.09248237984337157,6.736692914658579,7.202617124509033,-4.2,-1.2,0.6,29.36457354927817,-16.570666022101985,37.79369731342188,6,S01
14960,0.08887919525803867,6.7242476251430885,7.17038362759981,-4.2,-1.2,0.6,28.69722133756091,-16.32120143048182,37.71449003322706,6,S01
14980,0.09582233033461904,6.710964489726224,7.161488213203533,-4.2,-1.2,0.6,28.798318777387827,-15.394300948112216,37.93166927315023,6,S01
