timestamp,ax,ay,az,gx,gy,gz,mx,my,mz,label,subject_id
0,0.017202171053805365,-0.1326805026464083,9.99896074580449,3.175720012641647,1.741485701063968,27.825711607366554,31.745273463197115,-3.887512354307296,36.89397161967125,3,S01
20,0.8631897830857364,1.3771141305246084,11.117841987034009,35.074389825328545,47.00695732865884,14.851922112999974,29.885649401369378,-6.937622016565183,39.03754657570574,3,S01
40,1.273748394327637,2.184515017535103,12.200422514201989,63.919154164000346,100.41420273008855,5.598181278111214,32.79553430237483,-8.135217918112495,43.348709252698136,3,S01
60,1.420415356144865,2.8573157786173136,12.8543416540719,62.64210174346269,114.25719518119111,-8.598012112129403,33.555563711432505,-8.048746280473669,41.76557253478142,3,S01
80,1.1070131375060352,2.6673212862520335,13.176585794812233,52.25468650636902,103.71720619019351,-14.095478433379371,33.50059821753643,-7.598613214648281,39.74449910365775,3,S01
100,0.9162506062458948,1.8918045235016503,13.260806138079303,36.14523686550176,70.08210655118022,-25.93059252937249,34.63011377769912,-10.463190430901282,40.5660026345578,3,S01
120,0.25341183038705006,1.2869461428048317,12.99169554970917,22.668642350004994,43.17909239204196,-36.8965194942961,36.91756719877142,-14.484818717998305,40.61736475671431,3,S01
140,0.4445410717959102,0.43054774415116476,12.542110756137754,-1.865018930216345,25.200520560929288,-43.28172674854158,33.679620437066994,-12.523508118211168,38.24372071037213,3,S01
160,0.14679139058558455,0.07432508651704495,12.05196989189221,2.3135815646464497,8.79266260291254,-36.34197727169451,35.54030530491724,-17.417602287269133,38.31728100185529,3,S01
180,0.32684304625327476,-0.4115273554861689,11.374429734573035,-2.7086487217397828,-8.975973117525982,-20.47150031497357,34.01698335273531,-19.26085685896806,36.11454516489468,3,S01
200,-0.08763935229012923,-0.9272862146002498,10.378946128210947,-5.5095265465881935,-35.65322879071834,-15.240391257057043,38.66247468506003,-19.455452819538756,31.194919755285124,3,S01
220,-0.17486957863828365,-1.3773032051884122,9.870275831406943,-19.78677216317528,-56.19994993552835,10.72758058204,35.32406463298767,-20.28691698485613,35.1798410890266,3,S01
240,-0.8248371739131349,-2.2838118062957253,9.50015743599043,-52.75484656888173,-86.18231930807995,15.355058921493326,35.65617524664711,-24.305410946382803,31.25444890801373,3,S01
260,-0.8868893086353944,-2.553803225457536,9.131372026239521,-67.48432148043128,-99.8333738700039,33.363375173925476,35.40363449589651,-25.390511824562477,32.28632779129276,3,S01
280,-1.338939085246879,-2.892392176615532,8.854527927319916,-81.00672820560723,-113.93648973360237,28.145734119163862,32.9832030097732,-25.507119628879604,34.52692900784457,3,S01
300,-1.172644587634022,-2.531207910732179,9.295259866958522,-73.97685140515203,-93.46611907140789,33.055292706605606,34.13897322909527,-28.05933871935327,33.387156726906326,3,S01
320,-0.5774040668412487,-1.3915575473829973,9.677023640469702,-40.977648453284075,-55.82845213915051,45.0315138907419,31.323751763851504,-27.869656711309403,38.90577618543288,3,S01
340,0.09248239885559759,0.21510420932149904,10.286011846971219,1.8555559307981095,0.28122638798176447,28.573095951708705,31.171451180104217,-28.313093770747688,37.610126618735364,3,S01
360,1.0722018466939576,1.313176106807931,11.05892694341994,40.78458703564952,61.20617502368188,14.9381580349245,29.286532988021275,-29.230790678093804,38.100686847781155,3,S01
380,1.2802668915318296,2.250972222576276,12.28263018649261,60.93014754699439,107.28277726498094,10.401080384133008,30.099264915029643,-31.785035484959103,40.16147672523688,3,S01
400,1.4491333272106979,2.724206780236707,13.078973114432918,60.935078299030806,111.34285937833447,-12.489381674357102,30.230731712937118,-28.806281734384502,41.66262260397052,3,S01
420,1.3656369805902102,2.488136626810226,13.187999604007567,54.41035960985873,101.89467412720107,-26.08460457061535,28.52384914830171,-31.02862974249052,43.52050261651252,3,S01
440,0.7212138393202164,1.9243386535869766,13.347370119747685,46.73994346629527,70.87279727341712,-29.71815147963909,25.88941585534084,-26.03619980718305,40.74291744819198,3,S01
460,0.3926425476089771,1.0065104875257405,12.978093784796163,15.934504342428273,44.07685435579392,-32.98862102028204,25.11746759300889,-28.555412511352436,41.32314990383071,3,S01
480,0.19307023704169451,0.5070197327309489,12.503490396206912,7.100068381593949,23.825469599335683,-35.94951106685832,25.761538734560293,-26.079634053331205,41.01725481441707,3,S01
500,-0.04272997421132965,-0.039600502127310894,11.825866875916951,0.7728657984865128,6.546576046500358,-31.023585426516345,24.729889332245776,-26.046310893800293,36.73269333006187,3,S01
520,0.09924121007154188,-0.3669685444259742,11.004203176880686,-6.097144947577966,-16.61570666068616,-22.830257549277594,21.80365973576671,-25.319996529170187,36.24067471076772,3,S01
540,0.03428296814474685,-0.7863558841118672,10.40403629351995,-13.089980483361192,-33.26637328792338,-13.585203495734211,21.421319964851264,-23.415570390353366,33.977825998160746,3,S01
560,-0.27548725898601545,-1.7648825498572263,9.68105767095039,-33.25303389844288,-51.60770336792511,11.830672153926164,20.728624161465614,-17.434064205302448,35.19246225450648,3,S01
580,-0.878236822850177,-2.465395069240689,9.332467093357074,-51.54357048458978,-87.03688502922212,15.592940691692464,23.205994251518494,-18.907346552641535,30.80821638126421,3,S01
600,-0.8789232250747403,-2.7685420543572015,9.188278789613488,-73.5671917231677,-108.93494034526826,29.140145670772867,23.373331242194077,-17.42658306179043,31.453734165771923,3,S01
620,-1.4107072450717297,-3.083476410757297,9.354126830616595,-78.71419328565233,-101.92715649067758,41.30720222785327,20.31061792878959,-16.53394260681501,33.59542025773095,3,S01
640,-1.1319353496756424,-2.2190057296370003,9.131480535435323,-54.731432990201505,-92.24530494043216,39.33412565499596,24.613887439379162,-13.451586698766244,35.56444611639326,3,S01
660,-0.4580753607965421,-1.028594199657326,9.725291250659062,-31.86313121894671,-39.42401315106121,32.17682260174099,22.08584540631976,-10.158764093499645,38.07612174104089,3,S01
680,0.1194993504480358,0.39450311559595436,10.451391422428147,-5.203073684930673,14.989126878663772,34.729008925153565,23.416972038832927,-9.019897226730578,39.80136046996445,3,S01
700,1.0573523698484029,1.6668691467609729,11.343328360835084,45.531829535330644,68.04303586213415,13.856774502374025,22.858779282151723,-8.35638964611135,42.739632448646866,3,S01
720,1.1007567905264029,2.7034395698486517,12.364954170183413,65.03636157364795,100.81130487342301,7.661170118686008,24.792428826737535,-6.831335469829886,42.33253637636615,3,S01
740,1.4096020632015702,2.734258188202432,12.806007309756302,64.1343446207285,117.60215310932854,-9.375607114974732,26.06349331065234,-3.9889440016187425,43.039233484105495,3,S01
760,1.275177546576591,2.6365886326335533,13.140493489187213,60.1647988936886,103.19599728100445,-19.41666386703129,26.05423096251728,-2.5898676109856353,39.94126890919237,3,S01
780,0.6561158350502132,1.6960093789189863,13.556202344253524,37.365892317527326,76.93158963876444,-39.449534554388826,26.119586621427707,-3.225131222389173,40.54438004940092,3,S01
800,0.30129590259285305,1.043828603931145,12.947991081875347,15.079518038770225,49.067533511136034,-41.7969137052544,28.130185151078575,-3.349622032941796,37.95689170092777,3,S01
820,0.1538355027939618,0.17938749572009277,12.467166342881855,1.4192536570838188,21.49609511854595,-42.137164169036346,30.036743670355808,-5.456715341507666,37.504184915882234,3,S01
840,0.056127608326013496,0.1622241713433343,11.846658715817851,-4.430243463997757,-7.121301366383975,-41.331264021818484,29.572831429441138,-4.79894036156082,36.789970533052895,3,S01
860,-0.07207985847924273,-0.42330618125776,11.223499958354228,-11.235066043016808,-12.801503456422243,-19.971727314644983,30.92733027876217,-4.423565410677227,35.07979541869065,3,S01
880,-0.13098663506434957,-0.8752325857477921,10.300686394317449,-19.567298961778537,-31.717486070494644,-11.993572595571303,32.35862649429518,-4.954649237139725,34.66284125222714,3,S01
900,-0.4885441283479832,-1.6171103762126906,9.83909080089446,-31.905587276576885,-62.397796163677086,9.609861239315919,32.775432759220635,-6.393657736812279,31.623920912200706,3,S01
920,-0.8287644245538575,-2.4340406220115844,9.335511601978608,-50.240659199437886,-92.5898351250821,26.453512014496752,37.02221495157234,-11.63407769726955,30.70541431069626,3,S01
940,-0.9648265209832575,-2.9059650595274245,9.045651714476714,-76.22708530661308,-115.67019824929915,29.417285776762167,33.899323726165385,-11.116997599627776,32.76438919328315,3,S01
960,-1.1700285768306309,-2.5733763392085787,9.274655226897307,-78.132288737366,-111.60209749920466,35.99863717388175,33.43191836752753,-10.003798687815099,33.96219590277788,3,S01
980,-0.9680702822020785,-2.3483300834643024,9.417440318981724,-64.30874618800364,-95.18907018943685,38.710477864298255,36.00826932295461,-13.501115507755692,36.559026891407434,3,S01
1000,-0.5313870292799201,-1.08286916374617,9.497729464977407,-25.89671485030193,-48.00527528426085,39.25524577531488,38.81583198484812,-16.826474551348547,34.15515305274245,3,S01
1020,0.39854043005331174,0.6783495032340994,10.527692288238306,13.265007588309135,19.257711039313996,33.41987467682967,36.815138247966985,-18.372475848391737,38.60503627850319,3,S01
1040,0.7927711403908219,1.8723897318637468,11.382961600743725,39.99116350971333,75.139339780742,9.376786586574394,34.0882504566084,-21.685253398364654,37.83578875876629,3,S01
1060,1.6495117964209276,2.8958897523236633,12.208080494900893,73.95060280850198,100.82773065565756,-2.614718336865916,37.79798128320729,-21.996285180366968,40.754637716252596,3,S01
1080,1.324593676193064,2.6370429021796973,13.054490880236946,62.893896960734395,122.68440759530831,-17.737260546678396,36.578446364022476,-23.910558844694606,41.453638837349274,3,S01
1100,1.1308171392375317,2.394689154874512,13.097561381185498,57.61659371802469,94.79956719055073,-30.65561460473678,33.75910946664828,-26.73678479924091,41.67103166803935,3,S01
1120,0.5500772811130273,1.5343190747329296,13.567092558594636,29.71703148897411,70.56378763951973,-32.46313737862517,35.33973253381796,-22.321548101786547,41.1079378532699,3,S01
1140,0.4245637161983493,0.9185440218828702,13.26502911413298,4.111205932465475,46.47209912660972,-37.47858383255771,34.74468041049467,-29.822357900392365,39.981851260791686,3,S01
1160,-0.04401961312034927,0.4354959662591696,12.472752791410182,-1.9229703136908949,14.645920788449073,-35.50421352763465,34.75184586867341,-29.960667665242006,37.21371567871217,3,S01
1180,0.03630905526551205,-0.2828273922941109,11.690318428677493,0.676867695056349,3.908320689838942,-36.61932162218744,32.545446847297555,-27.33778924353167,36.03560155937824,3,S01
1200,-0.07369277098357918,-0.3990942134060375,10.812166619662717,-3.2437325252616462,-11.166880094566459,-15.603256262749953,27.100496511577454,-28.946449628346333,33.1701848448035,3,S01
1220,0.16420673045870882,-0.8439542646601053,10.248779476744033,-18.71950471746339,-33.66467104525948,-5.256921688531206,27.611498385318203,-30.829206988629846,35.406875265608946,3,S01
1240,-0.5012134755060695,-1.640083644564111,9.714871262460703,-29.40737200654342,-63.681150124767974,11.962089974525476,29.210716427427446,-30.94361783815376,34.1350172792837,3,S01
1260,-0.7712533117933111,-2.1254227388313325,9.294134459182008,-64.7461822374555,-84.49910659045419,24.563864594557444,25.779163183525004,-30.242579022277088,32.071479420777735,3,S01
1280,-1.279786855575695,-2.8727570347843447,9.136338675440847,-69.2925927355447,-119.93947003928683,32.386396840505036,26.39277442339956,-28.99804160252325,30.15156576860491,3,S01
1300,-1.2253275762919429,-2.938096891835675,9.139180868526314,-81.38655791995089,-116.05744209414269,38.064068498330016,26.45776831965947,-29.95972325835596,34.106873384438934,3,S01
1320,-1.1036535575042206,-2.3550280254539695,9.449153779962423,-71.95780668940913,-88.85530972929733,39.69365939849786,25.600165174265868,-26.638972127364315,36.17664749868133,3,S01
1340,-0.2656467005370794,-0.8568953371402845,10.012386045378852,-19.104622821438525,-31.748887022216547,25.885056523618033,22.4150038138842,-25.71574334926433,37.47293735277524,3,S01
1360,0.5374183796688471,0.5873588506032474,10.748963727872567,9.239552864463118,28.458478301725922,21.329754874551675,21.70902199028123,-25.941171013436538,39.180365248991386,3,S01
1380,1.212828032615548,1.6820347149406125,11.335967736696846,49.53094722144741,75.20808711124008,3.171098576544399,23.783379922918098,-20.73174715702271,40.86693422864169,3,S01
1400,1.729869779128146,2.9394377100102527,12.563044443598434,67.14538323493822,106.81097584426695,-7.608859458828379,22.43020152995345,-21.276636285230232,43.35314714332457,3,S01
1420,1.4788263083712223,2.7749970818631398,12.853335776958453,63.075452734595984,103.59013937792095,-10.367051058565588,22.549441890508678,-19.851877025639702,41.976456809767434,3,S01
1440,0.7368316913595213,2.303703462844255,13.319015562553119,48.37611237119217,98.28249053399604,-27.931187695956858,21.84516599326551,-19.452064828439518,41.46630470441872,3,S01
1460,0.5689098169493094,1.512238883966759,13.459006978897294,28.092250038323026,67.04859769922156,-37.57815287333971,20.97996599888081,-14.590516591191784,42.17860749459881,3,S01
1480,0.3079431781377877,0.5547176741896724,12.554981182722802,12.38038135580857,35.72138701590462,-39.128499078478555,21.669635189881348,-10.97347659208037,40.85424385422656,3,S01
1500,0.07986679824507942,0.29410446572641386,12.144744109863378,-2.417888287179315,12.572686788993622,-44.417930409500684,21.540499740871482,-10.402150037069461,39.54746203977437,3,S01
1520,-0.15261455043674169,0.007229112075280639,11.721757985212736,1.2622160490082965,-2.1138844730955375,-25.937135035947364,23.693602761943485,-9.063219916296118,34.847236555614444,3,S01
1540,0.242153234198452,-0.33958156305497406,10.973282568520212,-20.162348242567948,-16.652457196154266,-24.388263410418006,22.299729708711936,-7.431394670225646,35.955314518759764,3,S01
1560,0.09386730255411212,-0.7133275853482475,10.289023063632857,-18.514579235577504,-35.33615090735521,-6.200212295392495,22.067138849244117,-8.080098893524966,35.424371017049594,3,S01
1580,-0.3827207003790153,-1.3589818315540296,9.609044025145751,-40.55280280271736,-52.913709032000696,19.61361878341603,24.029241345305056,-7.610081854514413,31.22207127001456,3,S01
1600,-0.8936080390389289,-2.3676234843739263,9.772729621157492,-57.83442751134108,-107.96613000359564,28.770644376996067,26.429212791308984,-5.971773577813484,32.224329924437555,3,S01
1620,-1.135467230113782,-2.7112776176923354,9.096917187188312,-85.0852453915539,-112.41098058416851,40.843210435951626,28.332159437806926,-4.618992674693817,37.19264792580136,3,S01
1640,-1.2208125813270503,-2.8234272004196144,9.484432685288967,-72.08794436470578,-109.44172794548771,40.670502909266226,31.371024581766953,-2.066330474954966,35.684086444832374,3,S01
1660,-0.7826380985058683,-1.8450334699067088,9.613852093891483,-55.562032695125176,-82.82015036349583,48.78234416635616,27.16537722560222,-5.328058913861293,37.28973352320806,3,S01
1680,-0.14309230272470996,-0.6439792281031858,9.798385688844398,-31.459222967153377,-26.595914801424023,35.8633110845679,27.085139626289244,-7.448957200082858,39.06485940260997,3,S01
1700,0.6489622745907003,0.8232711478192565,10.543606450684862,15.444430746984157,28.189315246562753,28.299182740308915,29.506496073379644,-4.227000405164722,38.454140271863004,3,S01
1720,1.3411914471831743,1.9934981670339356,11.60311441843215,49.773048075488326,86.50450209439367,10.882187559703041,34.93968190448496,-7.329567056854608,42.19376390055425,3,S01
1740,1.3727021584032093,2.794682539069506,12.756326782542775,71.45488981085093,108.28890953310685,-1.3123545526244889,33.5620659975622,-10.059959538304213,44.20155570891498,3,S01
1760,1.193835954673749,2.4919797344610863,13.072065993122077,64.77119313391613,107.62413518352032,-13.081290114986569,35.15274733973937,-8.316307742833867,43.029268511222185,3,S01
1780,0.9595142841178401,2.091031606402263,13.603019410695305,56.40750199282862,90.29855584377141,-37.259139692150434,35.07936127166523,-10.934208571222591,40.74901232383376,3,S01
1800,0.4520511721884798,1.20859188539804,13.163621007177857,30.144212576828057,58.52345729200598,-30.5872187241055,37.590764220566754,-10.835689028243806,39.080677655706914,3,S01
1820,0.20912940928450108,0.8696238607104689,12.501173425677099,9.775329668851246,30.277548545496565,-49.371133005023,33.225688026269104,-15.268872695188026,37.11077092928492,3,S01
1840,0.030804578932006152,0.31029382189081156,12.474382273989479,8.086686300101661,0.053194896450107665,-33.44018695242445,36.91810102059612,-12.925319140218932,35.24573940902671,3,S01
1860,0.1298088379014079,-0.11345693644800522,11.540854610904693,-7.928565483008823,2.104547627647242,-30.40223113545588,36.71539172399249,-20.090945188261742,34.2915925629855,3,S01
1880,-0.06020720949016328,-0.6989890085735391,10.757310948005262,-3.680754065316367,-26.091282824341846,-11.199330844824663,34.536859753842535,-19.221254599533488,32.65898432451634,3,S01
1900,-0.17665946860098256,-1.1524676719331455,10.074160304696,-21.188896570164353,-35.513212162470765,1.8720722230123346,37.76980072726863,-21.521988444635177,34.000639465311465,3,S01
1920,-0.6183556198888862,-1.9318466471935412,9.923240431108788,-43.87685873203979,-72.06471922178065,13.673439446577829,37.190571061754085,-24.656741499187255,32.128502549733994,3,S01
1940,-0.8516892564162374,-2.6048362792101654,9.194568392628847,-55.20042477465126,-95.66313615803774,26.669948580389413,37.2241029298043,-24.068925588581017,32.282686277667864,3,S01
1960,-1.3534372338352987,-3.0416997796868452,8.773773674035837,-71.57846912655872,-111.9858678636483,33.06312732537122,33.98535381131549,-30.28602709138817,33.31895298889938,3,S01
1980,-0.9106043963477893,-2.7555605408639523,8.95799634558238,-73.34959919801615,-108.75965033546301,40.67727595095902,32.59987905700055,-25.955096339454478,33.57727984303084,3,S01
2000,-0.6008465599856236,-1.9593715562805596,9.518134524958233,-59.32441093281223,-82.68330044679952,42.076512980665946,31.39420806547149,-26.470895044227863,34.835487946469456,3,S01
2020,-0.40616820502025375,-0.840041816980239,9.952097482711466,-26.586996127205257,-33.68743985974319,34.55178186503388,30.60137037638795,-28.858019577599407,40.25483692106668,3,S01
2040,0.5759434041161478,1.1059867202214004,10.71672777959146,25.144314530796706,34.37143859137025,19.309927393118617,33.81725909041004,-30.666301228242805,40.00593429200587,3,S01
2060,1.1193019236284447,2.0315211556011032,11.889916971599508,57.985124447376194,83.57896588543413,15.100020133830995,28.890992112901042,-29.134565884593385,41.90285664829548,3,S01
2080,1.4705221898163476,2.510376132588812,12.68021414107065,73.97990653814401,104.68167104474537,-12.34069870375869,27.849354120643014,-26.28850839189172,40.56117856552218,3,S01
2100,1.2754768667386749,2.67826498104967,13.221405394137102,65.53644741133837,112.94985989512391,-12.749580605084047,27.338587898916526,-28.340820940668394,42.19545576038728,3,S01
2120,0.728411121109458,2.135184259287714,13.075700523577792,48.926021515755906,85.19456971788294,-30.17280473424831,25.705206159528494,-30.931618618171214,41.062183190384204,3,S01
2140,0.7383432569313249,1.6553698438872142,13.264948445332008,23.168164057633682,54.04227213266286,-39.165462987202595,27.734549177169797,-28.160069896565254,39.735880690661325,3,S01
2160,0.5735139299463572,0.6605001788470994,12.85070655524602,6.190106748419068,36.82397706147779,-34.99980670903615,26.531244222147166,-29.206004494388804,39.83086743909833,3,S01
2180,0.3610199215966836,0.2823415078832879,12.35516610171982,6.554548677050284,10.08554486323239,-44.15933706966349,23.95885107719439,-24.184197557983516,34.29852285286475,3,S01
2200,-0.1115889317952932,-0.30109068158099095,11.732380790531028,2.1350669114187193,-11.764762106607229,-23.791902955233866,23.117769730274393,-22.535915448104415,36.42838371105682,3,S01
2220,0.13657079832325458,-0.5903078777159991,10.80269359936283,-17.38416853037242,-20.25594974717784,-14.118134456604373,21.403757962659952,-24.517388334342563,31.265245801094146,3,S01
2240,-0.3387792991949581,-1.0296060866088932,9.802186099571497,-29.67460186983544,-49.43336147057091,4.51911287929061,22.02838649435857,-17.80494296296421,33.74392331643997,3,S01
2260,-0.4651330287065635,-1.8826429318249776,9.445481516711363,-39.16752575771001,-73.59787609503944,11.91153238972806,20.768418558496265,-18.117797260576594,34.107051965475875,3,S01
2280,-0.7559755161193726,-2.749200019343471,9.265607838113047,-60.69379660685324,-98.69487512148422,13.556622680195078,22.368090400231814,-17.342264933825042,33.111229520594314,3,S01
2300,-1.0840903476289871,-2.9639969961779844,8.883201461928184,-74.69554725745257,-113.99351592687968,36.94036395549983,23.87105066898109,-16.09284388850115,32.32525927686066,3,S01
2320,-1.129433553910191,-2.4170334506294298,9.036259546545232,-73.75660487540165,-109.13176160049876,42.90672534183266,21.58635111996943,-14.180370751282908,37.47101707655472,3,S01
2340,-0.7405664482232495,-1.621997547589904,9.378807537377469,-47.60421327180569,-75.80787037264587,37.120707148222,20.195171946897233,-11.858995551160394,35.713721723451854,3,S01
2360,0.2296268472215555,-0.19136136160839445,9.978962176278602,-7.728056507324158,-9.815788079139102,34.71373036104629,24.438284857019532,-8.493991653623887,37.7333220672787,3,S01
2380,0.6934356018185601,1.1772455077741215,10.848060211984112,26.03547036854191,41.2699555485623,17.796579472506263,25.340556666552125,-8.185620393516297,42.41183272681465,3,S01
2400,1.3670982150001922,2.340253467808388,11.947366706007372,54.350727365954235,81.77913632298109,10.279081102825119,25.75661410464541,-8.412296686671692,41.80964554221027,3,S01
2420,1.2346942654669526,2.8157290939036987,12.575990346097322,64.68610202158555,112.70402015694691,10.473614101027422,23.29993856274959,-10.713857376868326,40.94377017860614,3,S01
2440,1.172347611323375,2.7726624118983865,13.13759369005258,70.12134031275754,108.66462299785292,-23.113197032841146,26.583534177562033,-2.7836370363685186,43.694021165942765,3,S01
2460,0.8602392855600913,2.1878266089237295,13.26208121004814,45.23155595875883,88.31175926547013,-28.757712064871164,27.28262455967302,-6.412476410711429,42.313312291775574,3,S01
2480,0.671851101179241,1.2272056590065024,13.33618965161987,14.431325209788035,54.981042079494635,-38.432557016157475,28.65915338077403,-4.122250743257128,41.14344163093318,3,S01
2500,0.18531899127293017,0.758259979708052,12.967789434587251,10.170417929623465,18.448629550718067,-40.45284377372544,28.432567115195823,-3.4241711467528226,39.86290120744377,3,S01
2520,-0.23540337061385277,0.1223036926773712,11.979431616301103,-1.7713208094447648,13.982644785174138,-35.027004690205814,29.35792269689533,-6.332705245493908,40.354379834059436,3,S01
2540,-0.08541167199111904,-0.1709110948063532,11.151571364536077,-1.240378744977571,1.393656739246745,-25.138621702400705,31.96796448670224,-6.717051422155213,35.92609034757136,3,S01
2560,-0.007435393071220139,-0.4811050981329592,10.7638202459701,-14.467707262367476,-22.062561586983335,-12.333636944674641,32.41119093904274,-6.118983187831552,34.80173174002204,3,S01
2580,-0.19823081075328433,-1.120915558839168,10.05786971535294,-25.75314530850778,-43.81777489565193,-0.31038342097150196,35.19208947684285,-5.412037142263488,33.40837055872875,3,S01
2600,-0.5459650626926194,-1.848299369082573,9.701274889389497,-51.9672959199456,-83.33610561992387,18.65133985535382,33.30527504128668,-10.824129743909296,30.466308585617814,3,S01
2620,-0.7779548572340219,-2.4735502727455723,9.092823835312688,-64.26877397968643,-97.26569968063905,25.59904227814569,37.196040651699136,-11.27148548184469,29.21842168743499,3,S01
2640,-1.0739828263179503,-3.102406968001113,9.413395034385324,-89.5460418682942,-118.40383656261315,38.16889904929499,34.57631748515348,-9.249315874591078,33.31095348988508,3,S01
2660,-1.0294323303059514,-2.7371037829569658,9.418444863257687,-65.92449096640703,-100.3970288120082,40.63673745009737,35.638202268648655,-12.49886611275802,34.66005646681026,3,S01
2680,-0.8350667339050404,-1.804523272323007,9.716526380776443,-46.89799145044352,-63.22512898740592,39.98434963697307,35.187618428927415,-15.601508223886627,40.89130036271937,3,S01
2700,0.08036443179305985,-0.35090289897166244,10.136284994102077,-6.451724695436626,-15.038381429147375,25.998754120239578,37.58979804881625,-18.903771787284363,37.279966593189414,3,S01
2720,0.9336411409081133,1.1975217516533434,10.880882770735596,32.593655476006845,48.23124567208394,20.94984021433235,35.63128892698744,-20.664295948716116,40.2224081151566,3,S01
2740,1.0688395366113168,2.411925510435895,12.215794422805333,66.05708568930719,96.95057334367426,0.5199195965984268,36.219810197051586,-19.494037702856104,41.22397355668864,3,S01
2760,1.4771489786987486,2.7637855988818916,12.56268792868982,69.5317748004256,106.19325401768863,-9.462880209748096,37.69400399088404,-23.099646022872985,40.30888753077202,3,S01
2780,1.1024768696569633,2.4829461859808473,13.293044247824186,59.63366909983708,111.46344094015888,-22.84403037116397,35.30190020543769,-23.860659540735544,42.998431305490215,3,S01
2800,0.8057126153416698,2.1991327372302565,13.457546700201133,45.65889986685173,87.02725978723102,-33.54871691475021,34.2490957129733,-26.19851409081726,40.26879307776472,3,S01
2820,0.43848861122263805,1.1807081704999758,13.025402983319294,29.247971881198357,53.85799155094304,-36.49221445621533,32.98870365799018,-27.828464623353394,40.301088950092385,3,S01
2840,0.45096671116270115,0.6769709428610067,12.53422056773472,0.45678061071666765,27.755802480122963,-41.430417343901105,33.44246911970785,-27.446860480215587,37.532028371504744,3,S01
2860,0.10373461434553669,-0.01538368918796379,12.224696277722002,-1.8168852708603596,6.3637454008265815,-39.27742987795359,29.536941387561082,-30.923403359808514,35.81470951862776,3,S01
2880,0.2562847691596848,0.00016375933059899206,11.246084547844214,-8.213672749280878,-10.683030549082755,-36.11766357635927,30.918624913470012,-29.575105055380373,30.650148530391778,3,S01
2900,0.16924778782365524,-0.5879851867654557,10.215373052046237,-16.2569237970565,-24.967032152161718,-11.856363197978247,29.4888939436411,-32.4522683670678,32.40808018558563,3,S01
2920,-0.2688596435677395,-1.1578306135703422,9.762548966171266,-25.536331935917413,-54.52947175822238,10.105594677011217,30.902519259052184,-29.00719397296504,33.17894085136945,3,S01
2940,-0.4956575714314526,-1.9609981104688006,9.260910464965558,-47.54843778665448,-71.41575989972614,12.959699409582901,29.029251105326303,-31.44908849803077,31.776548044101308,3,S01
2960,-1.1016810609173606,-2.727095140351433,8.822968235210514,-67.24113843099524,-107.01417662595169,37.363305303476636,27.37423823242738,-26.292214433303748,31.52850029261568,3,S01
2980,-1.3620331524079932,-3.2687457150376598,8.98123276343296,-79.79118856015508,-126.20922934497322,34.113135358573516,25.504904018643714,-29.157151465218718,32.57821961329991,3,S01
3000,-1.0321320321448595,-2.643173995192659,9.38007812908683,-76.13643076300717,-96.2905824218035,33.819435852042744,25.518332467623708,-26.66772710077595,32.777590905299945,3,S01
3020,-0.7719073330100354,-1.458459644532162,9.541319770006924,-38.88308750405319,-55.32372283618192,39.96490335408303,24.198189059869478,-26.01287432433884,35.18202825407377,3,S01
3040,0.011888677435107728,-0.08613079221701592,10.173394553132859,-7.917515482172375,-2.789112085448309,36.15145367911257,22.528664540114733,-28.55913079887928,37.43807378631184,3,S01
3060,0.8420075650576889,1.2892060370499268,10.939144064303852,42.0436141306491,57.07131026055041,14.201058636787739,25.183911208374752,-22.802039591386,41.22206206532487,3,S01
3080,1.185880428170067,2.2681689190803924,11.98961428554249,62.14142593351639,99.51628444297458,6.443433232527578,22.293461214797276,-19.423357319884254,39.71640686435678,3,S01
3100,1.4381207140581,3.058002354080023,12.653372875532993,60.63469903549142,110.5838906072357,-6.856708498350659,21.40487851384488,-17.161388633558943,42.22834153094402,3,S01
3120,1.308006327276712,2.8125206298565115,13.510237937768496,59.90778109398478,107.61692807270768,-24.792055511494144,20.117039909883395,-18.046903579860874,41.96552987763389,3,S01
3140,0.9333688516498272,1.7051574520577797,13.23979813997467,35.9498041539663,72.17619933182952,-39.146249371481275,20.068041804698947,-14.896531045287679,41.985214879931405,3,S01
3160,0.167280565096594,1.117731394843671,12.992486204401578,20.71018372843825,52.06338805217612,-43.30166889775907,23.49993394501523,-12.150218095961227,38.468250129750935,3,S01
3180,0.10701893385688559,0.6548898539933437,12.707913997960182,-6.862673243316361,28.68737097219111,-43.17356580425094,24.117505003196797,-13.21303363933394,40.92825326183922,3,S01
3200,0.2357127467322112,0.32458314763449286,11.965626735966236,3.483920039267212,1.5115220462288523,-29.670977594031708,21.80648763790822,-11.520532803202723,35.33408878082276,3,S01
3220,0.16996637402248801,-0.5677920433973314,11.404145695595426,-6.419724220694337,-9.702720147306014,-22.081694994107163,23.39626660818923,-11.827012216885354,34.619737812136975,3,S01
3240,0.14625452951262338,-0.47275389964704795,10.540241432453175,-15.489699084176983,-20.564303121927505,-3.7409391174105306,23.36328428850258,-8.92455899391583,32.31645165759793,3,S01
3260,-0.4176112410468993,-1.3557907265795768,9.906675363894893,-26.864637529503636,-53.58890951282284,-1.9563916636005865,25.260041860699047,-9.25059568164788,35.29759151780472,3,S01
3280,-0.730044693950387,-2.0584799336485284,9.250056040154488,-46.791006014063875,-80.98713350525655,11.677400860521477,25.426192173662955,-4.700039616080835,32.67997093639309,3,S01
3300,-1.1845687634321758,-2.6964643101471863,8.999040248325999,-70.35926697898782,-109.74575793364903,38.564905197169885,24.8677729958224,-5.494804497252762,34.432530600366036,3,S01
3320,-1.36854410330451,-3.090036753880819,9.098545672541384,-67.59287933024878,-122.83868155782956,31.374008520751406,27.16802177166293,-6.448494819973577,36.47290681053493,3,S01
3340,-0.8824282859215256,-2.5624464262439917,9.346078699159463,-59.017904675438025,-95.01362201554916,42.03721735324335,29.29689968885778,-4.829519982704326,35.63071482151794,3,S01
3360,-0.6385787018179334,-1.6799885716330722,9.829277342254015,-33.35213656204955,-57.713142740439494,35.772352455764754,29.773152436657863,-6.612326618809809,36.7605537618391,3,S01
3380,0.23219978814858125,-0.127117552833027,10.104473144420703,0.290464494180271,10.999930288191212,35.68265906264714,30.364184780113757,-4.711988485493126,35.77199220715458,3,S01
3400,0.8215630301126255,1.6426854378992761,11.198034758128804,36.67759826476502,62.8813573513941,16.77371546489254,32.126205330111446,-6.42445672416924,37.02612936795779,3,S01
3420,1.3328832831453727,2.2581275603305215,12.243368626601843,60.885059399275804,98.3341637254179,7.252728493748254,32.482777742483265,-7.214988964510574,40.57572538864887,3,S01
3440,1.3939645766705955,2.516659431275337,12.733519715407276,66.16697388413498,117.74867988708672,-10.995713426262965,30.508774842535153,-8.945059316748239,42.779135386881705,3,S01
3460,1.222201997736247,2.2089581905854834,13.23945230711928,62.16140085285919,90.84661406321071,-20.84854543414847,33.54661526640225,-8.24333621793882,40.09393634161599,3,S01
3480,0.8901006083696236,1.7237804392661655,13.221074699605538,37.81801400551288,78.28851913063254,-29.74218228475736,35.53349713248505,-11.439026402763801,40.63504907386821,3,S01
3500,0.5802660467780464,1.1257112462327745,13.188966967295714,18.083380274621756,42.87622077272712,-40.562895623095436,35.68020795429898,-15.277592491706923,36.26172444463816,3,S01
3520,0.09577987797804993,0.5045028264803044,12.597257152320042,10.45748940494001,32.575837279881526,-38.19453773367338,31.016354821208985,-13.091708908019312,37.29003198496539,3,S01
3540,-0.008912048013528462,0.3364772519386865,12.08878591913254,-4.6412072243996665,7.485556808164321,-30.56530791857858,34.53191346843933,-16.653570922950475,34.34257886316009,3,S01
3560,0.13178447883894673,-0.1374028660914725,11.26126847466664,-12.811632501574461,-23.298997953235315,-12.138240238735447,37.22601921985394,-18.044032177428676,34.8909172948612,3,S01
3580,0.030013125581547256,-0.9097242946110766,10.401003348595049,-12.244503318509679,-35.167897474098886,-13.207146058410094,38.28305961039405,-18.542532991467343,31.193926321162593,3,S01
3600,-0.49659101432199904,-1.5501286672596202,9.976712340795789,-30.20529053844745,-54.25773793602665,4.758167158154383,32.07229739933007,-20.600309807426022,32.57619416667484,3,S01
3620,-0.9141346141438603,-2.015012658222184,9.348131414792915,-48.31047294713922,-82.46200809146696,20.08634274784877,37.28623282470194,-24.5887836021619,33.83267353420595,3,S01
3640,-1.0306974775968774,-2.564175470346334,9.061812745672698,-68.61295546321192,-102.13774614070239,26.9234406509823,34.84627479602102,-26.179409582580696,31.38746284610744,3,S01
3660,-1.143232008351977,-2.8371630254382825,9.39146244835871,-79.15974543616146,-111.4738303892905,33.18913730952474,33.59288096528449,-28.10784014043067,34.000738640388505,3,S01
3680,-1.3664138371374672,-2.269383553379126,9.158299071462915,-58.22055733118888,-101.39596061312675,44.27680184475057,34.87496405164572,-30.33798506808949,37.66657170226079,3,S01
3700,-0.49855489614203086,-1.1713941153833614,9.83466429629575,-38.92251867448888,-43.9565037144854,45.265232299184056,33.69152416113994,-28.91021534770218,38.604127247468135,3,S01
3720,0.02959555087058817,0.22912359544121796,10.315701049637834,3.2954975721891264,5.394489648724533,33.09589518546055,29.03381731863297,-30.36044249138241,39.335944349060135,3,S01
3740,0.9993045686344335,1.7795922954552095,11.321648949957337,36.17272979650217,65.56516732270885,8.950958334745376,29.084575626227075,-29.887261902571534,42.12731119837231,3,S01
3760,1.1351563576198138,2.561250684139925,12.373988160441932,55.95044999940758,104.85516447155261,2.4545825180539502,28.976494448044463,-31.604024746095945,40.75138238945027,3,S01
3780,1.1682037088197688,2.7327065978722693,12.699519892275168,68.66337750539508,109.9403624602213,-13.138120220120637,29.510270518906935,-32.47323821225332,41.32304078643083,3,S01
3800,1.2820752756662817,2.355510219512798,13.105815140214796,51.93886175516886,92.598414942506,-25.940888688861065,26.70298054421389,-29.1011346292528,41.26149295098672,3,S01
3820,0.6360566198773742,1.882008929580788,13.176336427683264,43.285005284853554,73.23873996681417,-32.891783175395766,24.65228376407231,-27.680332575185336,39.419991445335604,3,S01
3840,0.2985246264868714,1.125260182849173,13.141793719678315,19.619759292682833,40.69339201783725,-39.319036757764565,26.080191764393675,-28.513823685946385,37.73278630157022,3,S01
3860,-0.00708147356626683,0.43288181497017547,12.361537210682094,1.1380747418048678,15.551567669495888,-38.69169771532235,24.17517245697152,-27.176786461091197,38.70914812090474,3,S01
3880,-0.024213134855099003,-0.013043745542974688,11.899586043938452,-5.030207864279771,-10.806240045230851,-26.16745168796084,21.67838432300923,-25.869802309330034,35.668393246544724,3,S01
3900,0.19555975307916956,0.08751701764129047,11.391902559022528,-14.016359171641469,-12.047662299075094,-15.526316771319538,24.372855475897595,-26.723444300465065,35.0267485925769,3,S01
3920,-0.2289247954153996,-0.7659073896319151,10.62963178984809,-21.164681258554392,-37.0432181719439,3.94070827414444,23.37666761523121,-20.266933283537806,32.653061693676676,3,S01
3940,-0.11716968470958264,-1.6860126641655975,9.692055879895843,-29.462223006155906,-62.808001046045334,8.600451146629657,20.897285846536853,-24.36523990891201,32.437015134107845,3,S01
3960,-0.7405973707097899,-2.1364895716251664,9.368047043882655,-56.80722840310509,-97.54985094107211,18.68243073172163,21.50393568774836,-19.83256843778523,32.9092730522044,3,S01
3980,-1.012935283883614,-2.843372595479075,9.141895732150903,-75.54947060960455,-114.30581405942664,26.424145712506032,21.649542624224033,-19.487701191540026,32.25524570524256,3,S01
4000,-1.6913461448411988,-2.998016076388498,9.083569734368353,-83.84714303301443,-119.81797858157145,46.12603656970975,20.67613548481654,-14.23254476660465,33.873501854334684,3,S01
4020,-1.1937798568139237,-2.221652792678262,9.49543063830415,-65.64212100200314,-89.3910724144678,53.737059791486686,20.370728367011544,-11.974916856890104,37.02977425784401,3,S01
4040,-0.4766411421362029,-1.021204780080161,9.833558463249696,-37.93337652494789,-35.698833941092815,35.77859245283454,23.340820350161252,-10.764170682097312,41.43073199061974,3,S01
4060,0.2265671644014071,0.4837805905327803,10.534137238357337,0.7794133648009796,21.682136076463536,37.8883582590669,20.84588370975095,-9.315899622493976,38.31766059729686,3,S01
4080,0.8558051709646828,1.838534384988841,11.73703489567625,46.506914581633225,71.0962111773692,11.185711074156593,23.5611585155388,-7.2129454026896145,41.111023985935574,3,S01
4100,1.4516301947731438,2.585925763098582,12.172610313456197,59.52132006473373,106.11581568651397,-6.6297182639870815,24.98943828351003,-9.273407731462589,42.28465531032916,3,S01
4120,1.1179806120002251,2.8782231899761115,12.707770495697583,69.02400540931792,108.36816932894688,-16.100042067546063,25.085619974457323,-5.240273917686323,41.03700761698575,3,S01
4140,1.4455451607513417,2.3815065818354872,12.979855163967146,61.486516939405234,97.53378821921845,-19.35286832062405,26.774829555953115,-3.9754285819057302,41.50096414302014,3,S01
4160,0.8786487010822416,1.6940989555658434,13.222299377677428,26.0250814279817,68.08522470967593,-30.773897312133315,27.834534567827014,-4.350588019929,41.618884673405326,3,S01
4180,0.6274069404348341,1.028902984810306,13.01714455777699,13.841962281234807,32.63163188272216,-43.30767638156615,28.661488975293125,-0.4716038827136835,42.21911857468017,3,S01
4200,0.13676039753721098,0.22916267532317247,12.499293033483044,5.160663031452045,19.310587258254294,-33.69986842219812,29.933089639504797,-4.9970581138668635,35.04304806841665,3,S01
4220,0.11791652163667188,-0.15412083933255244,11.90512504083314,-5.172048525512132,-0.15280174234034716,-30.880002804238558,29.838568603569147,-5.3411906945690495,36.02603143014889,3,S01
4240,0.0036447152828368717,-0.2419593987213714,10.900862177831092,-13.901133165439457,-20.537260489628746,-23.121022510603545,30.954532182683348,-6.514622933695373,34.32985699609344,3,S01
4260,-0.28175690642194107,-0.6418529128733947,10.073214736323164,-17.26651432248728,-34.27408272129544,-5.874447332407697,31.949839617227486,-7.180470985628362,31.428819337562587,3,S01
4280,-0.32324341750648455,-1.566708326781635,9.677529845069547,-38.899894050622144,-69.5176691222228,5.49345968801488,34.493172112269576,-9.112136076465921,33.44061586360125,3,S01
4300,-0.9227706475347445,-2.4166834535228077,9.377682506988537,-57.63234891413577,-92.22471150291723,24.064867923527466,33.66543666604218,-7.7167743312369685,30.78229128334753,3,S01
4320,-1.1107695171750718,-3.0865694223806,9.080643295711349,-80.71149470851623,-105.53561387820858,29.633480385551827,34.87638159295527,-13.271685457094126,33.00022440473289,3,S01
4340,-1.2819368546259138,-3.016948853051909,9.153934096990037,-73.9638951179564,-117.00873004554741,42.951687484511076,36.22328598534078,-13.329917930475734,33.84648277009914,3,S01
4360,-0.8153154129189122,-1.9305205376095609,9.352042311821718,-53.38920621183418,-81.17996933479655,44.015119125552175,38.537722366129486,-15.055858665967248,34.55937764565302,3,S01
4380,-0.42661225542435,-0.7168483615282097,9.928881086241852,-23.00990264887354,-39.52362497031263,35.3716453169795,37.826958342361785,-17.418233830177932,37.74862009023885,3,S01
4400,0.5338179903716593,0.5783518669304784,10.617478722790173,8.97018723917353,14.640263829950596,23.465083283282176,37.0439220921662,-18.634645399590013,37.259278460242825,3,S01
4420,1.1359643621566082,1.7326711811975115,11.594947451873704,57.21227476226591,77.80286637280442,20.62131725548842,34.95019009912945,-21.021131529478545,39.94028916369357,3,S01
4440,1.2835052349894112,2.8643890240724237,12.258357365076042,69.07251434805345,105.85500010056079,3.8885348181951795,34.57178948245986,-18.369333581660108,42.81951990837914,3,S01
4460,1.464540612395614,2.633860646233173,12.710510952155413,62.811374695966535,111.14073992440181,-4.392258232094381,37.37476960520116,-22.09717429464407,42.50692408297762,3,S01
4480,0.9353720159496208,2.0595657977343502,13.35347625314307,53.34263570120425,96.9432111669486,-29.73346389057226,35.90142153623563,-28.437462224420862,43.82270024225011,3,S01
4500,0.5716009307275461,1.508213699187615,13.265233280680913,31.90880735848955,69.01655911834987,-34.77912383004068,33.73165095012661,-30.190267003756272,40.16018516093857,3,S01
4520,0.18821997562462386,1.0642893434467329,13.012358658991491,14.373072165093976,36.06493507363866,-43.03406221548575,31.201282641283246,-27.685357495977602,39.60604838688714,3,S01
4540,0.07797169853010133,0.3364606799644531,12.438669880317992,-0.47426262702369426,14.126870881563038,-35.41628849589474,34.60465760167203,-29.50134531880714,37.29035733185457,3,S01
4560,-0.07530498074565625,-0.09041060685432688,11.834605076243651,-5.085109706177546,-2.405382610010172,-33.2607169010082,29.939503176462996,-25.909248710559122,37.79927848026601,3,S01
4580,-0.05747294517413548,-0.7061630147416795,10.859079913083782,-14.930542787037592,-12.428719924066455,-20.561171493805496,31.78331620265921,-30.7321839449954,32.538257136008596,3,S01
4600,0.1755087651645425,-0.8206810173980508,10.110212624306387,-16.916315009993227,-37.861336478625695,-3.162477065477129,31.078512375833423,-30.273558637466895,33.48889951080774,3,S01
4620,-0.4024048600467762,-1.659478663642328,9.738136486192149,-36.01553023219552,-67.42626128702292,7.328952715447567,29.019090083635405,-30.65986875455908,32.044158085015845,3,S01
4640,-0.9175843041834563,-2.296528431753469,9.193578694331453,-50.42236077824812,-101.84790552282651,26.663167101626673,25.68950562228993,-30.86519217927757,32.94382468957704,3,S01
4660,-1.2050776914155035,-3.0313524762192197,9.072851636644604,-80.74102771527329,-126.36773619697205,31.410974011144482,23.762610542787364,-29.832419826512673,35.08739819652199,3,S01
4680,-1.1813350531767772,-2.660074414581496,9.113891289346432,-68.75511114009898,-109.45609547181137,32.500080642594995,26.04033579099821,-27.803539128475926,35.10866176506349,3,S01
4700,-1.2591727385183227,-2.1945375505368823,9.478540693862085,-48.684324652697924,-84.7184826076506,36.814647608278584,24.422988066174646,-29.05238464937537,37.43608831272983,3,S01
4720,-0.2068617252374926,-0.6648117413415597,9.90820833328853,-23.50732215952976,-41.291201810742805,35.238091575441416,23.98476183619291,-24.443262105695638,36.86154493420119,3,S01
4740,0.5273025847203564,0.7061885749377741,10.613815053148754,10.104130991157227,28.858041064976998,23.275373985592793,23.7399459312535,-23.969640317633747,40.62589493992355,3,S01
4760,0.985933312039407,2.231124546835748,11.51589048644497,47.40500786943479,78.69910164983455,14.296743997360803,22.81320202697141,-24.29187234437118,40.335967935607556,3,S01
4780,1.5219618469199627,2.8112336975920647,12.584330266713186,72.1230181762481,118.30725063758257,2.1147513520056704,23.142762031891067,-23.008435656213212,42.51784904931008,3,S01
4800,1.1776974926879982,2.6656301196431857,13.193927181921016,62.08257735753514,109.00840977051953,-10.630436859196902,21.473197921739974,-18.768035866937595,41.798253673601145,3,S01
4820,0.9951268628251215,2.169553309850582,13.489143158845032,51.5175498117195,94.39816879248845,-18.15158103735137,20.44699233821502,-15.415525355020407,40.5149986808293,3,S01
4840,0.6832797133552164,1.4456524088397822,13.18056705408687,28.09129937339468,62.80948156591285,-32.764290229016765,19.19521131539831,-15.045145523063164,41.542019901059014,3,S01
4860,0.28337304031101257,0.922373722496872,13.016563752118417,15.541111331503231,32.69549136860712,-46.2802432633472,19.15402736239417,-13.195253492723264,40.93262997596504,3,S01
4880,-0.07436178075386993,0.33535232774541246,12.164673523519728,1.0952948547210895,11.900141689209818,-35.727723676197925,22.342657162701094,-12.139279888610965,36.399761595817104,3,S01
4900,0.055147859539294936,-0.1641448641218498,11.729386922806858,-2.2853874223045674,-11.242197234089048,-38.66646736737697,21.929920024602232,-9.67513040246548,34.220085047920904,3,S01
4920,0.043914192736559804,-0.4457995153711897,10.895310574502199,-7.417588178807754,-24.288995324971232,-9.57596593365267,25.96057430163068,-7.449498282013604,32.911222749565866,3,S01
4940,-0.055675593835833787,-0.7251495330555546,10.153850926928245,-28.40621305175646,-39.3260589186426,-9.848938115471318,25.158230577819744,-8.492765550361668,32.1531713138994,3,S01
4960,-0.42376741485061964,-1.6101938421099067,9.557066983571945,-32.44127461904452,-73.58152792492771,8.575716155968358,24.790669163553304,-8.566228838989709,31.08879484562559,3,S01
4980,-1.0932418402176989,-2.0991915275348982,9.110029232129534,-61.32097862970684,-98.95976449745375,30.544740697948995,24.603373354131907,-3.892001398958047,37.04295046500153,3,S01
5000,-1.0564292619244722,-2.7874677593283965,8.84822428000866,-73.69540332281707,-113.93210306923959,29.948038934174114,26.78599192851538,-3.978566214335281,34.261337983139185,3,S01
5020,-1.2108958539500192,-2.9111089662945813,9.173531440211017,-75.16443216776761,-106.57150402632166,34.20246016783767,28.367166302181,-5.805793215909269,37.82386361318008,3,S01
5040,-0.8404580526148019,-2.1412190758959806,9.809342836726222,-60.08366613782521,-70.92446823088324,33.980270006881376,30.25489422155656,-6.037608425582991,35.58503133374022,3,S01
5060,0.03694305061390342,-0.9251298599319941,9.838336935611373,-20.459358235566633,-23.935077699833965,26.21236881599275,32.448054261860364,-7.14702206984356,37.92874519470211,3,S01
5080,0.2927700785644719,0.9567281939622161,10.894439747437465,21.47325933159286,36.802966565333996,24.041554539293173,32.27998254203774,-6.635724351214742,43.35002135198017,3,S01
5100,1.2020180618798053,2.079963066923801,11.705949503640204,59.60097532046987,88.78303487393539,9.953226310930335,30.806660425169813,-6.846257475450834,40.77527758951407,3,S01
5120,1.2260688112139466,2.6575058576037516,12.42154955420039,64.30907388164695,112.44994749954411,-8.719311893607534,32.081633584801494,-9.090810065449208,41.91004913358016,3,S01
5140,1.2822178199165672,2.6080955237784287,12.978072095090935,69.48629764694404,99.00374394479846,-8.254518560579436,34.98237169092755,-10.065955250091564,41.603413947564945,3,S01
5160,0.8848754776322422,2.366449207778411,13.143745837828297,58.16121306797175,94.15083431924295,-27.619095966995783,36.30342802619977,-6.997068897608532,42.413130195358505,3,S01
5180,0.6507790635533244,1.3550297349126073,13.454807764161988,23.451667753981663,61.570550378563794,-41.257372615563895,36.71846445960777,-12.285492583810752,38.394035328710174,3,S01
5200,0.32277843420486674,0.8156948213457329,12.828873380221816,15.105889538234297,30.832899192722227,-39.44974023565194,36.881164042389614,-14.121100377668327,38.502517371932626,3,S01
5220,0.13854740989909506,0.3380713640846834,12.444254648773542,4.838586992259299,13.389244364665062,-31.470180264709988,34.728511188012845,-15.229447358182808,37.57926831732411,3,S01
5240,-0.15253080899241625,0.014790614405738478,11.550595889208306,-8.905245455881886,-7.008385686167849,-26.302252903179237,36.47437217338399,-22.11230918977967,35.113588238337755,3,S01
5260,-0.04602969478452906,-0.7344246683437916,11.050101910696146,-9.020685375872745,-29.25415444628067,-8.901732295591719,35.889198013518644,-19.486893972208673,34.41009956481813,3,S01
5280,0.22379215233711586,-0.9806314433152938,10.10018901629177,-22.700187846606855,-44.2441915950818,6.922469472594655,37.70769239880586,-20.46665622392452,31.87625328747436,3,S01
5300,-0.16477587748614284,-1.8376780037294433,9.56808119889989,-48.170944482790915,-66.53117209896402,19.604995884297736,35.607915257461556,-25.38973644693735,31.205143937411183,3,S01
5320,-1.147213836997968,-2.4619176636477555,9.258223075654952,-56.79905708829396,-97.7411417914272,20.87468928693196,33.12428739641328,-24.52387586853946,33.642304648768814,3,S01
5340,-1.3566642405802585,-2.819267929116521,9.27268543671903,-74.44203852135352,-102.21364302011807,31.120059132157696,36.04876791000707,-26.180032386605195,32.6758855595368,3,S01
5360,-0.9890494145684386,-2.8799684830858765,9.060445549389575,-69.96111046478828,-107.7773388637148,39.4358119240712,34.3326322197254,-29.656839551973594,34.28824925364209,3,S01
5380,-0.6512022623220503,-1.8040209904686666,9.444816737134982,-56.38574133364325,-64.2342304390075,30.98177663257863,33.1536259863977,-26.321072802015756,36.19956194628447,3,S01
5400,-0.2291231161499244,-0.2523456419997565,9.982335642721921,-18.12807977255876,-22.121483955994005,33.295891272480894,29.684079270897513,-30.918097037037107,36.22130487066155,3,S01
5420,0.8554615612215108,0.9181642759508859,10.679346884861136,20.329305535082373,39.37705697334187,21.021441777056587,29.143423761177242,-29.59565079712262,39.85239010204752,3,S01
5440,1.067412882494107,2.286262275180711,11.65621401490604,66.23042540137426,83.81121041044032,10.756545312403956,26.966870706020476,-31.53986410054611,42.80774939150874,3,S01
5460,1.6515505097441205,2.504139069172966,12.61215759695377,61.9657687327627,117.2377698709556,2.794971004884355,28.936961109545038,-29.102725675268662,43.369387269709044,3,S01
5480,1.124182003097412,2.7154299382852334,12.90727695924786,65.07080164387592,107.36548197447291,-21.76975044725305,25.999853278346073,-31.17698603851194,38.7487020748199,3,S01
5500,1.1359067221346923,1.8934058192777004,13.259119269181408,49.15650302008666,86.67741071758998,-33.688362269225294,25.048742356000616,-30.54530438360392,40.54834620547247,3,S01
5520,0.749045675931256,1.1598332570185377,13.541944192892254,25.64362661545378,54.799169478534914,-37.69159369309253,25.98191971041647,-29.041113480153264,39.98698574418087,3,S01
5540,0.17760802091956318,0.6131861905556923,12.716444754003358,9.414526044550055,33.03488511868268,-39.46395624963035,27.209737157285037,-28.35629706026671,39.15416476148063,3,S01
5560,0.1328146504465077,-0.027192465827345705,12.203180203866046,7.255181237814928,10.332771502839922,-37.65821823481289,23.79595379436505,-29.696699204273834,34.99703175463499,3,S01
5580,0.21473131192503936,0.0881108330612968,11.529137735686925,-10.544569944121907,-13.653118934834206,-26.333578357468614,21.768580118960426,-26.75512482581054,37.10784425216426,3,S01
5600,-0.11009043937723437,-0.5719899742967736,10.609577908854485,-19.300861995429095,-22.205007122020273,-20.342766878858065,20.976116815849803,-23.596201683705036,33.27998236579743,3,S01
5620,-0.32261565941143333,-0.924189468781057,10.106290672588164,-26.89191948659398,-49.98803270900094,-0.38468568184643237,21.214341607416806,-18.614809101828982,33.77216625344783,3,S01
5640,-0.45613384792922096,-2.0171834421833275,9.604692402266956,-51.10828917110171,-77.25222398877376,17.538170161245134,22.30250725588781,-20.011912605303586,31.058278923737582,3,S01
5660,-0.9374007938791776,-2.8529986255372086,9.003780833228815,-68.63542624807823,-99.6269354004981,27.68469430451723,22.63619594421867,-14.395008894638728,33.91209041806059,3,S01
5680,-1.5529810363920624,-2.7015898391033066,9.175525508711381,-75.15609753166599,-108.57640345830079,35.31950137007901,23.250156737014947,-14.010786718218757,34.15304630112652,3,S01
5700,-1.0125304326882234,-2.606484926070346,9.517712722489058,-71.60654727753989,-102.66530001564524,30.360672064508883,21.027546812079414,-13.474252477668236,32.3704165341711,3,S01
5720,-0.6468707356618292,-1.7439198621542347,9.636147530829245,-45.60117579990529,-65.91306405622724,44.950370904307725,21.71358287253154,-13.494129066260125,38.27608204844079,3,S01
5740,-0.04762439558658532,-0.6413783728751181,10.189254642865793,-10.203809756802755,-12.983876801297015,36.20534842550495,24.54363231584381,-7.986444381527366,40.140565551174845,3,S01
5760,0.7658216049754574,1.2971212461846597,11.110645724608478,28.110306425394104,50.68382759327389,26.50898245234366,21.660277633599087,-5.917962797179763,42.14436592083267,3,S01
5780,1.1947638120681854,2.4767695820683535,11.846706622419662,56.54414838285747,94.60407151906917,10.087535633299744,25.807258562292354,-7.6428311977549175,43.44303070573894,3,S01
5800,1.5324450331712702,2.8158246678294554,12.659527646757537,68.27938243808703,106.64730232882492,3.8578434262804078,24.1853502179043,-8.122184393120099,42.05708908963974,3,S01
5820,1.0916490972850563,2.6836266541748035,12.926705239642464,68.81735532313762,109.17301860540283,-21.772579915948203,24.865981303227127,-6.119097447109499,38.905511556382685,3,S01
5840,0.6834411139139354,1.8757157779143088,13.223555772152757,42.071489797018295,80.47507839833146,-26.470795434844543,26.30250961190876,-3.964735003639992,42.97155220380253,3,S01
5860,0.6358292587064016,1.286530293958681,13.166523992806384,23.683333071748162,50.60466862714734,-28.83386028292403,28.799444755246828,-2.977249429677256,38.9787787155563,3,S01
5880,0.4506582608243723,0.6786459100045976,12.81087820278783,-3.104047089961024,28.64387285668962,-37.31444315496572,26.636580049040823,-4.818293498461817,36.609630574819455,3,S01
5900,0.2475306672554896,0.1223087919572213,12.188428720940083,3.7352924968093086,8.683796957014637,-35.542471421412294,30.42992940092758,-2.884429620250624,36.25655262454746,3,S01
5920,0.1320167551099428,-0.10309236284220161,11.145717139735625,1.6285837359956705,-7.826040489348126,-25.47434441202651,31.94240453378454,-5.362727322510583,33.865309036583675,3,S01
5940,0.3766150228344757,-0.5514475801322278,10.600756710072115,-12.456956617337504,-23.42859575738752,-22.19051164601661,30.301096140911564,-6.30029173391858,33.36809314438587,3,S01
5960,-0.2727551375563989,-1.0352247730108672,9.936322484398007,-25.762743063899215,-54.85692626130191,3.4573691847132064,32.28339708652182,-6.287406257146126,34.69485045882899,3,S01
5980,-0.49160386887657626,-1.7939662188834118,9.475168862266665,-34.35004619033024,-88.52760237980061,22.14140310633929,36.50795475166112,-11.321206994652272,30.712834380921326,3,S01
6000,-1.1315041627771094,-2.433135144183755,9.20331517207638,-70.46772474132536,-111.82401182121195,32.38505253681857,35.50714143094472,-10.272725605815996,34.248397892874664,3,S01
6020,-1.2836618059272358,-3.00850027111022,9.289126195615749,-81.4592299225488,-115.54529921369259,46.738512478349406,32.50721126629223,-11.907053037549275,31.999807224808375,3,S01
6040,-1.2381781390808708,-2.5987762072008453,9.224540388930503,-75.0480579470235,-100.15547577504682,36.284687548661346,39.09914597614342,-15.796386560955067,33.554781880233136,3,S01
6060,-0.9510370344773701,-1.7351452032179606,9.806600938379608,-45.03190133965384,-62.79171056774003,41.75936930630248,39.245449948908615,-15.223538448624128,36.04240260229397,3,S01
6080,0.1842549638195355,-0.3808233024214298,10.1169492045367,-10.992111468934215,-7.915341619850103,29.215270348464646,35.96038434849358,-16.03729326054655,38.90654022051134,3,S01
6100,0.6662505396201138,1.4082185470847624,11.13032866481969,37.173101803151994,57.12806693331851,22.284188300535828,37.75933577691652,-16.58385949759503,38.1979850703156,3,S01
6120,1.3524715814927435,2.281996809215525,11.745610139662478,67.4620328172628,99.07200680743772,5.608031430229591,37.2233439710473,-22.507237728394998,42.49797952439441,3,S01
6140,1.6007287589669479,3.1119965698984653,12.891442096198485,69.39248643992227,109.93064420915145,-9.771526834426094,36.3752424740523,-24.538687279696862,42.18759159582857,3,S01
6160,1.120779366229936,2.514229927611065,13.273470326790132,51.99612981041879,99.95353139573146,-19.400516420285694,35.489581283856566,-24.771146391725093,42.344152503843816,3,S01
6180,0.6471749962689886,1.783009074695986,13.314424322508785,31.560023270153483,76.26038194118689,-36.85783481644335,35.906861029270786,-25.573092400938116,41.95852148388974,3,S01
6200,0.48121513710929953,1.2134192507214085,13.27563970820911,14.746067248776697,45.03349941737707,-41.0931458757572,34.65381103979982,-28.771208772240303,43.52770491731586,3,S01
6220,0.423933659648969,0.7231965143946677,12.753661614389385,4.505795891961811,16.57523640018271,-40.247042701708345,31.884666774774846,-30.011582935714852,38.09631592437628,3,S01
6240,0.039042941770810906,0.05232839405713695,12.089620784874143,-5.188503650726144,8.561849218986728,-26.254798202288057,33.87152488232799,-28.411812738960847,35.86061288263183,3,S01
6260,0.21700983032545496,-0.08294830139083569,11.006909720777804,0.840836308544036,-15.576715312514,-17.232932461174308,29.624867401821632,-28.937161309695135,34.60639005521641,3,S01
6280,0.10158309286773622,-0.7616092493786137,10.641097451674565,-13.813929097996866,-24.29632233075891,0.5902664924646664,29.647772359964787,-30.75054939593375,34.34705064524371,3,S01
6300,-0.08392625996588254,-1.3273679928015323,9.59234904748998,-31.87331230544977,-58.374385923959366,9.398063791365951,29.72119008880967,-27.756670947039943,30.962523792512005,3,S01
6320,-0.709964158922166,-1.9430862970501395,9.462630289192889,-43.35266914027354,-88.09959821346939,23.3436208146506,26.203876541678234,-29.416452602053763,33.65190535824714,3,S01
6340,-0.8282239560329444,-2.8343204358665233,9.322508926124307,-68.91769818964862,-100.01804845420578,32.12307830071798,30.057795377293544,-28.687745850077462,32.72001469189621,3,S01
6360,-1.232285900922845,-2.804793797952823,9.045713341062664,-75.9891163961815,-111.34192413357144,49.99471784990804,27.604641492062427,-29.294126404849735,33.30083386920215,3,S01
6380,-1.279759230452648,-2.5552376595617967,9.158372938866687,-76.35577638060384,-84.42712622566087,43.93716491343012,24.610182630986955,-29.092057962590665,35.00006215455805,3,S01
6400,-0.6477573549806994,-1.3061004476950961,9.555687831924367,-41.4584524435464,-60.17365934738731,40.2567177094135,22.40286391916149,-26.157820614744978,36.94494454356049,3,S01
6420,0.272976760357519,-0.07037930400963055,10.27871855409658,2.6824462140643375,2.1413123596135186,35.54154447212327,22.171174257874192,-23.549909102286243,39.33902038447571,3,S01
6440,0.7743953409567124,1.4769330361169304,11.187723070254995,41.470428184065796,55.69370075235359,23.02689441108976,23.294304004722356,-23.948283704672104,40.7720472199594,3,S01
6460,1.2374054424431131,2.472550340975684,11.936335512691846,59.84755469808776,97.8397807703121,12.027200558703086,22.456050025748823,-20.32753092347335,41.82220535056785,3,S01
6480,1.4062124884795504,2.8457428181917286,12.975516389624342,67.49583071628832,109.95729278943821,-4.818991840998127,23.225903732219983,-20.931733195044533,40.94425501098644,3,S01
6500,1.1792386649724933,2.3521783091016557,13.177572084976275,60.10113558939075,105.2850478599543,-25.37688698280045,24.723269459760402,-16.751563091773825,41.137115281945285,3,S01
6520,1.0056008751997703,1.853547957162425,13.195937439695136,34.22405350242959,75.63497207798473,-35.21575729472187,22.766936201842356,-19.324621368199406,41.742882692962226,3,S01
6540,0.5140259137796314,0.9984779199864797,13.057772837152411,21.478513441894325,51.59856234414739,-33.24094383390344,20.955767997588275,-14.230555569922103,37.549026322046046,3,S01
6560,0.09156577712949501,0.3781095410480067,12.62381587416285,1.9440843881364636,15.178976120020362,-49.16478626088331,22.816040832628953,-12.834304470881133,38.566332173915384,3,S01
6580,0.10165031076032296,0.13862829219712605,11.564580436232566,2.0657710032783507,8.621748411502526,-38.346461744914656,22.763392328937904,-9.359856443526102,35.703976516448506,3,S01
6600,0.36380775041238267,-0.07540143926255519,11.365480627249445,-11.157374958841853,-10.826845118894248,-19.00860075478787,27.233080711572683,-9.579891923383606,35.71571997372256,3,S01
6620,-0.09871150041406154,-0.6140167852058067,10.530723181323769,-3.0399990540047126,-33.02521198854198,-3.5733176651600655,22.46315081337107,-7.635981027233639,35.12203449678654,3,S01
6640,-0.24174538643555568,-1.4156170289389356,9.927100596867078,-33.983585162177505,-50.35596129848603,3.4441687060915016,22.291578213499008,-7.145812131218109,32.82798711997032,3,S01
6660,-0.5911023830754524,-2.1577692485902453,9.251021473227011,-55.12418966115049,-79.26507997411915,15.639131984340748,24.072734749991916,-5.322436474915245,31.676649685769043,3,S01
6680,-1.380554388042372,-2.5712346380494604,9.14050533935876,-79.23419400976019,-106.1915539286075,28.29148523535588,26.771995790302462,-8.129798717112443,32.76134824373909,3,S01
6700,-1.518469370190142,-3.0646954639194925,9.240155488115155,-78.44568866848334,-114.54414471083037,35.99404577875814,28.880420808936,-5.294393765124705,34.00412887237685,3,S01
6720,-0.8984302983882175,-2.2415367144249507,9.507820474375734,-59.36817611930551,-96.9590110823878,32.06394366601545,27.90839794315292,-2.3136184129017536,35.81961687881942,3,S01
6740,-0.24370467017558303,-1.2584642683032092,9.896029745380002,-36.150254539197995,-47.37036024781924,47.476029533652486,27.459469144758245,-3.2142195251300447,38.27212740102083,3,S01
6760,0.17752540419737584,0.3764856340987922,10.399348983240357,-2.4863231559325545,-3.851005963274548,17.70667960218347,29.765401858510018,-5.1516221891592755,37.99474137337231,3,S01
6780,0.7167995898835712,1.5383800174646616,11.190632843450855,36.687145503636316,66.06851155809805,23.086311902087303,32.41140131644339,-6.922340870263164,37.68394303071336,3,S01
6800,1.4048682912186832,2.6983320437477007,12.189896167441503,72.21884998028892,104.35074970866502,-2.587337663176343,33.51069100080426,-7.699786670913899,40.62058724466787,3,S01
6820,1.2583619593130477,2.7357708428111045,12.615455984209174,65.91958062494716,103.05536526493823,-19.31890753710055,33.6414887287339,-9.815568341925381,41.805365009123115,3,S01
6840,1.168838716329818,2.5785873157958665,13.14329338092828,60.14243941058187,93.7680317831895,-12.639189344842384,35.085914896706825,-9.438369177190626,38.926883345708276,3,S01
6860,0.6289743438101817,1.8200927697732654,13.159430656613777,38.526143313626655,70.97115446837938,-34.955136471558625,34.808891163971964,-12.080053625249139,40.301002485485895,3,S01
6880,0.41397661489128923,0.9904695095381542,13.217075758575263,7.416666005277654,38.95076617819927,-29.471871929492075,37.0573113339897,-12.163508284230787,39.71415132457535,3,S01
6900,0.18588899195119202,0.5905353747121351,12.340914708768967,0.7252437927024298,20.868653059071256,-38.20117317999955,34.99338712089866,-13.640572742538343,36.30818966744418,3,S01
6920,0.02045786133499604,0.18907803850951543,11.904999257969491,-10.443476517746507,5.361852756075536,-29.00752815328279,36.41637814095905,-15.832000305754509,35.37696458641406,3,S01
6940,0.21830631993550212,-0.23526491819498507,11.209433230942603,-5.089655207799041,-13.293269630538886,-26.10145280454289,39.71469904149288,-19.267429257934467,34.04527811962824,3,S01
6960,-0.2880570696545727,-0.9314907164698667,10.379176016853553,-25.839256624505797,-40.48319601648082,-10.746787976259645,36.47134561816383,-19.41442341422476,32.76839101571173,3,S01
6980,-0.3103646551729621,-1.7056372812062701,9.798687389621557,-32.13156715958226,-68.12701520249625,5.31812721816395,36.37314964914364,-24.377528674550806,33.069367756881036,3,S01
7000,-0.8441764193484499,-2.0952607536846113,9.312666271937909,-62.573400058310625,-81.33233362229062,20.042236662525227,37.13537947580582,-24.609325573464755,32.500282310557765,3,S01
7020,-1.1100852740453109,-2.7686190335685747,8.865594040419266,-77.50195486042196,-105.4038333419655,28.933226151234678,33.347685874856566,-25.724956524798724,35.10196342351061,3,S01
7040,-1.3934617591294807,-2.974643579034962,9.177417952312771,-83.2214072457724,-120.81993812143477,36.13698768945569,37.53611501950855,-26.469755399672504,33.813408882661534,3,S01
7060,-0.8771930138700192,-2.087438345241103,9.332298970219046,-62.021264719828295,-96.08641748474581,45.187462513276444,35.34509370846348,-27.46896032892438,35.07171430854514,3,S01
7080,-0.2789604849028613,-1.091844297001805,9.738865822132002,-28.308200946878202,-43.58033138760847,33.382896189273204,33.11748728247178,-29.21199305595939,35.509907843498475,3,S01
7100,0.15083651697952932,0.35198183354708734,10.457664052458256,3.051579901334386,11.780950393353704,25.83533024687472,29.02557477089716,-29.844397285142044,38.88827979493825,3,S01
7120,0.556577754175976,1.6554332468030917,11.080329945535976,51.692645425505305,66.73985412546138,14.128512697828429,30.266406968217424,-30.791164090949486,40.486437069899324,3,S01
7140,1.233357379974464,2.642892074966927,12.027745785874549,61.464683291409656,108.79971250854395,3.920444331543393,27.04404740974487,-31.161667937377402,42.76952585507097,3,S01
7160,1.4991599722512698,2.8058221666106262,13.12987171283642,77.70658088571713,116.52351905506977,-10.91410103645011,29.892231173461536,-29.133017214752712,40.53108050871792,3,S01
7180,1.1176792071891013,2.560518100767487,13.150721714412473,53.02867308645173,97.06261448719992,-28.82566611833832,27.80946074331012,-30.452919097625664,39.89699733210725,3,S01
7200,0.7629484007560942,1.4667901716006575,13.1948328688082,34.25984123957057,67.46941294095919,-35.67189616367382,24.933311153334458,-28.653145675353265,42.5680889395155,3,S01
7220,0.29044306226504346,1.0173794749112062,13.221000675901042,16.888190185912357,34.93331449738091,-33.88609827086524,24.17417280903448,-30.37270169136158,41.26833576838479,3,S01
7240,0.38151775163840895,0.3658436855506716,12.382584446626101,0.9291150000247201,23.802191669035228,-43.70332126335478,25.273987978580358,-25.74385758411178,37.10469078272943,3,S01
7260,-0.051154839550734466,-0.05272138075500045,11.816589264608156,-4.1408443776293264,1.04911768357621,-25.562006100693853,22.541830914147056,-24.514695553552436,36.91054286542497,3,S01
7280,0.17301038050781456,-0.022554274530232676,10.910724884902631,-5.4072850882151045,-14.918328588367059,-30.258564271822692,23.616166340154514,-21.89016697312148,34.27380037767776,3,S01
7300,-0.03996783099712761,-0.8262048328717395,10.229508980533577,-23.43434414611603,-25.788442298169425,-0.27347672060423334,21.87664098908437,-22.21428818463346,33.75158465106568,3,S01
7320,-0.3499234308029985,-1.6552352498028253,9.820736259423425,-39.6991261795298,-64.11746632822957,3.344320708546474,24.52823584099537,-21.977544185385053,33.646924157539296,3,S01
7340,-0.7359290988238597,-2.255604961429094,9.335309929262515,-56.06902275886473,-91.84285580632485,24.145104946140993,20.73567727897359,-20.921795720223955,33.311898383695365,3,S01
7360,-1.1184421445918602,-2.689518622394703,8.96761594524741,-70.12291083628175,-112.59625876819142,31.55053158349734,21.60449349713736,-17.261378825008283,34.00133282769109,3,S01
7380,-1.3154366181620987,-2.8536796542379514,9.18086316756754,-73.2121134112746,-113.56934695275244,37.555742057269455,21.45494322637723,-15.068949044334726,33.58916475444964,3,S01
7400,-0.6695054503288052,-2.0365301808418312,9.370807866857087,-66.62174508090878,-87.93282081354289,36.77978408475537,21.403009562992324,-12.90652858232767,34.69208666005541,3,S01
7420,-0.42920497876566166,-0.8454164085481455,9.750409095292456,-27.65133726515853,-38.969241283395675,38.50601391881937,21.45496286151881,-8.760373411614164,37.71925087312166,3,S01
7440,0.3484701992240707,0.7634055993697186,10.419210046963858,18.397761313654968,21.04387949341505,35.22117605314426,20.822907357310754,-8.173514833297395,41.63695459948641,3,S01
7460,0.9291944123200286,1.540630619950163,11.979199088145599,51.20310313564504,72.9937994314444,19.456042695296475,22.845723135499398,-5.912737733461893,41.83713922541177,3,S01
7480,1.44025853163019,2.543998996468152,12.343634007252724,62.974402036396796,96.7813020557308,0.9514107135735697,24.726843924716185,-8.37286551746808,42.70503689787691,3,S01
7500,1.2829929141964318,2.6155317121279498,13.109807610312126,71.02850274540901,112.07284994788861,-19.068299515842085,24.429693976988762,-8.220336258954404,43.631653170717755,3,S01
7520,0.9641320308380259,2.1537626655496087,13.446435864440836,47.74716292170798,89.89313042681299,-24.286575384384328,28.639455923748613,-6.00020995702992,42.33090026152081,3,S01
7540,0.6469320116950565,1.422045166049447,13.182653964479146,33.32538213232505,69.44001187288525,-43.071759762744485,24.995750767508596,-5.649093270909735,41.565749294347285,3,S01
7560,0.41951081393182255,0.8720959393013383,13.04215123478476,14.354430867721554,37.325853490593275,-38.85981908267606,26.08759927247536,-6.779379209168489,36.044549925869234,3,S01
7580,0.20087472488646263,0.4354110432447363,12.491662014771936,-3.345759641852581,18.865001842539016,-39.77862378623472,25.13256060811178,-4.427226579540333,39.91412733225276,3,S01
7600,-0.09301223997828453,-0.04156547837396213,11.617495207954018,-2.361215398296532,2.5279059035585103,-29.287672637715232,32.331598533971174,-5.122780702513545,34.43967478109323,3,S01
7620,0.31157161224979935,-0.39710298745801553,10.85434809962639,-18.12474417653914,-11.634244899628087,-22.92663338909967,31.59050613456694,-9.654215723678016,35.33995470076766,3,S01
7640,0.025466063268032774,-0.9614219494573557,10.009714077732392,-11.73197695001024,-39.36230037222145,11.34709305813126,33.388116933273935,-8.146863764947318,33.091439509125834,3,S01
7660,-0.41750860003763146,-1.6431632714349604,9.767913878927125,-34.468732033663905,-64.58900786039004,10.946847032728675,36.53731245073166,-9.291445051596817,32.59181345119697,3,S01
7680,-0.7993512324005094,-2.208505844654043,9.444443282138797,-65.05273693251551,-89.40544280092122,24.12692494168916,34.780111509220205,-9.127265995155255,32.556847312836496,3,S01
7700,-1.1428942467101153,-2.943279413477233,9.246375419768317,-73.6217384968992,-117.32981694351989,35.99933575343885,34.835839743680495,-12.113124446448282,35.289373179194925,3,S01
7720,-1.3043947413915973,-3.0765974434249164,9.045172114181435,-74.73156450891541,-107.31288173273983,34.723592805732665,38.122067899578695,-12.052836079660732,33.14862396612144,3,S01
7740,-0.8257282845221858,-2.2082685477495336,9.53735934867384,-57.14113397086052,-92.01633690790071,47.700098482283586,34.978345032768964,-11.687935105085078,34.13098794028798,3,S01
7760,-0.5886839764570324,-0.7508401734515544,9.662581588227622,-23.266613953417597,-33.34969373350524,43.71549748717123,35.371251979331376,-12.116166673177718,34.86970353769018,3,S01
7780,0.5794121284948938,0.4346348939735412,10.8807503584349,20.85699330850454,26.59301257527065,25.344192922688663,37.69925339754384,-15.99279818513421,41.60442348084373,3,S01
7800,1.0334647130280357,1.9194211849877891,11.716560264538588,48.29039621381232,78.69343588090538,15.173730140749859,35.6911797882209,-20.196070748859476,39.80710776953279,3,S01
7820,1.4273507450227425,2.665699331810629,12.484642579075539,67.76220656133412,95.0052235573196,-2.3071753191545854,35.11150514355615,-22.514383213120762,43.91919887690275,3,S01
7840,1.391056615999538,2.7372550029828733,12.859018391922145,61.158977027644966,109.18563802770596,-18.75630395871691,34.971759348626094,-24.527539654562954,43.52280831662433,3,S01
7860,0.8546339263424897,2.4653351559512564,13.306292535094583,51.540325104973896,95.57006748046818,-28.57890786927024,35.10689833698335,-23.307250028206212,39.220103653462736,3,S01
7880,0.7064953316471212,1.6390201471149919,13.066698993263637,28.587956985903507,55.14793005296441,-32.38515489037271,35.21373945635351,-26.450129832229713,38.908130247880194,3,S01
7900,0.336907439612274,0.8768444651557579,12.848848225770842,19.674921174520122,33.93161678156278,-37.311139072364064,30.98713463728932,-30.037937446218585,41.265374208295356,3,S01
7920,0.12248420842765671,0.3213633958578558,12.257081437011134,-1.5863529014370208,23.311724003006056,-25.89778161371111,34.88078236410629,-30.87236505699209,39.368606517399925,3,S01
7940,0.10436318420005132,0.34581327110453186,11.819742984071576,-12.60639150799572,-7.04137872026245,-34.05431995329361,31.71942279400161,-28.25320787267917,34.022888660927734,3,S01
7960,0.16884822151497758,-0.5703334244095517,10.986681800222632,-2.3177577232212423,-23.700812958289806,-17.964669356981386,30.581884941737805,-30.065425616842973,34.75994641736109,3,S01
7980,-0.1686776219615916,-0.9739019934548334,10.148509615902165,-27.468753036639757,-42.62864010159843,-8.455796725422848,30.69959670503143,-30.31304778929893,33.83815371176405,3,S01
8000,-0.44204422049370506,-1.7492521261408343,9.635784599341324,-47.58583173201442,-62.071572246715725,16.387464076877244,27.232416425442974,-33.18303005655147,32.786813633762804,3,S01
8020,-0.9975678927759805,-2.4262313717649575,9.185490177425509,-64.45348277893537,-92.88062303627039,17.94571724624299,27.527146539265946,-28.79679250857017,32.78571381731059,3,S01
8040,-1.1806990587062192,-3.149029302571305,8.77776768154931,-76.51051530686185,-115.67222387171742,29.697977527506488,25.011580243252133,-31.933602556343224,32.044563267070586,3,S01
8060,-0.9716281563052057,-2.872981283163985,9.16900149719622,-75.41938251124323,-99.30182958026406,37.046761601957414,24.680716006670437,-28.62615615766555,35.9766423621147,3,S01
8080,-0.8089840277397888,-2.0182237883518033,9.700898574708939,-67.75309457590812,-82.00377621507575,36.45142481111063,23.517568781008272,-28.415059178906716,36.31472537878285,3,S01
8100,-0.5402425032576131,-0.6771681538924377,9.966975681012059,-17.926379344501804,-27.078209341111627,24.778460574367735,23.988211599358678,-22.51376613263886,40.04238879876209,3,S01
8120,0.3326516278751223,0.7769244287124195,10.822263224038219,17.387336625735355,33.8728766622072,27.39826993481062,23.4977961816524,-26.570641667787296,38.88681622166768,3,S01
8140,1.0220750146965796,2.126008825867476,11.556926729749005,54.66038232321395,73.02185393930547,21.539612906200816,23.800815299807937,-22.299259431200834,43.87616903256006,3,S01
8160,1.3160294548531266,2.7106365234611824,12.408579514940183,66.11818455021972,115.64345292217396,-4.649229325654712,20.57310897736189,-19.955218165404556,39.35471902532176,3,S01
8180,1.4081125567211428,2.8554236958989048,12.991775224350198,64.18071950185626,108.48616360420503,-14.907743846421388,22.277845838242673,-16.77066345178295,42.192188256471674,3,S01
8200,0.881165822297005,2.1443093645047133,13.404458472999577,44.125154815760006,95.27543018033725,-32.13164702114887,19.843238568677496,-17.034112459664208,42.59088609925648,3,S01
8220,0.8417978862647487,1.398315028315261,13.548270463304643,25.184613399353466,65.95934614702841,-35.44607153140955,22.9557034882528,-14.710540023375335,41.0112625969718,3,S01
8240,0.30584513593608187,0.727035953223945,12.840807705981934,21.35199732770187,37.90216817280895,-34.50302537972835,19.977550727049653,-13.087664579599142,41.13898570246742,3,S01
8260,0.057541251208152275,0.053923930198141845,12.298535583991367,-0.660162171365827,13.066207738780756,-33.73900767953906,21.885869857407773,-11.747808684242694,37.70108668148417,3,S01
8280,0.19004541444761064,-0.27710891390937253,11.395996394505477,-6.10270988091369,-1.9928508919799086,-35.09055682367869,21.08621942623013,-8.774170116271081,34.98324170015713,3,S01
8300,-0.2332658555055481,-0.465275459017127,10.80321693382747,-2.61263418861265,-16.643149466877695,-10.632761482838257,21.714296815213267,-6.56715531468486,33.25411552457839,3,S01
8320,-0.14657735450027173,-1.05643909051441,10.378619368765357,-24.80037752144033,-48.211778850539076,-9.108704907975882,23.627949104869394,-6.881880276403351,33.86391255840623,3,S01
8340,-0.42082354466238203,-1.6049925738837203,9.380477787986381,-40.6219427964943,-77.77097405385172,20.50275343576481,26.111822055170986,-8.984191537710569,32.63928143947034,3,S01
8360,-0.7532204543545078,-2.6050602027776493,9.176658249161813,-66.75984917739464,-102.30502905716037,24.46165537247673,27.05664332938757,-6.035529713559057,31.57759300755429,3,S01
8380,-1.0659830441740603,-3.0722297725529017,9.388286432863618,-77.0603029975179,-110.33041780410329,41.36584867724291,26.48357841521505,-5.828990865511546,32.84147412058701,3,S01
8400,-1.1567527242368816,-2.6007176545447375,9.490949616648901,-78.50868114352454,-109.5855007630926,36.86362449209768,27.78965407394042,-4.552402279137483,34.296746962796334,3,S01
8420,-0.7281226166576491,-1.5799903647668638,9.635490226431761,-50.82215824572738,-76.98945649868539,35.95737387429201,29.656769776384124,-5.230605736397704,36.75783480205787,3,S01
8440,-0.024846752575419698,-0.45201112622392386,10.237398263959948,-14.415911887149925,-25.64844689529743,38.46115300083902,29.34997054818809,-7.591998853717057,37.57886436851036,3,S01
8460,0.5366336759352645,1.2180164314233841,11.04475674018979,26.214225667515183,35.93192674012397,33.232580840822216,32.176733553766724,-8.28459980054921,42.104546836071464,3,S01
8480,1.2794140655561104,2.2306841530753423,11.749536243102176,42.64747040431383,82.21093877351454,8.618242468707988,32.22412402015526,-4.2027483583533165,42.888012810327695,3,S01
8500,1.4979262748004651,2.7654690035772247,12.437584342562905,65.54531234241657,112.0496224529513,-12.522920364309783,33.15086645653784,-8.779432935219342,41.81007021828307,3,S01
8520,1.1827529473313154,2.783156126408617,12.898250066663588,64.8547167251271,111.44573187611576,-17.776981124308765,33.37580393517459,-13.632201535372644,42.75608712862328,3,S01
8540,0.8909244555813209,2.2205876304134065,13.338073254545836,37.46017343840777,85.10110533578683,-36.1725378154254,34.3991480805923,-12.733145772474389,40.738905862239776,3,S01
8560,0.23243770473396264,1.2886957412890576,13.199341168920947,30.440141256402708,69.26389158015967,-35.19852448675527,33.72142769712396,-10.00031269756157,43.710115294686304,3,S01
8580,0.190028783779815,0.5925747306130615,12.650548596512941,-5.693704426579214,29.890899461835847,-28.978643312185724,36.20507739724319,-15.677280672715478,37.32778438350816,3,S01
8600,0.24766543497458302,-0.049522318582006265,12.20874928499942,8.607870595165984,3.6413275137649634,-43.41281986154941,35.50011908687564,-15.383150174911563,38.778889262412584,3,S01
8620,-0.0873064228216589,-0.1942234164921763,11.510949344544809,-1.9284769759487514,-9.708912024730104,-17.82025924891877,36.538900683807924,-18.94157986665742,34.6499698124883,3,S01
8640,0.12833301762737623,-0.646704056987045,10.646300367166269,-9.133831353796273,-17.061787233778503,-16.730274905503247,38.755639049753995,-20.39161078185681,32.0130083613171,3,S01
8660,-0.10974104204111207,-0.982579294862655,9.994450010270551,-13.943600774085127,-48.171483801103314,-3.531694664045552,36.41861347921767,-19.293337655393024,31.849218626997075,3,S01
8680,-0.6180609555145695,-1.9972539722312377,9.497570260795596,-43.0080732808746,-79.65631322795933,14.106607359579764,35.12093824573908,-26.971354002730312,32.6553041460919,3,S01
8700,-0.8835369522060957,-2.8975074344904668,8.918451756202355,-59.63712925522441,-100.28770702540574,24.68024066354405,35.97132160959781,-26.227721280473457,32.138640874886676,3,S01
8720,-1.2137386592874295,-2.844387020098493,9.132640307293038,-71.96052220672902,-114.2884764510625,38.589237607946075,34.21000775191289,-25.293506528959107,34.04747899265648,3,S01
8740,-1.1580656937552047,-2.6840396374903484,9.447312098183657,-79.22612617347232,-101.3344231601809,43.033183620282735,33.88580623987573,-23.5941026971318,35.330711665016786,3,S01
8760,-0.6273180482043251,-1.9051621751449102,9.634470759930508,-52.12736105692905,-65.00032077167378,32.367578460520946,32.611114989945634,-29.08556827700579,39.07605995598847,3,S01
8780,0.022364945406529113,-0.3459531069069322,10.093284293165015,-15.468912803522564,-14.570401811779728,38.53566562791725,33.62469739923166,-28.99895306563602,38.24231147098615,3,S01
8800,0.6075148478957695,1.0579822992513819,10.824799671565879,33.728066675132915,51.19884529611079,9.339265695395492,33.75816667782641,-31.187031226492717,40.30537398017135,3,S01
8820,1.147889806895953,2.242613639755541,12.027075725756532,62.19914946089199,83.35953329760302,9.679529870715383,29.714036223913215,-29.893896194409855,42.92912209046753,3,S01
8840,1.4703844873789573,2.6785210271548676,12.697310250441136,78.51275149629141,115.57943804267201,-10.21224529932421,28.841743278135134,-26.178839098639394,40.6429117386559,3,S01
8860,1.2834936888079298,2.7024307784797834,13.445500954367196,64.22240028529579,108.99434311011714,-25.19445269715069,28.064443732504046,-27.691134273031746,41.28977245280102,3,S01
8880,0.5908116890062636,2.318831869659062,13.513980760894258,43.30866003624716,91.22348822218711,-30.341278911516124,26.76087172596355,-29.83956137811969,43.18695966533215,3,S01
8900,0.2959445797450453,0.9795355202329357,12.910733759925387,19.288747013955724,56.90456802616195,-36.02050213534957,26.594939815617426,-27.50733808643356,43.61218579867679,3,S01
8920,0.2726821075803838,0.710693313194322,12.79178241310166,17.926960580500552,35.285350674605304,-37.856497028384496,23.69967820922743,-29.924288649240495,39.83855616142272,3,S01
8940,0.07202087902865995,0.31674459851695835,12.234518958507412,-3.304849771495475,3.0677997222295437,-36.94110375116436,23.161127874335673,-26.578334551222675,36.70281846111711,3,S01
8960,-0.031819819638274294,-0.2480343310994556,11.138304353576018,2.2454998661006647,-2.57744866725756,-15.49226525380974,21.099408725220606,-27.0743401635699,35.3943430492395,3,S01
8980,0.02543630238073953,-0.6515706118125153,10.446549804799117,-4.904909710597709,-19.453785358484872,-15.319199762079501,25.939729451691605,-21.710726006832125,32.35091510597587,3,S01
9000,-0.26854247622838046,-1.4758465654508186,10.002747361563129,-34.211625611216746,-54.629694911113596,-3.2309847114893793,20.826576970494568,-20.838985433646044,33.80460473732751,3,S01
9020,-0.388125590201437,-1.933809029901659,9.436338576529042,-41.66307415375358,-80.28608437713443,11.925905755989819,20.688965994514593,-18.780577648695665,30.72208320284351,3,S01
9040,-0.7053218782127931,-2.871904489553923,9.052317710873394,-67.51833240758448,-111.05703554373494,28.086579357621943,21.21564991108385,-17.048419387047772,30.579052815059914,3,S01
9060,-1.2825530024628773,-2.9029673273440317,9.28327988991209,-75.44649858492275,-117.74461321386693,38.093723593098105,20.336298485281723,-14.463019485734756,35.56244004382156,3,S01
9080,-0.9678362731286511,-2.4901209804521174,9.490133363736367,-72.82205206953208,-109.3252473974158,35.32480913491827,21.012733526288283,-14.925599225833787,35.512820897636175,3,S01
9100,-0.7561314447978886,-1.629253328373336,9.700165505732727,-45.272128992907724,-60.686353955030576,32.60574862681249,22.290375565086272,-7.592515013719176,35.97683566373419,3,S01
9120,-0.021038947179921552,-0.00367835180600673,10.450372920138337,-5.555161145891831,-13.89398040421055,26.28591529952634,22.42054565272151,-9.379165533966239,39.587303399387906,3,S01
9140,0.5861751852258988,0.8571865828011667,11.249041395918846,35.84242628040175,54.411846901877915,11.640166373180621,22.61498107053697,-11.066112875206315,40.42730611771523,3,S01
9160,1.4018425503358383,2.3502340446263514,11.966057626408132,61.77405489895824,83.14715216304582,6.873347165884517,23.0163518747997,-7.810044905139804,42.51374961403682,3,S01
9180,1.2360680011584952,2.7879761781026096,12.511223017630455,69.78916392903898,107.81020134509751,-1.8528846566323094,24.877877692399284,-5.416819423381207,44.81193595316437,3,S01
9200,1.3216355122431076,2.6621613519966982,12.984295086085831,67.09366208617215,103.25968439029558,-22.99969858092832,24.846747636666812,-5.3248665633404,41.3320389480881,3,S01
9220,0.5601432947169162,2.0073189660463346,13.454636370851786,45.04238564072871,69.52769740912696,-37.18673394455058,27.63289897090382,-7.722210133331,41.55347135743504,3,S01
9240,0.468841458463206,1.2035964116773112,13.11276817406905,17.868851817556106,45.72301095030849,-40.53927284883385,27.461908990630224,-4.01277781030997,42.54566478145111,3,S01
9260,0.6089250741546433,0.685528667731317,12.58279840839149,2.9367630365599693,29.811653871719514,-39.60380300519155,27.244617318741167,-4.107806525416827,38.66425183058742,3,S01
9280,0.1301468495294317,-0.06668187422688583,12.222863975387504,-14.98526704710331,2.558617836373691,-31.376498273354457,30.102939640298302,-5.248619972677817,35.722594179120634,3,S01
9300,0.06044959946862082,-0.12874034744835822,11.361316955346958,-9.229345716538582,-12.542384675873711,-26.84888604599881,35.10346139428772,-3.9790951504917764,35.066997545893486,3,S01
9320,0.02238305043844628,-0.7162989039138143,10.537101131917177,-19.135798745869714,-20.03960974611261,-20.732636594231884,32.510970369562955,-4.3005602891870796,33.26877187487862,3,S01
9340,0.009333755763380913,-1.0703591270939272,10.141657772923386,-21.999073454433717,-51.29197391179082,6.19653344184672,35.05331030283017,-8.390762532030063,31.580918363881036,3,S01
9360,-0.7340354675090389,-2.238818828497909,9.317994964986623,-43.064957429308535,-83.1683700064808,10.403413071928632,33.8763510253453,-8.92421557272429,33.035502984811515,3,S01
9380,-0.6419643020595195,-2.795972217894553,9.310465894909548,-72.83386291018826,-104.20028745853831,29.003642244822885,34.55193109414883,-10.928006656928552,32.307456661942496,3,S01
9400,-1.24253986607762,-3.0815704555578534,9.012443753601582,-74.3405694266873,-116.44660780576424,36.09901301639279,34.324936992347276,-11.918919194159479,35.90463108656722,3,S01
9420,-0.8819177685756675,-2.3988441219657566,9.342055383442824,-66.27441602897758,-97.67084723831594,44.743460649297376,36.79695657189919,-15.868311447677266,35.35887747410965,3,S01
9440,-0.6397562855532418,-1.4395207254627662,9.689601571331169,-45.92300432546524,-47.82561851197161,37.865049961846424,35.18746227945658,-16.38916792327491,36.227723184317526,3,S01
9460,0.3864569181983992,-0.0643315173785564,10.076862227156829,-12.356282464630034,-12.588904837470924,31.938673427108004,34.397307523889914,-19.96112722996284,37.83234359260332,3,S01
9480,0.973700027592078,1.6364605929803246,11.099286134965709,29.499400106749032,60.09817751123063,19.115962279406386,37.835712665124234,-19.139278906375502,39.59471861843197,3,S01
9500,1.2548576788960308,2.3435732392062394,11.886181739151667,64.44718206367578,94.19328411052359,-1.6931034312519322,36.674359978154854,-18.95731511619688,44.63790692821361,3,S01
9520,1.491406327312902,2.747946157683931,13.01719196213281,62.58147178790357,109.92774358874807,-18.12221322040856,34.135157507754045,-22.973544943185722,45.54553420161394,3,S01
9540,1.176394036814501,2.667733952025263,13.015891353464056,66.85159444620437,106.53385457416606,-20.228206848353764,34.39829023976986,-22.438781331148647,42.874718042386114,3,S01
9560,0.7902906361243313,2.0663821324292115,13.134390882853122,43.92381873355435,78.30300306848557,-39.30951891323154,33.92144286578079,-28.010640664657704,41.00273922607377,3,S01
9580,0.2984157228490489,1.1590762627873215,13.072669625894527,11.29835859414688,46.088162141674886,-48.66045379939776,34.34408701505222,-24.120109850928696,39.39629063053758,3,S01
9600,0.2164016146824017,0.5383016470556978,12.898281258269968,2.2013002490851443,27.384856168799853,-34.388394418732965,34.751746684455455,-28.992366112948496,38.65284806611962,3,S01
9620,0.06261811936775924,0.1225045558891476,12.039168947692,-0.599322373309576,6.391907691145657,-37.04695298813608,30.534743874204437,-31.201769581803518,36.41830873581529,3,S01
9640,-0.0865470241178469,-0.34164991585982823,11.261072357356317,-8.660261262506776,-4.4428023997008825,-15.82502050146236,32.87202666284382,-32.449693377444376,33.34775323439179,3,S01
9660,0.01185930707138072,-0.7479353571705047,10.739233136411583,-19.587617403803197,-28.35035585008268,-9.009919212556413,31.809992159848274,-28.672886104056573,34.3930268828413,3,S01
9680,-0.26800677220018554,-1.2190805203246913,9.694191164945648,-28.57772881560829,-57.31041628705229,2.009338491894894,29.888521081508895,-30.372131181755137,35.21631044110694,3,S01
9700,-0.5570119732532914,-2.2048643853893406,9.283914631596382,-53.26308105906227,-85.81433971116742,10.760538076124755,28.511474073274318,-32.558016955950905,31.748135360400802,3,S01
9720,-1.0217581709150425,-2.521428361110567,9.194266161412859,-68.9932896821397,-109.57585197688688,37.39707963761752,26.05785273111129,-28.704814017053437,30.683190131900506,3,S01
9740,-1.2764360264563392,-2.9142485496218904,8.915317350374938,-75.38991883424983,-107.62226734103822,43.79814703488247,27.660824362580772,-29.198693383250863,33.59710262275695,3,S01
9760,-1.1329046873838367,-2.2155817912550977,9.36856233055909,-59.52646569491827,-92.24296104836868,40.7119355811686,25.46293047312075,-26.66392780393991,36.577539602003455,3,S01
9780,-0.28938901171469733,-1.3494522335304215,9.611704353364253,-40.623732991803905,-48.263170324164804,33.874704235022094,25.697648249539863,-25.413080337101263,35.55936239626364,3,S01
9800,0.18756470675217723,0.19311459242324597,10.58434423780763,-2.045681026754641,7.98080759995958,34.77076798060484,23.01110328564921,-22.933392665123115,37.66322046775126,3,S01
9820,0.9385413934785921,1.5816554948140678,11.302931690876564,38.390342154958624,70.97255715697382,16.892048824460183,21.212442274974467,-25.082675898157266,41.40574829419057,3,S01
9840,1.096522649270949,2.754845013263681,12.1648665487708,59.35255712240417,103.34496327693141,5.9669153694959105,21.974369010384773,-23.251439008946917,36.87440835865169,3,S01
9860,1.3215371113093919,2.7785277947925127,12.99150354933693,77.60730310393764,120.24000009543641,-13.558272686890945,20.214495145817295,-20.568631580746263,41.650935856387974,3,S01
9880,1.1956197399800492,2.333934988029272,13.223876856341192,55.70056869857805,102.81244763716384,-16.96180022245241,22.559970660533594,-19.366952312304118,43.318098607307796,3,S01
9900,0.7743229401080316,1.665116321144865,13.373425802681787,31.107597926427605,75.82283090785549,-36.12634690425018,19.147264889446618,-15.523357906013644,40.85770344869285,3,S01
9920,0.4102872139386714,0.9938147794206225,12.704173662947369,25.43415220178733,49.56109209648273,-40.65019404874622,22.269823248466153,-16.18047073439837,40.75897052075907,3,S01
9940,0.13538812753505097,0.06420210503242041,12.775054116753111,2.4662723834949096,20.7423520664281,-44.31789179394955,22.14337767614373,-10.429850879848328,40.408754431954755,3,S01
9960,0.11650185740105157,0.1927005820525325,12.142095143653561,-4.011694466241325,8.333047181332187,-38.626563298360544,25.28685677824539,-11.561592510886094,36.38421630789534,3,S01
9980,0.12492018023955057,-0.3409481799958397,11.107793846226798,-10.832273124332005,-8.263057365051713,-15.423387200313835,23.084685382075605,-8.240647512765685,34.34198365638974,3,S01
10000,0.03738838788400907,-0.6829524151355582,10.289315871866314,-17.001512132334497,-29.25329253954796,-13.255141763809752,24.65593511846618,-8.812379145709633,34.18829962661944,3,S01
10020,-0.14900961471593638,-1.4102866096302933,9.788226835250434,-22.218925865941447,-66.44744196969275,10.596490579503515,25.115118853100103,-5.9470991770209345,32.56021312173178,3,S01
10040,-0.8011463018486523,-2.186280512416859,9.354346834636706,-53.33155578803157,-93.32220290903295,20.207180707679996,27.387607721497712,-6.039499277897106,31.79695095782018,3,S01
10060,-1.378253010210774,-2.8371923620092465,9.345333970368841,-72.05985317488714,-115.1509833871106,29.949710810220463,25.764907305685988,-3.7718780414933897,33.68881099219116,3,S01
10080,-1.0852941689481246,-2.818180247037265,9.048983516182703,-84.13345676697796,-101.46100089315641,47.5715685134458,26.60733313569756,-3.0744853206756426,34.167853626682884,3,S01
10100,-0.8259997073685401,-2.1542934815975947,9.433800743325625,-57.01430675625581,-81.84181891787186,47.300801077141394,28.75940311669636,-6.208757130344464,35.491750064542,3,S01
10120,-0.6340421607618901,-1.05834645757087,10.049291694024674,-31.863866428281188,-42.03304418012988,43.36927210160667,28.49915456809278,-4.496843720108434,38.59035564681835,3,S01
10140,0.36540779406531154,0.5126860643942577,10.471007721593411,5.504193942177062,11.011644635823707,27.98620096237379,33.00816589096305,-5.213533768779372,38.8488387642974,3,S01
10160,0.7949738457615495,1.5865228622872802,11.48728171650752,43.987449363751715,72.47388643750436,15.155809911910874,32.97318431592508,-6.149647828291592,40.353887589135766,3,S01
10180,0.9470260713118829,2.1741934985161633,12.42342915732246,64.80015968149233,108.80965129741116,1.552895788192521,32.486532756485886,-7.113162609769491,41.09584456454833,3,S01
10200,1.4126141068546065,2.5913082994840972,12.932381758394618,67.38106015227027,109.69479918000499,-14.520626218292826,33.60135302830648,-9.40272876843584,41.4005516620538,3,S01
10220,1.4283225811206193,2.1862574145014864,13.249301767963038,55.36108212388238,91.27577099444017,-25.813981228974345,36.5799984188771,-12.67031428970233,40.367844444583916,3,S01
10240,1.0542167826202935,1.5434968063390695,13.278893234322013,45.874480039269486,71.57876893406414,-40.242104060260395,33.954268569999854,-10.596157630989193,42.24134731661015,3,S01
10260,0.23041844187197363,0.7590707688668585,13.08160776262506,11.263372017533246,43.126232159333405,-41.76838013328884,33.10878232853999,-11.763179695051159,40.15071826886017,3,S01
10280,0.32602649444970794,0.31104370787858104,12.541131993185633,-10.714326215633413,18.52237366003771,-35.35123903882669,36.224042392819506,-15.727789747440672,35.43497806984361,3,S01
10300,-0.015166941557529512,0.0537713299286916,11.818347291008038,-1.2494498553564868,10.461130971352286,-32.27872553763159,34.56874022606525,-16.63252027387909,34.897729599598726,3,S01
10320,0.2759562694586433,-0.5221836577567494,11.333713917104516,0.23207415633566253,-14.089820439617885,-15.317876250536393,37.973230560420745,-21.752606015011935,32.49592858599196,3,S01
10340,-0.10326874560519234,-0.8571018559091401,10.281764848287569,-10.364027709944914,-37.93896244326456,-11.134241744713188,34.730900081316335,-24.416046669102514,36.213906517041806,3,S01
10360,-0.4064179219339549,-1.4897441734851042,10.035359706447775,-37.479998586852965,-55.56709975738576,13.69900534487372,34.1430619272984,-23.74179177425999,30.960772306210856,3,S01
10380,-0.8761333698267395,-2.37049184052193,9.231671575069342,-50.58305457948013,-92.03131544226673,23.006335385464954,36.165381955417246,-23.868030075320714,31.82633537475125,3,S01
10400,-1.0326756854586923,-2.9642939665919568,9.215785935204211,-76.69876322689164,-111.87775439752394,27.888573049757603,31.39301243946835,-27.502868472083648,32.51226317607728,3,S01
10420,-1.3008417017198826,-2.987797388776732,9.104194865551131,-76.99618215363661,-104.85574305717552,36.79276383408735,32.76340994465781,-26.688938371561033,32.358805984938726,3,S01
10440,-1.019107421645211,-1.8676300136900077,9.502855389286507,-51.278248080910075,-88.54282073421693,39.297827633757464,32.094595427382664,-30.026193184901047,38.85616876305762,3,S01
10460,-0.2096469915769795,-1.1915702150805814,9.77242758262549,-33.879028980903634,-37.83907685553628,38.30486620093909,33.32844279193814,-30.19889346220218,37.05666349687384,3,S01
10480,0.3965391257293849,0.41104990476963477,10.291257683161003,6.288438020155998,15.507585097988983,18.11128408756229,33.14291896942868,-28.73073349058136,37.02482893374902,3,S01
10500,0.9105501851025393,1.780282791754515,11.565455722970658,49.15499338080423,70.8649746262581,18.059790900084096,31.372661136974184,-32.01584866288497,39.47890193898469,3,S01
10520,1.5448352622405286,2.6526303324914653,12.337583861372343,58.05582908197479,107.44552290185463,2.5254023235406406,28.553080825353437,-28.331187008482413,44.73105581492277,3,S01
10540,1.572870914103468,2.7738325235184504,12.971857608787927,60.22439484021474,115.16333339865456,-12.356742758531581,29.406164191786928,-31.22672041154654,42.7347123192634,3,S01
10560,1.2377973929836998,1.957822167614448,13.340348899560086,47.21022623011345,96.65719196563761,-18.40892438555058,27.898849379113514,-28.819732958023145,41.375286588936845,3,S01
10580,0.7821743104208027,1.5866038005716772,12.911801825570453,42.117799133947656,76.18537096763386,-38.72415969493944,24.430284068437935,-29.490024504918487,41.563698703492065,3,S01
10600,0.25144512920233053,1.0794986633900148,12.96698421356099,13.56528797134779,42.071789147615924,-45.211108154160264,25.42846213719383,-27.98546738543904,37.701922338986925,3,S01
10620,0.12530858179149554,0.6061878930666098,12.58396110747544,-8.256089570700244,12.707808287554268,-32.08193203438599,23.978056969679024,-25.430335630901048,36.24402599118507,3,S01
10640,0.31502148884586695,-0.26296254098706673,11.646217406253497,4.478855545013839,6.18858009477029,-27.117220562175266,22.11132137310288,-25.406617775361575,36.42824648463304,3,S01
10660,0.2918568546710413,-0.5632455552569882,10.992397234824267,-10.682509527988099,-19.784167996207167,-23.490288368230352,23.979945265957564,-25.91514283902007,35.50597630501719,3,S01
10680,-0.03987137587651371,-1.2212805884543005,10.41023636781208,-16.048084222128512,-32.540129815745054,-10.7057621711324,22.376368303540236,-19.928625755134217,33.810526389681094,3,S01
10700,-0.3982820236909207,-1.5724514827529796,9.660489369710767,-41.887382164096884,-68.82650149621782,12.938607437869736,20.33501866651861,-19.713684539339653,33.1158711870769,3,S01
10720,-0.7160718307269363,-2.45785104626732,9.340573099019952,-59.65104373821414,-92.89252433551518,18.752961620196213,20.103234739420614,-20.25073439407626,33.65165886818541,3,S01
10740,-1.1770858541860987,-2.8359673836539936,9.204244929547608,-72.8852651065847,-111.86359549370385,38.67233242989774,23.000502177925135,-15.029746952618328,33.81735427956897,3,S01
10760,-1.276549050729753,-2.559270749242593,9.442969683816832,-73.19212685259238,-109.63769631916219,39.90741304301537,21.562855391570412,-13.875394245877244,35.99360298555335,3,S01
10780,-1.086607907696643,-2.27324885191689,9.415792785761305,-59.709223811276274,-85.32962576546146,35.2548714892238,22.108564587612207,-12.249010434538476,37.592304921289156,3,S01
10800,0.11834057540322891,-0.741911852849114,9.898428442509017,-23.22086451607899,-34.99709357291705,29.201498609233504,21.093262628452983,-14.632697259272515,35.217221042325136,3,S01
10820,0.5828605947747831,0.8281328512744734,10.482550281700297,17.85000179925556,28.09298573059599,18.028728853745026,21.065541430337227,-9.034319300431887,38.62567111502401,3,S01
10840,1.2621811436589179,1.8290158313731024,11.55715364205893,39.697609003065295,78.54521489574914,18.24984784849675,23.179156300915864,-8.925903148130388,40.5532468367438,3,S01
10860,1.4440914272691932,2.642919311783323,12.614917190818346,66.6677997775933,109.72395284554258,1.1484581559122633,24.668072042934064,-5.04503455996428,42.35960240249998,3,S01
10880,0.9875497026429563,2.7547177277031962,13.146792589708152,70.92916048394531,117.24245599365655,-18.325020595534472,25.49372105361691,-5.090552261425367,41.63757954403763,3,S01
10900,1.2082780291774202,2.3666751939408437,13.492449572413829,49.41717086823184,92.96993044553406,-33.26020661400674,24.65432385033635,-4.077947694012309,41.835512716494634,3,S01
10920,0.6758181805588684,1.4683479297874504,13.436538637679744,35.81822581315151,65.12103584232077,-44.242437135632706,26.031674770413982,-4.673513342527139,43.38803625254982,3,S01
10940,0.27503425178105745,0.7729585481258834,12.88470937226062,11.704467210941534,36.712344000701414,-45.410689374166196,29.238273133132658,-5.0963216998871115,40.23300308373907,3,S01
10960,-0.14883437185791884,0.3825404898818658,12.114735668150148,-0.8105562007166638,13.452572570374235,-37.28255823835544,31.76510718797298,-1.515595987255561,38.79548979371713,3,S01
10980,0.08772104717358939,0.2778171988715976,11.887865679476514,-6.712813870140345,-5.649128575519773,-30.974024541457762,31.878704423044123,-9.228765395835042,35.46406091024997,3,S01
11000,0.06934061631928123,-0.4499999699292019,11.184587944669829,-22.61320311896323,-14.689064682549676,-11.13465248909059,32.62063274472919,-5.741459486349905,35.67147695256498,3,S01
11020,-0.08787304748663344,-1.018865484845742,10.277555077374146,-14.801431091858873,-37.0840419862283,1.9216077479000053,32.765217263933415,-9.530047022163254,34.911476375404064,3,S01
11040,-0.3246244785782021,-1.8594519059529577,9.655587249733527,-27.827841307775284,-70.46942033195953,11.248934880123718,34.06019101898167,-7.280184162580622,31.82970369600237,3,S01
11060,-0.7293032609862344,-2.5194026423344114,9.238084482954273,-60.743593245863515,-101.09709758690674,29.45051800627543,34.171996201017194,-8.79211350722867,35.942813301594526,3,S01
11080,-0.9139281608844786,-2.976444466009197,9.2488774476698,-73.4364497843458,-113.42904118243618,28.80765234724914,35.15803518196892,-10.508064546992475,33.436494287803846,3,S01
11100,-1.2079264921610733,-2.768201078342838,8.853099918207745,-74.40018875618138,-101.84158389945361,38.16283923901068,37.268235565664675,-12.082858112983988,34.76411952215046,3,S01
11120,-0.9848949753925894,-2.0289426157600796,9.735377480559372,-55.32510624853028,-75.61048299957335,36.821228338358196,36.90715636903758,-15.390345754567218,36.05483615585114,3,S01
11140,-0.3521023963216906,-0.7629464370527475,9.821687529025354,-22.45290364097157,-17.840019538378353,36.44742000845479,36.92434282513912,-17.16373458583827,38.10715807162665,3,S01
11160,0.6403987511223806,0.8285540107729943,10.779273445195885,21.35685481996833,29.384820185710293,26.743418892492613,36.901934102990495,-16.85846779047224,37.39928904531241,3,S01
11180,0.9018827451150494,2.0903261253522363,11.544534761055248,39.421349194368545,75.561951196795,4.01947236337107,36.87962812639579,-22.50944816528127,39.56657548164811,3,S01
11200,1.4678072316825717,2.645258790490349,12.818458678187698,73.52473861197487,116.86328917923157,4.734211977105735,35.469700983271316,-23.37381086199818,41.53104962365088,3,S01
11220,1.2110325652742653,2.632280148220738,13.159950963502645,66.00751229575748,115.22288386485212,-15.245356333654586,35.1902131504838,-22.79138927926678,43.5560476624205,3,S01
11240,0.8080472625139739,2.3483411412660344,13.342006473788476,55.15263532241612,92.7579390821665,-33.377376381939136,34.23598440510194,-24.052316377716323,41.21766342857587,3,S01
11260,0.7297184505102448,1.4215058800682354,13.234179836100658,34.69611957311153,58.44644200047363,-30.183068541446296,36.18149571855719,-29.01157514397039,41.26393576038488,3,S01
11280,0.19803800635755442,0.6459038020168126,12.76885901447874,11.030377869007658,30.201894970866118,-37.27146177228519,30.082386739618237,-27.675797658488165,40.25546911526901,3,S01
11300,0.3449533618160987,0.08044249617485902,12.36740677355292,12.053247578195709,8.189658293611412,-41.18982141076419,31.400170193304714,-31.434216613084722,38.77457488639569,3,S01
11320,0.1928423893418824,-0.06641639904256225,11.604314068100932,-6.5449317331700385,4.337828932974809,-35.70555275041678,30.60045904166847,-30.264989139276896,34.89481218947009,3,S01
11340,-0.1068142413872962,-0.8599835545947554,10.85434558635069,-4.816521931593459,-23.04720811825779,-21.7534386974418,29.72768463518621,-31.566530858878835,35.92826700103876,3,S01
11360,-0.07473943416577453,-1.0989603647156623,9.939444229648446,-28.70730091226362,-47.44035027784872,-0.14956847987771982,30.963610684436592,-28.224785452091144,33.51917180348077,3,S01
11380,-0.7902050371856796,-1.7242192891554662,9.47173904615723,-40.487685125262885,-79.7581408485242,10.381609868038545,27.815052099084042,-33.222911076164124,34.78240882340419,3,S01
11400,-0.6525782312695422,-2.6926222505460506,9.233096528203276,-62.598050958948306,-100.0534349483018,30.68999129290185,27.268148375136303,-29.67631020135534,32.20279960576157,3,S01
11420,-1.3683192794850532,-3.105386076494231,9.030848965575023,-71.83478526096602,-106.36240000219868,39.96806970222211,27.692191057773584,-28.16569215362833,33.9049013590142,3,S01
11440,-1.0213340001750342,-2.672689930250085,9.175571066343336,-80.11938270985364,-104.52651351663576,39.17402960140352,23.66561255416346,-28.467237047871624,34.1954609378335,3,S01
11460,-0.8196451342144119,-1.91833966385817,9.821422268683277,-49.10540619546058,-68.07148159222814,44.767190623464536,22.98580304617526,-26.048043809787988,37.151861697268835,3,S01
11480,-0.023050822260208437,-0.33325369058335413,9.922154278191126,-12.627826193145381,-29.406781115856397,29.890262786509673,23.33039499465437,-22.287848937187952,38.75795211720024,3,S01
11500,0.5084531271834434,1.2151649779570575,10.881700840688012,25.189542387349732,45.35180987262279,19.019500792578754,23.132691279721236,-22.02759197230678,40.86192279022316,3,S01
11520,1.1145814137670775,2.4076759000313754,11.737052999898118,51.878100731457465,81.17690220757883,13.944880964064927,21.549454620818445,-21.75374199741421,40.940844937271926,3,S01
11540,1.529156701588778,2.9057008518860825,12.367221963635664,64.64771143824207,110.03868252347775,-3.686934596316274,23.33745961003153,-21.02765522334724,40.924089049231206,3,S01
11560,1.4276188822797211,3.08394308264161,13.065488492133968,59.80330470984805,116.58604574155557,-20.245672987641683,21.303128428618216,-17.121978352203314,41.69475821238782,3,S01
11580,0.7829889755659382,2.1842127474427535,13.198151580766098,45.56961397865804,90.50225647804298,-29.70582712931247,19.36709614935534,-16.366167875362095,41.048405197654,3,S01
11600,0.2687655028860653,1.2114974552410087,13.039095228020532,32.327964112733405,62.28559378385655,-39.73067635545496,21.159140870227574,-12.813927407000245,41.39994423513506,3,S01
11620,0.2080604864907264,0.9845148378326616,12.748647271709222,16.891317474212027,31.025289088428888,-34.16128660059452,21.643132123320996,-12.302107046426135,40.133486686289636,3,S01
11640,0.18884358411787766,0.3425094723036662,12.12284347158804,-1.779873091483605,13.53660757132803,-42.69180733562596,22.259929096686676,-12.049769676169287,38.31033996934196,3,S01
11660,0.09749796299035095,-0.15362061031669755,11.715892750989706,-8.06956026515326,-6.684072144295968,-25.33358678189687,24.337292664473537,-9.168777928497528,34.53922857807431,3,S01
11680,0.16853282899176042,-0.6843901155571357,10.477996000076606,-15.293008695365387,-24.781228588830245,-16.841429850396572,20.630392288259415,-9.921094445954978,32.289941885343666,3,S01
11700,-0.27712013909155186,-1.1202778141169114,10.071393060608155,-25.244931847449152,-49.99145640629017,2.6345177846356234,21.76495992685417,-6.448999794961965,32.59633872653648,3,S01
11720,-0.4896271676923055,-2.027659970913617,9.605753015555555,-41.18682515227048,-75.35509951173387,14.649015757080855,27.009747089758697,-6.123994473795854,33.01757245411821,3,S01
11740,-0.9174989570665867,-2.550728018186712,9.159613811762059,-64.5955321200819,-107.14535509984637,20.10617322504411,23.874041987073106,-5.534455775362364,34.34478173266691,3,S01
11760,-1.373041109425236,-2.9038385231527424,9.153514958052574,-77.72298805979158,-117.1108364994139,37.807838990362285,26.66749553340351,-4.766062414345117,35.71206139376393,3,S01
11780,-1.3753653664014907,-2.7414225608838816,8.876896119877223,-77.81297103919307,-100.35835233307067,43.79699150872474,27.155342669523833,-5.304552024237233,35.39325763634144,3,S01
11800,-0.8778668196348854,-1.8158217455657601,9.660275022062889,-41.92478909642687,-68.52258077058146,42.76595382321555,30.8957072560658,-3.355764762642935,37.31793590665136,3,S01
11820,-0.20383206448117905,-0.32704886377259795,10.225180094664445,-9.124804337274051,-22.973009643783953,29.64497537386169,31.899280143432655,-8.523032711804861,36.53188721830237,3,S01
11840,0.7280973138713333,1.262980518456809,10.85049055613308,30.112419484203908,52.69423736997015,15.16292853373317,31.966868538279556,-4.987580700785168,42.00827200475867,3,S01
11860,1.2531340778831361,2.3575141444567267,11.76420477347004,54.82189146844867,96.70647058125512,17.546382933826827,32.65503677024756,-6.643911362498128,40.587518161836336,3,S01
11880,1.116356392340091,2.797412494253668,12.68311846651712,71.05968508302283,105.6447020614282,-2.400384036955477,34.04811858450407,-6.492082265093534,40.50637625102933,3,S01
11900,1.069074698887565,2.63308406715456,13.140326798409053,58.91219191529448,100.73581233936793,-16.240431886276568,33.977763677165214,-7.447051935813124,41.780884261849685,3,S01
11920,0.7182101179154703,1.9741047404141663,13.154646866100784,44.76272563182769,85.93213261428262,-23.83848195039236,36.2466294361071,-11.645948869473447,39.05829868539622,3,S01
11940,0.43965454496019285,1.374993041972104,13.397476301436983,22.309485611088128,54.43680799044236,-47.35780648388363,35.92754296957538,-13.67469406547465,41.63878312835725,3,S01
11960,-0.0473531908618009,0.802241631062826,12.679080356911522,14.34620329803597,30.396640570380526,-52.70026061123721,36.954637868882955,-13.428657406209746,34.7391168846554,3,S01
11980,0.048725551132019665,-0.013846714980059703,12.318796208525319,0.8635866057102204,11.827389421096488,-35.746315642924614,34.81553983036864,-16.991930063800865,38.04913549725768,3,S01
12000,0.21132434624844917,-0.005828601763922248,11.253372713159814,-10.682729714062646,-6.127921740655165,-28.17977013756675,37.453487881806026,-17.810521292558747,34.52681009162633,3,S01
12020,0.22672931485785403,-0.7281605946241281,10.879988023488696,-9.749550287046745,-32.31975920686516,-9.177349852294158,35.20593112918602,-19.616858887944474,30.599443121690268,3,S01
12040,-0.2503168363265087,-0.8380777911069675,10.293628072086804,-23.127197256833334,-45.38993680620942,7.539954755456074,35.47681210470925,-21.381171105147374,31.121246198643057,3,S01
12060,-0.607906915033676,-2.127990292459082,9.44773711485196,-45.403170914962736,-82.07162171941461,20.467052119378096,36.256051279626874,-23.003327685584566,34.35664054732552,3,S01
12080,-0.9760865214420936,-2.5477359969925373,9.170840826489922,-69.50343926850499,-103.7898963438911,29.17894466541752,33.16905136406001,-26.071302642778612,31.885082377445322,3,S01
12100,-1.205486559923103,-2.9896032414431355,9.181301697525361,-83.74433282109557,-113.67274889344705,27.326402735054362,34.74333852251322,-25.831588027056274,34.03036623478989,3,S01
12120,-0.8968644115953014,-2.629908769206443,9.163984333479073,-71.22804382355834,-109.66124906201028,44.47023440628193,33.2225444373551,-26.726233956471997,33.722607882221254,3,S01
12140,-0.702726881203464,-1.5565070322946817,9.721671521525254,-39.33474609079122,-58.38866049278562,44.45266930312898,32.310624143003515,-30.189801831271588,34.98998003665074,3,S01
12160,0.14094794762530388,-0.375370233075606,9.981503827204369,-19.945101934176776,-10.283884050051487,44.478662851570476,34.83651099870708,-30.308599934982315,37.69227132150556,3,S01
12180,0.6224696401810245,1.0577425737369384,10.937231864887856,30.779366891611158,40.527984164278124,22.204089120813887,31.367886887617093,-29.83803002968074,41.87793063470169,3,S01
12200,1.3021722238903557,2.0045863167588713,11.908048031615886,57.55188835055588,97.40727732628706,0.7423608841691983,26.88020018051872,-29.406732127644844,42.272505104958654,3,S01
12220,1.491853506014348,2.835065154038699,12.782450224317389,75.84254264261565,113.80128998837563,-14.952659672894825,27.03778184250168,-29.65261923039149,41.92701425609985,3,S01
12240,1.1936041725162394,2.5028207804139075,13.114816067436283,66.613121218357,105.7664943349559,-19.387315315351255,28.64356602674282,-30.149655440797375,42.98694841485884,3,S01
12260,0.8550904070655267,1.9775183047522213,13.406370466625663,44.4821583892155,81.57749016677428,-20.5286638062673,25.22001339984605,-28.824423844755195,41.739875453055895,3,S01
12280,0.5192219070809503,1.1753142960681375,13.157181323650672,16.911318595166364,55.112815215457225,-32.77429434889739,26.125695353285714,-25.102691091416904,41.20440178035102,3,S01
12300,0.15700168322077784,0.569557954993664,12.560802962175643,8.555514002678336,21.697924480326396,-39.68495857164377,23.572721730323032,-25.679777138091744,36.1185434411872,3,S01
12320,0.0682859797816088,0.23625443220449377,11.995671937561287,-1.6153967937477947,1.1577754289199416,-41.656164839293496,25.500266423421024,-25.92699096268436,36.71911751716622,3,S01
12340,-0.10434074218724776,-0.13261484727256506,11.407909713605415,-1.9058914428210452,-7.0816847411193375,-27.75242610768296,23.31558338828421,-22.878687848499897,33.359060310506635,3,S01
12360,0.024698891273064558,-0.6094196712587776,10.587040749159,-8.78094818582542,-25.30233337749788,-9.76969780511372,23.456753135039005,-22.443089548722362,32.287992063575544,3,S01
12380,-0.12935080493216708,-1.5327792559564704,9.689409787989703,-23.448570907091405,-52.031471948389935,7.7283106377106146,23.44448716241628,-20.290977445239907,31.474810916995565,3,S01
12400,-0.5442196636742661,-2.269580455268047,9.036838167320433,-42.036224811447866,-79.78829540873174,20.811604280579505,22.459351625353243,-18.70284091015064,32.13362240898266,3,S01
12420,-0.8278299951188659,-2.4639639063144347,9.120974678653232,-75.71633303742271,-98.8361587740838,38.225307530557494,18.565540212207253,-19.308090024001828,33.280476642135696,3,S01
12440,-1.2205332071165245,-3.053736415613404,8.948034893710945,-70.3767935057934,-120.31012643709079,38.52732092648322,21.170022575718317,-16.687800095033907,34.56945945954449,3,S01
12460,-0.8715689341578677,-2.492475156259967,9.303176475560916,-64.2975511848036,-95.92505643255753,44.6234782785087,22.20063193286242,-15.12160671211181,37.09740775295244,3,S01
12480,-0.7033291273680758,-1.7572769661849603,9.738838143045042,-36.677702483437145,-66.11497167271641,43.451611098705484,20.242523324484583,-11.053861518690082,38.048650157048556,3,S01
12500,0.0590355102491809,-0.018195950627162852,10.117068024739885,-0.6975349404889362,-1.060126255120834,30.00138297800987,23.7579597010563,-8.519986024388507,36.4429576996557,3,S01
12520,0.8974066256329952,1.4449002854674318,11.227593976526148,29.776876058055638,44.12902752876381,21.302587066323994,23.144666085145968,-10.429518399547604,39.54358294015728,3,S01
12540,1.406875937276934,2.7380408181843277,11.969195745217933,64.6039829963947,96.17006343194252,5.71278888617592,23.337877458164606,-3.318251508091694,44.10801939884862,3,S01
12560,1.4293013965184946,2.6183191730564377,12.824631347396828,65.77754710315632,118.25270322118664,-7.330022935704256,25.753979507673947,-7.180933862419868,44.367801807464126,3,S01
12580,1.026574886879662,2.131065979089691,13.110909810102978,58.95504440744019,104.86970635167098,-17.72493259361351,23.42998695229049,-5.048027736472553,40.60003764502635,3,S01
12600,0.9559243982692751,1.7047411674647484,13.16896524375466,43.831346083964704,76.94878286005022,-37.687390099425734,27.43497653695556,-4.789731742267421,40.29087381446057,3,S01
12620,0.3999371215068539,1.162952075165311,13.190141809380744,20.774254829396725,50.684691892600966,-38.811644367059245,26.08803875761046,-4.872695851422684,40.83929954454636,3,S01
12640,0.30172512640164406,0.5288951232706851,12.686125334375316,1.8241444004667304,22.63863471110176,-40.47613368491466,29.073657256354704,-3.9345373810907542,38.227106802068604,3,S01
12660,-0.1076345354327358,-0.11826810260030299,11.722013725258101,-9.564217015795098,5.620685578084959,-37.02539282889831,31.180719252148812,-3.7283475579888634,36.7007429626192,3,S01
12680,0.3516221110671547,-0.4795534974051009,11.086506116240662,1.3605018681454046,0.6182115630550549,-20.327879921241465,32.53984468589737,-4.284595166442615,34.47710560255419,3,S01
12700,-0.16755499442886493,-0.6794799130388296,10.44833278316696,-16.558239755283015,-18.314150054456952,-5.415327047465265,34.081458464892776,-6.622733157284622,36.17790246364196,3,S01
12720,-0.08296577831503718,-0.9652827878077945,9.885417552920604,-19.473876603997837,-53.48310562906084,-4.173837061849516,31.08565288704248,-7.7658023788429595,32.167314252996,3,S01
12740,-0.7733830044115654,-2.114425230446557,9.201630094572696,-53.30225719551172,-85.80407237833377,12.715240686178323,34.66982550158323,-7.465850482861629,33.04632404273732,3,S01
12760,-1.0331623849214404,-2.7804155726504978,9.332482982789122,-63.9051465395878,-101.83559636029948,38.67765204851747,35.31908545418905,-11.51758369384444,33.45704357186555,3,S01
12780,-1.141236861437003,-2.7945828956506453,9.001165398222648,-75.56711730083587,-102.88744774969527,33.55728042151704,36.50271269963106,-10.801422840079407,34.35632989635127,3,S01
12800,-1.1401459321760679,-2.5696602237616584,9.448400508024111,-64.92396597405734,-91.71816785299167,31.404804981096667,34.5519504371297,-13.713961395662444,33.02599594997653,3,S01
12820,-0.6524979548027455,-1.3038868839974433,9.810138398370093,-46.447335158079156,-58.81224486921319,36.29389299829135,38.435730403505026,-15.572191056848757,38.36682435044579,3,S01
12840,0.379550742379547,0.10795926299119535,10.052969744098128,3.1751884083232573,2.897912937983663,23.94707420126371,34.47900324427774,-17.263098428314493,39.65333999426316,3,S01
12860,0.9970113146159763,1.5660403611333356,11.341306853688646,33.869539639572956,69.2636617306519,12.240829445010418,37.43207517707751,-22.421458253994082,40.63103784184987,3,S01
12880,1.390251516098309,2.5385340279941557,12.070486800118834,64.07649123081654,94.87073553512296,0.7263633920181837,33.95642784847557,-21.003410612872926,38.95838929668269,3,S01
12900,1.3629463243899993,2.618063227486573,12.741114488929849,67.37308053942918,113.88881008553575,-6.203121200484924,37.1322795739578,-20.57864737388237,41.26516335597421,3,S01
12920,1.1053801854813667,2.3228139832773067,13.405315554170146,56.834811554191965,100.11881863916147,-29.496802197184213,36.06439003813409,-27.228863765060133,40.2670220741354,3,S01
12940,0.7111303099904503,1.8361044783800937,13.213770898724164,30.21601366959516,73.0886210053741,-34.95903141845516,33.580133574216205,-24.579255543378707,38.91891330283379,3,S01
12960,0.18726551228860683,0.9026439035029208,12.639679780090884,20.72389279099836,48.93640359694921,-35.8919858385369,35.258015067605776,-27.221669499776986,40.312871783296366,3,S01
12980,0.20232252909682288,0.6242599966785922,12.608181193861437,1.872237341690064,19.433829076672936,-40.59540335901783,31.67728048953075,-28.269611228870254,38.40758592878997,3,S01
13000,-0.019906790609953914,0.02250152805227862,12.099193986591471,-7.236629322936561,5.120688211587109,-32.61560237866696,31.262203186312014,-28.396873713198193,38.31165531614801,3,S01
13020,0.1722923881305405,-0.4897730098087469,10.846396300137313,-0.8135844525909741,-7.178444712029443,-31.10406399485332,30.37066336068914,-28.704402290689124,34.97982074031451,3,S01
13040,0.17412070693390733,-0.8986825949106234,10.452704453962157,-17.622981550802702,-25.045370255625187,-7.935763666378028,28.728233085531997,-27.687246338550064,32.5842666085187,3,S01
13060,-0.1276976555985149,-1.332015692082775,9.599033243553764,-28.15417996155078,-54.789679287428434,-0.7503999888871548,30.89791163289781,-30.038856335701336,31.51607393603775,3,S01
13080,-0.5793628998717026,-2.224687642371121,9.246268859406554,-48.709157226209754,-88.66258933327804,23.868572166858698,27.233561298710217,-30.409880684212673,30.25219963351888,3,S01
13100,-0.8491819263624724,-2.6127069185658467,9.23777958165615,-71.66899087006644,-110.45567946877625,27.877044443024904,25.196876164361235,-30.776895696658897,33.74728770174937,3,S01
13120,-1.0157334198401355,-2.876930273308729,8.962833253181456,-77.93938352613502,-111.73696020429115,38.5994394058881,26.441713091476704,-26.864089066339837,35.67628994674537,3,S01
13140,-1.1222500529010306,-2.302870786941993,9.124934267039801,-53.88252657967789,-90.54022973234471,31.92371818054757,24.837123725639685,-30.804776354718634,37.98803034623554,3,S01
13160,-0.511478741126426,-1.3101282345588987,9.690337375441192,-25.844505125021808,-55.62170990814572,39.5159734769729,22.887374831460754,-25.790048477979063,36.965361230343234,3,S01
13180,0.19612000031171214,0.1462394768853942,10.577370842895743,7.687473870520603,8.293958541249642,25.477820793221323,22.795857493376722,-27.031351113029313,38.58301984519153,3,S01
13200,0.8035190772861793,1.5469130275458962,11.375125468337023,33.10855572247297,63.86074184384333,10.386924832105068,22.29932000654049,-23.401383479656612,41.70964836968336,3,S01
