timestamp,ax,ay,az,gx,gy,gz,mx,my,mz,label,subject_id
0,0.11201402230114642,-0.062252819935815315,10.136778689806382,-4.288918550971888,-1.574052764144814,0.6084392794633119,29.73745371911039,-16.650451906652727,37.58087902299029,1,S01
20,0.10086453538158721,-0.05802922912287291,10.140336845070081,-3.98164808071755,-1.207820215359693,0.37733244550511763,28.511814696054394,-16.372358425368336,37.71692400624155,1,S01
40,0.11662930454738538,-0.046749831050088266,10.129181360903246,-4.508452361305817,-1.287101779578783,1.272432613157466,29.140727846092762,-16.399772463393077,37.73882981732804,1,S01
60,0.12927308286053807,-0.02850929866531242,10.137459961150217,-4.056211383526987,-1.7983311392549344,0.9907892860042271,29.105500720996975,-16.48656070479629,37.43468358159578,1,S01
80,0.14017461485305852,-0.04581076827056664,10.158828181790277,-4.059676752907929,-0.6377252175404664,1.7288278118206701,29.63656856986885,-15.903980132057917,37.17252263809179,1,S01
100,0.14669952110927598,-0.06408319031246894,10.157172538642804,-4.440608727845191,-1.046780447966824,1.5733650868523175,29.302719098315592,-16.504733875197047,37.756473770164604,1,S01
120,0.13869010686697902,-0.045162323028420645,10.143321021904335,-3.9880662504004714,-0.32372056638995805,0.25935238302779573,29.151732286611082,-16.27015103619548,37.164270721761596,1,S01
140,0.15056960389982746,-0.04036759145698015,10.136950684817128,-3.443703275194614,-0.7969428449370479,0.33845018611574174,29.273715057926005,-16.040775088147434,38.31750018886263,1,S01
160,0.15110877139035572,-0.03513828746754459,10.154573966818614,-4.62534437115585,-0.7998120221900745,1.0438432481983173,28.288311441351365,-16.946108041145642,37.54563928977035,1,S01
180,0.14762773313505137,-0.03312131963370971,10.156016054370244,-3.7543289543278746,-0.48482867302856036,0.2296137859319054,29.871633564015216,-16.60723411313336,38.3958431459317,1,S01
200,0.1361637474078609,-0.00364559809433114,10.15201553254896,-3.4248975433937954,-0.5174703060207337,0.8540747929174848,29.078607849114196,-15.678901911017949,37.435932381214506,1,S01
220,0.1433048207024827,-0.037597844625118566,10.132109719691773,-3.701186863083234,-1.636182595304835,1.5307272802808818,29.75084895830183,-16.4978008112844,36.94845338370607,1,S01
240,0.15757118357451172,-0.02738834600462968,10.152785890537416,-3.324860642594862,-1.3085572784607227,0.5204852312942847,29.09760985348852,-15.795770553421926,37.60158457016632,1,S01
260,0.1595833026943421,-0.018069626832713327,10.137186103691876,-3.8591541926649344,-1.5207917570354246,0.719173690261804,28.98592081285321,-16.642688559801215,37.75147882987823,1,S01
280,0.1489583403460276,-0.017666139944286702,10.145144425466771,-4.28083112079195,-1.1231112293514178,0.7472183049155037,28.51217416371674,-16.481939665079608,37.46904710543468,1,S01
300,0.17453465379698713,-0.035248720684087104,10.145079108836033,-4.556011904782156,-1.3390143479000685,0.6856960567909105,29.34146688633215,-15.990270189032508,37.50979217673324,1,S01
320,0.17359530399239287,-0.01719828740628189,10.148166616470132,-2.8870537017769946,-1.3123357978484553,0.3597798454123239,29.521589400028876,-16.394012787688247,37.58054377625776,1,S01
340,0.1842008908503683,-0.011738055683595192,10.149247911687517,-4.235377774536387,-0.3823858231771279,0.8812804572311369,29.57366866033375,-16.746132265868226,37.98862226057605,1,S01
360,0.1758081912086041,-0.015899565409790935,10.133929297414568,-3.8943791396088328,-0.376221918675006,0.5289875633752767,29.611752129009094,-17.229891100825505,38.08239436270591,1,S01
380,0.1600629717123016,-0.014762832934180264,10.122872203183684,-3.667478730122581,-0.50293056548197,0.6407308582582216,30.123646708359576,-16.69516498249793,37.78621934076725,1,S01
400,0.18690124471319708,-0.03135541241477308,10.155535723523872,-3.5606171426871773,-1.074950912276932,0.9904775420408253,29.12397175967618,-16.629560921944524,37.03398077444269,1,S01
420,0.174663189503375,-0.024001194510124987,10.136006943769997,-3.488468436808981,-0.5495314954465331,0.8743808779881042,29.47071411251177,-16.419591640896403,37.329264726798456,1,S01
440,0.19870752830623695,-0.04923256148807993,10.165032256480638,-3.9764668775397456,-0.3718738068583607,0.5942197641520757,29.129321941014172,-16.945589101573486,37.511423064292934,1,S01
460,0.17987940927949675,-0.04715232922116387,10.138439002312191,-3.652358973132895,-0.9141506999580071,1.4060605512996291,29.928438695780358,-16.37122977083982,37.481670260402865,1,S01
480,0.1649471677928272,-0.04509293968175986,10.130629919873734,-4.2124683941357635,-1.1124220847403987,0.6640696194604111,29.648785650497242,-16.31467651814757,37.39635749277564,1,S01
500,0.18506632521528715,-0.03849201412800904,10.147660128538694,-3.816157760941729,-0.8261724657117651,1.4087404219432802,29.187887639056946,-16.369367433517347,38.202145807004364,1,S01
520,0.1760684710921355,-0.045870034048311976,10.147531921939787,-4.072475933799093,-0.9877772296817542,0.699196049913243,29.451407965778007,-16.872366512637484,37.73582734278677,1,S01
540,0.18491744957566114,-0.03948098650718346,10.148425844156888,-3.0803354476208096,-1.5916715099782432,0.5869285153475705,29.191803890691958,-16.322585739553933,37.97657614651932,1,S01
560,0.18036392507969606,-0.053121203115295605,10.168584902989187,-3.7609227343359697,-1.8807259916776817,1.4254841424570892,28.896216806862302,-16.43500388943125,37.75280846403782,1,S01
580,0.17852984254445373,-0.045884738194814555,10.150661907734762,-4.093526479190824,-1.3006132374954433,0.8545670229640282,28.91843717680706,-16.348330789411314,37.93570702381046,1,S01
600,0.1700270761128151,-0.04602578448254591,10.127055811766061,-4.916260195221951,-1.4103185782796699,0.9559478126711934,29.464791491627917,-16.42567760558672,38.03641004639333,1,S01
620,0.1793463487690824,-0.05873774698131158,10.153172761566745,-3.99666385769735,-1.3713696332206917,0.7506327064920637,28.766053116767022,-16.555773796662557,37.728680535338306,1,S01
640,0.16990211136827577,-0.07208454669358261,10.13531520740516,-4.202195328489582,-0.34216926516834156,1.3337296957574933,28.74842118212936,-16.800232311988392,37.937900456138365,1,S01
660,0.14045245346841134,-0.06554924425137315,10.155839332079053,-4.6164572085858815,-0.7832849692593471,1.497156962283493,28.144814485207224,-16.011883183053328,37.92039622820007,1,S01
680,0.16172064627254795,-0.08568548671272946,10.140599117567572,-3.8067039501318862,-1.2007117169086996,1.5127683470640898,29.55374008653952,-16.977540469762218,37.491286046166415,1,S01
700,0.16109934470097145,-0.060403609750669794,10.135679579009395,-2.811103570465349,-1.1093213745445984,-0.31447202174497846,29.123981965821976,-16.478671502442616,37.996812581875645,1,S01
720,0.13929024373923604,-0.0768453834663129,10.158473946701012,-3.5790858805655557,-0.612284365581921,0.18793660236636922,28.997539322442208,-16.540326157089794,37.5143095890014,1,S01
740,0.15197965217085413,-0.0828076075572389,10.140475831341739,-4.530250340893078,-1.9557081432790258,0.5804397007657225,29.731668652187228,-16.761409185860487,37.69504737300933,1,S01
760,0.14831232650362297,-0.07964516754603222,10.146251462764624,-4.631575767205365,-1.2058971789814752,0.950557372918121,28.31413324053766,-16.83895724745158,37.421767444094066,1,S01
780,0.13669955361859268,-0.09692258678267474,10.142505350246104,-4.688332486904535,-1.2694400444174105,1.1312909890809555,28.88449787170859,-16.79184956638744,37.90696288453481,1,S01
800,0.13797733233973355,-0.10625761815846144,10.151786514141648,-4.209182585033343,-1.0913924650300948,0.22785505472550843,29.45462631562394,-16.27971743171182,37.60705512204081,1,S01
820,0.13256955347340438,-0.10730138742176412,10.12903160910345,-4.234118487052045,-1.2490829796809535,0.9332466522222291,29.078075305926852,-15.850487223017925,37.096338773140644,1,S01
840,0.1212958370626149,-0.09827687697630816,10.14363917701309,-4.115734836715053,-1.6240560587829098,0.6577165817227546,29.71475391895258,-16.26252229002812,38.12383534946554,1,S01
860,0.13610641179894006,-0.10814429212547827,10.153224231566847,-4.7623252216075,-1.1894428502900587,0.7027467654955775,29.643908917636846,-16.120796654841573,37.735227984417534,1,S01
880,0.11525455757800385,-0.11032372221878517,10.160813281573125,-4.1676773443987125,-0.9842415693376714,0.8314639169810343,29.71746173338528,-15.852218215904095,37.74545914776222,1,S01
900,0.12429272330540933,-0.10260826457952615,10.14102847119603,-3.7207288740675777,-0.15004591146310697,0.9999199540979287,29.089189647648755,-15.762090229795945,38.02227336726103,1,S01
920,0.09444217611431802,-0.11587364825343606,10.133158326398572,-3.401542694936226,-1.1749095115117183,1.2846795820294346,29.24154790752229,-16.342463432380118,38.48016258302997,1,S01
940,0.09514012671639073,-0.13445120667195704,10.157039819313066,-3.5626999409387183,-3.025331449032863,0.48503620548932114,29.1120709021594,-16.00801003726745,37.844456136062426,1,S01
960,0.07546290245671677,-0.1273219143874278,10.157551924658964,-4.580170065397307,-0.995845412175357,0.3502190465936337,29.190762776854044,-15.934706655641975,38.40349830852709,1,S01
980,0.08182504076042639,-0.11332475776992719,10.146425170701363,-4.210488422710832,-0.8154847855284675,0.15524362517697116,28.51699929373002,-16.11674756363469,37.44113759967462,1,S01
1000,0.0880808216270862,-0.12336316484870863,10.134919334072695,-4.45365004822118,-1.7608324116781668,0.09248519631442709,29.0740629083805,-17.055731038189997,37.748669717987575,1,S01
1020,0.06461085400196312,-0.12014419008641108,10.141585285137905,-4.20010379755047,-1.3110947952054794,0.7578929372758019,28.60355510031353,-17.122809328194776,38.1439600273071,1,S01
1040,0.06833135002722007,-0.12377057418784643,10.150413244342845,-4.443518400104949,-0.8762176043732818,0.956643348367481,28.9712434047803,-15.733954033245539,38.12072812178216,1,S01
1060,0.06749227375878865,-0.12132808041034404,10.165972102893702,-4.227658504092727,-1.790139860053916,0.30605578664501404,28.921531523823766,-16.72709293292661,37.60617934504143,1,S01
1080,0.06204311093322643,-0.12519525328739894,10.150044797221542,-4.642721528140773,-1.5983809738601706,0.572088015691581,28.976179071844946,-16.92681579804927,37.76127346946672,1,S01
1100,0.06086438548622359,-0.11480513150252886,10.147616381701814,-3.8224389232014526,-0.7043593405199321,0.06526503916129844,29.08904221731183,-16.12556831264785,37.52599685068543,1,S01
1120,0.05676130441657139,-0.11708218221839588,10.140176302947506,-4.620388314863878,-0.9534426467074042,0.20274159542803416,28.928780326344178,-16.899970311801816,37.24521689844677,1,S01
1140,0.0558539018414318,-0.12452072526612043,10.141986371282089,-3.8532825552904804,-1.2460015269061713,0.27638104402456665,28.836720116118993,-16.804796316908035,37.519242850078214,1,S01
1160,0.04280470884811526,-0.10662673862021055,10.158961595907249,-4.889170893481028,-1.4529753805870111,0.39361249500030016,28.868445172950086,-16.390565255735375,37.14528768489368,1,S01
1180,0.04568976754715169,-0.09841091988195326,10.158160500153008,-4.550736917037017,-1.1750299381994886,-0.31549950977906016,29.474698941464947,-16.755713286844944,37.20957612546074,1,S01
1200,0.02441848288249651,-0.11361687383163777,10.158493139453185,-3.788829162196599,-1.375163593067469,0.7851721936661721,29.188337527386267,-16.98025857509127,37.47814533085889,1,S01
1220,0.009787672779285772,-0.09613401732729843,10.1282797797759,-4.804764896900224,-1.8305792390701545,0.10720945579635743,28.320288408524135,-16.562116184017952,38.17386314495645,1,S01
1240,0.023090749526243307,-0.08905931528758326,10.13228522013753,-4.37598681729501,-1.7907277369210957,0.1647827304727248,28.875656275655476,-16.839741963338657,37.634318082228745,1,S01
1260,0.04429889519078274,-0.093407360566896,10.143764852948108,-4.15858696040303,-1.4092441504372113,-0.12307310955805117,28.95626971948377,-17.784020591331405,38.018398633606786,1,S01
1280,0.0137073710200801,-0.08947309457702726,10.1372951092292,-4.370341392890038,-1.4118927285204164,0.304816251052993,29.38987880708267,-16.969359753943834,36.92442837585425,1,S01
1300,0.01714660754202542,-0.07424863480458925,10.134789005511122,-4.939644592942606,-0.6474842497972776,0.2917899054974964,29.28808921251724,-17.49297083041933,37.21839761353901,1,S01
1320,0.024905639464213078,-0.08975373798588665,10.137109293574834,-3.496890206579897,-1.9242756094848095,1.0846066666400775,28.885412624813565,-16.64907564231202,37.01292190558299,1,S01
1340,0.010480890676015028,-0.07605363367775989,10.160065287198126,-4.975552737450234,-2.0160874948533145,1.351246518356466,29.07617417024842,-16.82750359225357,38.35270758375977,1,S01
1360,0.01626332463682338,-0.07664892273762582,10.149967373739475,-3.8092774662684685,-1.4445846171864622,0.25751784937427336,29.317944280578022,-16.57894953487685,38.03507490835559,1,S01
1380,0.020591609126508204,-0.06566730710001786,10.141817203899365,-5.026357272773182,-2.207277942483449,0.5213947228423389,29.19518436550176,-16.09646654374353,37.631943629991106,1,S01
1400,0.03143014776225797,-0.06563866895343354,10.14615100593441,-4.096756568772223,-1.5696403189427808,0.4890085724472224,29.178318332845045,-17.031679312292567,37.865521277560426,1,S01
1420,0.012594988753695913,-0.06908775692926994,10.167825699322485,-4.506486805312382,-1.6454434744599598,0.7320861537904088,28.662700924438845,-16.25401091672748,38.21290621520632,1,S01
1440,0.024865844333022497,-0.0532683755079813,10.143136407955836,-3.9906138685054917,-1.5024864602341106,0.7181129124015655,28.570936465312453,-16.75663334189388,37.299387479792195,1,S01
1460,0.02050572251017714,-0.05479472754465757,10.1500859767598,-5.254062193702323,-1.6803129692871437,0.8704934020393946,28.82550719530412,-15.980651518269012,36.972297757082345,1,S01
1480,0.028539980069981236,-0.054717425109511185,10.144539486710407,-4.557000025622552,-1.4913907407313076,0.5294973323798179,29.578954530696492,-16.077009435135466,37.245521491631926,1,S01
1500,0.01603988390069605,-0.04198205456750827,10.143938458500509,-4.863265804128066,-0.5461320947890373,1.3856622601930542,29.743699241476754,-16.738259763007868,37.64906689899269,1,S01
1520,0.01432703297678023,-0.04249265684389175,10.147246042143655,-4.290687436004802,-1.2715842621036115,-0.4197574134874532,29.046807881278482,-15.38794501120695,37.857397930127114,1,S01
1540,-0.0015014138050597342,-0.05696398379370417,10.131318370946742,-4.262307379559378,-1.5192074075948823,0.6922403362018088,29.218136296920648,-16.422868866699226,37.433339445681334,1,S01
1560,0.01775516768134322,-0.025515899383478154,10.142615931719233,-3.649367514867051,-1.9186448343975644,-0.43682735446115484,28.32344726267841,-16.184655762357266,37.13026167206158,1,S01
1580,0.03448726191103807,-0.02587289581740517,10.13659397810943,-4.682179316957041,-1.2016278089219896,0.22863170200163557,29.034540771147313,-16.241252228015874,37.347585076682904,1,S01
1600,0.007556918695703893,-0.042213862564419335,10.140125063071334,-5.171158226243461,-0.9313785975369411,0.3642154251934654,29.346258210124667,-17.227817903837654,37.66559206456539,1,S01
1620,0.03782617021137946,-0.029824953519350834,10.137895604548929,-5.155751613611197,-0.48604918513988116,0.359821160827849,29.188175225947106,-17.039119551019525,38.0400060509146,1,S01
1640,0.04250382110201032,-0.031323548357519895,10.142966119783267,-4.695039651449363,-1.2983578899693848,0.6732393612549504,28.805068924099633,-16.433660714985884,38.41850736677193,1,S01
1660,0.04617711799101953,-0.032979958211604536,10.141386305837882,-4.238704649089646,-1.08417127234336,0.4886139640115805,28.37648155846421,-15.648966650173389,37.86188541650356,1,S01
1680,0.04650583554652037,-0.02139395998485963,10.139000599162125,-5.2885039269505905,-1.4849919337465711,-0.3426962230543258,29.112222535155368,-15.78794507923661,37.02160707665075,1,S01
1700,0.039853696360110866,-0.01720696750480369,10.135303652907844,-4.03022320924923,-1.1677168507378621,0.46280728808650157,29.24001785036324,-16.497892719271498,37.885638773207056,1,S01
1720,0.03493888912332897,-0.01544505802389693,10.14072793381564,-4.17215992110591,-1.1073453250223912,1.0344743102050067,28.993551266148675,-17.11557735877112,37.721974309499394,1,S01
1740,0.035047753060788764,-0.022639101741059216,10.13902857981837,-4.332448314268041,-1.851755876328395,-0.0582973261821369,28.92663536731341,-16.86642963815352,37.55102467955585,1,S01
1760,0.04989062342311042,-0.02345327338830614,10.13222260280972,-4.264086354008699,-1.3415518963764859,0.07059668587481083,29.00357284170685,-16.365143642731148,37.53989196251852,1,S01
1780,0.059731746448834534,-0.014187781732570341,10.152637869604993,-3.783266187141913,-0.9688131116421165,0.3057957265970829,29.40688362023238,-16.4725506332924,37.76013692139858,1,S01
1800,0.055917444919067305,-0.02860439904116538,10.134771256069593,-4.273860029540473,-1.6770201719792046,1.3544826131342398,29.297345833395337,-15.918352540356766,37.75880820046984,1,S01
1820,0.061223231064008156,-0.006782733546100317,10.148122477226892,-4.825029090771977,-0.8915416847389259,1.2657225199481863,29.006443751888597,-15.9881999915239,37.16337331827386,1,S01
1840,0.08053466661173309,-0.01818528183344143,10.163315254679931,-4.625082279774984,-1.3555255347413142,-0.26495766073678717,29.832495602706086,-17.019729039099957,37.42912431598322,1,S01
1860,0.06646817447944993,-0.04995521293557662,10.147312421735997,-4.818814656333961,-1.433210268578159,0.24458555431575335,29.412732690346402,-16.958204750979156,37.66322389015976,1,S01
1880,0.052816029437761314,-0.030642359209825068,10.141854287392352,-4.343571310762839,-1.4226985551784088,0.6066398609248421,28.9589823579927,-15.678445208084757,37.81642472567789,1,S01
1900,0.08081454958992418,-0.028971238188740235,10.141559800923076,-4.326125471106179,-1.202043983016938,-0.38786621026079293,29.149629059171474,-16.332963518588286,37.73691771541382,1,S01
1920,0.08750372546320301,-0.045833280390318865,10.15501842682208,-3.9433826620631898,-1.3373566358747841,0.9775987297232447,29.417502247488123,-16.875322796330664,37.248783162690124,1,S01
1940,0.1024687460570397,-0.04280262443292941,10.14933258192844,-3.407538335674375,-1.1818231894767621,0.47170114052367385,29.473938577077103,-16.49355498047987,37.899247289946686,1,S01
1960,0.10951411781579769,-0.0355546732687142,10.13101108441974,-3.7343319194511766,-0.6601246533478208,-0.10196680394666668,29.631182501496276,-16.677064832266474,36.82392542766092,1,S01
1980,0.10360206548135832,-0.047856048167968075,10.139874306980602,-3.9640047279799444,-0.8385376706113772,0.8809787321591798,28.91543008978344,-16.457214194226154,37.82909156323919,1,S01
2000,0.11967743696417654,-0.04125168292380085,10.144473279864867,-4.4401844092152585,0.09490961207037274,1.0080581512316606,29.353538465767688,-16.870314304961582,37.813180958230355,1,S01
2020,0.11279425258037457,-0.05142305725972526,10.137067013923852,-4.088459337536436,-0.7917479701002758,1.090240081230263,28.137407582701435,-16.61157228554707,37.41628285503378,1,S01
2040,0.12390032275518992,-0.057219961635492214,10.147535211445742,-4.590804511153178,-1.0208395615049008,0.8173637229365327,29.209328504148544,-16.052753103333508,37.89152260357896,1,S01
2060,0.12746067847412254,-0.05428038914100982,10.15130999747646,-4.359368613892271,-1.7358346787617533,1.1604043830106603,29.400490737363537,-16.350697170906386,38.07334570359919,1,S01
2080,0.1470443940356609,-0.06329561207079848,10.153539218084326,-4.407090527409827,-1.5757822274858904,0.2548487009867286,29.752269833127443,-16.933116705888317,37.21243050238248,1,S01
2100,0.1302270706426236,-0.055421105849428554,10.138433580019669,-3.497213732530164,-1.6911877141762472,0.8034487999465905,28.61393864349051,-16.45644956764297,37.623529572518365,1,S01
2120,0.1447919963957324,-0.06998960159338333,10.13756121507194,-3.4865380523093785,-0.6306703714656483,0.62537182461528,29.620494454809307,-16.936556903770636,37.71519831767795,1,S01
2140,0.15149882724768682,-0.07963515927397051,10.149893278838693,-4.556609682125382,-0.5771607492207494,0.21585047024686083,29.140130528469907,-16.200508433077207,37.7614576462114,1,S01
2160,0.13624582976853705,-0.09439608267189878,10.141607732381678,-3.346824995127828,-0.45794920020842134,-0.041477115446551305,28.40604949425491,-15.408770194075016,38.420890235689974,1,S01
2180,0.17175998112595198,-0.09313477438528282,10.159366046158011,-4.850458531819251,-0.43615189058876125,0.367903638924977,28.58281178303034,-16.804914391278928,37.90451188214698,1,S01
2200,0.1691506242449092,-0.06970371188252511,10.162540444337829,-3.840753019851866,-0.538358339191045,1.0044389941571428,29.010209600142183,-16.159240805469636,37.49624410535142,1,S01
2220,0.16817982988215482,-0.1085879665147854,10.138842321454348,-4.308160790414658,-0.295217675513503,0.6242544569650829,28.80575061198619,-16.38888385871218,37.56238721817946,1,S01
2240,0.16680432650182458,-0.08583468492263455,10.141031618688608,-4.061092970475262,-1.0544443921861033,1.97001963831078,29.450495197018476,-16.620295625002687,37.219415204252456,1,S01
2260,0.17731514178030958,-0.09622159869128777,10.15120449375079,-4.466084108075333,-1.1428796010194895,0.38282628968746746,28.96597775882533,-15.710697319425167,37.07490570881468,1,S01
2280,0.17987645313446193,-0.09691390106238618,10.132285503369364,-4.070116479695924,-0.132928791050676,0.5120801359046067,29.21617118664242,-16.853926088641437,37.733463637865306,1,S01
2300,0.17036508881837253,-0.10203258011297575,10.133627896890468,-4.420700303586593,-1.2630883824852253,0.18496635138609097,28.897808877144826,-16.51682446528459,37.48393388970494,1,S01
2320,0.18238804866518443,-0.11813047454949888,10.153770127037184,-3.296343020860836,0.07487776097912602,0.9470785794604873,29.49964320270074,-16.013761709686392,37.77389192597848,1,S01
2340,0.1891466953417849,-0.11512367692989664,10.151623371761833,-4.656524299161651,-0.674997331342285,0.02735263580451397,29.451310748506174,-16.264826987598738,37.556261846054106,1,S01
2360,0.17551814390633982,-0.12166597896797013,10.141240730958621,-4.094995807138428,-1.2238732881012606,0.44442001909108586,29.039757828570476,-16.759776252713728,37.359290755521236,1,S01
2380,0.17350783426938776,-0.11583536607248687,10.151105246856572,-4.221536324184457,-1.211010459267166,0.508764300305662,28.445985549925865,-16.34404017408709,37.22823182847663,1,S01
2400,0.17676884871921134,-0.11884140624307848,10.139442725328333,-4.402949922928548,0.011412458847504636,0.3053392937669589,29.15807710640213,-16.88478340004773,37.85815182489694,1,S01
2420,0.1721618292942989,-0.11328251290088036,10.15095871139819,-4.360314090071443,-0.871177661809668,0.18894991672585543,29.58238101825092,-16.142475070442256,37.85286200548,1,S01
2440,0.1725757223067606,-0.11819963885880644,10.168614905607804,-3.137627119505935,-1.4475126941699346,1.5459829669561147,29.246302243092998,-15.733920877474016,37.73574090518649,1,S01
2460,0.1815379567945211,-0.11754733435054278,10.136742323222622,-4.487043584618754,0.03092671403149394,0.3148733074897817,29.68521766058472,-16.46883414943882,38.267230857680296,1,S01
2480,0.18333657617411897,-0.14020479649547052,10.141796142792504,-3.5595645474913518,0.11759746706031304,0.6720020668828369,28.6893405353463,-15.615314478863002,38.52754425290051,1,S01
2500,0.1765708375836894,-0.11925609589439927,10.140474253296945,-4.027297008027688,-0.8800444580769422,1.014523889268315,29.420941559141493,-16.3772138324805,37.850154089392106,1,S01
2520,0.1810718537675799,-0.12868083923395743,10.149841464377593,-4.227514502255344,-0.6635951823359609,1.0645401008324866,29.685591914986322,-15.959388163113866,37.517383764402574,1,S01
2540,0.1967292498301319,-0.11516060203916921,10.14792148360751,-4.481515394423198,-1.4285849893713631,0.1429371841592319,28.948515975977326,-16.430642686166472,37.62134957373668,1,S01
2560,0.16116241470323706,-0.1346679262737908,10.148265008377622,-3.870054545379046,-0.6599343909731641,1.6498677736263265,29.441710971001786,-15.460971477426018,37.533389781903985,1,S01
2580,0.1909160349253871,-0.10611196523565321,10.147709106160995,-4.867658143093837,-0.7551738094365836,1.7402482501248273,29.786169308314015,-16.166039241241794,38.467892824965766,1,S01
2600,0.18689043915607192,-0.11345237848281306,10.125370250712413,-3.7131546521573364,-0.5479994243225478,1.0905961084150642,29.210316952941447,-16.908230028238933,37.709684475810626,1,S01
2620,0.171513711284353,-0.11514231886270798,10.1360674877351,-3.99632547220688,-0.6139806047175939,0.700725091657604,29.777684761375543,-16.862331965736104,37.9138310317603,1,S01
2640,0.15503807428646055,-0.11057122666706491,10.152018017399195,-4.492015792047683,-0.3123161825709442,0.8000720363389869,29.208182828325874,-17.125595714910375,37.8792232055344,1,S01
2660,0.16358269974248502,-0.08819358573527689,10.15077434881609,-3.1830055448138483,0.37356277170661456,0.9704593869962598,29.062685336809142,-16.438967256370475,36.81642725116327,1,S01
2680,0.14979723088480923,-0.09859481743687509,10.150615371077372,-3.2772119052771402,-0.2745417787047346,1.1591895081406254,29.21512522523992,-16.15275372114006,37.838454753059175,1,S01
2700,0.13665144952162775,-0.09535811766396018,10.14063358639794,-3.90722354872008,-0.9057706381917828,1.3164892240795871,29.010067855733542,-16.98679839225889,37.829760480101584,1,S01
2720,0.16291069231381694,-0.07520967124097347,10.15529747156202,-5.113700572450037,-0.7542630502814365,1.7402560333634294,29.23572132534453,-16.165229726143345,38.154022281395285,1,S01
2740,0.155982415481981,-0.08406729691091058,10.148943051205016,-4.595101906071723,-0.34196312030042963,0.440764704872834,29.23495902241593,-17.50886607487852,36.848644079948976,1,S01
2760,0.15049998459617572,-0.07186581123355876,10.139054142613684,-4.020440170575516,-0.530279783652152,1.1457186567066424,28.7708383034509,-15.671063252721853,38.04837889301615,1,S01
2780,0.11474764595686412,-0.0754864692948269,10.152910811314538,-3.9168117007373877,-1.2235231433764904,0.960153484844736,29.188450165795775,-16.547631215096956,37.36801852436443,1,S01
2800,0.13575395999686468,-0.06333317275202836,10.136493303027436,-3.89385050973459,-1.1192659497264645,0.7886439599825752,29.208945254317833,-15.917632945686615,37.38585015600267,1,S01
2820,0.14494026300683513,-0.08034053357308461,10.137945019527123,-4.507481516732375,-0.7527827119941215,0.7074494778119995,29.220642253475518,-16.25193535581075,38.05992486624239,1,S01
2840,0.12669255052856815,-0.05822636691848723,10.14358149602503,-4.054263521743473,-1.4639497738382803,0.9636566938617608,29.428762442894843,-17.483424383794475,38.50079609847662,1,S01
2860,0.12533769624596272,-0.06891501254685649,10.148060751088977,-3.9781679138719035,-1.2214878865133874,0.3954721143831256,28.605470890804792,-16.167841501794094,38.185411658694186,1,S01
2880,0.12293326436867305,-0.04502745150417199,10.158936380543711,-4.597885197243577,-1.2488362426910056,0.2477311353961651,29.268490903386844,-16.637751076683323,37.29610878169807,1,S01
2900,0.11321815414698197,-0.05068620763975995,10.131814872771297,-3.999881387467028,-1.2327395619383428,0.46756360348401105,28.67805887525478,-16.428052487489943,37.40537873689513,1,S01
2920,0.1061770976734143,-0.04314974161116131,10.14517221846401,-3.6684201382112804,-1.212606534984249,0.4202519762453597,29.33735749413882,-16.333673728666948,37.52364109260115,1,S01
2940,0.07963846179418908,-0.04210545113818532,10.151997218788846,-3.817379448424802,-2.1367160219106585,1.0544645032122153,28.966327727934818,-16.521134110114474,37.4319526332078,1,S01
2960,0.10671321461676239,-0.03262219968632783,10.141521157755227,-4.891907573630161,-1.6066904910905089,1.0556703769061901,29.071874629284284,-16.61784798360494,37.78579819400088,1,S01
2980,0.10242220399339076,-0.03114296524350922,10.144742045949517,-4.636539641347571,-0.6375189252473681,0.22545083256591114,29.131665535799765,-16.756148629942583,37.26211901863477,1,S01
3000,0.09540137687092443,-0.05666075830109488,10.147579047869346,-4.016509200997851,-1.3715519564900207,1.0710520727477684,29.603880069057375,-15.708148734002123,37.663732696881006,1,S01
3020,0.08810254126551864,-0.01883196102778653,10.157233960204382,-4.352078240477394,-0.27830438519163325,0.922014480929253,29.292466468677283,-16.95528331702124,37.13223673923341,1,S01
3040,0.08561753837869052,-0.039633383370794834,10.151816468545166,-4.370545373525131,-2.1338930635081796,1.5261649768315682,29.58806078002225,-16.328917033651543,37.74528163725199,1,S01
3060,0.08403568279359121,-0.044637584371028646,10.158521612279417,-4.662983660726895,-0.9939815034237934,0.10299701238531989,29.417665167696118,-16.956959005181968,37.35726840671275,1,S01
3080,0.058830695537502045,-0.04850898288151486,10.15225800752042,-4.954228162350948,-1.3888457645696504,0.313000069181282,29.68623548631062,-16.226226167780702,37.52647100250338,1,S01
3100,0.06190558921901151,-0.020079223208272566,10.14739820380897,-4.910031551030342,-1.830056115018296,0.34029192975498146,28.992804137534748,-16.40503762818539,37.55688379341892,1,S01
3120,0.048373934126637486,-0.02248352556092073,10.139740697329716,-4.531967462369996,-1.0782979602069374,1.150564634778679,29.24399497302884,-16.393731800651494,37.748589005260456,1,S01
3140,0.046832664631296546,-0.026261507362126735,10.155586460255291,-4.679610348767164,-1.3946848358921409,-0.14561738405836322,28.949402341139468,-16.68863820838088,38.366400777237054,1,S01
3160,0.0548326983529509,-0.017494647376896474,10.137130636262984,-5.504534691978338,-1.3879966065105156,0.339777074929744,28.954574622180388,-16.728147308088747,37.78857060976559,1,S01
3180,0.032798760616852066,-0.006333030848505797,10.1349095454045,-4.551119735108517,-1.4450161185829766,0.8620964563515718,28.562672068634168,-15.890083400606242,38.083326109281536,1,S01
3200,0.044470638919548576,-0.02988910492855585,10.142443457414702,-4.001176576370072,-0.765359260442289,0.41093427654664516,28.735154586814655,-16.51990934263602,37.66038226966251,1,S01
3220,0.019978366327560323,-0.016610705369111488,10.143232260234367,-3.837912496234423,-0.8369828143312019,0.43971960678937927,29.03174963442653,-16.521683940744843,37.150019653808044,1,S01
3240,0.033946575199500506,-0.02073885321561654,10.160966149607509,-4.185199205949536,-1.6727805066387407,0.1706480124253999,29.248149757880945,-17.042208041394595,37.20618998458395,1,S01
3260,0.0350302789705329,-0.03454533865996183,10.127642210002637,-4.2661828886417075,-2.535866115811166,0.788820965011086,28.916370105125452,-17.161398225248597,37.340333128952935,1,S01
3280,0.023923800373507095,-0.02906174746523873,10.148087038821366,-3.9242581720521277,-1.2968211027888903,-0.0609632046346692,29.297356500962515,-15.720585362780957,37.559636953126095,1,S01
3300,0.021582867395070815,-0.04187366547196379,10.156134923738238,-4.202529240888468,-1.574323717680414,0.30361472411396395,28.922640637311943,-16.540147769899598,37.8276288607642,1,S01
3320,0.033088416933334364,-0.03612198901345785,10.151321568710413,-4.5637343414461995,-1.6350294794609606,0.5684817484563506,29.311478256604182,-16.84952144363035,37.645286790417785,1,S01
3340,0.02585494808212166,-0.04514578131070836,10.138159711499753,-4.500265559255074,-1.4528115973976938,0.33129325239574037,29.68538085446634,-16.266550254062178,38.02471694584472,1,S01
3360,0.03552878870065394,-0.03929813291028483,10.144428342405941,-3.353002441688672,-1.3084263180126905,0.2892853700112395,29.034622150812577,-17.252639048723047,37.63262825966768,1,S01
3380,0.02193739842571721,-0.03484129428460725,10.152836800935653,-4.031336395650542,-1.1346558651149472,0.04544996658896483,28.946691384024316,-16.07252602699058,37.66391602470747,1,S01
3400,0.03122425596905845,-0.05347290269986903,10.15508206409531,-4.187345385764989,-0.9823106207605401,0.10319769313960347,29.157320759272505,-16.15123029069957,37.05262499022826,1,S01
3420,0.01753332510319397,-0.0644292759081413,10.155867654190603,-3.740172690248353,-1.5690679360266493,0.7846306685385969,28.560775408201927,-17.109304783893776,38.01919532878454,1,S01
3440,0.03530236519645254,-0.05457448668013219,10.145393182856195,-3.78519092188586,-1.6340900095455502,-0.20077452136668061,29.144721375870386,-17.45292820598156,37.57628552002679,1,S01
3460,0.0360249479570528,-0.07611599259810943,10.141244169161423,-4.776226024253601,-1.4352320857413217,0.5089748977878369,29.918837976147948,-16.26233561612684,37.347808840039,1,S01
3480,0.02989367175102646,-0.055692108154660934,10.143544641677652,-4.641477015164758,-1.2183080278626066,-0.08830090080098396,29.283787673210817,-16.142465886708365,37.989996125963444,1,S01
3500,0.023277070491254367,-0.06909074450725151,10.144880891925085,-4.5926429061124425,-1.2657494448564637,0.13141905206861992,29.21161716014149,-17.30248483307134,37.48329530418278,1,S01
3520,0.022283800137369622,-0.0709077191734413,10.169038732948902,-5.079495872350917,-2.025548722533111,0.5319363291000925,29.124874757548564,-17.22575120260742,37.486142341949645,1,S01
3540,0.03702726962836045,-0.09021372655395217,10.1457802622433,-4.102744698556323,-0.4860532075712283,0.5870404942596849,29.352816253093277,-16.06352738686421,37.92718883610215,1,S01
3560,0.009840348012612216,-0.08978789137294624,10.147427980049592,-4.668710665678127,-0.8524018989558975,-0.13248866383694302,28.203242750455104,-15.859545597615424,38.0091054586738,1,S01
3580,0.014807230662020998,-0.07000341505975764,10.13993996761299,-4.688955626900741,-1.2692699564443828,0.6547605847854767,28.49009172603963,-16.01195434720606,38.412101254986595,1,S01
3600,0.029907108835540805,-0.08924189915310392,10.140043706957632,-4.310975207500255,-1.0646801145061746,0.81627573231223,29.5247935939326,-16.744097874287437,37.197604245128,1,S01
3620,0.03592542221140235,-0.07542306551132263,10.14019067096845,-4.907005028962487,-2.5783922870008595,0.0924470964810481,29.64803814552098,-16.563909951586723,37.43302160626887,1,S01
3640,0.04115416453763179,-0.08804862501121444,10.139104821779664,-4.620984249860808,-1.4633696697777563,0.3493698423607013,28.446108296200677,-15.821593783829368,38.16581186213191,1,S01
3660,0.028046419098981493,-0.08992333653846879,10.128181360475882,-4.265895461641437,-0.9753185222002916,0.6887254262817446,29.437220017355827,-16.741584073072815,37.09460190296317,1,S01
3680,0.025890283399887665,-0.10231242893047493,10.138242138295395,-4.907689503779521,-1.6928063739752195,0.30566621409837924,29.482577531179523,-15.917629964625007,37.15714739290915,1,S01
3700,0.03329436846051553,-0.10992829015137628,10.150860390493873,-4.325045456150254,-1.4535455519281464,0.3857083105317009,28.989762788481627,-16.050571036650428,37.59023182470001,1,S01
3720,0.04513975308306728,-0.11944153921710787,10.124161918443784,-5.10263144242967,-1.4251574220893288,1.1469518769156282,28.824571028289355,-16.24209400711301,38.10244679324948,1,S01
3740,0.040488350493668064,-0.11064227490863718,10.139403915345511,-3.7633200529888984,-2.06526515020987,0.9708380844502102,29.56126489833297,-16.44519791513876,36.82177083336865,1,S01
3760,0.059966955217776736,-0.12172220001042286,10.152849244059633,-4.432852374378616,-1.9790170311202884,-0.23415988337975258,29.734094023581957,-16.85524182095007,37.17562434137444,1,S01
3780,0.07304609549787489,-0.10314114233266058,10.14493654912254,-4.820795660898504,-0.9721432098720759,0.8140539734887999,28.99874881003505,-17.055174749584737,37.35783575790683,1,S01
3800,0.026592974621518425,-0.13083064220759363,10.143203385317932,-4.626562867539888,-0.8240914355278992,-0.38341746653252307,29.612923509297225,-17.261963442984758,37.55275724714083,1,S01
3820,0.05351905061422551,-0.11130916960090878,10.15425032904528,-3.4111085698439787,-1.120964408927989,-0.15751336933206017,29.283883652409465,-16.51812296388907,37.74152546921865,1,S01
3840,0.07327253025166686,-0.12337551288028717,10.123836184648873,-4.450970233760646,-1.098501256530414,-0.6321089226612483,28.106385123376427,-16.95189049978267,37.53368195877998,1,S01
3860,0.07509718377158811,-0.12308800102349621,10.134239790112698,-3.6447810100335,-1.2050870303267414,0.8523290328500339,28.888050561989186,-16.455248267027038,37.4550950786634,1,S01
3880,0.0909931432370496,-0.12655003849924323,10.14913819401535,-4.848936598029904,-0.8753391113013607,0.399555946194751,29.445456131771135,-16.879065944964978,38.260638874756346,1,S01
3900,0.08091992721778513,-0.11160538011685289,10.139405666397563,-4.106456523508051,-1.5950510429617246,1.1663694565994538,28.701053340516648,-16.90692752547956,37.4836613444657,1,S01
3920,0.08930234159239284,-0.13342033442672052,10.167205055266628,-5.522595430194164,-0.810541548936031,-0.16290104314134868,29.09540351017892,-16.10711343455952,36.76547839194872,1,S01
3940,0.11484523536699265,-0.10639938091990461,10.158898385744322,-4.91512373372043,-1.4218408142809034,1.2116308555156452,29.397223179979324,-17.966892466254407,37.414230843901514,1,S01
3960,0.126720756465469,-0.10498666479810952,10.131643062045663,-4.26342809853375,-0.3893153780929506,1.0884614293700416,28.777526041440655,-16.50436367845645,37.63441301101943,1,S01
3980,0.11051198591593811,-0.11285494582284232,10.155103588546371,-3.4367402222901564,-1.2068201853896876,-0.30038317009792603,28.939153659309262,-16.477797033993028,37.6407424126453,1,S01
4000,0.10293722261688842,-0.10823127775081179,10.148815756385188,-4.706066145760529,-0.5118607086601025,1.0759630673814682,28.790599875798,-16.861145231305194,36.87382888576341,1,S01
4020,0.12727980055205299,-0.10931883891883637,10.155406690036372,-3.472302768256443,-1.0698232208432048,0.837894693702194,28.94525570982247,-16.321617048956547,36.500813538020246,1,S01
4040,0.11721963805560555,-0.10679145593702559,10.130740401334048,-4.834493257686219,-0.2894775649088962,0.9940170413788982,29.07773582608962,-16.05121585522242,37.880211814886735,1,S01
4060,0.13437280870657514,-0.10277925385220063,10.154205762408914,-3.5996280654369555,-0.7363553186944993,1.9957413335528646,28.655192415879032,-16.080773770312767,37.881805674898374,1,S01
4080,0.12139272808116747,-0.12374167193561364,10.158481059441469,-4.061413445704869,-1.7445201592828798,1.055048234185688,29.25631078046268,-17.148651253205344,38.08570046155585,1,S01
4100,0.1385923636296968,-0.0999016305480765,10.131868627618449,-4.205927248467059,-0.30534341977857493,0.3436964734658432,28.981980544587213,-16.567314517904066,37.86825221182195,1,S01
4120,0.15261683032188156,-0.07849749994685068,10.144109558182768,-4.229327031078523,-1.2216164347662681,0.7954906780081277,29.12529383723599,-16.15157656650281,36.88122216574638,1,S01
4140,0.14459195155799476,-0.07026970145858803,10.150818386179047,-3.923581460297861,-0.9859036966520811,0.22291926430395326,28.784319347538137,-16.275203747916315,37.10368079748263,1,S01
4160,0.15508671904575105,-0.08802129518601615,10.149776197026846,-3.9434188242919124,-0.9041858389028115,1.213258938948945,29.12582670772926,-16.189560479851053,38.122958139860636,1,S01
4180,0.16387773667517938,-0.0844725763521956,10.165840689565698,-4.2197956874859965,-1.2527762080561382,0.7614565430374218,28.833340858228397,-16.55190203006429,37.892531387732696,1,S01
4200,0.1460164426250902,-0.08294714360479301,10.152362433875545,-4.136661953714258,-1.700885515091231,0.37075455951278813,28.385968355808103,-16.107397835708916,37.28191529724371,1,S01
4220,0.16301138424253664,-0.05795261413707296,10.149164717388558,-3.8040937432333926,-0.5268499587307525,0.514090859946612,29.070617626532606,-16.30232401315648,37.61053642101878,1,S01
4240,0.1684677949073026,-0.06694025756792933,10.150515387371236,-4.503522973962746,-0.729648563736628,0.8977804051765439,29.085337236986668,-15.967303819331567,37.93258150895317,1,S01
4260,0.17722215903399274,-0.0708185525892713,10.136801052278553,-4.477558430729372,-0.8169268160121888,0.7584290476752933,29.241280940997587,-16.540733846360716,38.413961001320594,1,S01
4280,0.16327744343809608,-0.04869951452857006,10.14399274364887,-3.4994452855239,-0.6549713031601823,0.23005215140666196,28.36720071591341,-16.190477986820596,37.366007204222655,1,S01
4300,0.1812372671631548,-0.05694912961054592,10.148768593814085,-4.402655638846718,-1.4896376952562786,1.1220097010708734,29.408729892856538,-17.256486790012207,38.316131261846614,1,S01
4320,0.1844716600308755,-0.0436238738896331,10.1525465439532,-4.490922116839982,-0.7323366027242277,0.8565282102561409,29.18850966898791,-16.247138925046574,37.21220890902629,1,S01
4340,0.17792134611805416,-0.03680159349259498,10.144474283320749,-3.6808132631481523,-0.20914339805085058,1.0176227687954464,28.933060504799236,-16.68106219233586,37.76808327664863,1,S01
4360,0.18748614947447678,-0.03942906210208866,10.134900212333298,-3.681828172289232,-1.5742392870637631,0.8800483709198264,29.14224650859451,-16.441752059279043,37.26687869928735,1,S01
4380,0.16815922296442226,-0.0314554242494671,10.163358672862957,-4.258274170041691,-0.8484293499682913,1.134481965693358,29.288022416749055,-16.126700627798893,37.32202260197519,1,S01
4400,0.201894117729346,-0.036387706083835694,10.137237386956636,-3.6574448038944682,-1.3963213157635743,0.735030561113573,29.40257168203222,-16.989360537734434,37.44779769853559,1,S01
4420,0.17837643253235066,-0.046681575353183395,10.12961316033137,-3.705902366245966,-0.7391047091033763,0.725554779579735,29.340491924605075,-16.28313779807847,38.11164100129427,1,S01
4440,0.17572542035465832,-0.02832896035759487,10.14789770412479,-4.00921846579573,-1.6315162132781111,1.0193333819362782,29.396907190200036,-16.702378718240418,37.52501591456588,1,S01
4460,0.180917581264452,-0.030757973287875162,10.132868194135598,-4.046951742864874,-0.4324465976088008,1.2070729377926974,29.021027499638983,-16.99254602290711,37.13380232497751,1,S01
4480,0.20458435857231017,-0.0338541454901236,10.13881920959637,-3.5409514888060762,-0.3033887054221748,1.443395985418689,29.620209247382984,-16.451263610849054,37.082940891378755,1,S01
4500,0.18616552219431753,-0.019786153423431686,10.144144836398358,-4.011705000403332,-1.3062634980856422,1.0879373787529936,28.564491123807674,-16.761804106100023,37.65133977594855,1,S01
4520,0.17058519526305183,-0.01651377181384593,10.149003540953437,-4.144857893140601,-2.432259059380222,-0.40629616429474635,28.711738715053905,-16.550472351799975,37.61873968205918,1,S01
4540,0.172006286261942,-0.021278160845210115,10.158763221010773,-3.6520661819876077,-0.4265101604645605,1.104572031043372,29.291158358714657,-16.855145042097853,37.965630488565566,1,S01
4560,0.16181970250182506,-0.02319149930203128,10.138958277700066,-4.9237142961563185,-0.42929026787353175,1.5573181498521893,29.03661395929839,-16.590909156318222,37.35756225853856,1,S01
4580,0.19549750263120588,-0.029404884825762624,10.139253925447884,-3.869061749801748,-0.7162818434900033,0.5182299395375494,28.88600698198487,-16.57900557443815,37.69588035626069,1,S01
4600,0.16538954851154858,-0.006010497664692679,10.167457280063916,-4.626480734606345,0.3906345288034314,0.9977064002635825,29.67714225270706,-17.10050431138039,37.10151048274269,1,S01
4620,0.17216492906328953,-0.006253772164197882,10.157892184439818,-4.313868424283328,-1.342289897371968,0.33065647158459505,29.00703326817261,-16.0316875610112,37.02680216720968,1,S01
4640,0.17924332989164665,-0.017155120382065632,10.14898245444539,-3.602256692060087,-1.3333722581490033,1.4422016218841027,29.295798344264554,-17.180347113710702,37.704139593312874,1,S01
4660,0.15839506990876556,-0.012754736265547573,10.147402936912492,-3.640749439910128,-1.3939746536366409,0.7246539919567611,29.664922371340225,-16.80709368134788,37.60426213889117,1,S01
4680,0.1655769768471157,-0.017272643503427165,10.136366561423923,-3.974360950141682,-1.7202160278539391,-0.1531140306811044,29.04865167147084,-16.549642320296833,37.31778896918439,1,S01
4700,0.14968006352942276,-0.021619725714284173,10.138188382144083,-4.174967951576784,-0.20162876711611177,0.3200804492671228,29.39986321275947,-16.45237266376874,38.15680361866575,1,S01
4720,0.14793707912245613,-0.03006661779373488,10.121003540668593,-3.6538539865378543,-1.7414386882615744,1.1460950729621109,29.753651969205286,-16.339990598598206,37.39571224103616,1,S01
4740,0.14407451565497725,-0.02929256178502935,10.142128093565107,-4.29110215430624,-1.5772846209105162,0.6991460942871826,29.361294575167285,-16.80546543580858,37.75144195974748,1,S01
4760,0.1372343687313802,-0.023358041810128224,10.162683675305042,-3.657251192532569,-1.9458824440519422,0.14470441528300299,29.22380481092455,-16.627884781045797,37.35903888288263,1,S01
4780,0.12797176085938217,-0.03487360785366149,10.152266254384074,-4.193492432923266,-0.8000970757906384,1.127925115403008,29.483541159017076,-16.31603038588731,38.43337646097177,1,S01
4800,0.12304877866192807,-0.029378603988439687,10.15760031063965,-4.231451726271719,-1.2019839130250805,0.6988714406355169,28.96517476216794,-16.369983934812318,37.829905241503845,1,S01
4820,0.14424594480436606,-0.03730042756708133,10.139436865771245,-4.460741855561423,-1.7855189169746073,-0.25329532182489267,28.823946549390985,-16.57479879624405,38.006146605791606,1,S01
4840,0.14278112468899265,-0.020362337635325196,10.146990671010183,-4.03266567462257,-1.3159390223624217,1.274331903892004,29.228763977197673,-16.653282130224497,37.5591182089529,1,S01
4860,0.1164014647547351,-0.05701526369199475,10.1423478958653,-4.4224318715301205,-1.500467581402479,0.6408415475263713,29.612981800379522,-16.104454095329032,37.83332100144896,1,S01
4880,0.12255322774629791,-0.05445613596745379,10.13187506412423,-3.4170521071057793,-1.1697155217230406,0.34431761439284214,28.527650733409576,-16.914600149198545,37.99845164386558,1,S01
4900,0.10650921550805782,-0.053770411209453715,10.14783351441464,-3.5551084028080573,-1.882969480913213,0.6209228648089374,29.290082834784254,-16.732561356002034,37.68399321954524,1,S01
4920,0.13076626830801122,-0.07741791925053695,10.142253779333698,-4.094814654478494,-0.6167352186493922,1.1549154907641164,29.46602330234858,-17.030204764560942,37.392649123072346,1,S01
4940,0.10773408510833293,-0.07583800030222576,10.131394668512822,-4.00390011380594,-1.460226615438253,-0.09398268099143336,29.072769711704243,-15.888670445983546,37.38575194639167,1,S01
4960,0.08469931992736164,-0.07806033553677023,10.14288628055169,-4.473900809999476,-1.3750236550533022,-0.2124425423505385,28.50928614133025,-16.407203846988807,37.39775088312487,1,S01
4980,0.09739789838179214,-0.08775411710646365,10.135637486782477,-4.236493660923583,-0.4032821240665495,0.38936157591691645,29.36256131198458,-16.339955455068324,38.28528741299784,1,S01
5000,0.0917464228399333,-0.07450568337232286,10.149554177096483,-4.072565532842657,-0.6428871699490217,0.8477034957095809,28.818823163512697,-16.482299994590267,37.57846618517188,1,S01
5020,0.10126078822273418,-0.0919880653969972,10.141687081040857,-4.352678066723876,-1.1500826595356646,0.6572761801103365,29.43583385732474,-16.984668614556185,37.98271352460659,1,S01
5040,0.08377884430974362,-0.08806499082153173,10.137139706640932,-4.518968667964337,-1.018445488621189,1.1612649684136935,29.030401884304293,-15.39456799716565,38.14456630308755,1,S01
5060,0.09371770300134218,-0.07362331555818262,10.150938563131755,-4.526436737041014,-0.7256944711006154,1.2646927781619814,29.107947026189454,-15.688874577196382,38.14321685188604,1,S01
5080,0.060921856116000275,-0.10239136828517757,10.160610082293973,-3.2117324353860286,-1.2551469053188473,0.505343610761162,29.46427661649046,-16.818408735008767,37.9727335296127,1,S01
5100,0.07019721020218617,-0.09032005111650944,10.146612128114016,-4.9911640676730356,-1.3988937075199022,0.8337377754259439,29.07762041090713,-16.717086220384083,37.980674558608065,1,S01
5120,0.05965855131238875,-0.08781835810786247,10.134248899075606,-4.596754101191298,-0.9123558329672737,0.753403737151679,29.04327177831712,-15.904415524691371,38.40471576783491,1,S01
5140,0.05916104044185761,-0.07878203022478297,10.146094295801246,-4.188140132509806,-0.8274937754644519,-0.0568090267271818,28.391199379066837,-16.89305370679613,37.656262420420916,1,S01
5160,0.04508018791858065,-0.10252691260586366,10.138102059948212,-4.385861489623001,-0.9401427064121083,-0.41901270696253257,28.66708392350443,-16.774909719902627,37.911121793246224,1,S01
5180,0.05894577203504086,-0.10488765396165306,10.161662015798997,-3.7442644086040313,-1.7995790880883382,0.1782181908089323,29.534897918944544,-16.098161425785083,37.8113194605831,1,S01
5200,0.04998645271745817,-0.11853269071498289,10.153348073181846,-4.849270237397733,-1.9311964578132053,-0.17439840939237494,28.805586371413646,-15.862212970893816,37.23853354452721,1,S01
5220,0.03620567832575601,-0.12394149487966644,10.145769622164291,-5.040521393646361,-1.2782573248847595,0.26701467093496034,28.85784109737858,-15.18758083977787,37.75534581772686,1,S01
5240,0.04205756405403993,-0.11541501946395083,10.139837407822744,-3.919193304934733,-1.4870412368986519,0.4416980230700671,28.9593135929629,-15.822021979448412,37.31130531896702,1,S01
5260,0.03869575804861645,-0.11192693503760075,10.148060040993837,-4.579450043155025,-1.3341094232394113,0.24280307532542683,29.398614645124255,-15.990730588389622,37.287450444732876,1,S01
5280,0.01787488050763253,-0.12697243857963608,10.148612651959048,-4.13486978677749,-1.4533760833438367,0.2920468948924342,29.473524517739556,-16.53187022431628,37.57939909151736,1,S01
5300,0.022332950664794154,-0.11947374552472875,10.159667052733454,-4.3323766890117685,-2.035993553981512,0.7827456212624326,28.690302594453442,-16.790291713847214,37.568341783143296,1,S01
5320,0.02170920276160214,-0.14286623594834447,10.142494406660303,-3.904112028886463,-0.9864179505258897,-0.04561497594108366,29.006128259629552,-16.962225928756844,37.74138548066811,1,S01
5340,0.02506395320225563,-0.11490015384357008,10.154526602374208,-4.859018448902256,-1.013806702745819,-0.38248902713585,29.44379371375681,-16.17573746497237,37.45987849482149,1,S01
5360,0.014780566563698652,-0.10574117675541714,10.154976188481642,-4.438592452841516,-1.4581848286187897,0.08852398912419268,29.29492419608899,-16.53801203854671,36.95984210278661,1,S01
5380,0.017614891556249554,-0.10040691043382252,10.146098404488114,-5.4007682051432555,-2.313183294009245,-0.19153984117599743,29.27052076954793,-16.715557941595875,38.10540866292964,1,S01
5400,0.03664314977829383,-0.1140063340332122,10.13278501496363,-4.855249061256593,-1.4170526847352405,0.41883025751447767,29.643337673810777,-16.11037826248742,37.66159163190339,1,S01
5420,0.045466484557466075,-0.1122102409287771,10.140014218256919,-5.3342677728870145,-1.012671486629507,0.4026931827021343,29.149542470777426,-16.39180573254537,37.754599650628826,1,S01
5440,0.02710464910199821,-0.1149480847693968,10.137114740683268,-4.856618381073405,-2.4612857363444576,1.161322726484729,29.178713361497575,-15.67231772225596,37.47152202718573,1,S01
5460,0.002995753746130564,-0.10417099254369758,10.137925243698337,-4.9788190164301875,-1.7771149689962502,0.07502510596684331,29.05473902255859,-16.407557668650202,37.62543596633466,1,S01
5480,0.01909661305620819,-0.10431543235991464,10.158409675847661,-4.255870886270304,-0.84272291941465,0.4754239911783228,29.301699776129745,-16.216104533995026,37.36319918289146,1,S01
5500,0.03422566994907794,-0.11374870549339111,10.143553681084164,-4.9945202092596706,-2.460814866520584,1.1539967563666496,29.252803385700975,-16.99312915215711,37.42404573360404,1,S01
5520,0.024184716916795038,-0.1111145129623588,10.139680456233307,-4.507566270296494,-1.1479822847939407,0.26369652639368374,29.487526401263963,-17.24585484106127,37.56243188654963,1,S01
5540,0.021644120597230573,-0.09450882781668234,10.149657322125243,-5.192256367474874,-0.9623521366677308,0.8417917721368557,29.29009685872342,-17.23400590354769,37.45026975031395,1,S01
5560,0.016570242601093313,-0.09516038295268697,10.136688339817058,-5.147011739441661,-1.4918669109631884,0.33753845085902584,29.209456360974336,-16.819051351159814,37.93733882242217,1,S01
5580,0.013937153546555656,-0.09566519652378071,10.133636771559493,-4.741915416830155,-1.2123300375692252,-0.5915551603302872,29.148311421494327,-16.607335279827534,37.77333271408261,1,S01
5600,0.02372388377196641,-0.09455596871239132,10.143683016857207,-4.292127882337786,-1.188153208083369,0.019185351034907705,29.112172036546536,-15.459339584649948,37.206972084547985,1,S01
5620,0.03723468235702983,-0.08639564426684501,10.150453825527265,-3.9466535681804773,-2.1406204509132243,0.3436229101124693,28.658524834608684,-17.259473413270495,38.03584722836166,1,S01
5640,0.036271158207188126,-0.06466435114396726,10.137790632575356,-4.083056602887867,-0.9026860962730854,0.3500827580096819,29.15426355117575,-17.85788137767687,37.54642932736314,1,S01
5660,0.024884535750807166,-0.0512982861830434,10.144024490971578,-5.52057696519053,-1.2383386728996197,0.6111722921737367,29.09051547997491,-17.357193349897575,37.55202553336228,1,S01
5680,0.04346189707659135,-0.07992926266636119,10.143422870232147,-4.736014869274105,-1.6493957068186336,0.6611639285974288,28.70236141062137,-16.41736492356106,37.655316387847,1,S01
5700,0.0386227408925212,-0.07388189638878397,10.131783217488168,-3.764440298548878,-1.1813324311865439,-0.1906324079042967,29.6561860362433,-16.38949826332972,37.278667976024124,1,S01
5720,0.050865984488803404,-0.0669779681929316,10.146073983515976,-3.726355559000018,-1.3938068011773437,-0.16812478818469778,29.064346833075138,-16.570558318263593,37.86529685159734,1,S01
5740,0.050591283161744924,-0.048786305945574905,10.142776430656841,-4.259667136698614,-1.4268758150988707,0.26731332504938327,28.96787861475262,-16.157198005046325,38.070824553818284,1,S01
5760,0.06577643120378665,-0.04705879475489913,10.153918100599737,-4.2225621440683785,-1.5855928992490416,1.2478269478588424,29.228598199659388,-16.047533056915398,37.583330672541194,1,S01
5780,0.054880124723993264,-0.031288676437830475,10.149339650612557,-4.682060342484407,-0.8277010438486703,0.648255681850954,29.781595854438667,-16.32179188943021,37.76796328888668,1,S01
5800,0.06133812407907533,-0.027120448949979233,10.157981859603012,-4.816117682952669,-1.386605354642135,0.5254747300055019,28.98981657523459,-16.277221667858868,38.36182312913049,1,S01
5820,0.08385562846429247,-0.04378226117312397,10.144936278576237,-5.264809038212834,-1.3506041999120706,0.8600996382398339,28.667206845195484,-16.46774424579428,38.31935793180057,1,S01
5840,0.08694387711829216,-0.039504484525515894,10.127798458053245,-3.935850493888622,-2.008263581549069,0.8300928258631752,29.27744942140973,-16.680957938769154,37.76750282769536,1,S01
5860,0.08262112329104299,-0.04977916455542721,10.149707715761407,-4.725976024776993,-1.250914735490536,-0.30170133768295093,29.41214828897675,-16.695519856809376,38.27122538922791,1,S01
5880,0.08861155608219475,-0.02309106436976075,10.144083799018336,-4.2015328783866,-1.670147908859002,0.5020123234294255,29.610041362788706,-17.05982336903734,37.777041969399576,1,S01
5900,0.07298072170099051,-0.038998027502546016,10.144138783401347,-4.314707814563047,-2.2706774096292723,0.1720981677557079,28.838006811802007,-16.879276330396763,37.27807687892316,1,S01
5920,0.1076436035328567,-0.024815528245525367,10.140393190303671,-4.398027940527088,-0.9938338916198082,1.0536859563729806,29.068638103902053,-16.64508072499388,38.15140849217706,1,S01
5940,0.09746952958943485,-0.03835769011871713,10.160246033163098,-4.395951199991552,-0.5265558139657789,1.0979363848423156,28.719890824288722,-16.47359814430819,37.670982555178995,1,S01
5960,0.08554242112597178,-0.030832732933128548,10.157406699077502,-3.224785126548675,-0.2975080201530683,0.9567524492560414,29.27693649095037,-16.905549824089512,37.99376920204237,1,S01
5980,0.10375412447119964,-0.019683248702635554,10.158285113931454,-4.682718224388567,-1.3545677556159696,1.1686164273000514,28.77874006636414,-16.91179637248272,37.98738288725126,1,S01
6000,0.1148135671839955,-0.01018914872125623,10.148460974430138,-3.6487181791760603,-1.730443680876868,0.8220550679256767,29.671008796413357,-15.803454533508255,37.5837632184048,1,S01
6020,0.12552059764374351,-0.004089607922508051,10.152282174009276,-3.6203063041341186,-0.3912989394314179,0.15125912906603345,29.10981783302204,-16.35970885128541,38.21028085306976,1,S01
6040,0.11335544686447294,-0.009122156691239676,10.13879931989504,-4.005412390148928,-0.7979201901519479,0.9943809874450851,29.254605092712087,-17.325757333695996,37.97704449058517,1,S01
6060,0.13146730618403293,-0.00980504204447917,10.144652834668314,-4.000234384506399,-1.5598647971359463,0.47263502038512256,29.246488021736305,-16.89884876818418,38.29412101078853,1,S01
6080,0.11695365904911062,-0.006186938184580146,10.140014511756084,-3.9848931594967594,-0.5427925217937754,-0.4849794656917822,29.491531622522746,-16.67471097866339,37.86877110442744,1,S01
6100,0.124471943068701,-0.019334282510629748,10.137090434180578,-4.073057163243403,-1.0824411286486169,0.8825848041818096,29.505482092748423,-16.29188987692833,36.929675072101105,1,S01
6120,0.1391512441052573,-0.024262473953229932,10.156711734660833,-4.1288661635411446,-1.2006293625340914,0.49720815098798676,28.980866065226465,-16.04026751122602,37.959960485228656,1,S01
6140,0.15783068725006663,-0.028188152097495756,10.142949538642968,-3.5925970672995717,-0.8803111205769624,0.5902632088772211,28.70858675148857,-16.400484732969943,37.369037440523655,1,S01
6160,0.15663043257456294,-0.038047845201113525,10.145230284823208,-3.229431031887463,-1.3909850074527648,0.7864670580422616,29.15181437519936,-16.555512006520665,37.71550480446265,1,S01
6180,0.15394832110759246,-0.01598208103919499,10.151882466815934,-3.738976507472692,-0.9849173324019638,1.4613292484338598,29.85184596833231,-15.735736735717452,37.77675699965746,1,S01
6200,0.1581353163622351,-0.05565715497784248,10.140366856882855,-4.001485586066891,-1.3616754193372513,0.6100299879143262,29.265031401917668,-16.20813664569179,37.65014022602243,1,S01
6220,0.14322556555732102,-0.021964555109097443,10.154744587665162,-3.6330036233223697,-1.2855138290923849,0.2721178264963878,29.150321251870608,-16.984130889091674,38.084616608919234,1,S01
6240,0.15310363947568023,-0.03847515126896912,10.13038199531204,-3.786905914790669,0.011107046350952832,1.0455857063546024,29.501422803131366,-15.40727229971796,38.07092959084822,1,S01
6260,0.1662056690576333,-0.044900466652079,10.162979218594868,-3.7462048450318135,-1.0575008545796252,0.3517770388779894,29.95711480200985,-16.16124006219774,37.6779599261549,1,S01
6280,0.15473887660200303,-0.041506595864453835,10.145198474266943,-3.782315241705712,0.18749125567400537,1.1848684073019702,28.978238495456186,-17.00121180850578,37.74543786949872,1,S01
6300,0.16450268887191377,-0.03707568421970419,10.141759104606454,-3.8094851343114335,-1.1046978808682475,0.4320297137204655,28.93005842913738,-16.707156961090043,38.32795716020514,1,S01
6320,0.18419838152265705,-0.04708361151574114,10.136133414943359,-2.8852039268883574,-1.0828353023654067,0.6384648156960834,29.280262946676178,-16.68519562057617,38.511203086458266,1,S01
6340,0.1862129257549238,-0.06783821073835833,10.142961411673676,-3.4261326205258626,-0.25220153190546557,0.2942193359749256,29.168830433135277,-16.894191011905896,37.961782208532966,1,S01
6360,0.1785611262865639,-0.04947089390137774,10.137705239967447,-3.571954778293599,-2.113141197837964,1.5946000903613224,29.226212321233657,-16.925030790060212,37.26314107696378,1,S01
6380,0.18267093646726576,-0.07128864832548357,10.147765342270144,-2.8345505998709433,-0.5831113341329806,0.683793079615213,29.610893676408843,-16.484866920303933,37.02355175000889,1,S01
6400,0.18660390198861065,-0.08521514138171635,10.14911387084637,-4.148502064055106,-0.8585736209470507,1.214456158167513,28.598914618870264,-15.935684650801129,37.48987771662642,1,S01
6420,0.18763423746801655,-0.09378530944140569,10.153888216072902,-3.4614924973215455,-1.5063728765522406,1.4293831801913837,29.171065326855715,-16.802610080870227,38.49113512794214,1,S01
6440,0.19856790683644812,-0.07813583935938956,10.135203078270658,-4.304470423122895,-1.1331861495947189,0.6695679034123452,29.253117650552383,-17.275997448874207,37.107408311879354,1,S01
6460,0.1818646560617464,-0.07553827917769887,10.143609179178002,-4.657871955508178,-0.8233454411131,0.9120436873276758,29.92524127382299,-17.13028154061795,37.83204609071644,1,S01
6480,0.19179467278292892,-0.10024942916348534,10.136913611609033,-2.957772621949381,-1.4719309371561953,1.3638110723653096,28.708196084603205,-16.4312379595074,37.28662933065702,1,S01
6500,0.18775640760942236,-0.09530175960943087,10.132784727633286,-4.931095976985762,-1.1132071724529362,1.6678519560804195,30.265391082357308,-17.129276091686812,37.91000003761766,1,S01
6520,0.17829551022228965,-0.12302595422664439,10.136930737195094,-4.027547381117405,-0.7371921406913129,0.9824394332064434,29.23336558439835,-16.738356826680636,37.88544517857144,1,S01
6540,0.18590502746854276,-0.10190912827635437,10.167000353427333,-3.284692896722038,0.0629490270763653,1.0043612763402467,29.782039228961334,-16.887049439314115,37.28123315908499,1,S01
6560,0.18489333249930578,-0.1166354960842137,10.13201247611252,-3.5851365344543407,-1.8064105594181914,0.36383373994275847,29.413219149092267,-16.281975976594293,38.243186716229175,1,S01
6580,0.17913274375387656,-0.09202177526544453,10.13840450501171,-3.61587895297093,-0.4775253661725274,0.6902023418182182,29.582717161523952,-17.084936497972016,37.99519598000914,1,S01
6600,0.16758053999575723,-0.0982224308117996,10.137042303734482,-3.6011385356140675,-1.654363116527892,0.866238466159889,28.785299001304534,-16.23140466498299,37.088838202719835,1,S01
6620,0.1873261239373905,-0.11651407357349661,10.141004411909012,-3.2028516611492597,-0.12833715466171158,1.5133140333385655,28.437425941493093,-16.143931612847638,37.43994643171152,1,S01
6640,0.16064824455818305,-0.1125033734414883,10.124584135027234,-4.014493612806023,-1.1860367751247045,0.28855793920337935,29.386881281085717,-16.435349443570665,37.4978732109391,1,S01
6660,0.14485073526494127,-0.10075994609107146,10.153356858980183,-4.251963080844452,-1.235629362291468,1.1642117260493152,29.233753459731922,-16.546186010808416,37.45048229661673,1,S01
6680,0.1546990935761226,-0.10983091165620934,10.135043748966398,-3.5093407713710603,-0.5959345970826947,1.437061815524686,28.18256957100228,-15.85792173073925,37.21486568923861,1,S01
6700,0.1710985061461428,-0.09586888836207894,10.147267264223112,-4.2733651986156005,-0.7564988793280415,2.0262814544970498,29.14981063817298,-16.318921039277832,37.70349081297759,1,S01
6720,0.15742042595046424,-0.12725647239841018,10.147259338804167,-3.993420868410522,-1.4905917729102367,0.3446146211046107,29.23212431692492,-15.608948875037644,38.231897135715016,1,S01
6740,0.14543664083869845,-0.11838025084241048,10.127660941495485,-3.8809738618981915,-1.6243751874437227,0.6663076680498281,28.597567857628665,-15.620080514955593,37.751589578239475,1,S01
6760,0.1534858521367177,-0.1278927694904225,10.160450938912096,-4.1258926523340085,-0.8615885989906449,0.7692494079261238,29.177017149567785,-16.636108348690463,38.53546338524359,1,S01
6780,0.14332906384460473,-0.1413302424176882,10.146197844621383,-3.631319540725851,-0.6977094666017074,0.885238116162763,29.44508999118084,-16.396517604860485,37.88903521846899,1,S01
6800,0.13094085058051677,-0.13370316106917576,10.152409087491476,-4.2350639045676335,-1.5313822977527183,0.5686479179654974,28.877398511816754,-16.836865693586326,37.495215643829326,1,S01
6820,0.12025305261889135,-0.12091961875322393,10.158494827786019,-4.6615745778350135,-0.3212703464497937,0.5026547219508466,29.234126645193896,-16.330395612465296,37.683066868559216,1,S01
6840,0.1415141808321862,-0.13117017190875951,10.152950822795685,-3.8671701304001904,-0.6563323870877331,1.4673748005311635,29.584182698802913,-16.041412924156468,38.07743626280662,1,S01
6860,0.14324813732206354,-0.11817684715009097,10.157626262802006,-4.2947799432315845,-2.0650561539705645,1.433453538170491,29.27049368034308,-15.926587251585211,37.92645409264083,1,S01
6880,0.12874923835411156,-0.11423431365452497,10.154609632856838,-3.8866736671213205,-2.349092774143288,0.9033038342461399,29.17218123465897,-16.08217432852172,37.07488159048714,1,S01
6900,0.11704641282958396,-0.10522857126787262,10.16701396095536,-3.5343223073896497,-0.6733321672503418,0.2679332919063841,29.530387495736843,-16.134722857941583,37.55046385211278,1,S01
6920,0.10380857458564384,-0.10192957276726505,10.15049124845874,-4.407769397883687,-1.726319533454972,1.129296645311587,28.53855472182796,-16.001424745291022,37.6502271122259,1,S01
6940,0.09210044859804804,-0.09294728075959822,10.160801652634802,-4.382837814022867,-2.5207266525469123,-0.2893510278608852,28.57287170821439,-16.56758731708008,37.992600610309985,1,S01
6960,0.07822681074802082,-0.08720800315399721,10.152037181612604,-3.8260785538184368,-1.0137975922633424,0.2196765697230177,28.832201485984175,-15.758684732719033,37.63540057060112,1,S01
6980,0.1050795157537838,-0.08192955924555034,10.158667854179017,-4.59705694396908,-1.5692934742172628,0.5602291275433551,29.295275468382766,-16.6834732418651,37.714925410537866,1,S01
7000,0.05478736347552976,-0.08324421794833423,10.155086378859762,-5.010110022794376,-1.3354302631048023,0.6072833693623215,29.62636537968488,-17.106412402508923,37.6946084630386,1,S01
7020,0.08471486669894768,-0.07112545063325042,10.150298243638597,-4.230089262757792,-2.325588023333241,1.2568709669012792,29.366746127752165,-16.95180349518146,37.65777524022277,1,S01
7040,0.07589550608078548,-0.08153258546487346,10.134106355635799,-4.580957945071586,-1.30104880577417,0.0963864273836379,29.60235492449541,-16.50213915949349,37.916221359912385,1,S01
7060,0.06823910833529095,-0.08751508477782377,10.121793539178315,-4.156938466254283,-1.2955715401180936,0.560187842785158,28.624936439182214,-16.25138337010933,38.014909696566804,1,S01
7080,0.0741276113915283,-0.08327458303950168,10.150418259116607,-4.567254864375867,-1.642032190604814,0.6300352328853258,29.065830191129677,-16.86974828704351,37.75751757311509,1,S01
7100,0.05774138203259393,-0.06751707346014225,10.136018006230607,-4.072470314761349,-1.5907930261063503,-0.2151084718323425,29.26989091069082,-16.77715086922575,38.24960431857215,1,S01
7120,0.058076946282335735,-0.0723215470934458,10.131513056913734,-4.810612732377376,-1.824323126600504,0.7933112531420745,29.46295157772737,-16.618548210644718,38.15249419638791,1,S01
7140,0.045959798770989053,-0.07381867801882629,10.12803537906438,-4.170119754163067,-1.7208460630099935,0.8583556169509519,29.061525996540002,-16.299450277698185,37.69545853225797,1,S01
7160,0.03933906276631506,-0.042265812068562315,10.169305059817729,-4.0341422195075625,-1.1629807638068803,0.9273403902281844,29.524690124666492,-16.6907051609247,37.60327012102063,1,S01
7180,0.029681847575128664,-0.05322691992455422,10.148472735234208,-5.000100958422487,-1.3317910054918791,-0.568072791754625,29.208976001634408,-16.00393048215076,38.21027804679454,1,S01
7200,0.04292308251953679,-0.045058110413773125,10.136234662311802,-4.324161610995412,-0.773420238528613,-0.037772242403725675,29.590382808656244,-15.956459370486998,37.127101052366285,1,S01
7220,0.03442282605914085,-0.03941572597477328,10.1393661170044,-4.100161479939632,-0.9952153853889144,-0.1901224029961699,29.750027508916506,-16.318893687186517,37.58155034643437,1,S01
7240,0.03805457233239773,-0.034342509368833374,10.138014721516733,-4.0660048860333635,-1.6468587240339483,0.4770882308473211,28.337751997346075,-16.414867870699304,37.28871635851006,1,S01
7260,0.025521339183474073,-0.046595628960134035,10.134278657569006,-4.512145695174095,-1.482087526018602,0.4560516189243268,29.30188302002872,-16.970609431614946,37.94357074681196,1,S01
7280,0.04124382280510466,-0.040059996703222064,10.14074595348005,-5.140963920536278,-0.8161801932902508,1.3240643918582418,29.615256540138777,-16.507376769671936,37.20993349746495,1,S01
7300,0.01783617664335445,-0.04526840898476907,10.151936879013403,-4.459997523717983,-1.2800219688834302,0.2324628129286057,29.17058752153945,-16.724579835170985,37.29317667722958,1,S01
7320,0.03244995151654856,-0.042468173832291206,10.13800018838162,-3.5982205808549894,-1.783983242287873,0.6051948432558403,29.640769521258903,-17.039619494445393,37.8167866267762,1,S01
7340,0.027170352948386226,-0.04465528154712115,10.145407405482556,-4.5408053744284995,-1.6241325036624492,-0.09048206176623497,29.053200268336468,-16.96186719479439,38.103448874288034,1,S01
7360,0.026230784547383562,-0.027281459879851748,10.128803907339757,-4.3164679463173465,-1.8307108904008995,-0.696634505487607,29.202086684235898,-16.28057984739283,37.61929085713703,1,S01
7380,0.023954837070518445,-0.03310686504903515,10.152771286934474,-3.9654010603522627,-1.750094614120284,-0.156453327167284,29.386637573429827,-16.41188409213875,37.05865630127386,1,S01
7400,0.010587952636323186,-0.02622675129060425,10.144310813638425,-4.135320036390503,-1.325833786297303,-0.6865496139434631,28.8176450865286,-16.853701839737475,37.45321757134693,1,S01
7420,0.03398527700507328,-0.023594902026558263,10.124599089772968,-4.688720887144953,-1.0058708284232443,-0.0791349493377479,29.350293503548645,-16.93565810626111,37.780648298009204,1,S01
7440,0.004494397224457269,-0.007965549049578136,10.136650647498334,-4.912287273064878,-1.5177792577326696,-0.09042443635258801,29.72052089348815,-16.36272627282918,37.87829316364531,1,S01
7460,0.03425387372120166,-0.04202431960653203,10.146413287904087,-4.080193974561836,-1.6202211283386496,0.18220761635149163,28.92239731453495,-16.335039654359022,38.103129018020965,1,S01
7480,-0.0025934130476881756,-0.022617159913985607,10.150137871170395,-4.387381196553733,-1.0743379172810432,0.9216994212228304,28.826337562751387,-17.298847773326894,37.469440010903476,1,S01
7500,0.0346153642682869,-0.02363970716408373,10.139258783994439,-3.655950591922596,-1.1408110624551542,0.7545116085791426,29.23122093651699,-16.4521875732462,37.94950245424806,1,S01
7520,0.041720495807154104,-0.04266125532070491,10.138808923734512,-4.735997096205553,-0.9839775246590535,0.8680486182691394,28.96422590238645,-15.603578759163332,37.63949003783729,1,S01
7540,0.02183885598798016,-0.02281466239727452,10.150198064232553,-4.842043251597555,-1.5832801955837863,0.7136567186624274,29.918430452933727,-16.469229897574884,37.64284306062121,1,S01
7560,0.02902592045005664,-0.031213886485317192,10.143335417658736,-4.494232132896614,-1.6657758701294587,0.9266963616809583,28.733519071962856,-16.83383745126283,36.845177620706345,1,S01
7580,0.027697053595403767,-0.034839685407772845,10.142378737537648,-4.507424240949537,-2.3363967745254692,-0.22916689756032005,28.93677712335348,-15.43662348757854,38.44395995933929,1,S01
7600,0.033650259638558874,-0.04507815675795518,10.146960251244032,-4.855229275949062,-1.9013412212523382,1.0994956164925243,29.620184576126988,-16.826995952103402,37.25459501782766,1,S01
7620,0.015318416607396995,-0.027669222035365912,10.140963304732452,-4.8964088468477875,-2.0771332110593064,1.2264758348573253,29.031059000419717,-16.28936607496253,37.4269577512543,1,S01
7640,0.031488592422271186,-0.03890321148023028,10.113745149675543,-4.9140069086310625,-0.7631699153367557,0.07066897744193035,28.52311673089987,-16.347105391869885,37.72492614436122,1,S01
7660,0.028079689624939938,-0.046012628473227304,10.12936421699055,-5.186858835658441,-0.9155588493732458,-0.5664049459869916,28.935266150362214,-16.214494968052506,37.83299909810376,1,S01
7680,0.03378570177347143,-0.028342364139004192,10.133103334467357,-4.767136612148887,-1.4055192185736745,1.1840686790210888,29.285448192776187,-16.315119783578588,37.97845267241599,1,S01
7700,0.03986431640406715,-0.03726706051815053,10.159746906741288,-4.234110438472465,-1.5360155971135874,0.839324458118516,28.888592538904177,-16.86452158665814,37.01200019143372,1,S01
7720,0.052069079882999164,-0.05984502645408897,10.147035854422233,-4.608981156027016,-1.9387609928799086,0.5301377724218389,29.0505716479023,-17.079653782843263,37.67569075491926,1,S01
7740,0.056205813466799634,-0.05265068107491337,10.124878937173165,-4.969713354729992,-1.226369143693114,0.32424207788822657,29.217270155520104,-16.089484034172678,37.893650575187365,1,S01
7760,0.055343751218892616,-0.057986322479609345,10.137880900778573,-4.428029625120824,-1.8051009312423172,0.7587859340698377,29.2546191277534,-16.570352811300197,37.483058490390846,1,S01
7780,0.06923065555387807,-0.0565784040979223,10.148192667740195,-4.857875860923098,-1.0468749804349362,1.2695591587951363,28.433755916053197,-16.20333781206629,37.00662872201868,1,S01
7800,0.07630395489962116,-0.07461062497469693,10.131313315926135,-4.417891449221934,-2.1007331994803975,-0.25097836020016284,29.083943151306762,-16.398625982749437,36.99478813697382,1,S01
7820,0.06829695155077753,-0.07650751400577072,10.153209525668204,-5.26474336556932,-1.5733103783054956,-0.22502712478224218,29.016915073878643,-16.69809911763828,38.33983886826106,1,S01
7840,0.07221493780105735,-0.07280944676582768,10.161744024966087,-4.4741874133215545,-1.5129097059362109,0.7011585431866483,28.93411184890997,-16.85954642232199,38.435302888125804,1,S01
7860,0.04291084029646499,-0.06620720192231921,10.13221570662888,-4.825411477483554,-1.1811612872849553,-0.1437813405225582,29.216639567477404,-16.480542138832135,37.16395938881127,1,S01
7880,0.08485019674301468,-0.07176341811288216,10.125008494069524,-3.9523035650916287,-0.8221205091505149,1.2378170346783413,29.278733949837015,-16.09528789667886,37.826844128787066,1,S01
7900,0.09696496229373744,-0.09161851126335677,10.14012389028141,-4.069695647740368,-1.6840379221633874,0.91603478179534,28.992464197812872,-16.655336054214214,38.0497911129403,1,S01
7920,0.09422008610603412,-0.09083143470813795,10.15616295763956,-4.2347598769279315,-2.0455232326066612,0.015368899655374024,28.994060230650522,-16.334627775264792,37.77992258409537,1,S01
7940,0.10674168212182454,-0.08999688079414402,10.145158469468655,-3.9610970529063723,-0.8013515256686067,1.0107236377979731,28.96546270861861,-16.435000754207177,37.92237890080713,1,S01
7960,0.10504161050462063,-0.10201694390632435,10.155929449598705,-4.335456771881202,-1.1238458560911988,0.17469389125338164,29.03791328703942,-16.438445884520526,37.01857816894371,1,S01
7980,0.10721481908632621,-0.10092198379962476,10.149221235286392,-4.041458843005009,-1.4725693565695415,0.3473166087644655,29.116438868072272,-16.250652269698165,37.78780574359246,1,S01
8000,0.10350210573621489,-0.1064937956217162,10.154930792207393,-4.287382171676408,-0.7634086005619816,0.31546529131724377,28.91116415502507,-16.50152840865519,38.12373444127933,1,S01
8020,0.13061577720293163,-0.10660214803085397,10.123664865423493,-3.815790367027618,-0.8185354069075486,1.004815096514695,28.4752739859801,-16.563810860064237,37.8192873914856,1,S01
8040,0.1221574122952585,-0.1110598540046801,10.150435749296195,-4.44177495680717,-0.7601774923152174,0.6802408322593321,28.50127168528204,-17.49393773950243,37.433713654686734,1,S01
8060,0.1266360780983882,-0.11861424915339187,10.148270050799379,-3.6160727955489094,-0.02807387306639475,0.18820882893606483,29.425260231260843,-16.712843649298094,37.98830596045564,1,S01
8080,0.13121661090484327,-0.11455256302984237,10.14425690195122,-3.5923702171331224,-1.8018524966398695,1.283526343118777,29.45506429176109,-16.887959344632236,38.159376328694066,1,S01
8100,0.13313090692142668,-0.10446807983197755,10.154456787963314,-5.03005399091267,-0.3247798946218259,0.9860371221353581,28.885064648491397,-16.099414429804984,36.87706025776537,1,S01
8120,0.15012555854346385,-0.13824197380397218,10.151555671302445,-4.366321298463655,-1.1110541601947301,1.7036378936882852,28.72385016296538,-16.38516444302168,38.10042099199473,1,S01
8140,0.15315141893823156,-0.1261115341420065,10.153994176342442,-3.3913951077801534,-0.8283661377240981,1.4084775573956843,29.32477602119646,-16.069975567461967,37.38727669443577,1,S01
8160,0.14450790278366266,-0.1235949508171917,10.125028380778922,-3.3414245356496854,-0.7675758538427654,1.397161885859045,28.87302789401998,-16.50015466831745,37.23953088707907,1,S01
8180,0.1405406503346457,-0.11836965021908322,10.14377506685361,-3.7288369797512817,-0.6956344774797937,1.425793517188901,29.243984451461465,-16.1386775421797,37.677857554801435,1,S01
8200,0.13863538481925072,-0.12571639330793424,10.137724173420475,-4.6137902662845365,-0.6002935623441658,-0.04067610653080722,29.409873835592446,-16.075545681540476,37.31969123602429,1,S01
8220,0.16824352582834834,-0.12160112612192422,10.134696042747029,-3.1063088103028136,-1.2960892078204755,0.92974232121425,28.725224621710666,-16.772003535102158,37.678227218181625,1,S01
8240,0.1720062621599317,-0.11240965970552275,10.148317083184704,-5.4434636655028195,-0.12235638040390939,1.1316035391871944,29.315814410136657,-15.987363764668801,37.939222477213676,1,S01
8260,0.19701550760486689,-0.12053919282367928,10.151793684021753,-4.150316996269966,-1.5982587771759853,1.0909819584854519,29.618203574452508,-16.529293463712815,37.489490958816525,1,S01
8280,0.18826331624737863,-0.10088447465078716,10.135710232647833,-3.9122519288550044,-0.7576656303484434,0.6305286551972211,28.994962460208157,-15.428148955120164,37.732460828340734,1,S01
8300,0.18484676857985255,-0.09893116882654823,10.15146159605142,-3.9821385006203447,-0.9247089162762714,1.2695001378991249,29.439192443099458,-16.63593372751062,37.76678228603702,1,S01
8320,0.16132467492143052,-0.14274138582892,10.159104271597922,-4.024798588780127,-0.7751505073306258,1.0374207206508985,29.21580238206218,-16.716696597024843,37.76887965000803,1,S01
8340,0.17262048488729936,-0.08451092426952532,10.134200632478608,-3.779696584675365,-0.6446425786980137,0.8279315795836586,29.048265978651507,-16.802733421667313,37.79110464840341,1,S01
8360,0.18087699172439992,-0.10046557814862232,10.141909052944559,-2.5792935469601965,-0.5712213105171831,1.219727587688582,28.99373971457585,-16.046662606227585,37.40135309801777,1,S01
8380,0.1704036602040622,-0.10313252581488158,10.147914696243141,-3.861832111568237,-1.515712215083272,0.1787458428610213,28.572457154326422,-16.83615507010768,37.35627974451755,1,S01
8400,0.18350351049060062,-0.09846731484019852,10.16805363335726,-3.435857655293187,-1.7149304020048117,-0.02079457361933723,29.62341096717469,-15.908642408183308,37.332495238632454,1,S01
8420,0.15884729857625293,-0.09646644171832339,10.150777646590385,-4.29094704899683,-1.356892338076897,1.20113763709772,30.020720990705456,-16.62668433343331,37.92496713819251,1,S01
8440,0.1863385483928728,-0.07453229320325958,10.144838032864907,-4.58063770122036,-0.9669797676626792,1.2625943447586945,29.31707728403847,-16.42233182612366,37.63852445269923,1,S01
8460,0.16520810583971035,-0.07676374567902072,10.14016836236786,-4.934108024045574,-0.9677093959996346,1.2058758343531064,29.036005107253796,-16.182596414318677,38.29304960905717,1,S01
8480,0.16062195334437093,-0.05958814618945077,10.13318851286061,-3.873080628140888,-1.3395679012194497,0.8441289013312001,29.088353398201733,-16.113228024319454,37.717723156403245,1,S01
8500,0.1991339111014268,-0.07525036488756912,10.138136273934853,-3.9977008210278906,-0.3962572455660762,0.7406558762058371,29.337716154013513,-16.79874006884485,37.914802030412346,1,S01
8520,0.1606742296620584,-0.07239901307933491,10.155577498263643,-3.546951200150844,-1.4848238604909116,1.150291172213445,29.100488356637044,-16.034929013488117,37.91316247571351,1,S01
8540,0.18360969924736378,-0.04319078565515001,10.15047678360384,-3.7551065849551235,-1.1958533829229123,0.1523120186967934,28.06535553682675,-16.24884703759362,38.38754054150939,1,S01
8560,0.17669830838213335,-0.04947985513189638,10.14066604429537,-5.532187908626814,-1.127220169370592,0.5925324161526125,29.776727816163742,-16.139068741101433,37.3816646907197,1,S01
8580,0.1693822038917502,-0.04562145575469871,10.161441488846448,-3.309587565577041,-0.5017551132478593,0.7160160752130431,28.741492168494144,-16.537903854396053,37.72730637109504,1,S01
8600,0.17316137569191958,-0.05515798701731265,10.153702224680432,-3.2807403844714607,-1.405721927294763,0.89613634252215,29.28815525099195,-16.252883454215194,36.41074252041746,1,S01
8620,0.16299568213085877,-0.037660264700532964,10.151439535698602,-4.632999198825795,-0.994983635905369,0.4438721231061011,28.543450744822536,-17.00964621245878,37.69577035169078,1,S01
8640,0.18368694925865764,-0.03710325163672844,10.14042389085608,-3.783486261254333,-0.14919240033273917,1.1223891591074402,29.211218370167,-16.629444561855973,37.87021143981699,1,S01
8660,0.17468569610543216,-0.03380886356282299,10.15374952065496,-4.157286862668393,-1.0001803305372015,1.0310853413930436,29.067538134611123,-16.88874822314224,37.728940278495884,1,S01
8680,0.16132921687787005,-0.04589212427884934,10.135726805928782,-4.09684499353164,-0.2791142694555697,0.6458159099582941,29.4181763924936,-16.076049315182253,38.21096858773814,1,S01
8700,0.14861156452346344,-0.05384409204687734,10.160086724931388,-4.7645520322934445,-1.0171876881388775,0.7788519653239251,29.555679175934536,-16.57635685279684,37.889862169595844,1,S01
8720,0.14644820892902968,-0.03872514411087986,10.150254390454263,-4.48253482275692,-2.0818074282920005,0.26866268742594623,28.610555246795723,-16.497490794167163,37.74716704268097,1,S01
8740,0.14869151575559317,-0.02822347599949515,10.126487500424243,-3.6397965216509296,-0.6932291930552108,-0.01055808586108642,28.531166305871324,-16.374839595358864,38.278127514488,1,S01
8760,0.14818570237563738,-0.03159976934637237,10.165796903958721,-4.081782246761552,-1.1609848791345923,1.2520387791709306,29.122013988175922,-16.60288637230836,37.0975233214464,1,S01
8780,0.1375690125886505,-0.02962322253909891,10.148911102359397,-3.6348023747618616,-0.8799121902244204,1.3699952497970362,29.90867474986851,-16.88632999291228,36.945018608899076,1,S01
8800,0.12671559046052577,-0.01834566304053179,10.139734677746452,-3.632531582114784,-1.039797258574501,0.8539191214572097,29.358101327047912,-16.77020025006043,37.62699473719969,1,S01
8820,0.12700374067750506,-0.010527028986552042,10.171093024435471,-4.226191936674915,-0.9730026501886835,0.5312680172854557,29.72192070883535,-16.789446598389773,37.34044313957177,1,S01
8840,0.1416021207780545,-0.04989640879152479,10.140157962482899,-4.211683082244171,-1.5187508988777143,0.5980241214639244,29.228892389996446,-16.836496931411645,37.533834843476626,1,S01
8860,0.11175331318352379,-0.009858131213441867,10.151334764785162,-4.155321578926057,-1.194302778314441,0.7364878064432631,29.029099002431806,-16.250918807958776,37.822820860221434,1,S01
8880,0.11250051678891618,-0.01457580930368712,10.162403023859863,-3.6642409683839485,-0.7662614717084151,0.21713036107330352,29.50715607373854,-16.068841252398286,36.967292654508626,1,S01
8900,0.11664572169095634,-0.007695807617897371,10.140381239313733,-4.049659054407013,-1.4706841032939357,0.6674744950298015,29.867318805680448,-16.12868940782613,37.83684773327553,1,S01
8920,0.11176597688207746,-0.015919987589402627,10.16711254625001,-3.999254912429431,-0.9067078468034927,0.8023700331210883,29.091000395944107,-16.690533187262623,37.49497736383785,1,S01
8940,0.10003139687155377,-0.02486121951605147,10.130077231054079,-4.074209607196108,-1.2211237996131106,0.1935765925235558,28.34849804058695,-16.574388861481182,37.831106322975714,1,S01
8960,0.09368821243885188,-0.036797438157027344,10.143144836323279,-3.7104536745765633,-0.4378613129770903,0.9601874578667464,29.259868573774515,-16.312848696643037,37.70025750303324,1,S01
8980,0.08313697561595797,-0.03154900921093526,10.143026243505172,-3.6073493154537744,-0.8242604021866231,0.2361160677561685,29.54881290213691,-16.099941943792263,37.93597145833557,1,S01
9000,0.09422415890684292,-0.003985668640753032,10.145052182053602,-4.13061704242266,-1.0069938757621828,1.1020039684036043,30.002532237724253,-15.708609921673048,37.89924055419901,1,S01
9020,0.07963159844523365,-0.029664076731787725,10.153632867585122,-3.8714534851827214,-2.4247561076154085,0.41293607223110196,29.7450672497471,-16.039141475266543,37.533442495540555,1,S01
9040,0.07851327737738525,-0.04121561463983872,10.159510997957232,-4.395390917301582,-1.371553511725465,-0.09039491776204722,28.21213800803925,-16.101199277137553,37.95970413138262,1,S01
9060,0.08466490705545729,-0.035769829442940035,10.13905396262264,-4.02004650270864,-1.1255999005651498,0.5843608574778226,29.089237320130326,-17.678895530178377,38.44369212444936,1,S01
9080,0.06317360807440695,-0.02319644055315287,10.151934261664334,-4.811327206770325,-0.7014161747840727,0.2818208714589636,29.533688093314822,-17.39821580059372,38.07275688310307,1,S01
9100,0.053153235146554505,-0.06094070778053793,10.149070435873739,-4.423289000772347,-1.505906792096031,0.8596065405158291,28.714404373317567,-16.52183602343907,38.23191283485404,1,S01
9120,0.04436347111646194,-0.04760844578804209,10.143374718055885,-4.3795672552410085,-1.1219107603351333,-0.5482670626945977,29.05778531473131,-16.641723471649676,37.44091793936754,1,S01
9140,0.05781358179724666,-0.05608127347109369,10.159625719891753,-5.3584370391221485,-1.9419920209824417,0.5522499570789986,29.525644484288584,-16.444817367947973,37.10334560685674,1,S01
9160,0.04015255233335142,-0.05379596130233544,10.141242480968009,-3.6203795429780516,-0.989562941145966,1.15603574986593,29.88546646595302,-17.04882075640404,38.171514770111614,1,S01
9180,0.05012567044158289,-0.0713500574195585,10.162050269502627,-4.313815530745265,-1.5345478061904982,-0.1459149118577302,29.198310760787788,-16.72801583446426,37.45608775400752,1,S01
9200,0.027212795080828606,-0.06575885679450148,10.14189609085985,-5.152139638132418,-1.6090338705883815,0.3613892059086019,29.08389472179524,-16.74617516435829,38.106685835566175,1,S01
9220,0.038472565023091564,-0.07362343392336304,10.13976968379884,-4.832106269208927,-0.9695215320471827,0.6986329042206584,29.916413934455345,-16.791525312086808,37.48920233273355,1,S01
9240,0.03993733399871883,-0.07442301180384231,10.139357058646572,-5.221776045328366,-1.7716212115926235,0.699031640622831,29.954223998721357,-16.69066747282743,37.50188884071485,1,S01
9260,0.04268695242121177,-0.07861073022747314,10.13675044750163,-4.5875843686551425,-2.2501718649037397,0.3575194520335965,28.88181567350411,-16.166935301993526,37.58830091122584,1,S01
9280,0.04362872134884585,-0.08600354695255315,10.14080365265341,-5.035469257219425,-1.9223639083287458,0.5662250589227822,29.793679962766486,-15.970784122720076,37.192977826898,1,S01
9300,0.027799944079797495,-0.08457978869014093,10.144383277645982,-4.4450736263836905,-1.2596595380307127,-0.43739671016186354,28.63092631550791,-16.092566414823487,37.573348299910066,1,S01
9320,0.015261588869512122,-0.06062710407621668,10.149457258842466,-4.6046925975617645,-1.4261130479157391,0.915123148429497,29.1353403882192,-16.642101416015432,38.08717669091028,1,S01
9340,0.024913259597048237,-0.09878774707386623,10.13738840424417,-4.604495565038629,-0.8178231309058233,0.2555488168292222,29.608486110570738,-15.970320792344712,38.1906633980216,1,S01
9360,0.0029777130263011625,-0.08311568913151043,10.139971023941632,-4.212805197795527,-0.45602034401464087,0.8866083705194319,29.586653171578497,-16.76239111882601,37.7923627102109,1,S01
9380,0.0009481503326545793,-0.12085732197640198,10.14405735280987,-4.882238385328782,-0.8137307240170109,0.6465642018821114,29.343845034281465,-16.45370490761509,37.8338860847055,1,S01
9400,0.025454488327190064,-0.09409915558271385,10.14946100626129,-4.6500443576073724,-1.1880224013692906,0.8564894570957826,28.735930275559102,-16.91108712279108,37.943497247082796,1,S01
9420,0.020343462898762085,-0.10873438586409434,10.133660537967893,-4.3249465171834425,-2.4951985445843627,0.6184188554542835,29.606720872901825,-16.68481839921411,37.220519764443246,1,S01
9440,0.02240556075323745,-0.09585966264042459,10.140790897566797,-4.634914717415826,-1.8310922288771148,0.7846694178041473,29.87238618360483,-16.839378356753002,38.38155014972724,1,S01
9460,0.022284291538650927,-0.10525399387614454,10.143094353051524,-3.9134148679409093,-1.0296283917584212,-0.07921202278760675,29.03492443019392,-16.088425101615375,37.003165039275814,1,S01
9480,0.02463389521656409,-0.10068150441869872,10.14478146975929,-4.932507270185738,-1.2889773038439527,0.5835962363773679,29.12955823624606,-16.202460733586854,37.834135838979996,1,S01
9500,0.0014732378213890701,-0.13338599863235923,10.14483587336336,-5.163430423026355,-1.6660524076398346,0.3945715811609434,29.12117486462515,-17.11811276833169,36.96370101487684,1,S01
9520,0.02343623762287235,-0.11691040135910641,10.158131434853727,-4.544973762907619,-1.3670517861382077,0.21705973019946156,29.444791118530006,-16.012311643518554,37.42302815254747,1,S01
9540,0.036407316111307805,-0.1388558427799414,10.164050433688505,-4.955377927740912,-2.1381138325541658,0.3177301914653669,29.278635987652823,-16.22086746157932,37.85987454195863,1,S01
9560,0.03329708987606095,-0.1285440407336594,10.152321350729327,-4.727579559492227,-0.8195545149969252,-0.24009919780112188,29.355331951507676,-16.598568688768832,37.59694455591497,1,S01
9580,0.016124351466182157,-0.10797665540657797,10.150017522169076,-4.134377652912172,-0.6554178064968841,0.5323239325604276,29.467337516471886,-16.786463040263484,37.626236775790474,1,S01
9600,0.0330443596087682,-0.11742306189351764,10.145354783916073,-4.22221441648175,-1.0407337854530958,0.1281203701403728,28.56695353683768,-16.092231975446083,37.55715860544607,1,S01
9620,0.02470969938475165,-0.10048701565420831,10.139251347060608,-4.417195174462096,-0.5256075677825891,-0.49807629784360563,29.364759642228886,-16.407841284851777,37.39233723815952,1,S01
9640,0.05242881070037696,-0.11430033115056124,10.153130263559344,-4.283635546718228,-1.3605026285786228,0.01655491475259674,29.496731583405197,-16.48550847008998,38.00317970292446,1,S01
9660,0.04594655737102681,-0.12044871009109004,10.152851482189726,-5.507228965144309,-1.0884731450754863,-0.1587722367479677,29.429320465933294,-16.627728055881416,37.44048911233114,1,S01
9680,0.028304355323921684,-0.1184474640595855,10.153248310215623,-4.755278234617706,-0.9970132498340231,0.9896686755697062,29.35802649031208,-16.619223830256267,37.802383514508755,1,S01
9700,0.023166510020720482,-0.11819765965759019,10.14388613357855,-4.39553613134526,-1.340172574420179,-0.040553836992165304,28.73826335291337,-15.70589035001058,37.59617270543974,1,S01
9720,0.03178267771835168,-0.12091411722390588,10.146717229235348,-4.7916253940112234,-1.7359463277664962,1.6633145961673268,29.13984580174321,-15.761599489152152,37.38092177063966,1,S01
9740,0.05603911878703515,-0.10522281813809142,10.142270027101612,-4.320708591508765,-1.8856287640122718,0.6420876404612312,29.271661609270026,-17.782252051312042,37.28129273135688,1,S01
9760,0.06353661682103012,-0.09457924803082696,10.133953575500682,-4.551383508804792,-1.7220543740131813,-0.6487555809018836,28.933380346217746,-16.838496884823712,37.966716119147684,1,S01
9780,0.05737243498268996,-0.12472348316966794,10.125273903538204,-4.045529616304636,-0.9778943458421673,0.8453604625651757,28.647737490054404,-15.861103055267506,37.99902167214202,1,S01
9800,0.05833586381486129,-0.09991796122488585,10.158388319733351,-4.653778284834887,-0.8801637955583367,0.06258330225394182,28.701985041500077,-15.805438973529554,37.72877942722247,1,S01
9820,0.0712862810882999,-0.10159140781705293,10.150839889425283,-4.160700515578011,-0.7764209185543913,1.4865683214167413,29.19981195303695,-16.25908286357772,37.46206743079965,1,S01
9840,0.06883543239399177,-0.09683398660129842,10.150291605328839,-4.193337331589612,-1.3992204274692033,0.829397194440658,28.87168139415762,-16.227503925403738,38.25611579829996,1,S01
9860,0.0633749072296074,-0.08605682054032548,10.14612742239924,-4.534487337584456,-1.2670050080647217,0.5464192824696302,28.03800526160043,-16.59563762688531,38.036288988009865,1,S01
9880,0.07317952120108726,-0.07935899619260284,10.14076396554758,-3.6449252585934864,-1.6023383640216147,0.48432884462827636,29.413811799982103,-16.6581170846619,37.75809575508725,1,S01
9900,0.09374042989096354,-0.08139822320889364,10.139203096242348,-4.577891568561303,-1.4892891033818787,0.46229547408187854,29.20163395722609,-16.14896506015384,38.16695796756862,1,S01
9920,0.07996553848158297,-0.0792882904610804,10.145523008334463,-4.03729961226851,-2.344190631407593,1.2894086000942795,29.23087852981483,-16.69480092810646,37.60540349186095,1,S01
9940,0.11315779315498858,-0.08031514813887211,10.133157239113642,-4.5391265676758215,-1.8919768880675645,0.02899362586672527,28.96349160386769,-16.483314497993312,37.66845565437077,1,S01
9960,0.0927666645145344,-0.06470241561465133,10.15107830989683,-4.676048331063231,-0.829148242875331,0.27655656096669373,29.32677608899503,-16.597314123661675,37.76624330267723,1,S01
9980,0.09364501526127744,-0.06461270371288817,10.141920816994345,-4.075598858145344,-0.4700673773351355,-0.2661829255463144,28.80396490017538,-16.61270016535442,37.77578263819224,1,S01
10000,0.11192807908417131,-0.05362225178081989,10.136458029117213,-4.586673760253238,-0.13178075566123915,0.43534616995958375,28.473196635803653,-16.033769334874023,38.1842587553326,1,S01
10020,0.12708245435294077,-0.05009114019834425,10.163460120801032,-3.5221014513125577,-0.4818270902419711,0.9466643582378905,28.828042765835427,-16.926960319884515,37.97315110164829,1,S01
10040,0.11168740070879274,-0.0344627535010079,10.158385775965346,-3.9681090810682798,-1.567953429769717,1.8087994211189202,28.941997450362685,-15.620956684052132,37.904727574383024,1,S01
10060,0.12670423791335436,-0.041472054993374696,10.144919830113135,-5.164354430005468,-1.3464328690171268,0.24131443594197122,29.563218269900897,-17.161618264364186,37.40160405419702,1,S01
10080,0.11318607322877185,-0.05128695369686273,10.134772121821594,-3.8903077687499934,-0.31557445920295357,0.5460847097680435,29.16508965011598,-16.179030407125527,38.228165313945084,1,S01
10100,0.13706244810977283,-0.03254649689955509,10.159489797991695,-4.280944881317611,-0.7386573593922788,0.1195227463543721,29.30777656872137,-17.3224126025371,38.1741062572318,1,S01
10120,0.15178142184358787,-0.03088923218248414,10.158537733362612,-3.948387873834658,-1.4534288671150453,0.8663619891852669,28.909495288200482,-15.913482818911667,37.45572807884903,1,S01
10140,0.149361394622542,-0.028872073515524004,10.15351600052239,-4.8528327755094995,-0.8648509786202658,0.9985493179716299,29.307338044312424,-16.757034294456876,37.46653694618249,1,S01
10160,0.1626373246512376,-0.038882777695332146,10.15957101685381,-3.6304293605336233,-0.67880134857214,0.45458110777183147,29.268351115427553,-16.21591751779434,37.24972936471859,1,S01
10180,0.14328922815015993,-0.02367255714947797,10.155019776028828,-3.650404859212755,-0.9726152194489132,1.159855292213031,29.247970760965718,-16.567990500741708,37.73547057242156,1,S01
10200,0.16248707572688173,-0.042827493258501145,10.157820377213524,-3.901398119181648,-1.0686548471460076,0.9429065230556986,29.790637913984114,-17.098244027461696,37.658453991290244,1,S01
10220,0.1554482725736137,-0.037074462246840474,10.134466286969179,-3.6964446625512,-1.3892897853261041,0.8628745791351482,29.05622194931993,-16.891531486841906,37.56629435064912,1,S01
10240,0.17523630976146537,-0.016303760637936947,10.163913962422214,-4.1483113959365285,-1.4235642936081665,-0.03845117583744606,29.341077367961493,-16.1777985477847,38.42459651068004,1,S01
10260,0.17300137014367095,-0.025625308114742937,10.13031725526595,-4.15910161622987,-1.1502862996751542,0.6408394417662671,28.943830950881186,-16.65150748479258,37.52014637890864,1,S01
10280,0.165039875539087,-0.027071823787489013,10.138608126988895,-4.319747440598251,0.13844153380496027,1.2023770721653695,29.19060158757744,-16.34233125804168,37.50421100174351,1,S01
10300,0.18244112824223746,-0.020121603701154914,10.152689714908641,-4.312139462274816,-0.4358246691411223,1.2562128864242204,29.218147483498985,-16.106489904255206,37.96007595771675,1,S01
10320,0.1662182896278338,-0.010388327897472141,10.14123681857547,-3.881518634643796,-0.6854753008094825,0.5318585220194886,29.778723488262013,-16.903674018167134,37.271065834143684,1,S01
10340,0.17387565467648103,-0.02531055207779473,10.158201157864873,-3.675254762815261,-1.4204030126023384,1.736095565891464,29.76353080466065,-16.551623954457465,38.31182666325145,1,S01
10360,0.18173444530707128,-0.019935172177377107,10.149477966107792,-4.212575128578587,-1.34624092037482,-0.08762380692381333,28.493751847463827,-16.552536882683043,36.9958812445781,1,S01
10380,0.1729603066648302,-0.021447121322325916,10.149604781103443,-4.217057203024553,-0.9763596140133735,1.3420007194158228,29.086035052600973,-17.35685288573592,37.43506232090079,1,S01
10400,0.17087712394952498,-0.023365553537268928,10.143679759121891,-3.3947127916126902,-1.2588364235743892,0.6473032237498388,29.483069172363386,-16.538193974423734,36.47897637455635,1,S01
10420,0.20684896527044427,-0.019778233508997475,10.145345129438274,-3.607174423704481,-0.06143925409338724,0.6066574951164286,28.978435194386297,-16.186156909753112,38.1389039152543,1,S01
10440,0.1783505688936937,-0.0221075527933784,10.154110953574246,-4.469120876249582,-0.540167116938691,-0.11256570303286495,28.595767076601195,-16.60644001917236,37.83381699419561,1,S01
10460,0.17321405835806963,-0.04147067435211191,10.146299940570263,-3.8671573205551635,-1.0942196333658596,0.8637891350380431,28.72393226528944,-16.67867784738099,37.328141997873615,1,S01
10480,0.17230765088838362,-0.015193691050092356,10.16878117928685,-3.3324674036838906,-0.4566559126532983,0.9673089864696052,29.87818054194807,-15.573922606644818,37.60000150369295,1,S01
10500,0.19460593076811097,-0.05010554879142262,10.157736151395198,-4.092334352203034,-0.3854432239486093,1.2210118819188467,29.46165670924878,-16.362625184698906,37.956102632542155,1,S01
10520,0.1789492752447719,-0.04217650443368404,10.138256843161711,-4.115114742981171,-0.4466009065344616,0.9417307570389564,28.832264806122705,-16.359894069514674,37.192123497571075,1,S01
10540,0.1628231125516298,-0.028258077644474584,10.121559443748946,-4.608857470867579,-1.7205027080089226,1.2074706328446099,29.58478032434603,-15.983549387264853,38.530732990682615,1,S01
10560,0.1647270338644498,-0.056592704538631494,10.154760628681492,-4.028383429440872,-0.17689931699832284,-0.37930874667797065,29.474629790527718,-16.568733466081376,36.84905990880844,1,S01
10580,0.16300824101398786,-0.04296788618947678,10.137124978085483,-4.084537047309204,-0.362589754419089,0.9747377395347949,29.027831109481856,-16.443442184100302,38.16946126006294,1,S01
10600,0.16271920992709465,-0.05322582764082988,10.146168765328252,-3.8590230512837773,-1.250919723557869,2.020771781341578,29.88565215724682,-16.074217581225582,38.273045729845656,1,S01
10620,0.15799505948595358,-0.05333697622191001,10.159374635725422,-3.658780406244364,-0.4210249168723055,1.4318110995020352,29.050170463120434,-15.937606041945852,37.983645055913165,1,S01
10640,0.17276290646641793,-0.07043932724500258,10.140351940769811,-4.299640625955934,-0.4289567519365305,1.0986989291575928,29.821332354784904,-16.14526782486683,37.65088501240432,1,S01
10660,0.16582546993151387,-0.06695950852847804,10.14202830349028,-4.21300247821525,-0.8207740011849682,0.621307602413542,29.433441404219792,-16.902080260479057,37.58127414948671,1,S01
10680,0.14793891280817106,-0.08481679634952516,10.1604593021849,-4.617462398610003,-0.7875214830866173,0.45956685967807204,29.051108989954596,-16.013092068891034,37.67338605351857,1,S01
10700,0.16611508495638994,-0.07790574655447538,10.151250690456418,-3.7669608225194864,-0.4877244903040794,1.0703384803324663,29.169365089613642,-16.20299620472616,37.08868090127683,1,S01
10720,0.1622653139939748,-0.08654004167736208,10.159442542533093,-3.9551512379677476,-0.8212957236420153,0.9870061829770562,28.865504050360364,-16.551409686120948,37.59998306885903,1,S01
10740,0.14225009045678944,-0.08112795167400777,10.137222930646873,-3.5579931372543685,-1.6056546791421005,1.230975873005822,29.287719899441417,-16.058725554286617,37.534186795773785,1,S01
10760,0.1392415583512414,-0.07396170751362716,10.168137017044055,-3.073930908426601,-1.4131276741227958,-0.07374049295629603,29.03879533487911,-16.653576637348625,37.4647833373728,1,S01
10780,0.13717423821410588,-0.08761956149951089,10.140197130635071,-3.626789699071149,-1.0109762661218502,0.9151142769513415,29.630114665877528,-16.43287782284819,37.8967605358324,1,S01
10800,0.14549479490250478,-0.09433060500237445,10.120305897659708,-3.4538993038675354,-1.1929184967687068,1.29072584451401,29.731911803805026,-17.011024851723228,37.47463021931595,1,S01
10820,0.12908564046508123,-0.107048464169963,10.145836046237042,-4.009524108735508,-0.520844339169368,1.297388872187676,29.05869554230241,-15.843090898869121,37.84677162986402,1,S01
10840,0.12824288417908453,-0.10585212014720252,10.15343564234092,-5.1675277193465625,-0.9588677357619337,-0.01400209519971296,29.083709972090755,-16.042220514146035,37.71727551004193,1,S01
10860,0.11747773145889438,-0.09968115448012321,10.130939960092084,-4.823448017409796,-1.052151000120627,0.1321671069026713,29.300967373308247,-17.00868439952381,37.92211589540001,1,S01
10880,0.11544561718999316,-0.10463156959268721,10.143560219400834,-3.3147336533114986,-1.51230612396721,0.7237209178849907,29.265285781324557,-15.914837583136856,37.2622233064893,1,S01
10900,0.10863612864499142,-0.11232326322014999,10.142936315288608,-3.883413030076463,-1.525420635087619,0.3776880041279446,28.966012515153253,-15.87231437578181,37.683456817167325,1,S01
10920,0.11453940937117686,-0.14114809540630047,10.14973840231149,-4.219490469551527,-1.4403711055668815,0.4308200176690187,29.07632621567874,-16.470719262526195,37.50100766349233,1,S01
10940,0.09191090219275211,-0.1074871547646821,10.153326410658533,-3.761888383833984,-0.7281484188597688,0.2957918378761774,29.62122753483445,-15.54755266120147,37.38356651942146,1,S01
10960,0.10908252226889881,-0.12898787749309115,10.147075331487587,-4.271849673137569,-1.963048142629447,-0.14904245241922665,29.54729659191399,-16.417718724904546,37.98771813726186,1,S01
10980,0.09530672597299658,-0.10749652012995085,10.142667509909714,-3.6235418426004515,-0.7164168771275619,-0.2655189683132686,28.761375589342986,-16.606264674634616,37.693929958195085,1,S01
11000,0.0921207599733054,-0.12206616057498054,10.126173507264616,-5.017781066861519,-1.5643523455356263,1.0000709455967454,29.517364154249783,-16.10613805181653,37.71820205824033,1,S01
11020,0.08422036830473567,-0.12492850152785782,10.138698516286302,-4.018248779062854,-0.8669735193715836,0.5065720530063001,29.402874099317877,-16.439269297921427,38.41346899238791,1,S01
11040,0.09025484196175936,-0.1044197703685544,10.133741665353163,-4.60761495168734,-1.888166660959592,-0.2492831366719932,28.60053460065647,-16.283039910791654,37.59626512433375,1,S01
11060,0.058771986487144226,-0.12181368715786438,10.143407861507411,-5.00648655056855,-0.512500761371857,0.2445647844862333,28.940637646020896,-16.31595781905856,38.767598326396985,1,S01
11080,0.03987330717463381,-0.12060917874983718,10.12049315373551,-5.30548549860438,-0.9676844128594321,0.864687255905839,28.683581200779273,-15.782720403057105,37.92164554991151,1,S01
11100,0.05760155945031504,-0.1285193259874046,10.141817111783133,-5.026744951426314,-1.2147452618258907,0.3870209537120323,29.21341881623842,-16.45459695922254,37.65583949732414,1,S01
11120,0.04265274129930283,-0.10760831401080068,10.143053546667419,-3.948341261177971,-1.2867448607021963,0.7751550498854292,29.55521883768783,-16.926044425260578,37.12753847256225,1,S01
11140,0.04934150563612329,-0.1264038130026578,10.156509438538176,-3.8220504694232647,-1.0246926168368176,0.13667200296105597,28.991689991600303,-16.695239761198234,38.00002432057862,1,S01
11160,0.05488587820754412,-0.12171116729780498,10.141453246543943,-4.788063720344735,-0.6997402884849717,0.42940559463313416,29.64346585415369,-15.880189600435239,37.72663664529401,1,S01
11180,0.05657710138753391,-0.08550325098093525,10.148958897044045,-4.100703016464211,-2.2033489307268663,0.19163989169866602,29.046814856367337,-16.019566811601422,37.33007359672398,1,S01
11200,0.060462106585241406,-0.11163762574261743,10.142734946265183,-4.3460758428082835,-2.053646409686428,-0.20018925356882344,29.41335965385831,-15.804512469158688,37.56510776993311,1,S01
11220,0.026117429427226876,-0.08806108078917817,10.143010423389835,-5.611817044944337,-1.5445735321580445,0.9869134582907875,28.79459483382717,-16.686269362686335,37.64164017514903,1,S01
11240,0.03391825818025915,-0.09270289011406069,10.157563334695935,-4.389188481358196,-1.5010164616222132,0.11847637437691555,29.494216909488,-16.713925812017067,37.15433115839158,1,S01
11260,0.04805334516588698,-0.09610985472398806,10.130183679336387,-4.5662540264424845,-1.2943460249915115,-0.17025684057916057,28.532473204733442,-15.416345875746751,38.13184110644778,1,S01
11280,0.017341345684319928,-0.09383592842863651,10.162935030574697,-4.654265080468468,-1.0145205119253842,1.1514602820954738,28.896753103123515,-16.690123029327737,37.39351002308343,1,S01
11300,0.03105560757929056,-0.08675687975180695,10.140688408525707,-4.315847667384294,-0.9202896768342665,0.1926587369703091,29.427691572988874,-16.96396803794984,38.17481487220421,1,S01
11320,0.03156950200713467,-0.10066472108722663,10.139084260089176,-4.303117931799015,-2.457818303761316,0.22659509259857613,28.87998274695618,-16.98399653301957,37.555542289444084,1,S01
11340,0.03343661353581302,-0.09704310595712241,10.144629386531465,-4.759298247391797,-1.4894849005613513,0.8007095227057688,28.93745285817958,-17.039076447738196,38.141450931336394,1,S01
11360,0.027950045919810373,-0.09226436052820798,10.146108409762101,-4.117342938040247,-1.8142988979282695,0.8012569235809894,29.646514291327165,-16.411220703433916,37.569267867251824,1,S01
11380,0.009160631609625575,-0.06986942905031149,10.15102509235404,-5.490532703008875,-1.0544047621845207,0.5379829060279491,30.196206462246312,-16.467135630983062,37.45398145311949,1,S01
11400,0.01743161188991492,-0.06877271811959125,10.144850884652502,-4.331182171941357,-1.924155089680679,0.6858018788202516,29.09488136775308,-16.602297177876316,37.23483965131583,1,S01
11420,0.006175263448785245,-0.06879337287052928,10.151429659245501,-4.436159785940992,-0.8160474442950836,0.7518528948328949,28.729471134994178,-16.07665186712005,36.918049444353265,1,S01
11440,0.0069927365971838434,-0.06890628709064953,10.15216792228339,-4.618277161534282,-1.6023395510987615,0.9635744610273549,28.942575586939526,-16.964607285589814,37.96775604872135,1,S01
11460,0.0334238272527016,-0.04952403830462611,10.124755643756249,-3.5810807300334297,-1.8582070558650692,-0.04118684697444941,28.93597313168232,-15.884360810429264,37.42382013791397,1,S01
11480,0.008946426678833233,-0.02994344836231381,10.148002038459408,-4.220566461525753,-0.8472756352002944,0.47117915149304646,28.77917890711396,-16.321751162860554,36.88480442318004,1,S01
11500,0.021123970645627196,-0.05183710209327312,10.14147034800452,-3.9700816067394094,-2.1778714976458833,0.8074935987879789,29.797233191663835,-16.52595237243497,37.291333218677174,1,S01
11520,0.03780810417841488,-0.03892765021454332,10.148652459822673,-3.3561347489313187,-1.7597444811450411,0.3172131822662277,29.4673881701825,-16.39880230477712,37.36016912986819,1,S01
11540,0.02468093607210703,-0.061157914485915246,10.14640027197382,-4.852831639124465,-0.6619632547533805,0.07016035558714784,29.195503597474765,-16.686643208229977,37.30876662716773,1,S01
11560,0.02845321233325243,-0.03952008636018145,10.147370837482901,-3.8359857105689437,-1.5474403868818745,0.4857930148473373,29.255447793737943,-16.436298901280164,38.103171045078184,1,S01
11580,0.03334681560713637,-0.030514173128958245,10.139029535547987,-3.9242287960765436,-1.4100223319382144,0.4760251111990163,29.394665196322823,-16.673426065631286,37.89383886313903,1,S01
11600,0.026089714504574785,-0.03480177229894771,10.156538607866146,-4.352573361056852,-1.384170458409682,0.19447267686630432,29.742211217155038,-15.639190294919064,37.76649428579306,1,S01
11620,0.04846911511702794,-0.01528153118226093,10.164433175289753,-4.41895284545949,-2.74788567083663,-0.037924196613883354,29.42848022486901,-16.608801154065976,37.86715371957002,1,S01
11640,0.05314794571916971,-0.017003207172586875,10.153461021424848,-4.30893839182967,-1.1032452544345213,0.17343979145584776,28.912167932769588,-15.796401419647621,37.73539834455929,1,S01
11660,0.02682852443751732,-0.017455035693895317,10.162340817189463,-4.3075902232530074,-2.113781508119308,0.1366524583956482,28.65556304495489,-17.103348422250527,37.17722355319023,1,S01
11680,0.05384030779104605,-0.016428699301728106,10.126570944558557,-5.230586733209438,-1.5248329280426254,0.03920948901457788,28.475982549177356,-16.327351979009592,38.33687225457199,1,S01
11700,0.030083627870753735,-0.008097314348232458,10.1596773097889,-5.26953740804133,-1.4525977564037587,0.6138951477274817,29.08400211568168,-16.35532574994896,37.479269192469964,1,S01
11720,0.03269686199738546,-0.016483482024826128,10.14881951187737,-3.996740546742781,-1.7357094077292787,1.0204320407248624,29.18418997769613,-16.733158612502933,37.743944668955514,1,S01
11740,0.05845753718815975,-0.0094085069148701,10.150052481269633,-3.4531913388179003,-1.2245715298867847,1.0330922801055478,29.244930090114334,-16.071352831096217,37.77888945037274,1,S01
11760,0.05367861578828681,-0.020179782827779012,10.132365356668412,-4.194548321322472,-1.5162268764234703,0.2677719480237328,29.15545046297086,-16.476924538588857,38.24826095165963,1,S01
11780,0.07209942825093055,-0.009793394968207664,10.152516952582092,-4.7188590439523805,-1.7023552923247944,0.9356156163160423,29.20022261228929,-16.318350813979983,37.88388813979394,1,S01
11800,0.0641946261309092,-0.008779377382191735,10.158417268880749,-4.172473490833323,-1.7373666695987124,0.4492930644606159,29.80908992198837,-16.6353056812738,37.38656985822618,1,S01
11820,0.056671965019107,-0.03246777185480708,10.147338749814258,-4.4656401910017856,-1.7727074021504514,0.42086449390214975,29.15838733864391,-16.796988173973112,37.64591478962006,1,S01
11840,0.10199214619995887,-0.04978606423995484,10.147157395465458,-3.302338318478151,-1.1805625767160124,0.8393980899973097,29.611964909727796,-16.07744710439735,37.92536419065129,1,S01
11860,0.08530070526881436,-0.0381748204975212,10.146180294102642,-4.4074071044099465,-1.5417517280882178,0.46365393349163014,28.618756596608524,-16.87783042462594,37.932036044472895,1,S01
11880,0.08043491795681093,-0.022334992441319354,10.144995863811424,-4.5992963221626475,-1.5838331116672153,0.6207626824480573,29.410743914823794,-17.380213957107905,37.659582721241485,1,S01
11900,0.0897602723281074,-0.046237103043666794,10.147973532667761,-4.865682154178795,-1.277777372820534,-0.06934031651239547,29.21705909005241,-16.644081477226223,37.47580956996136,1,S01
11920,0.1040411162468973,-0.031856884135756915,10.161141070936674,-4.360109069146686,-1.7157572478464422,0.12148697134026731,28.689602489727612,-16.682996584311354,37.771572473158976,1,S01
11940,0.0894015633531497,-0.021335586827094764,10.141583970873517,-4.502736528686429,-0.6806337586725245,1.00328971246955,29.688231719639727,-16.8689112762305,37.95967280063646,1,S01
11960,0.10545394329280056,-0.0393309833693092,10.132038495274097,-4.26245437414073,-1.441547550198074,0.22868987857000078,29.31517571031977,-16.147751315883248,37.36610923894332,1,S01
11980,0.1029120030147866,-0.03646350957471352,10.136632605609442,-3.971972776062046,-1.438797016577835,1.0370376601379316,29.084641455224023,-16.15365495941575,37.62452341256137,1,S01
12000,0.10229378062004746,-0.040838222557729946,10.162788071026707,-4.1291068264529,-0.05732515741024358,0.021976289693224182,29.691492690135163,-16.719326072589055,36.98993321613745,1,S01
12020,0.1179982292793251,-0.045727745996521796,10.147942003758477,-4.048909571074714,-1.6338114038853888,0.9672837181166166,28.585968237257575,-16.394542328695202,37.63696268083952,1,S01
12040,0.11955985793135564,-0.057896025095930934,10.131041486071712,-3.488682615193649,-0.04678943647130529,0.8999276823613815,29.25186873046346,-16.726556957504616,38.058200143968456,1,S01
12060,0.12838091976291746,-0.06842959873148458,10.143484955547732,-3.2934595624705834,-0.8068091076649823,1.0013530539251283,29.891277887978386,-16.550149343634583,37.48470742431606,1,S01
12080,0.14860724094959668,-0.059387993794002614,10.155051922152524,-4.558619986460862,-1.3853457105846863,0.8880534047248696,29.238182536766516,-17.280746633855117,38.06387417638536,1,S01
12100,0.14044642567363547,-0.0670498459345431,10.140598147574073,-4.2335983980963885,-1.122925423574289,0.49909003342702846,29.448467236044195,-16.886232577602172,37.53301663586482,1,S01
12120,0.14710024637713012,-0.07290863781433529,10.146821343033752,-4.750152842832299,-1.4137537092330132,0.8967353011689974,29.671894540643027,-16.238694730914965,37.54400157866609,1,S01
12140,0.1400220899468862,-0.07399123079340443,10.134087625771855,-3.3531110613706456,-0.6393741359989196,-0.22168778066685235,30.077207277619916,-16.924475191044593,37.20031676342436,1,S01
12160,0.1379071776171122,-0.1048208001044234,10.140584354861845,-3.775318028698824,-1.0064072103045205,0.4062908671110006,29.763868756964285,-16.805207679472453,38.120896917225394,1,S01
12180,0.16478112052344496,-0.10648127375774781,10.15642504501674,-3.9057298125637976,-1.2668201186859842,0.8184986837933789,29.254201271651315,-16.081901157969938,37.988925634885376,1,S01
12200,0.15150328638557303,-0.09730828442548506,10.161341856712252,-4.122982807034294,-0.31576252249033177,0.5045128125544682,29.073933351274363,-16.524234049143224,37.45493232870231,1,S01
12220,0.16877152075504254,-0.10560121732426642,10.159153338107282,-4.009743269522943,-1.260102040588415,0.20617375056834114,28.846599957594186,-16.558130721213253,38.00967723853679,1,S01
12240,0.1677630524712086,-0.09595687838863409,10.150570995414201,-4.2404494113999895,-1.3127425694781574,1.4213407683846344,28.8290403771642,-16.526466705493412,38.061585567781734,1,S01
12260,0.17305563994247428,-0.10547798316775026,10.140364092272469,-3.8533412897331694,-1.3833697048232225,0.006996085055172352,29.39377589279858,-16.472769549823873,36.842757883489234,1,S01
12280,0.17927091754517582,-0.11532244239051628,10.132434279332031,-3.7930519459020355,-1.2825462636131153,1.2060109913862145,29.367039927249017,-15.970391831528616,37.87776705966195,1,S01
12300,0.1590280079982428,-0.0958033673086567,10.151331330023405,-4.0928917291120115,-0.74767083650871,1.3793573468481317,29.058752316717566,-16.656479941003198,37.898076158806184,1,S01
12320,0.17798727771885697,-0.09685004373938992,10.154458877776705,-3.2244458188480483,-0.6368410541693169,0.95104997063746,29.574990923482975,-16.912942597688996,37.162337634577376,1,S01
12340,0.18254813337420056,-0.11214112398927031,10.141474556983063,-4.208312984083129,-1.6347868754280461,1.204501249621471,29.193741978224224,-17.611761638432515,37.7527288685204,1,S01
12360,0.17441654597031525,-0.12493007621013556,10.147713729846283,-4.607846781332395,-0.25432228728041484,1.1547513547056574,29.689933227278093,-16.378255263357985,37.62448088869394,1,S01
12380,0.18940614840958914,-0.11468190899170823,10.137812717148584,-3.057060076815148,-0.44540842206390785,1.4986444198996747,29.442178199197016,-15.986849343091826,37.49802305189919,1,S01
12400,0.16180160195656698,-0.09850824033241631,10.16871193818206,-2.8938811346408615,-0.7405751379757912,0.5838208761175345,28.53143425750714,-16.380956242107548,37.63840195963937,1,S01
12420,0.19061121805905093,-0.10933969111234484,10.122900119209222,-3.3338344322945557,-1.4068783284053548,0.6967490032769892,28.734381541187684,-16.524811234901716,37.724517876667704,1,S01
12440,0.18154867044723083,-0.12903670467142975,10.143712152529256,-4.359929151554928,-1.1216708023496282,1.109769668420253,29.22781114101145,-16.55425923819123,37.61758792358019,1,S01
12460,0.17586663704923788,-0.11658392451253032,10.146585956024428,-4.9474899515799295,-1.1686653419268227,1.0023700217586435,28.91778352310072,-16.581608929761106,37.57882754067157,1,S01
12480,0.2010101386606175,-0.13060093708490025,10.16868717188074,-4.196344118561086,0.07944868980225706,1.8834576684551352,29.305668094613246,-16.243292025213282,37.94467907925035,1,S01
12500,0.17395011027317292,-0.1043568217541966,10.156609385671228,-4.145295002011432,-1.8839490539949666,1.0145169005054404,29.59097963180768,-16.337199990493183,37.45600126640014,1,S01
12520,0.18133683624276603,-0.118906167026975,10.143965882216573,-3.7219961301718563,-0.33131315237492465,0.5811669288704832,29.42308057372749,-16.614994818063916,37.79304750010608,1,S01
12540,0.1625896465608424,-0.14066506228464176,10.152481026365532,-4.003961744676905,-0.865186693055169,0.831973185388538,28.972294779682105,-16.259071714656045,37.83695865277517,1,S01
12560,0.1783953415115424,-0.11916127152032785,10.156295490870782,-4.381043508759591,-0.9422350879585706,1.35409749037062,28.765317125127304,-16.0947730899737,37.64787379465742,1,S01
12580,0.17725027872076649,-0.09859210209818114,10.155502416928028,-3.8866014735732457,-0.760849119454123,0.8511250139567563,28.953844658005327,-16.471107457744775,38.040277470310315,1,S01
12600,0.17185439989342433,-0.09914550675808835,10.156208960801115,-4.196692392094543,-1.133072561679023,0.30721426306604666,28.70272786503012,-16.980052977154923,37.610781136609546,1,S01
12620,0.16464785775967233,-0.11552748813489516,10.142550861678746,-3.689662633969802,-0.5132837504155359,0.5459744789896397,29.173337551121804,-17.155668729239203,36.86389313192155,1,S01
12640,0.1456741286563395,-0.11607742021434714,10.15544351371329,-3.398960816353144,-0.8667870260061667,1.2691187455403876,27.962168868880205,-16.64723530426238,38.0193890472937,1,S01
12660,0.1855582077116152,-0.10170413502642545,10.156167132673284,-3.781798537067316,-0.7385846025763148,1.3419383085774634,28.98011351531703,-16.493997489588175,37.6557517360112,1,S01
12680,0.15323136295252585,-0.08194759345854527,10.132498969445992,-4.366905800457327,-1.12290842128802,-0.08622365787206854,29.21432543194431,-16.532589574985447,37.63236533203436,1,S01
12700,0.1555702342689806,-0.10038250093729428,10.13585019882224,-4.497705204003062,-1.3622810512154078,1.5616245488180023,28.636145352691816,-16.668269250827475,37.226318816827145,1,S01
12720,0.15083131312143336,-0.0955472450367946,10.146228743675522,-5.055501161861541,-0.10884340684644922,0.36905028211627977,29.473452379674967,-16.502245755864937,37.58070303544027,1,S01
12740,0.17005425151598014,-0.09598489726057813,10.145045526961015,-4.26878966036325,-0.3620104649817515,0.27699664872456187,28.9035809098251,-16.44942585701046,37.79625489857978,1,S01
12760,0.15962294222732268,-0.07925441905463337,10.132802012942491,-4.51728072229365,-0.8454822586329517,0.7011637912231723,29.224901000229053,-16.465895108808024,37.92804193792604,1,S01
12780,0.13574627799310574,-0.07904545983209696,10.134711194408805,-3.7931141271368665,-0.9400575990885253,1.1619515512190812,29.93429816283193,-16.12625170503201,37.73993676954172,1,S01
12800,0.12192578609340923,-0.07227081503330547,10.1285821101825,-3.966108106635675,-1.3637806821771956,0.6654365893646494,28.596368128707596,-16.240376338910323,37.88111992877424,1,S01
12820,0.1352035197667609,-0.05534616703309087,10.15234627571115,-3.851027237618882,-0.8220510275550974,0.445675490964898,29.25422935992231,-16.29680269288988,37.536133211602504,1,S01
12840,0.11615202935861957,-0.06338008536195011,10.148393331102936,-4.002386856451732,-0.921601060701926,-0.5845722073364302,28.902971875176117,-16.315979501123458,37.7263095090466,1,S01
12860,0.12848020319125175,-0.03512952377303672,10.117207916952479,-3.6289986636077933,-0.6448045487406289,1.275675118774938,29.51368919363442,-16.622541879879325,37.832558513561295,1,S01
12880,0.10341287175316317,-0.07129697805392449,10.14755904966833,-4.608094394208665,-2.0089770181638698,1.537390863289501,29.668013641491147,-16.486379275291725,38.14647058158317,1,S01
