timestamp,ax,ay,az,gx,gy,gz,mx,my,mz,label,subject_id
0,-0.03265291618282201,1.230368352884353,9.910118289162673,-6.715527965042414,-2.1788163502548925,15.79959863639492,30.146724921136506,-11.249858872946007,38.19428877080409,4,S01
20,0.20044957680338682,1.4943928378519253,10.258439925662573,6.420687473288546,9.630128267540368,7.967521339949176,29.267295501763964,-9.301566227336467,38.44742187946498,4,S01
40,0.4890089498965896,1.7185772816059308,10.64451547969366,9.652976117421211,26.670261547200326,15.829264111168209,30.735805950058886,-12.778991741273058,39.05696264495607,4,S01
60,0.5768023564020217,2.2468570235509837,10.684664503823457,20.020925041509475,38.5418055636764,5.720961719500171,30.127683522962375,-12.372531820476837,37.97140447312682,4,S01
80,0.5961885733861926,2.0400964362678056,10.979371111790712,28.507480586437577,44.32997193884302,4.297280816509222,29.25480477073591,-12.337015438106064,39.90375553601571,4,S01
100,0.7043213877629372,2.5330621017204518,11.134321443189378,28.68883064362532,47.91775042745648,3.229105773560017,30.589192876671085,-12.860092521224239,40.599500195075784,4,S01
120,0.6223911759711563,2.495134079345605,11.32047140675864,24.694701042348985,48.17187038896216,-2.205604589787032,30.648778059277028,-11.37912490323114,40.408004767916125,4,S01
140,0.7418540757936015,2.497466533616035,11.641697202647613,21.617050768005196,51.24722607335166,-8.411331525242069,31.18363364400392,-11.785226074681097,42.3640083961398,4,S01
160,0.691425179805584,2.6392107632093893,11.494175586791082,15.954001079111837,41.84871362879554,-8.259603215584892,29.33368614221267,-10.865261507236053,40.83528450354718,4,S01
180,0.5741517131711654,2.7085100865543903,11.561790687629541,17.922692039117575,39.45158459725374,-7.423620549616944,30.564875921915466,-13.386219986371803,40.15250275742433,4,S01
200,0.4653543420019862,2.4579910053891045,11.560486052308123,14.23048187679441,37.21870955698051,-7.952261907427744,30.971774590124337,-14.101670165077374,39.968215194732586,4,S01
220,0.4360783425999718,2.391148579104684,11.53081817893149,5.406707790054708,24.950769404715835,-11.54067825064405,31.94593484784596,-14.169760680515054,39.60749796562448,4,S01
240,0.11145622221180469,2.338869890371328,11.21602939475841,5.574616835817781,17.29335053592902,-15.837319833200757,33.169677128203354,-14.415483504759493,39.642507061446885,4,S01
260,0.24131805978474863,2.0995249200829447,11.141986096899307,2.4427954931147324,14.320606670992719,-11.488171162100306,31.562302995605894,-15.000732286719568,40.710343561587344,4,S01
280,0.2922603697460914,1.7449812501213455,10.928370518762373,-0.6586599130194193,6.107217063363248,-17.34842938236245,33.82062924230202,-13.989509977562493,37.89608473651154,4,S01
300,0.13919330900299254,1.6884281872608833,10.573504818507882,-1.6861591230533266,7.3904742974232915,-14.531379118412197,34.373575130037075,-16.39393191669339,36.95865602545545,4,S01
320,0.04857102104238944,1.4023672855986682,10.491551036172131,-1.9726945677698429,-1.9082737829586975,-10.95766217183756,30.436701814494633,-15.384236122722312,36.63482007177287,4,S01
340,0.14173190345024156,1.3014585285503477,10.117006467766423,-1.7043472863332991,4.017765526566315,-10.393590790019251,32.18429566643538,-15.440192942309205,35.57455544340042,4,S01
360,0.03255885639076139,0.9174381659437709,10.002174017013216,0.519507760233985,-6.112177257855379,-12.21382920068246,33.714640532456386,-15.174468000338171,33.84678522589969,4,S01
380,-0.10442802803696949,0.9072849555422673,9.700490543359622,-7.893253296867298,-12.43019899380502,-11.492604557342021,32.577860994217005,-17.47968689147178,34.30294814547547,4,S01
400,-0.1375739961560886,0.7015688593267024,9.437481949385424,-2.87801365948654,-9.455346986276762,-0.9843535937397881,32.10253795442876,-17.346798724987963,34.62331543264179,4,S01
420,-0.09724073864829927,0.5439940850516689,9.418051600118906,-13.776523801094974,-17.242963703751904,1.318517231320095,34.05815661789943,-15.037635983705332,33.23921056128829,4,S01
440,-0.18837813626720393,0.3570027003234741,9.12726063678027,-17.329634733903394,-29.198669886773068,0.8644821101725314,34.42484690413902,-17.13366328752342,33.35348691586678,4,S01
460,-0.22836881217544783,0.43571792030674356,9.101177643245045,-24.925078616645745,-34.786801189925015,2.092811444129848,33.3631645886356,-17.4489714462105,32.20257420087576,4,S01
480,-0.39968097563115124,0.24931750687122062,8.855294984651625,-34.247025683004615,-39.07710224521645,7.238295350790284,31.972369106185393,-16.786059467421317,31.02732535617102,4,S01
500,-0.4760716003835799,0.3978273409517175,8.98020360700111,-28.710231880978938,-41.49653274175305,5.770252881101856,34.811662750763894,-19.491393521143994,33.53820996281535,4,S01
520,-0.4340562519807225,0.25656416090766004,8.969580650884684,-27.834430325661554,-51.71933856356796,12.776741188476647,31.472743332195535,-20.27508568617872,33.70943057400742,4,S01
540,-0.6359480413006554,0.3978946781742155,9.027242278592064,-34.93137931332175,-49.819363577653704,12.193439179997265,31.65328046924783,-18.13888029505764,34.2538818504903,4,S01
560,-0.2778329931208542,0.37972065025464136,9.005970039510164,-34.129506331854685,-52.06790253886374,14.697028811418166,31.946653088326983,-18.412585856517712,35.74341232279197,4,S01
580,-0.22433605934897796,0.5880151620680814,9.158945340952476,-30.82131538086628,-50.03900515046979,14.372133852544147,32.49260392173416,-21.93017658049283,34.91835705969861,4,S01
600,-0.37360373144620584,0.7438238078709483,9.425463137496294,-28.675872760237436,-31.91611231937176,17.66777706917751,32.56394065830251,-19.773991984046898,34.501029295275416,4,S01
620,-0.11711724859742195,0.8632161090722146,9.457173162546207,-18.233526867190847,-17.428070621835662,14.97873971719683,32.33357536346493,-19.80195136015516,37.64022885653431,4,S01
640,0.11164335108183333,1.3341473173619927,9.84022943167639,-12.619790127427212,-14.295467901714643,20.953623856369834,32.04690566342378,-20.634363709400624,37.87655316764319,4,S01
660,0.06462392781438253,1.3112621895369347,9.898964019818171,-0.3636410704048796,2.584556028517456,10.838894676062974,32.1097140047873,-21.616742253044343,36.151213871776875,4,S01
680,0.39386113910926546,1.7755309717733045,10.290412812908167,4.697388141954533,11.146229793654594,10.127429995266338,31.257339524406817,-22.999246935871916,39.972440213803445,4,S01
700,0.5318105409106069,1.7885393099616984,10.44219827536426,4.8478577230933935,25.610289737683193,9.715780567753905,32.48023211031743,-19.96921401248295,39.720244880737525,4,S01
720,0.4904642190879117,2.1993149713921896,10.808747177005685,15.458252594093505,41.32428194560289,6.7917723836753785,31.836680316431174,-21.824542030880945,39.98533957373488,4,S01
740,0.7877023484507734,2.3571246152837686,10.916167917078281,19.692527228021376,51.281704832882795,6.709741981821202,31.342263584091956,-21.335257782616555,40.11409482152902,4,S01
760,0.7670014777921309,2.2379715439813617,11.147404434388429,26.617039996881925,50.030995883221486,1.8803143889028129,31.695114187643032,-22.5319861696018,40.837729228526314,4,S01
780,0.8201707183267295,2.595304327357554,11.254093545887049,28.628467975323613,45.76357271407244,0.8121553398081405,29.566058980677766,-23.68266436424372,41.25278731436217,4,S01
800,0.7907227862215709,2.612533999188098,11.58313063076698,22.897622690589532,42.032354331037425,-4.730984209980615,32.48844522289784,-22.450396801542052,41.87140993582348,4,S01
820,0.6199615176359192,2.592247936319058,11.56686102823865,20.371960194900254,39.551656891171525,-4.7578752683613095,30.7748201931557,-26.03347323195411,42.09020742081459,4,S01
840,0.2644447432463388,2.5803768654845576,11.646297389259217,13.691958356826902,32.59157824247165,-6.955161421283477,31.52167670524831,-22.537672086037574,40.85953470043621,4,S01
860,0.38526041870851546,2.5077485646135713,11.573442218833879,7.755884619159903,26.674029930278728,-8.5207608656345,31.136779138230068,-22.869526031755093,41.468068628895196,4,S01
880,0.3032812754357569,2.246896085160147,11.338034466917044,8.456195425093245,23.471171604322958,-14.68196263493599,29.54078563751643,-23.63098775707995,39.32572091481308,4,S01
900,0.268361594194917,2.0691777265705404,11.451263349248054,3.6223365473243243,16.16513836745096,-14.593472049723145,30.12913715166584,-24.17125350944849,40.32129893682832,4,S01
920,0.1286282351468505,1.947836386418533,10.984580037333286,2.687541482441701,10.390310989759787,-23.727239539544623,31.135674230567542,-24.522696071084525,38.88553645066554,4,S01
940,0.030070668942873385,1.909732810386242,10.889107305380152,0.11923997153190857,3.5041257904684358,-14.311692130807437,29.838720308942428,-25.265259774094112,36.380201051910625,4,S01
960,0.16184667586286947,1.6161628386236149,10.607982835705174,0.1141553401159312,5.006339470363536,-21.26933876962567,30.083404978967163,-23.20982280310689,36.55411952600486,4,S01
980,0.012888178175904735,1.3042635471970665,10.170390160569172,-11.608268450440844,-5.1044868370895955,-16.43502884709912,30.035200160850223,-24.01516100441417,35.99762086192435,4,S01
1000,0.17441634725246918,1.129991388271978,10.186078536784452,-3.045513875499131,-1.2702380958213106,-17.102012298017772,28.582668837979476,-22.40340395073489,35.65589955282907,4,S01
1020,0.11850592825097968,0.8994220603442349,9.769022859022133,-12.635118590906384,-12.042578911246817,-7.414500760013539,29.345562192494178,-24.851272389919117,35.61498750770759,4,S01
1040,-0.16961317799762402,0.8216415913710011,9.423368081020538,-13.567864377460555,-19.295050759843374,-7.3134941663836734,28.730935235385004,-24.32093474942733,34.30432968220972,4,S01
1060,-0.015871124777004128,0.6588787290709759,9.488083100896748,-13.92550013281916,-17.347725433482587,0.8021295797293323,28.01784629640929,-23.70880663992649,32.8428518313823,4,S01
1080,-0.221701754735548,0.5013960562441724,9.321205976773115,-27.326262737117293,-19.26028767233192,-2.12554391274085,27.732039081957236,-24.247352240534465,34.663068608972516,4,S01
1100,-0.20652712107784502,0.22426261394989944,9.026485773760912,-16.09298461076,-29.912254817714803,4.314268477275557,27.461043772475918,-22.504151802038265,32.22444501519442,4,S01
1120,-0.1547333045959778,0.3702667711071898,8.838790865172093,-23.94086218354829,-37.91500200518702,1.6861663335309736,26.217894875788843,-24.23578295533824,33.78885168942051,4,S01
1140,-0.31264169606762005,0.1544891108843482,9.00993069182644,-23.546199919223167,-45.949423787828586,6.880357897079572,29.790508613028113,-21.553688386257363,33.727647228298885,4,S01
1160,-0.42877205450338174,0.15576160632824115,9.139662635997938,-22.732195173986934,-52.28156820895489,4.426539569346324,26.79974628029556,-23.174055542991674,33.06013590006138,4,S01
1180,-0.41176784574651204,0.23419433900742964,9.039999992285223,-22.313163495477657,-54.45363932572244,7.360663309889209,26.786107229355522,-23.81863043251777,31.669702911703336,4,S01
1200,-0.56224242651936,0.2715508050057258,8.95789413910029,-35.60037502129364,-55.902660765105615,13.302265941086159,26.725090296896333,-22.841696824083982,35.70332060134603,4,S01
1220,-0.5836321945744247,0.4791761439151743,9.046529987083048,-26.38773582900448,-50.637387044222145,11.906020040760707,28.45926905118763,-23.843451660108027,35.61185888841413,4,S01
1240,-0.6094818610661511,0.682428088617768,9.307705167617245,-39.18323615220421,-45.47234558344039,10.803915945790559,27.500886428385115,-22.34830971512343,37.017933224750344,4,S01
1260,-0.3433748540703555,0.7151061969476808,9.309789750852676,-23.31366488246387,-29.02518073951935,13.807057389660185,25.435697952571942,-22.19212416804899,36.90454553022265,4,S01
1280,-0.10033374913452989,0.9639204541796251,9.676827095523121,-14.185996911309662,-25.6551278764197,15.980780162360855,25.543642026074572,-21.21235415482235,36.86128596970007,4,S01
1300,-0.01504377501594649,1.2978351702994229,9.765715286779624,-9.42780544813835,-8.627945814784697,12.79972059335484,26.761939189679612,-21.133677595971385,40.25360539781726,4,S01
1320,0.34451385156500336,1.5809816252970674,10.074355804870374,-0.552972652658581,-0.04955309976641753,13.535292752412106,26.387621967250805,-20.624240520797354,37.728553501782315,4,S01
1340,0.22333466850014944,1.808288034922485,10.299008226927945,5.3764065618012316,13.830961475461326,11.370725460260347,25.880859787206717,-21.06467366156235,40.14610751210419,4,S01
1360,0.4703971045222539,2.01835910480411,10.565190805375414,15.356335576818338,35.04622983118622,9.332101620235404,25.32714835162058,-20.55821385309706,37.23307206660807,4,S01
1380,0.5982438237320661,2.1787523538511113,10.954072031537251,20.85421519366098,42.33083288762512,12.818849202899528,25.936117346908887,-19.29302696572752,39.43549096034137,4,S01
1400,0.5667880566390218,2.1714735085160695,11.242359860970913,19.06983428984554,46.7281562187607,5.882884555831779,23.763226877244307,-19.619797657418154,40.57474024168947,4,S01
1420,0.7242815873781296,2.46073790475788,11.2743719135708,25.565648485573575,46.294612604370045,1.6152460161173625,24.76776975008213,-18.674179340794794,41.9460910632792,4,S01
1440,0.5712868454390798,2.598981422602302,11.511292630422503,26.629454293096344,48.43630142121844,2.5405901971756872,25.467320620986353,-19.9432647435056,42.35162065527538,4,S01
1460,0.6511084931989674,2.352801241477242,11.351516485688549,21.97452768435355,45.89971504158629,-0.45271048561503957,24.630832973606644,-19.25591538203805,42.56536189250677,4,S01
1480,0.7592641465101808,2.6176381743503825,11.677574242536473,14.9259922318539,45.842381966372336,-8.883294298394363,26.601421836326313,-17.06814374110492,39.86137044548509,4,S01
1500,0.5625777819088309,2.372947479756063,11.609072400959898,25.886958196339567,34.33545092621696,-5.372240331524325,24.978421339838633,-18.538868063311497,41.90281238309855,4,S01
1520,0.4027702007220466,2.414394114109588,11.413847644173966,11.63793546350266,27.725853905516388,-6.06350324861748,25.808057902874484,-17.74671435639766,39.47188437382367,4,S01
1540,0.18807351632470248,2.2880070904720977,11.314054867757232,12.471169846614337,17.560528677804857,-18.32821318801648,25.374000503956104,-16.328227204908778,39.19158979711013,4,S01
1560,0.22920952595891078,2.071801613419121,11.233386592910007,4.043546701288402,10.052072699854296,-11.487895403752308,25.48152025853644,-20.090105664577546,40.297866686494544,4,S01
1580,0.3490777597684498,2.171350292973715,11.16522584407121,1.331399067768296,10.99238901698837,-15.668646749127019,26.053130409240918,-15.803469787953302,39.07297172905636,4,S01
1600,0.17818462125153495,1.7494589497808235,10.940974064796322,-3.2800255879619042,0.8532075160287163,-11.913790874458998,26.019391117533857,-17.281770546596945,39.29376029955843,4,S01
1620,0.0321271884456841,1.5022793689680634,10.673757517548793,-5.182106475004654,1.4456668691550385,-14.024263111582226,24.20113239330531,-15.253216018254893,37.75980370407407,4,S01
1640,0.07930338805445347,1.2883331068321657,10.367624251617118,-0.6596949210058423,-0.5431101756153968,-15.478595686019103,26.86262792526577,-16.37669345004194,35.27516048337789,4,S01
1660,0.010543361634317377,1.1075667363494226,10.035823513915215,-2.6864788566085043,1.0208361415779026,-15.702533936733088,24.09399302405633,-13.499534622068506,34.718105925477886,4,S01
1680,0.0800072981905745,0.9078164794465959,10.000073489501832,-0.35664077199527267,-13.141043659715208,-10.096099120503599,25.878702331915754,-15.545333174964675,33.90358002635003,4,S01
1700,0.11337235816014271,0.7205646957558591,9.439162760403873,-13.221010694238231,-18.337733426609603,-12.809342203141576,26.367520490039595,-14.816289492224264,35.27784900784787,4,S01
1720,-0.01858514722570334,0.5586259865644452,9.492496958314339,-8.911961503881656,-20.24986025894173,-4.924980126371037,23.393447060164906,-14.824257746777894,33.01948774784192,4,S01
1740,-0.21107379535185225,0.3736464091243594,9.44076917095128,-11.389861436763077,-24.73362277317946,-7.362625890497473,25.781668252321147,-12.883789872907597,35.17481537534448,4,S01
1760,-0.20583269515358213,0.4141070376314338,9.048005775044981,-17.472352792874425,-33.65952117377443,1.6928227262205935,24.28916553136647,-13.126790262209141,32.59243369817497,4,S01
1780,-0.31592212425081656,0.15524551147068266,8.800811948374694,-30.455117734830544,-35.2074418453666,0.3944731768982245,26.33487342723201,-14.280858641101087,33.37817747064008,4,S01
1800,-0.42914865112309863,0.20145447949484108,8.911641466437699,-28.440639733280808,-45.8404169041184,4.253241599741166,26.778638681732893,-13.885236180469072,32.82195531461099,4,S01
1820,-0.4822128547583806,0.1511822822840305,8.834699595656513,-39.750455790117115,-50.72691507770497,3.168205655023559,25.3798976673995,-13.1776411856415,33.63669757529725,4,S01
1840,-0.5191977902335762,0.37861935157281446,8.958538501123545,-35.140180037375536,-51.37497100614335,8.412613636760652,26.45403472623756,-14.01668709816015,33.594307140404865,4,S01
1860,-0.533738032741398,0.4187593864230693,9.042765007982082,-35.63425290880021,-50.46301494586222,15.677648062207151,25.942340806971494,-12.667706508692198,33.406970312593444,4,S01
1880,-0.5251928130066986,0.5592074496940123,9.130796450132069,-41.77466704167685,-51.732890458654644,13.51264753124025,26.83701457959,-12.731251988998253,33.664401585588905,4,S01
1900,-0.44705397371444744,0.6893755949709228,9.540213580158353,-30.60300867028636,-41.87447145323969,16.49037400368833,25.887807993990997,-14.253334576009728,35.3088541696385,4,S01
1920,-0.3658237781628805,0.931136082576532,9.359494735359094,-25.777701398605775,-34.24946538127533,16.402035326279872,26.198828768680965,-11.6398333893626,35.808950808636,4,S01
1940,-0.02274730200081236,1.3482944851053091,9.732050445795823,-17.38453933938506,-17.278710203091446,13.542351274088398,25.915719695583885,-12.144845481972286,36.852722484059846,4,S01
1960,0.07411715130384702,1.238017864932551,9.931312706657229,-3.0217099838437873,-10.82053377478504,15.368829288931257,25.69765186891588,-11.122011233982008,38.71990481471112,4,S01
1980,0.07548779479008665,1.4315796041623166,10.067438190287223,3.332559224222238,5.654549982564526,9.006543932012244,28.07977419175673,-11.015259448116687,37.031458771577036,4,S01
2000,0.34951959305295904,1.769896375483631,10.593078892565526,12.32346872780295,21.796569773852433,14.977651354226074,25.591875736073128,-10.295560122255921,39.81129811608254,4,S01
2020,0.4580939929874944,2.007841310395786,10.79965358153976,12.898483918003464,32.98287861432597,12.707141614186762,26.77384798929693,-9.039813083024999,40.72091966471499,4,S01
2040,0.7310555885793814,2.2348453277323426,10.9592910892172,26.003033371503744,40.644279139678254,6.821749005148237,27.118588140499263,-10.968312805367118,39.32735709344043,4,S01
2060,0.6057313670648237,2.2981150581553917,11.027310854460673,24.9690831611451,48.32970456165752,1.4245348227335746,28.704787007521688,-11.797948847816592,40.53245318228579,4,S01
2080,0.8449851102021141,2.295804433804533,11.279291188387717,21.596179775217234,49.57672095018453,4.080203835271521,29.111196748052297,-10.282916046946784,42.12137520533072,4,S01
2100,0.7651726674368013,2.57224780195569,11.344165253103421,22.227804820760788,47.91514569136654,0.3491349170191266,27.55531247871769,-12.31097929434311,40.99598997783535,4,S01
2120,0.590918359673462,2.5564141116388037,11.477813291121501,20.63606289491307,46.874266877206,-5.542164517681531,28.960117848591782,-10.089735179101115,38.94650150997829,4,S01
2140,0.48832603367284944,2.631378891500596,11.625865392136525,14.897041340671958,46.996968837101306,-4.035642215286909,29.165323694168276,-11.950201929916693,40.46612228441428,4,S01
2160,0.6750147035387876,2.5584841473529623,11.700667810216439,19.305745338897243,39.26274927315257,-8.077206994773611,28.761619812016782,-11.673414087404279,40.79698146388502,4,S01
2180,0.38327182038057295,2.50167432601685,11.519250746567396,14.687347692079769,25.56189164853325,-15.21255567377857,29.049039457389462,-10.01810052337122,41.07915355963118,4,S01
2200,0.37773026872135806,2.2984214381725088,11.381991166747602,7.825530022061723,21.051798229364177,-19.756342765978808,28.3330213051007,-9.897834115198314,42.32382614694107,4,S01
2220,0.20897482517153737,2.0165340014581887,11.165806570174933,3.945181179976891,15.156002138749827,-20.083732104285716,28.326603962564576,-12.356983203092526,38.873469297490026,4,S01
2240,0.08718046849912153,2.0508144934530805,11.179762685408766,2.884026642883393,11.66609096495683,-18.91651591907784,29.38860317673156,-13.196083453423268,38.66607600886994,4,S01
2260,-0.09473332223455239,1.8874251267592967,11.096968717449164,-2.8648151524661696,-1.3740741071717177,-10.680400963305184,30.52271973627119,-10.733469480852282,36.64306616322265,4,S01
2280,0.020633054359504313,1.674590216076254,10.542448793916767,-1.117838886199606,-2.4888466520870054,-9.168896331431826,30.147203800596237,-11.332662308660387,36.05611378239571,4,S01
2300,0.06775081573900765,1.249589801143436,10.268273067116688,-9.797548604515038,0.04787494432504147,-14.252177068529788,30.011166619242772,-11.661308501234942,36.35426129694965,4,S01
2320,-0.030721140226200733,1.169076636598412,10.114061782037886,-10.321959000310212,-6.836970918548128,-9.775011123329945,31.74115343898897,-12.13603602471532,35.63125386099382,4,S01
2340,0.22991638116449514,0.9107054497765301,9.892911508922888,-2.2792684872675064,-4.454061134374569,-10.762461555921595,31.610183297176793,-11.964204677854816,33.5219550886354,4,S01
2360,0.04471788385458235,0.5293588323984557,9.6109789849012,-11.468287795541219,-13.52774596454681,-5.267353348687672,31.24587355759761,-13.580857872509947,35.95228295128048,4,S01
2380,-0.12419178054667468,0.603037224001221,9.117012025805476,-11.369543839489321,-18.505106791506584,-2.6867329149741432,30.66599824651903,-13.906362746510187,32.22077456473625,4,S01
2400,-0.20595923814257575,0.29971727334785825,9.11019114174561,-17.827628540163094,-22.947426047873467,0.7126565502740559,30.189843292017375,-12.624412898941804,34.2379091841419,4,S01
2420,-0.2805340545618171,0.34106378979861435,9.048227346509218,-21.60234156498342,-28.26398151986524,-0.9479255192792665,29.918374150100323,-11.92974577245225,33.39647067532288,4,S01
2440,-0.1496531525078218,0.11423073524467103,9.00303420112889,-30.40273889326092,-46.64039869627252,5.716643284676208,29.975353353332586,-14.279974462819535,35.49371092559349,4,S01
2460,-0.5217600211132701,0.1504149219066489,8.948262347195424,-31.970639757571995,-43.979184682391626,10.331519843475935,31.97526906460035,-14.853821048163965,34.34086095156834,4,S01
2480,-0.5469376833101169,0.33497919628401107,8.896640344505231,-33.635964376954675,-55.02741724043569,9.451584913092729,33.2656523068387,-14.685985356195587,32.85243970924831,4,S01
2500,-0.5389401873562484,0.14873798781984846,9.067782606703314,-34.88371735236955,-55.73872918219215,15.077649054962455,33.382944021692545,-14.497004175878136,32.66002232176534,4,S01
2520,-0.6761720541391498,0.40068236956150505,8.897344260771463,-35.45232098915338,-54.668314904834915,12.856435808492439,33.83975051710472,-15.379912340376425,33.744887051524685,4,S01
2540,-0.47121022294862636,0.49350132422920084,9.31360264645462,-24.514316933541643,-48.3264358080611,19.60931484288949,33.11282787279593,-16.898141191027662,33.629016831563575,4,S01
2560,-0.2537274665006495,0.6760245303185477,9.103185244302498,-28.470386634249156,-37.90890961270299,18.374169838646626,32.19995326267157,-16.611920279011628,35.16251295543548,4,S01
2580,-0.04501707822024781,0.794931368424898,9.569104270252161,-23.033421956676847,-23.87974223333623,16.827878220706545,33.3369731449895,-17.84204229603447,37.047453102967374,4,S01
2600,-0.1564007937994598,1.1583708251781932,9.732409788519073,-17.431933190130817,-17.439427581670586,14.989012190016213,31.559905668051385,-16.001323155790455,36.6937496903209,4,S01
2620,0.07679502976080907,1.266024790856058,9.921322169269814,-2.8523119308652642,3.0074901780822616,15.072005180509889,32.58233610342788,-17.33297422046837,37.80842753160777,4,S01
2640,0.2839954573056739,1.6107614501659333,10.216091572395563,3.9159814801802897,10.257053496089608,11.648143952182075,34.32178163809418,-17.269686425066563,39.637766708026646,4,S01
2660,0.3444095455146353,1.8272314120448399,10.409168152056532,7.670636067081442,21.947812095421476,10.35342452839119,32.79524635984946,-19.1267256542078,39.41537676343877,4,S01
2680,0.4213942408198619,2.0120280665284653,10.683059959443842,16.33799835321327,35.96082753217858,13.755828816603888,32.4412713871606,-18.25156077719578,40.03875270895442,4,S01
2700,0.6309067973953748,2.201753503422891,11.057583424218917,17.439215391598378,48.02134805899067,0.8923781175981528,32.52811928474122,-18.86929311662859,40.42625313897532,4,S01
2720,0.4894623206896245,2.451398590592081,11.214254882957531,28.86164834929914,44.07499351524027,7.389984339253657,33.17967413145072,-18.973188400352917,42.11707293848553,4,S01
2740,0.43886043965876886,2.676988446628629,11.283262641064487,26.70925600051311,44.27261713019758,4.101468170115796,34.195796553154,-20.316091129899768,41.083468923231756,4,S01
2760,0.7899868699024948,2.5552694241316285,11.4757479050767,26.427734388163902,46.81988127818442,2.020191203123033,31.118848383074273,-20.302170280293364,38.73046333295754,4,S01
2780,0.7782365243294027,2.5766708366318,11.45071674626758,21.161416060643134,54.3157737728972,-12.743665654954638,32.927254107736786,-20.23718184275625,40.660761475932816,4,S01
2800,0.6248738848516314,2.435464850113523,11.685453372764657,15.275610855452697,40.53305968001591,-7.391121999279692,29.65486023622,-21.188538310364237,39.783413500359956,4,S01
2820,0.4208739598949035,2.592866855506943,11.446491771270763,13.483954164942777,35.805474410259116,-11.187747200413005,32.70937322531001,-20.038973685353717,40.98858299434578,4,S01
2840,0.2010210940566839,2.4279851666427694,11.612975747226582,6.609052332467592,22.98907964956317,-8.890127164935981,32.57293250111029,-22.318376942237023,40.51849596000077,4,S01
2860,0.5135766349246471,2.1753893046238932,11.365568640056445,6.083445607144662,20.602652562599264,-14.39921682323166,30.89096863667878,-20.138550781460353,40.48154340197384,4,S01
2880,0.2546426206000035,2.0746183950808486,11.057171376519515,-2.2095963810632817,14.410737287228013,-18.761340545631974,31.261700093008873,-21.974254825756645,37.983960857215216,4,S01
2900,0.17557003191445206,1.9092999165818119,10.954647531984564,-8.015746513364551,6.190021996393264,-10.823118731496551,31.643401580803264,-21.283472348732765,39.07244570582983,4,S01
2920,0.2511006120912571,1.7016301526638355,10.747838095013464,3.242953466016983,0.4285823801581199,-15.382826681754034,32.43733475355796,-20.912575969586623,37.319709334274314,4,S01
2940,0.03830370221659807,1.4197416070943922,10.507713760139413,-1.1627853636038643,-0.2948117939835371,-9.267075240879757,32.55940172822005,-23.56263242398437,36.85863355767023,4,S01
2960,0.16585425054882172,1.3613080688716885,10.18883443520441,-14.589901631462322,0.7437618161223958,-18.795337721852874,31.829466408497463,-20.694554103151923,35.696914913324875,4,S01
2980,0.06170192513126655,0.9445275009357466,9.989469856218657,-4.114827475226936,-7.323028352256159,-11.525419803104493,30.284854380972465,-22.876486086993186,35.58334045773179,4,S01
3000,0.163753262156216,0.6130169883505368,9.815425321776875,-3.035409417367301,-12.435382822815537,-12.528360804123688,33.45793522757832,-21.997533194987227,33.7510677685178,4,S01
3020,0.08060687016090438,0.6964480881909145,9.312236217464259,-12.705476770878693,-13.608988167683657,-3.463123321123678,31.09431938844461,-24.07614702435976,33.96897296412845,4,S01
3040,0.11803435359205297,0.4953306402638203,9.405673906025216,-14.852820703995565,-24.016663561171626,-8.559862914445803,30.01272404356116,-23.637689618413344,33.701389223355754,4,S01
3060,-0.03368306057252801,0.2368132473780311,9.239598456486537,-13.036891757859692,-26.735443763855077,3.2201989128121533,28.918397301581162,-22.785255001122966,33.97415921097466,4,S01
3080,-0.3434020200394806,0.2723009608113452,9.054944885431116,-22.483674662676123,-32.99526075455176,3.989475159397863,28.243142465879504,-22.574375611805966,33.21625261253155,4,S01
3100,-0.48610246648934397,0.34185317278815536,8.946435570281295,-27.18649828873315,-38.480015179499,6.001037388844635,30.04572785425675,-23.20246501512729,33.21691787289281,4,S01
3120,-0.4642596883533813,0.2319625742253807,8.923391489375987,-34.07378178930413,-48.211304381073276,4.853187748215931,30.232580591798435,-23.304485070470662,33.97055736493739,4,S01
3140,-0.43585773925329585,0.17532518392975027,8.821299150461595,-30.6442445670139,-54.85746753602323,12.962737023427112,27.898526684518846,-24.5609820482402,32.45036829668444,4,S01
3160,-0.5148397093322978,0.4227145244041144,9.119464290990045,-33.175344031066665,-54.83535690354951,17.391341132752828,27.33761263558092,-24.18011793811389,32.99935112759775,4,S01
3180,-0.5763100947690885,0.451772712142315,9.03076299760103,-32.75244557430689,-51.37256556044596,11.978151208809164,31.636189646941205,-24.142742512003203,35.879915942603404,4,S01
3200,-0.2769322851813699,0.617084835795465,9.101311112389011,-32.24548742915361,-47.0106964847988,13.096859068873108,29.235110486389523,-24.837192797133632,32.92156953255692,4,S01
3220,-0.3157375306526382,0.8542605804068559,9.267948333176392,-25.061831112566693,-36.925705845139085,14.37210523261276,29.07217389400086,-24.882247240199455,35.4443942879776,4,S01
3240,-0.3643077688762226,0.9975118047815053,9.535859169960599,-23.90626169527325,-27.491002029719176,18.804959612432125,26.674506863573065,-26.213624333587504,36.698311794061645,4,S01
3260,-0.22140940647257099,1.1489217424092422,9.772201311746015,-10.724675672409713,-17.976516358684727,17.50101484869148,29.099248056416844,-23.528848311210805,35.77649234236693,4,S01
3280,-0.026735776220984914,1.4458914271191112,10.041397460811007,-2.5366927882549857,-2.3449227269960815,18.39819614370696,28.229597677495846,-24.346225581656192,38.04935502190938,4,S01
3300,0.34074136218514894,1.681958482369449,10.202588407643233,4.2545168439631125,14.684173688595264,4.781350747532663,28.523922498519372,-25.521417663937395,37.93575433915547,4,S01
3320,0.5301365558452035,1.9227681556856202,10.685210345822359,12.971291253816162,20.70104685195574,10.524234288268202,27.7938302249916,-24.039514299014243,38.16004372776509,4,S01
3340,0.5988723452611846,1.9867385786503322,10.642193013885013,16.38065440955333,36.52899357072223,10.76287992822626,26.375964201322358,-21.084435808527807,39.52671994713937,4,S01
3360,0.7046652605492169,2.007375476499514,10.90960977234029,24.078941449675344,47.467348554888844,12.87122065375195,27.61285387485223,-21.880810890121285,40.59821881897855,4,S01
3380,0.5949672739221861,2.5073714502935074,11.35499602861655,27.61323129792003,47.68277355970602,8.75083664019666,25.662300289049803,-23.579564668197374,40.28541169722591,4,S01
3400,0.6234793719304228,2.3908241048877334,11.462749875121,32.65912739333245,54.13244944708629,-2.1114306462458425,27.625536618612227,-21.636524291056574,40.17183967387307,4,S01
3420,0.6107220836770946,2.4944347729809273,11.442049675191416,21.70261386525827,51.40719727000963,2.794750622942892,26.13298500819789,-21.76993963492677,39.88947003133252,4,S01
3440,0.5598159976833855,2.6535915616369112,11.662748060378911,23.580052088448284,42.31618349089575,-3.2323794771721626,25.75410930720448,-21.450470585614084,41.91843112663601,4,S01
3460,0.6569712943695047,2.5089903572815713,11.52662282076701,18.180098290076337,38.01744208572958,-1.7487286031660356,26.020694790536663,-22.125733175504415,40.2737264171982,4,S01
3480,0.32701600463688796,2.6305307240186715,11.461580268865527,9.498100037742805,23.091507489618177,-11.710350774431213,25.820557277610014,-22.16445370811749,40.07473925525468,4,S01
3500,0.2718844595561434,2.483065322149355,11.51041302280126,6.012866150790059,18.486145485972546,-8.657892393040989,26.7136286887488,-21.134640736793173,39.36641292308339,4,S01
3520,0.5811095098947769,2.2671464614925827,11.262278290221628,5.816519158769828,15.143516668944887,-14.587661065804424,26.722104587656467,-20.47024923800294,38.34498292493445,4,S01
3540,0.1908635744515459,2.200619146465564,11.055965251407896,-5.63527402657532,11.55233574989339,-14.483951651369349,26.041939237653345,-20.18254230797633,39.01025288810995,4,S01
3560,0.17005233766279115,1.9030832405822324,10.954717542868925,-2.0567683582931267,4.196486903141964,-18.591997739638536,26.050168349343107,-20.402283068767574,37.45776360209845,4,S01
3580,0.12505090099381286,1.6653698236364518,10.654003889484596,-4.663136052372592,-1.8958472049692332,-15.212636765834212,24.740616336855737,-21.56602883856965,36.459524645489,4,S01
3600,0.20872471998889705,1.4670064787557084,10.474669954212922,-6.583365971130003,-0.4876151956747512,-9.504078310386062,23.761447889216235,-19.446453237114817,37.77974818782916,4,S01
3620,0.09553638528614443,1.3447239296963087,10.268729455487206,-2.081958585671373,-1.566643667066732,-16.528069874405688,24.38032158274676,-18.37588382242182,36.93905885049233,4,S01
3640,0.059508968200412383,1.0198778564855777,9.913830468464791,-6.928433912187952,-6.501894969402504,-9.923713283692363,23.21001537374213,-18.564600217495368,35.73477908440273,4,S01
3660,-0.04110216745623976,0.6885364038077832,9.775105696152943,-9.44321237620444,-8.614655820544966,-12.3294543531018,25.398998802380767,-18.70380663993801,35.753615893954674,4,S01
3680,-0.09713118355956085,0.6718035423273583,9.408358955019581,-13.346313716014674,-19.998826519027315,-5.42765371501988,24.012769649954443,-18.339398881945257,33.74435436574258,4,S01
3700,-0.16280456093778087,0.40878273181271174,9.130130285600343,-11.896562961335814,-25.51989999306264,-0.7345207203895062,24.764378707882884,-18.47755898320584,34.24968857047004,4,S01
3720,-0.21652098629670805,0.26808530147197557,9.192911034689738,-20.25121003973325,-24.88144406213566,-5.605371325529872,25.91788985967193,-17.722798911860437,35.82996922761346,4,S01
3740,-0.1599780715397953,0.2509297982602423,8.799960151453243,-18.665183462173587,-33.371750696816804,6.422996446595158,24.715268312298477,-17.070921198395038,33.41325979321415,4,S01
3760,-0.3549345112811585,0.04930939755021252,8.979995349110908,-29.91837560217466,-44.05188939662415,4.599411289559789,25.295950195314777,-16.547657492017024,34.30321099087007,4,S01
3780,-0.3481236628175217,0.31091766159578416,9.131918844022064,-24.53194687096315,-53.147614786567274,4.93828287784838,24.66072706961552,-15.934118493989237,33.19626138403313,4,S01
3800,-0.5921628483743288,0.23816203583647932,8.820786399507876,-35.57321488491358,-52.13728472871734,11.045351728689088,25.539586067403555,-17.22340949994493,33.939503399599104,4,S01
3820,-0.7316076836062405,0.3184170020017466,9.044045180460078,-32.521419095199256,-51.570635027336195,14.519675544546491,25.186293627070192,-16.85079506077656,34.81150410824977,4,S01
3840,-0.6547039818279422,0.30832033726376123,8.937073230757372,-32.61138265068204,-51.158755320519106,14.703511336590436,26.554676752401708,-18.91701128607693,35.36740439107035,4,S01
3860,-0.3915279761954865,0.6758515638425802,9.337226728569165,-30.4949685522249,-47.67904278646598,14.104107371027542,24.987679820930232,-13.223433683524874,36.236472803929296,4,S01
3880,-0.1919197924136534,0.8710367551080278,9.382336279957942,-29.891252843023334,-33.58168553470535,14.147586444950194,25.50431061542431,-16.103691608610575,37.708436866734154,4,S01
3900,-0.24904565673030218,1.0924437022374458,9.419051045833898,-21.07023974521704,-29.936869393047647,15.49312099187868,25.30671961446867,-15.876579575757944,37.617508639707765,4,S01
3920,-0.02340709351283049,1.1176356861471874,9.65503263777981,-11.701506572382637,-5.753490782666524,11.963686793782204,26.265063342433457,-13.566791145926906,38.12819816004908,4,S01
3940,0.14226035082068486,1.3937083735406315,10.008013082940943,2.640390406095304,2.5592894272629403,17.455747672540866,25.12688492741931,-16.242133714607462,39.64126495801469,4,S01
3960,0.2326937163035592,1.6916377226393198,10.304628981562017,5.93419738898088,17.429694911690763,15.382383447038235,24.80190232734356,-14.46608169056828,38.70791295770478,4,S01
3980,0.4215225035118222,1.7515172198896796,10.799935115553625,14.306854361409325,28.657573666496692,12.993335775812282,26.645919912304528,-12.741364858038512,39.49534299612692,4,S01
4000,0.5934023823258042,2.153712117742271,10.66100580698358,21.036770511002654,41.60310753455539,5.226445853270385,27.275530752016287,-13.718001425144415,40.0110299708488,4,S01
4020,0.3235359676620168,2.261666639527244,11.125886996601666,21.102080262848588,51.04804463638432,9.680556970821497,27.641916154055824,-11.159826708643266,41.88494115770346,4,S01
4040,0.7625589914321779,2.4376049117844114,11.297186724385973,26.345089766612663,47.47128635280979,4.576854197658005,25.212908261893375,-12.852414278342227,40.485986049484914,4,S01
4060,0.7885367487687376,2.522037327005162,11.513541425753816,25.53467482856656,50.61272409394347,-3.103571487804981,26.72948928411421,-13.773279602853526,41.9014065623293,4,S01
4080,0.5701344483729638,2.5524624928704855,11.611511556044587,21.986116196722218,42.5914802301237,-4.236841296662744,27.32471947491799,-12.8557874130824,40.613330988191635,4,S01
4100,0.5211010786421914,2.617563607797841,11.548609126003631,10.824030520461296,43.16631148531345,-2.479407471060734,26.36528697409484,-11.158496149404948,40.670969672470505,4,S01
4120,0.5606589161092299,2.529210962518085,11.547076362092366,15.70898506252301,37.66984223197173,-5.921213497189056,26.14681338155748,-12.078710256055437,40.31614080168282,4,S01
4140,0.33235948245578506,2.39630543447893,11.245112580616032,7.878384645504407,34.12234899697907,-16.127844685609542,26.94571434702227,-10.874000209762556,40.30855377836722,4,S01
4160,0.32600694331852903,2.3158138782926834,11.339051227966596,6.151087221807583,27.54102878449181,-11.8481208983789,27.5972460872265,-9.312214578705936,40.92871295827298,4,S01
4180,0.25803703531457717,2.328441338953648,11.256540599901992,1.7642430197550238,13.126805632371225,-16.51165038579238,27.163225842708588,-11.49440795938399,40.30614270809848,4,S01
4200,0.17564092178378682,2.0562402971521485,11.221054334179994,-3.5137309845353295,3.610307207812361,-16.83896221465809,28.41941278850898,-9.880399989418471,38.13304564760983,4,S01
4220,0.14475314657933222,1.8913219746465284,10.738384049371577,-2.8945875007923805,6.224832603894363,-19.19255947480519,27.293952493590293,-12.688748198073988,39.10965590973492,4,S01
4240,0.1265160272155295,1.6694678116353923,10.669924099800584,-1.1209037091219396,2.9624182734794253,-6.534778956409212,29.3427984571033,-11.699082062509188,38.83121567853917,4,S01
4260,0.08069051638088247,1.5472187487266391,10.418320006923755,-9.998308065876941,-0.9196811130300551,-7.809164245321773,27.257422413126402,-9.631806507083931,38.43903791402224,4,S01
4280,0.09921859254235506,1.266232530959394,9.993505296284003,-4.1309760820458035,-1.2506718711411946,-14.753982713662504,28.250252717249293,-9.537107901328513,35.73280616050429,4,S01
4300,0.056788334283304535,0.8486641969083151,9.85990615052918,-9.374981111161594,-10.920833397184118,-11.70724346171597,28.95385834034201,-11.334574877854903,35.70547676848217,4,S01
4320,0.03587831668353708,0.7226410011423485,9.536708171143726,-9.292208098838689,-8.32856503237519,-10.836843498616275,29.779298137535108,-11.390482178819163,34.87010142777142,4,S01
4340,0.04575471081025596,0.5052915235763094,9.567176840727171,-8.367193499939745,-18.578444730260074,-6.301594198440258,29.16898005742636,-11.51219544620113,34.741416682767905,4,S01
4360,-0.02545407540941136,0.37936410812848803,9.364027065331666,-15.947518791327266,-27.024517710490418,-8.33808856947294,29.019788981944718,-12.513202755569836,34.50980785085014,4,S01
4380,-0.27391041421562856,0.2988288517903052,9.086755481776569,-26.957453512380464,-29.45912886862509,4.616097726086885,28.408049621984073,-12.203363593104479,32.78715766729586,4,S01
4400,-0.19350458349117491,0.285808824207731,9.007074944543954,-25.870178778206963,-39.28896392923147,0.37783750020294204,31.352252377809172,-13.666716526750843,34.4128278357404,4,S01
4420,-0.340770658665846,0.18086952347670243,9.004191450224464,-25.98910613768487,-43.88635941129873,-1.780146823301719,31.43222456841774,-13.42124986188219,33.10049833512187,4,S01
4440,-0.4688256146637225,0.2257786082240571,8.943541732212703,-33.43066427700724,-47.08317641016291,11.591853952032876,29.575835406266155,-11.715773025584935,35.14979764671217,4,S01
4460,-0.4584856742917527,0.1935843400354536,8.911486977939752,-32.645077016802766,-55.335076331580076,14.249612256196786,30.150564749056638,-12.280230300104787,33.37435379840329,4,S01
4480,-0.42029474141800494,0.19586693584460363,8.906217642526451,-37.04329319717195,-49.580470395499546,6.760615670059807,30.72769417498336,-11.807853709690976,35.395464513014204,4,S01
4500,-0.6815299015410837,0.3868554107743813,9.147033134539516,-34.16007847014637,-52.10658139585302,16.808835245900447,31.37272572051965,-14.028899696167821,34.650976020140725,4,S01
4520,-0.3231201084561358,0.7445908302330113,9.079385059554014,-33.30109121161213,-44.59126843804246,14.58217604573932,30.39749399376805,-13.93315612855765,35.548491031934276,4,S01
4540,-0.2926440781625296,0.9020477136724172,9.428908408018955,-21.5251576984487,-29.518128356364254,18.505584419946995,31.724873489834817,-11.87339764630633,36.567776419509514,4,S01
4560,-0.1868852592166587,1.0543178019662878,9.629934268347576,-14.785503892099996,-28.402221396157067,12.960373250797188,31.836216776324374,-14.16741524466579,36.598898166646556,4,S01
4580,-0.12529611078926173,1.2095852491979842,9.908284873541266,-3.493135952840409,-11.516522489269931,16.627236088157428,32.22580752450695,-12.918589448070549,38.29567342140426,4,S01
4600,0.19885811526527578,1.4310665233699713,10.073480192689797,-1.4380293095234382,2.404804091893358,14.21933659315908,30.274200921460775,-11.92335801499484,37.86038869363273,4,S01
4620,0.2596672203333541,1.6231888726756218,10.397396606212219,15.76424690696258,11.549664027023317,6.222824101140346,31.36545263523697,-13.29260436040531,38.992510429312986,4,S01
4640,0.477641059659363,1.7336052911867967,10.547653877023869,12.765720759029609,29.643343000500455,7.626423290002425,32.834139911561856,-15.528635449248062,39.74009058561195,4,S01
4660,0.6189196616345755,2.1830154492240235,11.036040716802706,20.19256196472596,44.01894892827293,7.679589639733498,31.896033679882663,-14.476834661145652,39.888781445076575,4,S01
4680,0.628241746360049,2.436349420036876,11.031891650641755,26.69838679585222,41.53069015304119,7.650550112359767,32.26678463253036,-15.298217706895963,38.37283679266069,4,S01
4700,0.9419006627897413,2.500612400136136,11.24145106562594,25.686908083005438,50.23008795553191,4.303035848206845,31.2240950050238,-14.795035849206286,39.57506620261763,4,S01
4720,0.7380400355679422,2.4276739373412,11.444028412070896,21.713253161907954,51.900937962203145,-8.305255414285643,33.88421582641823,-16.481110234257425,39.793867676512335,4,S01
4740,0.43978383253089026,2.56487920490947,11.648735507955863,25.4939500074254,46.77433674880991,-2.03572890212132,31.87216023176622,-17.559072958953507,39.35732504197623,4,S01
4760,0.5289593433288691,2.5890662812789684,11.591322247439479,24.543028113278208,43.7694665276019,2.3123960971209834,32.23529240093998,-13.808968523378299,41.29818405594953,4,S01
4780,0.39272029221582316,2.6589810621444325,11.531535450496591,16.750140482276585,31.3123603244383,-10.499257850282598,31.711181830634978,-17.322698921898905,39.83698493716444,4,S01
4800,0.4089655322074919,2.455303225901027,11.477477598203748,11.357376690473853,26.14024539792562,-6.3192251614081565,33.444784597721814,-15.955444985637723,40.5500366926032,4,S01
4820,0.4966479580264701,2.436797546472825,11.355526878307892,10.193728946921048,18.570102800189733,-11.361098066020126,32.80188791635743,-17.029683416440175,41.11120571796713,4,S01
4840,0.34967220500198926,2.3177322369295736,11.298407332825015,2.4032601197750765,15.483411088273488,-13.111807222625925,32.95515736542489,-18.69298713283729,39.06838724596022,4,S01
4860,-0.039458164647987876,1.9049353844734846,11.159468410137011,1.5257197526699153,19.494333806552422,-11.902520599149002,33.54797281381873,-18.697154507466657,39.34576634363698,4,S01
4880,-0.014327994439820357,1.755933716789164,10.835950036485945,-0.7503191340071012,6.151833875894841,-20.122882839072382,33.70100356754432,-17.018291185294423,37.19994748882114,4,S01
4900,0.0496789690492819,1.5252261886628407,10.631221613717063,-0.5443823989866385,0.4273926097439604,-13.743626979394014,34.16587751454382,-18.347479709834406,37.25167444839895,4,S01
4920,0.11166347818096338,1.2264568023636253,10.361615365429076,-3.6936266138545117,-1.81563581112203,-9.468277622221002,33.81622502132994,-19.545539142138942,35.803698299727884,4,S01
4940,0.1196026003508662,1.2137169269505435,9.962498588135206,-7.63859720673066,-5.252509115232288,-12.917938215133516,32.438899526639574,-20.400362091065904,35.30839680556208,4,S01
4960,-0.08641120110408679,1.1536202980324974,9.75558431058169,-9.41617117776104,-10.494868711119638,-10.273307722191971,31.649907025639273,-21.01557195260089,33.54147038953842,4,S01
4980,-0.037291914792993264,0.7783606190747041,9.465560785491427,-7.649771511474531,-9.077395487118977,-7.506804711928778,33.16809095645044,-20.820069711378768,35.26597561063806,4,S01
5000,0.10923858544054858,0.51641031675982,9.284872017759506,-8.611838730622484,-21.23131669166656,-3.146048076369938,32.6807256401695,-21.0773739900169,32.47624612647559,4,S01
5020,-0.288886563595836,0.32452946628366075,9.220457947794577,-14.049287550099258,-25.653073375986924,-7.052751152140695,33.751494126352576,-21.686125417651013,33.143981841268,4,S01
5040,-0.271433368349454,0.1244914974332246,9.27858071504701,-20.664254743243394,-32.78430454170446,4.441457851879667,31.686503937646055,-20.618941573644573,35.473238438977276,4,S01
5060,-0.20843219755603257,0.31041882192582426,8.997186746582232,-25.52673675099093,-44.54464241807023,2.3013464605238094,31.988491636927197,-23.618078089861896,34.56015621415003,4,S01
5080,-0.5382200987575931,0.05421595387685131,9.068832761698486,-28.87740238453702,-47.1527438241173,1.1816154509354733,30.874921476646534,-23.19227596044237,33.83101600173741,4,S01
5100,-0.5085638974569658,0.42922025284641857,8.993438482341121,-35.74177359995296,-48.28178535508703,6.679089456410635,31.74206170524721,-20.74040128141651,33.0368736446692,4,S01
5120,-0.6714557361667474,0.31627390368051306,8.874506160928515,-34.112535363486515,-52.32233799823603,7.737776613128882,30.220206091839565,-21.779302704921562,33.45867661075193,4,S01
5140,-0.5529123335664946,0.4428875855908843,9.069058076673796,-36.807060534002446,-55.72935125389834,13.34543396044744,32.100253761727515,-23.974425452768266,33.41158146544929,4,S01
5160,-0.36536332662863524,0.6169472360881258,9.247881232013333,-34.504283829342036,-46.03668573098761,12.821530852771648,30.940577443574508,-22.276750295320856,36.3900211203081,4,S01
5180,-0.4539257487452012,0.8725037421951498,9.298280205575153,-32.46815652435953,-46.439409494106826,12.846083738575901,30.745327650605635,-22.953969705685857,35.78778394929016,4,S01
5200,-0.19262972088190275,0.9972128542429601,9.47765832789181,-21.383889945984404,-32.47192902091586,8.165528685666246,30.840076434589765,-22.99966283267696,37.50976595793952,4,S01
5220,-0.024981757440556848,1.1837806186939916,9.741173561915996,-12.268124037550933,-24.418867694936964,8.414606048074344,30.491598106230715,-25.681281665201528,38.911443756170044,4,S01
5240,-0.05109035268650558,1.447667552717141,9.882736133065803,-6.51274593709895,-9.295734034234975,12.873966362881939,31.33058727823197,-23.666684528722858,39.97804609007585,4,S01
5260,0.21292665471401084,1.5362980998109228,10.242738234246158,7.938143721134089,14.151452752718829,13.88520648013238,31.00044823536848,-25.9526291706623,39.14635895897795,4,S01
5280,0.2442957758626448,1.7919823568474231,10.449165488829285,16.734955849486848,19.01499155261422,8.902251130129272,29.218496976930346,-23.186728384022192,38.2210240283318,4,S01
5300,0.39752686559717487,1.8654878239511754,10.732110346195176,15.393344913015405,36.662502682633345,1.3497229092979013,29.546614337048737,-22.96263644799035,39.781822207027666,4,S01
5320,0.6523828554446427,2.094299168620115,10.745280636596897,21.605607996050242,41.71939368617091,14.542948663650733,31.138968188958145,-23.97649240460275,39.648284556676316,4,S01
5340,0.4713829696653896,2.443516988177719,11.344336979423616,21.789798913334042,49.727676238721536,5.92499020540562,28.70447917457694,-21.74534338393918,39.487304469130514,4,S01
5360,0.8235079927917524,2.3441246195572467,11.297575685423064,32.168145499520776,43.78281640562982,0.7532562075430776,29.279551680693753,-24.243933093726476,40.92068627041839,4,S01
5380,0.8598283169529934,2.3982711670894976,11.458170523467471,22.49124573177816,56.03434545573167,-5.367752860681916,29.67963289257893,-25.042581346029323,41.078205909032825,4,S01
5400,0.607674080751775,2.378576241880776,11.700430783070328,24.922171754863264,44.30544843015564,-8.489629872558732,29.610887969806587,-24.32651455316037,40.68825754500059,4,S01
5420,0.43785599619990023,2.5544685645695537,11.566293173399039,24.66683216177345,34.28495880591991,-5.356286557479876,29.59231836942604,-23.837722370371665,40.58998546375477,4,S01
5440,0.33365459583666723,2.4162189086560484,11.530904801945223,14.378372695846295,29.27042063170997,-6.352475693699488,28.208742849048644,-23.327880805052065,39.15343733499199,4,S01
5460,0.41053468413270444,2.643895482471139,11.398091314398023,14.984081766300537,21.721739500594865,-8.242382207584214,27.011402088060574,-22.16787354070724,40.134962439991924,4,S01
5480,0.3200310808452863,2.5688266779924964,11.380019080849795,3.4269349521931094,18.166494994288975,-12.160371177240128,27.562468172154414,-24.666608621931207,39.33100251369897,4,S01
5500,0.2789117603399329,2.223890994150664,11.185054959336073,-3.2491409588108633,9.116957294635338,-17.960106601606046,27.470016794800845,-23.44499144590997,40.61034051541925,4,S01
5520,0.31622137393413374,2.062659977819171,10.964786286010114,-5.286399262612002,12.009036298633218,-11.469371062729147,27.50581960250129,-25.51648195756271,37.02274634265204,4,S01
5540,0.07639150217670207,1.936651843052285,10.86011596827902,-0.8318086126005477,1.1475814629928236,-15.124488007755625,26.058596229750528,-23.637128755090696,36.58506550568536,4,S01
5560,0.015752442742647366,1.523948006342091,10.451638565941195,-3.9739454535237257,1.2739766679862632,-17.73326375645009,26.806674812433556,-21.646080141956382,36.836304381776365,4,S01
5580,0.15671703747169136,1.321411446129478,10.412122270966135,-11.994081585867914,-8.071973020228723,-19.964290316684245,26.87999367308328,-22.933477805200376,34.99677853412153,4,S01
5600,0.1098032353699697,1.1731762483123644,10.087969784971044,-3.40529775973339,-5.416926231675451,-10.705813256909225,26.072815511108363,-23.074318370753446,34.408925780000395,4,S01
5620,0.02987277838946642,0.9846667689747466,9.83197063211304,-10.692492933943447,-7.635892574592398,-12.620946878149311,25.879488420070203,-23.31094420384608,33.98222571740795,4,S01
5640,-0.03563851111318497,0.554017884418434,9.678435521371199,-9.091887589434988,-8.805950092424336,-5.106862319287243,27.59173149210728,-23.31486478455595,36.495560770000644,4,S01
5660,-0.007511999299010447,0.5761370481548578,9.638914643188018,-14.604142610851937,-22.052860422233582,-0.24747177518837804,25.059502551843018,-21.29200720920175,34.018310763271714,4,S01
5680,-0.13194645063167984,0.1157718986042803,9.211750752022644,-17.961380364475133,-27.882947641126528,-3.1687675656765504,24.874836557364674,-20.367297166697494,34.01109694954682,4,S01
5700,-0.18988067156374785,0.3528375948789796,8.982330444228849,-23.295194232542254,-35.751135689117035,6.086341158555106,24.617515672103956,-20.948605842974214,33.357747621741424,4,S01
5720,-0.3279582810663475,0.13265492945763027,8.975630568037152,-25.38226030663778,-36.359228621528196,6.965038608616618,24.842051661986403,-21.07302531517289,32.81525767544767,4,S01
5740,-0.3877353950905714,0.2456943786221682,8.811661414351303,-28.860496750529034,-45.306048943388745,2.1902810396217114,26.679720278446204,-19.56520606990341,33.33549325780503,4,S01
5760,-0.5081088510454841,0.24040370666919475,8.960864750797338,-35.25966848219657,-49.74605919411184,7.2858750376269,26.55265615761143,-20.804176575526224,35.65883823540415,4,S01
5780,-0.5943937274497073,0.16655831975193225,9.008407418270265,-35.03162805868198,-56.82318509647129,5.983833981861018,26.88115866365099,-22.26679463768228,33.53019433280717,4,S01
5800,-0.39943619930181995,0.48258267588255127,9.157211724600561,-41.1209233992727,-54.80798239739107,16.290150128754536,25.48807942528766,-20.209173088804302,34.00443629256347,4,S01
5820,-0.5170889570510122,0.5688129972836371,9.20374615505268,-30.355904023081983,-43.2677375122733,13.601323648326328,24.72159733801898,-21.23817251144518,34.797906841042405,4,S01
5840,-0.411471150989415,0.6948439880489914,9.279137114726487,-31.900162343037966,-41.30348189617725,19.62754249451796,24.644727318563667,-19.143699192136786,34.39360737626236,4,S01
5860,-0.3542586287854613,0.9998424608496408,9.512220788542162,-22.235884162431294,-27.021676334010298,18.23614214259871,24.373887426998785,-18.34257675802013,36.498014372097835,4,S01
5880,-0.0852613212672094,1.0931518536702396,9.614715021208115,-12.142102086411047,-15.202348965377801,18.071420838540874,25.19375862506078,-18.096332057492212,35.36203572110378,4,S01
5900,0.11527499551338485,1.3039524764506647,9.79717062823654,-9.83003196939314,-0.0994922717192932,9.27982191550574,25.153577086048195,-18.462805517582176,39.895061152043596,4,S01
5920,0.38804365910440797,1.4792844414247301,10.548854403012115,3.0538268082177895,12.28626972835552,13.100490269111745,25.38635059697572,-17.79849615792528,38.02217020856904,4,S01
5940,0.41379538288398665,1.6440666781083912,10.469596128498175,17.617625691895643,23.899810161281565,14.666819792271143,24.945767831002357,-16.877671795203383,40.56830839631057,4,S01
5960,0.5092059998886413,1.9076810120484151,10.751066000726276,13.53779242887411,41.257802408646796,9.602162300265844,24.56669310269486,-16.31943202804285,39.700279657488444,4,S01
5980,0.7653708159669191,2.050561389547946,10.936210080966093,24.42345729270825,40.01958498778294,10.573740056801796,25.411669147089075,-18.069440825698326,39.86358523284405,4,S01
6000,0.6492387471701303,2.2710729323195964,11.301506668644382,22.579505030923276,50.174541515965146,2.767792011375041,26.79525953337299,-16.335178541534717,39.28206856781445,4,S01
6020,0.7457924666728976,2.416823888926721,11.243963985551206,26.32155589245982,48.24883709861579,10.113073358016202,25.13541712870721,-19.267812359190813,40.38895120256818,4,S01
6040,0.8818445736561871,2.4817794969177407,11.596502523192822,21.52813547770396,51.76061964101543,-2.104357042998722,25.943188040193515,-15.043993749673096,41.40875048484568,4,S01
6060,0.630916623971043,2.442782650595167,11.4637682891373,20.889617455357044,39.24627079581465,-5.357043800536233,25.021039989101286,-16.841476697528,41.9514071380467,4,S01
6080,0.5127029706727627,2.577778253672919,11.549567359300504,15.840941916034371,41.467388638716535,-6.082727654442557,25.11798636495604,-15.745021973951456,40.919365313510596,4,S01
6100,0.4256804712975929,2.481719046592403,11.624914741100962,4.697382746735326,32.35029306716383,-10.261658789587006,25.791141368682105,-13.991557487056783,41.55681415998046,4,S01
6120,0.6397781138161323,2.3659779848588225,11.449318564246616,7.221190593431575,26.83432498920265,-19.295531775012076,24.632524219219533,-14.483532463383009,41.4004028842376,4,S01
6140,0.19941834357617497,2.205282964711444,11.41116943439709,1.0413779632919224,16.65976946384695,-8.541525308750332,24.9741488807282,-15.495748029933992,40.69555681003853,4,S01
6160,0.10770325660641962,2.192183732993664,11.221487452353214,1.9148754139087893,12.6950037039022,-15.855918170743669,27.118001900041335,-13.601023319233912,39.29258031838172,4,S01
6180,0.0913452139799761,1.8678181982168574,10.92753809340823,-2.529058490476501,6.908362222402718,-11.854028681827433,24.061945831513718,-12.461277574960683,36.839550932137726,4,S01
6200,0.139085030174817,1.7977802268110619,10.864885432965117,0.06800134605783814,3.3706487979193227,-18.270155388664225,25.141140511303163,-14.507791499049603,37.52849982045679,4,S01
6220,0.09638978136008025,1.5128167138510729,10.55949928336233,-7.180195334138092,-4.336432297116663,-16.393132697591504,25.72901547018686,-13.195788219493293,36.15888147443578,4,S01
6240,0.06738279128026259,1.230517436632217,10.298733506298456,0.2257725400826649,-3.422868480153384,-7.801024364945027,27.766546276375696,-12.73670297832334,35.08021775610295,4,S01
6260,0.09847381498188504,0.9773274960310774,9.920185267089533,-7.098073286581476,-6.765084754061167,-14.06662056510446,26.69776868775885,-10.998120130428365,35.125158187221395,4,S01
6280,-0.028481176362622762,1.0221251647033605,9.806856545929682,-0.6473551311565418,-8.956118990211635,-9.028561813143252,26.92913070264378,-12.873173038274015,34.95248756711888,4,S01
6300,-0.01815045437438742,0.7066903763991053,9.414951549733868,-1.984455280502261,-10.320762238339645,-5.695341317488875,27.311334466170493,-11.90605362139545,34.32443263232621,4,S01
6320,-0.1291190988275853,0.2151732314127059,9.287664837611244,-17.124238848122786,-20.4425794393929,-0.4929049581090218,28.259777148541303,-11.432398366614422,33.90325086365063,4,S01
6340,-0.0020335501306378567,0.33974932129792385,9.242030425578417,-18.57856555728135,-28.590550618358332,-0.5637640256638471,27.7218143431342,-12.78530285489284,32.56170699980677,4,S01
6360,-0.1864149841827127,0.37065737267781784,9.189585969971109,-24.20767759423523,-31.244196717736067,4.534522549442191,27.771791885144843,-12.141376487199615,31.90933274826101,4,S01
6380,-0.34073972969190314,0.03848408816285387,8.861050498395544,-27.685963460732207,-38.76221153096467,9.328936321674261,27.844981054604386,-9.396290590016367,33.29992882366898,4,S01
6400,-0.6154200242796987,0.05439144482511456,8.777059309521393,-35.254603677790335,-42.73402032936605,10.749887658142029,28.037098938062407,-11.621116309697559,33.22305794200315,4,S01
6420,-0.4562420848670622,0.2722941356303634,8.976278506066333,-31.673929851557194,-53.97179595370264,6.722617932072874,27.455179781821617,-12.53545396873135,34.891852723896065,4,S01
6440,-0.4691442257045946,0.23917872711171817,8.842379161751998,-30.79860612708169,-57.63437685585734,12.035659211562486,27.70997954445031,-11.280511923118294,35.12111487090123,4,S01
6460,-0.5752896226041845,0.3715198276125575,9.11371387630712,-35.90371972383215,-52.709826608713,13.264665865030723,28.737981815623897,-9.280804599474171,32.75298517389648,4,S01
6480,-0.35963308928041127,0.4797997713785194,9.33583142661195,-34.85928470172262,-51.0589079303816,13.076023778361378,29.23586108664765,-11.658387370924926,34.038128048248765,4,S01
6500,-0.4537659668708929,0.8849636424445966,9.458663833380808,-21.9332631859008,-37.951908840192225,16.60052087456103,29.01327435747051,-11.145827225992566,37.15416677269738,4,S01
6520,-0.29744753027937365,1.0293251905121936,9.540553193900928,-23.43770395588453,-30.978505893220824,15.624241579919344,29.43545466184689,-11.191411976793928,36.35073531182224,4,S01
6540,-0.10088473549107832,1.163563794776455,9.841581435745864,-10.674875092290211,-15.823111157864881,14.277966856894292,30.550018192663362,-9.794008700407018,37.33194289111863,4,S01
6560,0.10881049258398152,1.3651917344042261,10.157445363045442,0.9825423967298477,8.1941986710644,14.03317529437648,30.571020111940907,-10.759019530986013,36.71043862363676,4,S01
6580,0.24254085072487966,1.7301015745605888,10.225827711431542,1.46458568538156,10.285869571691052,14.378506353154151,30.54495024429748,-12.44412300532571,39.67317471823198,4,S01
6600,0.4988773703318753,1.8288620791274044,10.457610865094205,14.10046710124059,26.410433840758476,5.944149412381354,29.23218567082137,-11.016369073814232,37.58288614901886,4,S01
6620,0.5952151854977651,1.9534473114370703,10.746860872384305,17.40822773785973,35.59573368730171,12.638708360678814,30.284688576412087,-10.868431188153068,40.049433874166766,4,S01
6640,0.5398308678032722,2.3270124079594776,10.898730892784782,25.283423039654142,51.592528539616715,5.451456323077437,31.087727665005037,-12.425279253452295,39.89975624855153,4,S01
6660,0.573308257993264,2.4539032032613983,11.36845719092204,17.809624872465466,49.678966808633945,2.595413840084329,32.40914050403232,-12.879762448771222,41.68226990037621,4,S01
6680,0.5167687250316683,2.4009735569157242,11.269231157945358,19.395499157929674,45.80907022555792,0.040213190684436295,29.302324277246697,-13.303344001985977,41.33500901654275,4,S01
6700,0.7092701973760333,2.5165855551558707,11.360838220590173,25.696412384882276,50.9172353061008,-2.8598356032634693,31.641021580546774,-11.32683070117346,42.252119720922664,4,S01
6720,0.6233731859607216,2.5131158182116096,11.311935240907921,16.231432063624236,39.81347118292124,-9.64234177156087,32.87763278648844,-13.411245924552675,38.92919035678246,4,S01
6740,0.7204424089241094,2.5428529257269363,11.534001705379954,12.213113312689746,40.9736306114503,-8.78624934534368,31.19933684544585,-11.268758273190828,41.741136229998794,4,S01
6760,0.3385089737889146,2.45925902390888,11.731527560399654,10.103338722400444,27.242299480767816,-13.06628746563775,32.367875481626484,-12.949999327103802,40.026562233290605,4,S01
6780,0.6206916015773581,2.372132997088944,11.38182800269709,12.959418354140634,26.270189737795263,-13.929799018199553,31.411531691238373,-13.133006413606026,39.514973080621,4,S01
6800,0.29352030866067874,2.275479503754988,11.49776330709817,1.7410853818768262,21.94326035812554,-16.601158599319277,32.15237019685302,-15.14640520525962,39.73882187656713,4,S01
6820,0.20421555581862083,2.1653581148136096,10.93010574155076,-3.4361939680015725,8.502974640932855,-14.601761922619174,32.369637166278814,-14.43843949522392,37.37350638244226,4,S01
6840,0.06404159975610452,1.8877910746693058,10.875684558869764,1.2497300903578266,6.6284756447704005,-16.732768208759055,32.629629025965464,-14.271377046309958,36.750519200223415,4,S01
6860,0.03760308983537022,1.630469507874016,10.636673976966918,-1.063378081372524,4.65114580789761,-18.759229949857556,32.36076007708718,-15.469911266228634,37.48350039243659,4,S01
6880,0.04256259714325887,1.4294600635147325,10.447552728385865,-4.805198745487227,1.4998387855628275,-8.294914458433803,30.456521521147348,-15.716460611113797,36.835391528896544,4,S01
6900,0.07437593541471223,1.3128798241989876,10.182884291883532,-11.378193215679062,-1.3323204782961307,-13.142701738558685,31.149450370972744,-15.76006027667064,37.87385817405498,4,S01
6920,0.3471488018187954,1.1263483182481862,9.75282837517637,-0.7121073975953198,-7.706039277128931,-5.136693656158408,32.53347374182535,-16.48045967697291,33.718767094404114,4,S01
6940,-0.052282274868797995,0.7745126036702514,9.589962203841733,0.5080101067412786,-12.408445235462445,-9.293559495109513,33.20754510799554,-16.280454016092683,34.19869874132917,4,S01
6960,0.11734209023449862,0.47430999143261915,9.312680412789058,-8.78193427045343,-18.416868862219307,-2.8625881846088714,33.62415777908778,-16.941566462165266,33.99287679481962,4,S01
6980,-0.09831119468946761,0.516872767666724,9.29911174112018,-18.244991446488775,-24.562557864877522,-10.69327126882786,33.03575420566068,-15.557601232031608,33.9244013777964,4,S01
7000,-0.18741127040440883,0.35532604628694797,9.097842923839561,-17.59299161826528,-30.50085646086097,-4.001985424859125,33.04918255842552,-17.60761399342289,33.06520997584387,4,S01
7020,-0.31557530725615135,0.15856197950406542,8.914611526433045,-20.254260766591514,-33.62490691517307,2.6379786857183714,33.52113245558832,-18.701156365562166,34.29037541751836,4,S01
7040,-0.30440694094520104,0.1402052384691943,8.904818230936412,-24.599948795082145,-46.10946647655815,9.074087553457652,32.06663908443098,-14.015867152883555,31.712084095061105,4,S01
7060,-0.260430510294547,0.2033073211858199,8.99556781879514,-32.438446811013854,-41.48163942129471,11.516044444766267,34.428998286597036,-18.38933184076108,32.839198803477075,4,S01
7080,-0.43887900403129987,0.2793607893408046,8.981307973301869,-30.22728644116421,-55.90542074105437,10.837180511482932,32.019627233912274,-19.654732295971037,35.34943777877365,4,S01
7100,-0.6001014102501336,0.18342386567777746,8.812570784482793,-32.748540572504474,-53.54873195714445,12.548986821289775,29.629285924960147,-19.432946037018798,35.651572639252336,4,S01
7120,-0.4442295330114825,0.6159033336436159,9.101169023121855,-38.2588908863742,-48.031534648758,16.57974745024689,32.69005847825852,-19.50231918550139,34.20083383114684,4,S01
7140,-0.43870040791455034,0.5934505515230466,9.324840265740457,-31.34907838975505,-41.946637513770874,12.966446761637656,32.33418864758089,-20.354514449687507,34.87059242798732,4,S01
7160,-0.4940377206452372,0.8750166265988504,9.35611720381326,-19.9472779409396,-38.89378304429985,12.826546195657388,30.32364999731133,-20.683406940946064,36.857814012461084,4,S01
7180,-0.24770580552155305,1.0103559545814622,9.768848647125294,-15.167938572695448,-25.970674641129456,17.923276068903533,32.66330298021332,-19.795613431577408,37.13657674663266,4,S01
7200,0.013191636216576152,1.4073740904611605,9.720737039433882,-8.680187894528096,-8.464807008253787,16.959924666722436,31.127831742927814,-20.95914184818212,37.56588408749509,4,S01
7220,0.22908595267698706,1.3657788594985725,10.101412791266819,-1.977512127404884,-0.5172824558630127,18.48266731037727,32.65945679720578,-23.848511199646858,37.72047066567773,4,S01
7240,0.3013545520041703,2.0091931753750076,10.374450499298334,0.7453793774596624,15.692234133774779,10.917034262246059,30.738429323361174,-22.687619429062586,39.24696314849847,4,S01
7260,0.4517199119475569,2.0213018510537615,10.565100741253898,8.736022799960832,28.778130545458435,10.345989164576881,33.46540965019561,-22.350676338223114,40.28859097284873,4,S01
7280,0.5046105477337889,2.2492543184548266,11.016372957690544,20.933657146941236,37.92407668786865,5.098166646903385,32.33170712917581,-22.981781651189014,40.4620060355925,4,S01
7300,0.5736948625242411,2.3304989121464827,11.264557116509819,26.88635187804554,50.252324355483566,-0.2509279001034278,32.044264888948454,-21.928817910730576,41.23807056640431,4,S01
7320,0.8843810376351195,2.6054255241566993,11.259348398467688,26.21265430569431,50.972977034329325,5.0264506467898435,31.18898067879685,-21.702022181198693,40.823377914361046,4,S01
7340,0.7740646028152709,2.5729279890149233,11.470423714816738,19.66436202045756,50.27005467820219,-1.8601877404753968,30.644794158581913,-20.929732196514426,41.34671599587304,4,S01
7360,0.8622202689540184,2.500703874669171,11.488784832454575,20.21285668676874,42.38163492263202,-0.8623467417788998,30.161805559555354,-22.023987456408975,42.93765383981373,4,S01
7380,0.3689448772211854,2.6291909147919896,11.578585839278094,22.94625997359782,33.982359358780904,-5.876504228804657,30.934708515424383,-22.536413094954362,41.80415450278937,4,S01
7400,0.3910378280828667,2.5760063456843496,11.47162790133784,24.734467233836856,36.91116183992303,-10.040092355401647,30.417112607827185,-24.21754919021171,41.18648121370921,4,S01
7420,0.5816666110166292,2.6420042422999948,11.424124917032053,8.31752675450603,32.61806230142163,-9.535844623848085,29.597362670696675,-23.277544390383607,40.73207732701176,4,S01
7440,0.2514621426901591,2.2502624446269386,11.458361841905049,9.794674422324999,14.126050103838994,-14.198142830994371,30.60766157718087,-22.311281576314144,40.11553187118692,4,S01
7460,0.3219630752254572,1.9454622128367174,11.26651758640159,8.405159881181039,12.770646184149253,-17.08520890070329,30.230095772494543,-25.076938777020523,39.305234793098926,4,S01
7480,0.21943081485098703,2.173306962840164,11.16748179496106,4.553793090615311,9.160923114502424,-11.128068850309964,30.017703296541736,-24.68762377923125,37.90607161979436,4,S01
7500,0.21733857038515617,2.135820080132051,10.777364940613921,0.43038170362630535,10.443898531645221,-10.693029490828085,28.809898959036172,-23.80995076497991,36.91278940153631,4,S01
7520,0.16746521012834795,1.595194453904007,10.566683244325375,1.0719311162346026,-0.5675516283464457,-12.097096179860305,29.088980146811178,-24.12103557139998,36.24437678465416,4,S01
7540,0.21676743438534743,1.4603230149115827,10.224947053270284,-10.372656373058884,0.9395083520404317,-7.021601505257984,28.802999303337337,-22.95821134413263,35.569763420059545,4,S01
7560,-0.09190356181605469,1.3694232998035205,10.111763302433676,-14.559151230093384,-0.6321559254554503,-10.955170736003218,30.88787448326105,-24.449069866310733,34.98837006279584,4,S01
7580,0.1596605820912392,0.9109132830807309,9.81480389116598,-3.4117525987394126,-10.05043398523509,-7.818904868019779,29.30040895137601,-22.81312052085893,35.54410347600765,4,S01
7600,0.1496019391005435,0.7749985223567493,9.503589595475171,-15.01884683348241,-7.456358680872847,-7.079242567797315,29.98444794600315,-24.30512107993447,33.27713416294538,4,S01
7620,-0.12305991690874682,0.6408047317333372,9.44994423339916,-4.856796716273167,-14.255421217399771,-15.526145477085267,29.84324443245988,-23.519281127512357,34.76699996250903,4,S01
7640,-0.12008759454622883,0.41464210744044283,9.267280446212416,-16.432194828756792,-24.246025066142156,-6.389966225525638,27.44787127568204,-24.125092051593967,32.81059645281009,4,S01
7660,-0.2672355011205414,0.32873484265810293,9.029264125262396,-20.63419474751748,-28.850516949536416,4.176991699104322,28.492178870377277,-23.58221566905594,31.597564326655366,4,S01
7680,-0.3990511870161074,0.45665297842040703,8.997519773929065,-27.223838428030984,-37.286073795319425,8.411793886454149,27.514391961957006,-24.10624004260234,34.56669337828408,4,S01
7700,-0.3281156306839188,0.13283970554529262,9.108998533203533,-25.315267890240634,-47.74837236859269,9.364259873569727,29.30603418544301,-23.512833601358256,33.30017620451208,4,S01
7720,-0.473001124837924,0.11540647148402086,8.890304683758274,-30.67151668403019,-49.0787288991189,0.9764995259445012,28.075365357831345,-23.591145119857657,33.645308545501834,4,S01
7740,-0.5308028121738654,0.2885016897728172,8.984436922189229,-34.724476522298254,-50.99873275833502,15.863787858138087,27.89132316845182,-24.066095068752354,34.071896936832246,4,S01
7760,-0.48680911086096823,0.35482349665991764,8.969941552103581,-29.975318020644,-51.26993642258946,13.740569018986399,25.761967069367117,-22.731479066006862,35.66474893077037,4,S01
7780,-0.5021634450852395,0.6756215978437943,9.37171540186867,-33.43089029291704,-46.65681594113737,15.412167738714833,27.72272709776997,-24.00833718330625,36.262501994249426,4,S01
7800,-0.3711210132073752,0.6933176160603944,9.12699426905935,-29.709242432639314,-47.67561261960467,12.807060620698882,26.855133487464492,-20.790230119076536,34.74837490308017,4,S01
7820,-0.20926907699494643,1.0593257756471934,9.559433751669399,-16.63683769493625,-32.950267448474655,23.31720333819213,27.46632079648985,-22.81636684909362,36.479221262005254,4,S01
7840,-0.10666768081093397,1.1270781387445923,9.542808207986539,-13.084392219052603,-19.72073848960226,14.552489811552975,25.652686354546805,-23.250340762312014,35.85728679224455,4,S01
7860,0.043171695308783085,1.3161809218403098,9.860313973897918,-5.804719463532857,-7.302261214376352,15.82494652198845,26.95316294844205,-20.744304078031476,38.58769809439185,4,S01
7880,0.07409122083258943,1.581194626578804,10.05206463019603,-0.028379537474729766,11.576928571952617,11.457372589895709,26.10069474448026,-21.306731122842525,39.159236683381195,4,S01
7900,0.43725459478666684,1.7249823430586895,10.348807892799188,4.544363219867294,23.79556325168187,15.827479349070453,24.98983492849397,-21.654253350171754,40.843704789608914,4,S01
7920,0.4074474819982914,1.9305130416058895,10.606834148793421,13.175575708768235,24.40713769349313,1.8493931197792013,24.386976467076618,-21.808930659484112,39.90428601759805,4,S01
7940,0.712171258165508,2.126386739856101,11.021706430581329,22.623008194124544,43.28897663562205,5.675431453644961,25.177771263394675,-21.072013513791713,41.318856274256035,4,S01
7960,0.6930553563471589,2.447221058966212,11.241741366318667,24.312247107332382,50.13796056406963,2.9702722642085884,24.583355649009782,-23.490991812908906,40.11070444964203,4,S01
7980,0.42347569591570555,2.448232945904084,11.175619304593189,22.064691387204572,53.78953021707925,-1.986687590767933,24.46983448397772,-20.31244398028086,41.28748220575323,4,S01
8000,0.6810215853568187,2.4999319159803886,11.38015046203291,16.523423788032904,50.58496786011727,2.3902370057842917,26.002784746894815,-18.79908533496288,41.70813002990822,4,S01
8020,0.6275886330686625,2.607827733503627,11.494256905778933,24.995971151592048,51.6472667018385,-4.600846800964708,24.59054587202395,-19.034314295655065,41.0330568089206,4,S01
8040,0.5618373866492868,2.75392397639951,11.441482581640342,23.52570697540912,33.59215933921675,-10.650594071281013,25.87335167885186,-16.975355660560012,42.075180287064754,4,S01
8060,0.5539639694031949,2.553149388634692,11.351240330924062,9.346284807666123,35.63020758614691,-11.874897295595618,26.395400022622706,-17.481819591524197,39.49036896841216,4,S01
8080,0.36654314476408345,2.7052310221689386,11.564470040783663,8.091094173424597,22.378008514939335,-12.061601276563053,24.692301045415636,-16.726702986538868,38.66060393199587,4,S01
8100,0.4829540482193321,2.32104594698655,11.427350008129773,-2.523427401718897,21.317915959763926,-12.133441620415454,24.82452874199032,-17.003332320823695,40.245424197588065,4,S01
8120,0.20654397621889892,2.2495939247052443,11.196813797624275,2.9212224607417987,16.52484661514564,-12.17636212910149,26.07490661507083,-17.14146242682373,39.52307076735614,4,S01
8140,0.08477465875742862,1.9331909414984796,10.990262333370977,1.4931960720447588,8.865389811916208,-15.923270288095738,25.727088814880787,-16.331168941526023,37.753622182318075,4,S01
8160,0.26643597017123377,1.7841248734139246,10.75517442923209,-4.49788223918659,8.673954198528596,-14.747647389028208,25.102592569614714,-17.82179837578694,38.51083997712957,4,S01
8180,0.10868592398554076,1.4233063089561735,10.474156187601473,-1.7993735197044685,4.5658850942540505,-13.778107254699751,26.551276490248572,-16.44082750831179,36.06269317055574,4,S01
8200,0.3215362052483616,1.395382952608161,10.288186210988021,-5.146508490645172,-5.841282023273124,-9.68062288508438,24.263029091841986,-15.18249722460919,36.53682586171397,4,S01
8220,0.15732339600494366,1.1503328912758244,9.990968334771347,-10.444034660264048,-5.308001403487548,-7.7787431065252814,23.86701922057839,-14.48968546412356,36.80311291249328,4,S01
8240,0.11165753310649319,0.8725829832923206,9.792706624594045,-2.6361280242594134,-10.81815638109676,-15.019545038545472,26.290535047877107,-13.876472085542837,35.19181100553401,4,S01
8260,0.11352203908294882,0.6431644740777072,9.62716069128701,-10.088855857423418,-12.400303333623498,-6.2372219693484166,25.93336849304992,-14.675668830473649,34.87364347027448,4,S01
8280,-0.07914265450117908,0.5176716393722713,9.42683680590958,-10.493125180008212,-17.26684646126076,-6.066661222351852,24.537011025222846,-14.426312857561006,34.81921399844029,4,S01
8300,0.021263394831262286,0.4728147514608457,9.264279136222026,-19.119831539325315,-28.718915796727767,-4.136469498820269,25.909136760562635,-15.399261876759777,33.292992288973835,4,S01
8320,-0.22340350428235292,0.5348849587917561,9.155963869765385,-21.97509493027715,-33.52468256213562,-1.023897283011423,24.950861440220034,-14.100117790412831,34.80561302879702,4,S01
8340,-0.2478009719862155,0.1531188916292955,8.953364253234449,-24.05965697292593,-40.94649917232308,2.1299168671983595,26.86692064135371,-16.54444112959785,33.80933296616944,4,S01
8360,-0.37998997382987676,0.23350570886784505,9.017348613372386,-27.444513508230333,-44.25670560629863,6.235196362443561,25.996316922660355,-13.853169867332667,32.344125662479854,4,S01
8380,-0.55445612796461,0.18936101692581292,8.877051799301027,-32.3798094748834,-54.21765520377947,3.463830149317912,26.694991023871264,-14.355917815935634,33.22193400619119,4,S01
8400,-0.6338463074273056,0.1807169523125392,8.898603252176144,-34.3411655456847,-54.5491337465771,13.589655840437867,26.334455759725095,-11.342440077448423,33.59272532910934,4,S01
8420,-0.4029419498929999,0.3082186263343528,8.979637242966023,-31.22035479185899,-47.99741664249601,13.199664053245138,26.99497282241535,-13.040628533187652,34.08880486385465,4,S01
8440,-0.4151895538305188,0.4493188050720965,9.048963797952686,-36.137192981828754,-49.68097214533398,13.898562853287144,28.30061295355794,-12.02375654131328,34.94486085908258,4,S01
8460,-0.3939262477694132,0.7316097708090785,9.324270734242655,-30.230614767334004,-41.5538174353856,18.083600411677946,26.26763237408408,-11.721530424180521,35.477211827069375,4,S01
8480,-0.33107912623920943,0.7658990463089121,9.582058106468985,-23.868512502062114,-31.4814696738076,20.624195559948472,26.70108612712676,-12.781281795055133,35.23327715788113,4,S01
8500,0.020329672344360825,1.192130407621724,9.66853907508881,-12.946672928563451,-21.260199504241108,6.577915709832942,26.951784995930602,-10.72641633593721,37.29879113439897,4,S01
8520,0.07291625357504397,1.4410095693080454,9.98237309686498,-8.039462597932822,-6.427515300383169,11.180590960959622,26.080531646362974,-12.22220856354774,38.28061832656693,4,S01
8540,0.07199218865212167,1.7501571655355455,10.035394108133103,2.0766593119737173,11.28241701757188,6.8560187810269095,27.839722314355374,-11.440851814966965,38.73668500877977,4,S01
8560,0.46914667932910237,1.7972050470508507,10.49072081622278,11.196055916391526,24.296702445349396,10.402058898496069,27.231200133098106,-11.492765719067815,39.63693602258562,4,S01
8580,0.5020704086744768,1.9889924871512414,10.663435095842274,18.40026755444892,32.29539343871043,3.219601022918734,27.472468335283363,-9.98356830417954,41.00757310884218,4,S01
8600,0.50347511728432,2.0729535442053906,10.826796837101915,23.463324734447212,38.09384192516492,8.203562065989622,27.11792327099658,-9.734178982540344,41.816167828883074,4,S01
8620,0.7492308508445281,2.4097147838249073,11.092798613693947,20.973219035905228,51.70191238867154,6.311745362407529,28.44699850243578,-11.624171617816986,41.28308179467811,4,S01
8640,0.4568210900324574,2.6898850067259983,11.158662187036288,29.98199426263724,51.71218922738098,2.547440339846313,29.117816156819405,-10.244452960225587,40.79630639934796,4,S01
8660,0.7191596783641105,2.468093933358268,11.417379748726589,22.1119251815405,51.92429532550351,1.0382545620513715,27.043821128395283,-9.75088584194475,42.561976177398655,4,S01
8680,0.6496463367283717,2.5652714825403713,11.571173002712253,18.454514858724057,48.516844944819674,-2.807262104205446,28.86492647092943,-10.610365605472971,41.985515293360294,4,S01
8700,0.4280070824694854,2.4463676761927164,11.57880519813743,21.026721456313982,34.87018788215116,-7.419660378500533,28.836017288578546,-11.496176666537366,40.15858021850906,4,S01
8720,0.5708990754360134,2.483603649111963,11.537100658659662,11.690519629554949,31.681022609097464,-9.097281564105831,30.062927898505766,-9.96569435035082,41.7737029968991,4,S01
8740,0.42106063085765955,2.3997597380005704,11.391308752001844,14.462121529677002,28.914364080530966,-11.725387497979577,30.266664270337465,-9.366900978778826,40.38284449714344,4,S01
8760,0.24577217833616596,2.352348470681972,11.436756139400995,5.054559549167322,21.521842609667612,-15.62194625300413,28.96336841921314,-12.475357395485531,38.177316569988356,4,S01
8780,0.2433862800311173,2.0811243088074964,11.196121534869068,2.2501114838671077,17.45638243310577,-9.700204245335977,30.739018393334792,-10.799013218446664,38.021784101029525,4,S01
8800,0.23609772479683402,1.96159860248623,10.832470862297695,-2.315462460481157,3.95832221786742,-12.509573755633136,28.330047304656755,-12.569187662807165,39.276755436004784,4,S01
8820,0.23591061812395597,1.7231685792139884,10.85669115146868,-3.890096541934903,1.1281008744867103,-10.776003217528265,32.076087235402085,-12.694379359674777,37.579518002438995,4,S01
8840,-0.1420526784342341,1.3963781475966632,10.393684563558427,-7.055466040123712,1.0345442859485872,-17.571404155808786,31.75498422953097,-12.03836816439377,37.0170522031398,4,S01
8860,0.1507808339661356,1.2427423058065883,10.23969325199873,-7.388329464666171,0.8235218858101876,-15.762928279858736,29.642990888777685,-12.797375763477575,35.85129224559632,4,S01
8880,0.03632417120165429,1.1724055758177174,9.98402765848195,-12.442160352204464,-8.321903853557536,-13.897198815893924,31.221667081710528,-13.46752099552968,36.714937782448715,4,S01
8900,0.3102942775386477,0.6964637022421747,9.783237330810168,-6.98971038635478,-10.206168954028971,-6.930423622714677,31.76126211529656,-11.66687029284217,35.618877422677656,4,S01
8920,-0.1009843207493088,0.5602633008067257,9.368201930387688,-12.688985021142955,-10.012374911391952,-8.841561699525647,32.25064254441327,-13.320887561509984,34.75720046357932,4,S01
8940,-0.3719594926215599,0.46623438701526115,9.221041997900354,-8.008104111399742,-19.35627853390525,-0.762225667496805,33.66924483997455,-13.274137988593175,33.74264236661088,4,S01
8960,-0.10980331045446279,0.5210684211978203,9.10307328134062,-11.283996953908934,-33.887320133086,-1.0709893078527553,32.65687497136702,-13.620703563948696,31.582401373722814,4,S01
8980,-0.16816445153952805,0.3306921834735603,9.049922085881231,-14.827000852448531,-41.73368713350549,-1.146401596520687,30.39136198791381,-13.067626445526923,31.693858988384417,4,S01
9000,-0.4205614172506307,0.24523758976392657,8.937333958883826,-24.88115270967616,-46.15309101393942,4.131234123271923,30.535670069459105,-14.601629183189926,33.06174128509654,4,S01
9020,-0.6209491708023552,0.164010121989868,8.817847885780997,-25.417254402095054,-50.10841390542296,6.718146885057961,32.40344725995607,-13.03792457605855,33.25312965015888,4,S01
9040,-0.30673768489715203,0.11822058493494952,8.760562532215658,-30.14535852952211,-50.65309979890459,14.120348167064925,30.98617019305379,-16.044203370667976,34.084722866463885,4,S01
9060,-0.41097870447915397,0.4593373933874823,8.952453858383263,-32.77325183749984,-58.18414784301969,12.293450133211714,32.408970085807,-15.553580516710287,34.101898325233925,4,S01
9080,-0.5830379945149262,0.29165821254600793,8.886232099999244,-30.27978367651232,-58.28613525026027,20.228232714152846,32.23653414650539,-15.722845764796187,34.43880648982643,4,S01
9100,-0.42480595366478646,0.5339865831492716,9.120074522278085,-32.253010607712426,-46.91704409022519,20.787086573365798,33.473268942012695,-15.422478164318777,37.20696768234499,4,S01
9120,-0.2046751074224075,0.7047391193889461,9.215779928782103,-26.45390676193009,-39.216288391317015,19.557030007726762,31.945683060714792,-14.617516029610297,36.8197838408448,4,S01
9140,-0.26268816955623286,0.9480503626087298,9.520290820739792,-17.743785242039237,-28.04233119524632,12.962740977743923,31.57594243381277,-18.417480731545222,35.67359382039969,4,S01
9160,-0.1485779462539267,1.2614741456028886,9.505743801117921,-12.272517347861282,-14.747086557930153,14.963850674300748,32.76949723458356,-18.506706359728856,36.90564456093552,4,S01
9180,0.10929639533206646,1.3441821009377821,9.975174187211884,-4.956399299699031,-10.557461725439403,14.055054730026509,31.078497018984795,-18.104645092603526,36.61645756833908,4,S01
9200,0.16514837397266446,1.428459992012446,10.198647369867123,1.1704973439030715,12.189938294216605,12.134025696335101,31.71708981548594,-17.50329988052738,39.379211279769535,4,S01
9220,0.4015571067144009,1.804091345305589,10.59113344338896,11.744501239689232,29.106040286108556,11.68202845653218,32.130390468086716,-17.27530639717999,40.6964908037617,4,S01
9240,0.4715784133302888,1.997533774116542,10.73455070543318,16.83623283495741,31.809351613296972,7.621888722607782,32.83343348907165,-19.256276669556115,39.21759231546471,4,S01
9260,0.6035993877946793,2.191451056451319,11.084458970909637,21.24289472896547,46.607798067097605,8.00926902141022,31.635107697319857,-19.460759450829805,40.41510713533978,4,S01
9280,0.7582288986389525,2.4860624599103107,11.195068750864293,24.38707440437346,58.197020554992925,4.217582872373467,33.092600076956806,-19.67807959540522,41.61488180390911,4,S01
9300,0.6299456597102954,2.3476421375471554,11.472866903196282,23.38041982169534,46.367530387936256,3.960100522739126,33.289879692393995,-20.12171689957798,42.01536562668775,4,S01
9320,0.8266794944257709,2.530328651072417,11.502411669819528,19.59399740964861,53.62608198647132,-4.902767894761272,32.392993474901104,-20.034233436684175,40.184570194963065,4,S01
9340,0.7098334031559664,2.466817199342004,11.576054234660235,18.768847451638244,47.38756139783165,-0.34996993588950576,34.10899280695199,-19.520048630209118,40.18574668049935,4,S01
9360,0.33218270058234417,2.52997608360032,11.579441934782283,11.975747078054539,41.27224840883969,-8.042908719825155,32.696093339005444,-20.241364812977025,40.11942250553486,4,S01
9380,0.49700178764816483,2.5124257543515327,11.320961597766122,12.233411874837977,26.227553421221263,-8.180993620177672,33.02941549920692,-21.121073276388753,40.21111231921982,4,S01
9400,0.25086641988727576,2.264469292767474,11.305649478209121,7.488258353074859,27.351537507963037,-15.311701398487516,32.81847771301684,-21.236589373269368,39.39399203886625,4,S01
9420,0.43599946556667135,2.2383461868862367,11.280691972026808,10.54745267261346,15.877467121075874,-10.851117813483484,31.954167638201437,-22.182099861631357,39.08797117308818,4,S01
9440,0.142712402781591,2.1358388588678734,11.132563830365255,3.045160271379584,9.773785594441401,-18.146957723212076,33.05964197201284,-23.848207939298042,38.09371925076029,4,S01
9460,0.09310796118379283,1.8299965200719428,10.83344473290308,-3.3326759243385005,11.224782163241922,-15.26123360268047,31.885871976745136,-22.261378318909767,39.14100719821295,4,S01
9480,0.09495037466907988,1.9036623429811514,10.541550519283726,-4.615462124222059,1.3395273806525283,-17.76029823789711,29.84276610019784,-23.225431779440996,35.791533651031045,4,S01
9500,0.06785434055996213,1.3998767722410392,10.673379096662595,-0.4415145924260919,4.251520379789876,-13.270071383922929,32.28477667467122,-22.238142928072904,36.819571241295804,4,S01
9520,0.22142458301568568,1.3342046887829115,10.196720015879563,-8.234537101948055,3.0992224633217385,-16.26835795179611,31.360974827279662,-24.55750110644295,36.71463507356336,4,S01
9540,0.011492875524048277,0.9903311535432722,10.005068012232458,-6.667523054860595,-8.443488843741699,-14.380645667778692,30.355288680407302,-22.531751548854267,34.89100875376837,4,S01
9560,0.11876091554348593,0.8478367451396103,9.750916118067948,-9.258805825855172,-6.859062746561299,-13.30284828642647,29.56922019431398,-26.28342052856979,35.72693711381703,4,S01
9580,0.05822722228593461,0.5623600870226799,9.523042429310703,-4.943751200488239,-13.655300466115907,-7.495502784691396,32.85387896415209,-22.002922504977334,34.08129095644843,4,S01
9600,-0.056231876248289986,0.33864434209642935,9.229370187404658,-10.985698380762315,-24.137271088350964,-4.481835179972777,29.883332300203183,-20.382604260864518,34.74323993884748,4,S01
9620,-0.12960116485731488,0.27181755764520216,9.08243950141226,-21.793786284936928,-30.65465443004297,-1.991682738133567,30.564945947455847,-25.101469684807125,32.25735796022983,4,S01
9640,-0.3131428686841975,0.3784712894502738,9.052373436491372,-18.449359617103287,-38.354845613291616,-0.7473966436633978,29.234653877730004,-23.51660958742216,33.829254410636025,4,S01
9660,-0.2178828725731917,0.25546199497638444,8.933118476539066,-31.604249574943676,-43.58939424720975,4.159968687332436,30.851589237166262,-24.098016783156677,34.03210365876071,4,S01
9680,-0.4212943035753083,0.18418274234165266,8.794012078991761,-31.978593700237234,-46.85667868635194,8.917890475453762,29.097712626696897,-23.613986916114587,33.45792301860797,4,S01
9700,-0.32414032234058154,0.19578864088163245,9.058279175939699,-29.327437823679887,-55.17484791676812,11.835248498131575,30.017948448558503,-24.13009194478397,32.74869333966781,4,S01
9720,-0.46413080086743996,0.3728737183305823,9.007474983724606,-33.02874880640678,-58.3764397053507,8.758127471744332,29.032329816749705,-22.207456546069128,34.880707367033764,4,S01
9740,-0.4732269550566067,0.5347989031284159,8.960862164035584,-34.54603338144508,-52.58804957755453,17.800596596951614,29.93484946735251,-23.24808904675299,34.151085158482495,4,S01
9760,-0.4848812107527696,0.6094728338683977,9.287506952877651,-29.078709358876083,-45.28484801170575,16.025127065715576,28.832965810488595,-22.893623919582545,35.70767237407069,4,S01
9780,-0.34918233143381394,0.8548837893148484,9.499736303951233,-33.36648833406554,-41.963843699298636,19.842947909235953,29.260385638551615,-24.946199270047615,36.24775338309703,4,S01
9800,-0.18348562510143893,1.0355370240287156,9.521499539740308,-19.509493451439862,-28.499602471494054,19.17297262230784,28.495770371327875,-23.762990698964927,36.5528833053703,4,S01
9820,0.2042185968442152,1.1202328722125512,9.876510323997435,-8.652769021500063,-9.976259588773402,13.576444747805336,29.018951804845326,-24.120774544530775,38.71741939142828,4,S01
9840,0.2447753840900991,1.2926158281460203,10.021910668419839,-4.419569598814016,7.384462259688397,13.596572548552748,27.85900205088145,-24.833187999133877,37.02303919460426,4,S01
9860,0.38180160909290495,1.7870690380292884,10.389529200480485,8.682088672588304,8.730553662644255,13.710875917092359,26.965095452533973,-24.639243558381683,39.566251904055726,4,S01
9880,0.4544217548987032,1.888764335017433,10.46732988268974,14.97037385514433,29.78497124248389,9.311981124352894,28.294546591779188,-24.474846569090413,39.02582089244067,4,S01
9900,0.331715454315041,1.9651349505019795,10.968443849975689,19.794271201683713,43.136495971069714,2.576857901229611,26.776975669032915,-22.11139546578001,38.270690017501394,4,S01
9920,0.8225998197217432,2.2677858681402596,11.140150474925322,28.92140815970782,47.256719468921006,9.971308895324512,25.84246690151337,-22.950014019587528,40.80216028342584,4,S01
9940,0.7244714071855123,2.270497890351466,11.243588113306368,24.50679742878613,50.181596912759225,1.4224256093895518,27.163184534355725,-22.554288001318515,38.74092771013229,4,S01
9960,0.6833582201732282,2.4400715017718104,11.375338732583934,30.8775469571864,56.37393573355818,-0.21600205643415016,27.392728633283813,-23.456600432719714,41.100967519290045,4,S01
9980,0.6981173433125718,2.6364432170622014,11.464746041325963,15.158107262324709,57.224725983683086,4.3239221702022395,26.591456682975647,-21.7174259732275,41.61105999251507,4,S01
10000,0.6139326693706786,2.658490012387564,11.52330835449198,22.378068250081736,48.18554586236878,5.544267916812787,26.80550625276041,-22.78670145413001,41.41611281454798,4,S01
10020,0.46924446675219345,2.549253118708508,11.33274880968579,27.08322677981679,44.89743637244062,-9.310348801232088,25.91148125519375,-23.31415752393997,40.63092966830447,4,S01
10040,0.4322139389103782,2.5204873717790384,11.41889289412729,5.606602788881619,35.10328025347797,-10.634961125779812,27.43563407442075,-22.81248863012869,40.060761283104725,4,S01
10060,0.15441633503670155,2.3552404945022305,11.541528518640597,2.904772035237208,25.911746693342298,-16.466014091166915,26.341786357331625,-21.26243667714087,39.29567375189309,4,S01
10080,0.4415394838795039,2.255680927759987,11.311062647384349,3.8414863416706124,18.265139875631665,-13.024793647892194,24.18238668848388,-19.299355909090423,40.09227474245289,4,S01
10100,0.4221052478302819,1.847235081694054,11.021529094920831,0.10615393275293261,14.555809009472028,-13.639807519569711,24.707311710510293,-22.337500403442867,38.79502082589394,4,S01
10120,-0.04588525821054479,1.9171527391474723,10.80073210624873,-0.9007564351660973,5.944444473353003,-11.9166335574587,25.9496907662007,-20.967319964782817,37.536374514123565,4,S01
10140,0.165260779868244,1.5912933032770724,10.81736174262715,1.9456266524525327,3.3486474897079415,-5.5766960759633655,24.963789373872856,-20.74652113765443,36.77050989761805,4,S01
10160,-0.1589304861587055,1.3445984126571489,10.216097322240612,-8.121037114509026,3.409767763138439,-14.153619634270385,25.257828757130223,-20.29607577704581,37.37356664629223,4,S01
10180,0.09730399892847655,1.4290070500016132,10.295525276831505,-5.54750720840168,-5.996896188408399,-13.83070019939417,24.696309798783524,-19.360993393895814,35.166147283005884,4,S01
10200,-0.11934084032062281,0.959512923450974,9.771174938118733,-3.346120989965054,-5.283726682629781,-11.959864844792005,24.016884758186052,-19.20366365584123,36.68880140270407,4,S01
10220,0.07177319656159101,0.6078054102635126,9.582582732675494,-0.44895097904785697,-9.21728963644555,-9.829985709336936,25.729437051778454,-18.400971795848207,33.986854784550154,4,S01
10240,-0.06736641600114976,0.43806205698153083,9.352080937672305,-14.568250853261478,-23.16200196143083,-1.3697701766128918,25.807648668171552,-17.08587501934056,35.23367103365783,4,S01
10260,0.0487467966050694,0.34180771274303917,9.249978627340003,-15.639995263336612,-15.277562075184365,-2.4717510454683653,22.906198064135218,-18.077170007450356,33.971782086557454,4,S01
10280,-0.13473453911178665,0.37671831659956906,9.2245937237537,-19.760306686442398,-32.100211905416614,0.7733502685500969,26.81179227741664,-18.185485250479644,33.34069282844931,4,S01
10300,-0.43844882680357533,0.4324247908928091,9.133569473326165,-23.119851986711726,-36.95511493670225,-7.316141524372482,25.484911147322038,-18.937761975157027,33.283791188593185,4,S01
10320,-0.29450623992075364,0.1382715746855233,9.038689381996337,-31.02266123684584,-40.25462743433746,2.641649980229332,25.373679939455126,-17.433406209097818,33.41889233245372,4,S01
10340,-0.30817808140261715,0.12793357616943377,9.137763871281644,-38.512510486624684,-52.516279902969615,6.830298127147887,22.982757180812605,-17.386245316453817,33.86972844992091,4,S01
10360,-0.586754010227743,0.18922049471003805,8.89421717383226,-33.97028601121291,-48.91698890299762,4.874209274833466,25.166035330433928,-15.623432248824882,33.490602623993254,4,S01
10380,-0.41298606993242537,0.4157156094481827,9.147343199817424,-35.31961609200034,-55.698227169375954,12.232605924170445,25.38100561269329,-17.452082144423372,34.32605434901158,4,S01
10400,-0.4875512489339704,0.4397586397005883,9.165058906923937,-35.150350723860925,-52.52372593489621,12.620595254975546,24.671976127521393,-15.764440454535185,35.66948484260291,4,S01
10420,-0.473043844758419,0.7949688741004011,9.142957991065716,-33.45747864889458,-46.67371892020994,13.70530230807905,26.19977911091811,-15.319723812274935,34.77495834252876,4,S01
10440,-0.46132488072686584,0.8065238339819623,9.479068001918153,-32.249991306677465,-38.94229786302844,19.81325580459942,24.848491815748265,-17.79408798205437,36.83453639349763,4,S01
10460,-0.12553638656961663,1.0292447061915335,9.677392584272848,-14.729673478444532,-21.63685283658944,14.405997906041458,24.800776761716506,-13.048308631182895,35.963481006717394,4,S01
10480,0.09293925324651144,1.2395811440388116,9.831520974446383,-12.348653950414242,-11.113004343983947,21.66231699880144,24.66652841333688,-13.351735865180473,36.790978348328856,4,S01
10500,0.1729450444486791,1.5195632949513356,10.023884830418167,-1.2008007166922585,1.341991400882103,12.980011561530631,25.31250719858229,-12.271336989892262,40.41363751754894,4,S01
10520,0.5406384578991259,1.723371487475089,10.438074977238605,5.184852698751089,11.936240271345788,13.11001057104792,25.49318505396438,-13.152849014505406,40.29246436042348,4,S01
10540,0.3686991469145897,1.8809551503945825,10.646502243060588,9.493541219050918,31.798011897427887,13.801834871500786,26.2074948167183,-12.572814312811389,39.71248805742205,4,S01
10560,0.6701157806123658,2.247278206508895,10.945697781282272,20.738387447958257,37.949111753375455,1.7340300736888774,26.157228209394702,-12.002144338339955,41.60395354481232,4,S01
10580,0.5850735898410582,2.2433718155773295,11.276704945981173,25.80426612075401,53.498555812005435,0.7986764838033501,26.921212225700913,-12.412859209384806,40.455629159684364,4,S01
10600,0.7761699433639401,2.414866509276583,11.197494214322024,26.84907336319073,52.69089073967935,7.708168832612315,26.924097195174852,-12.255083206872158,41.057755130809944,4,S01
10620,0.782234160654967,2.302287439451073,11.562424994604699,25.739668592401937,49.07041304492496,3.3695196666736265,26.388977815752458,-11.307444612471667,40.525205729932715,4,S01
10640,0.7342496311528771,2.649890958270943,11.589735493383161,26.785133002876666,54.32036387727166,-0.6964569649342996,26.77089064163101,-10.592074843114574,41.46324641177042,4,S01
10660,0.44652553121376737,2.840477199901676,11.394648158967831,17.523709532596925,39.62409419311584,-10.071560069588031,27.700353784676217,-14.150001509095976,40.485293000115824,4,S01
10680,0.48412315316472043,2.5981142707205636,11.39054188437235,16.522161224665215,36.153198479157005,-8.304264871869679,27.401042192387944,-11.421263850764113,40.67684994819976,4,S01
10700,0.3032934326370436,2.406891040364269,11.563316957024663,10.828587886012471,34.75710446202974,-10.708947506255585,27.409504217956037,-10.538541727366516,40.934766350041926,4,S01
10720,0.23056125003993194,2.29477187700907,11.404921397372814,9.558942322834788,25.759681995213885,-12.155375331339723,28.666131167034933,-9.893554109059748,40.84156989693226,4,S01
10740,0.3830939731440953,2.0559657538829805,11.286514758734064,9.399429013396208,20.132657982289917,-9.72753851797599,27.77169041524275,-11.780396977336327,39.7860129425963,4,S01
10760,0.31519800198159453,2.0337742230630327,11.031654496050944,0.6700667269007514,5.8817373937999085,-15.164114083407242,27.228436440028503,-11.28726097263651,37.49907912596643,4,S01
10780,0.11225422769287531,1.7477798794953159,10.722796898047012,1.5720485049145347,5.558657403326574,-18.516178295692,28.473853501681546,-10.584751166881466,38.93897533869597,4,S01
10800,0.09615346216154991,1.6250228640300515,10.912848372487598,2.8456044217575434,-5.31221088221028,-12.7254768807485,27.53314365816113,-10.37811036196617,37.634290799580995,4,S01
10820,0.21982051589551396,1.3206844738601953,10.526218094128549,-4.931209903764629,-1.848049401401305,-12.389765633203016,28.870809589622997,-11.801073259582918,36.45358555574924,4,S01
10840,0.13406429746200654,1.3303129643375728,10.19600986616856,-5.6191718485686355,-6.603548734714617,-6.968653180386177,29.1250608049821,-11.223216334602588,36.00454721902428,4,S01
10860,-0.0008565161392415227,0.8307264269131982,10.075388353743328,-10.802784310521428,-16.71560381709809,-9.401353342555884,29.52048721883058,-11.912214620693726,35.5641205177682,4,S01
10880,0.047988790601617565,0.6465083383815899,9.734103564315173,-8.08919093602602,-14.024306839540692,-9.685450355112913,27.496595000538882,-10.679368368950843,34.808847032186435,4,S01
10900,-0.01835401992929464,0.4462678885764934,9.445815152314955,-11.789639831210467,-12.262990044753089,-7.679774755611501,28.814470250096708,-9.992501007896465,33.08096181997468,4,S01
10920,-0.2971687648168009,0.3831462176840259,9.303484383019907,-20.52761200329553,-13.714607677160036,-2.5206478482152996,29.53441899936921,-14.298314161945335,35.204963774967595,4,S01
10940,-0.09620980140415089,0.2978654538212029,9.025023167716702,-17.931650240539472,-35.63025351385005,0.5707093738486871,29.282579935948007,-10.398963976171414,32.454575545899345,4,S01
10960,-0.3844975215435106,0.07016314160199846,8.912994813787217,-21.707785395244517,-38.89264836488335,5.434439366629384,29.630125209528703,-11.323473462902882,33.16042957892762,4,S01
10980,-0.4012252275165109,0.38277724009735137,8.721068384112211,-27.330070799026547,-39.0196132955381,4.2980663800003285,31.04639850511357,-11.879714827167241,33.82950471598754,4,S01
11000,-0.6637320998099431,0.21843710733798788,8.761415492352684,-40.7790676673673,-54.46152956859669,13.064403766190862,31.07818366351935,-13.395470726056965,34.3489958798684,4,S01
11020,-0.6462866551585632,0.19301767751065924,8.843471888626922,-31.298951842780237,-49.81360404169878,9.072345589594825,30.743730565493536,-13.799024674980423,32.57162592752418,4,S01
11040,-0.4622581245622349,0.3472419281047437,9.075838939139267,-34.35211155805173,-49.74140478089639,16.343270222298102,31.748924350542126,-11.972285387884181,35.51102525691016,4,S01
11060,-0.5955312334917355,0.4368091706799126,9.083976149402003,-39.53872576052985,-50.68054044346138,14.35840332462633,30.687656771605198,-12.351285784451804,35.83083891141054,4,S01
11080,-0.10881682095621564,0.7055022114390135,9.312835734962459,-25.460637142354987,-41.76579956009012,15.080609997758692,31.51238656477369,-12.555225301700172,35.78146430135928,4,S01
11100,-0.3590698318320238,0.9513975160810892,9.478088164754286,-19.806586726339162,-30.29577679594676,16.130986300309704,30.217364018673564,-12.14264044897474,35.132319438048086,4,S01
11120,-0.006637651566912137,1.0429260587634432,9.602823034117632,-13.463304896790504,-19.22059643017835,13.021288444279937,33.003657760080415,-14.370865694652718,37.60958920680219,4,S01
11140,0.16746618547221515,1.3090500481507084,9.881251289200835,-7.726940696572348,-2.36412197372798,13.67711240632506,31.538957072342594,-11.854777419102009,36.25348152824532,4,S01
11160,0.3164152942247619,1.4850064457443353,10.025993563104185,2.588086531208708,2.84922479744165,14.246902248319081,29.85510804002355,-12.551047163453212,38.20630521056917,4,S01
11180,0.5355973342612462,1.8802426212072274,10.404982331283179,10.549590058178854,23.188938098183975,7.931846170226494,30.56710705316657,-16.172165703268725,40.05413387144709,4,S01
11200,0.5301403685568118,1.8318574618671113,10.826870568363178,28.71429356221105,36.04785255654813,14.384512341123049,32.34449807277351,-13.731688020622336,40.591560060867565,4,S01
11220,0.655629514611091,2.3307194835993887,10.953819694926114,30.030544342449968,42.95897286020943,8.539925135231195,32.51399129723026,-13.01260073897262,39.056771079748735,4,S01
11240,0.5757479400848454,2.200939076018462,11.186268163525973,30.910607294891587,44.275432249784565,6.0786231669634585,30.897360557764596,-13.380701891050004,41.12441391166769,4,S01
11260,0.6078954293772867,2.2960340816015874,11.360217885013927,30.174323203906578,47.27476315413148,-2.1639423345170434,33.46529776338198,-18.074528546439993,40.19537183818794,4,S01
11280,0.8153855935316308,2.384780452851914,11.396764047124648,25.708445746673704,44.44922477016079,0.26321961619048684,32.190796360195165,-14.701382574710593,41.84010721220357,4,S01
11300,0.6622496367459728,2.6846509631527313,11.541322136396792,23.140058862771756,52.06900686470829,-7.860563937608086,32.37094129400211,-15.601087462162338,39.63948711986901,4,S01
11320,0.6076901437450813,2.393801870658951,11.50818022711471,19.195101949833454,36.77239233281196,-4.878803593286511,33.020279718958534,-16.957082726490288,40.53285433044809,4,S01
11340,0.3900816078494326,2.648284521779762,11.55526347016906,19.054861784160007,37.293583515168024,-7.956001154205101,33.43767531635056,-15.685197119059957,41.9062131208908,4,S01
11360,0.48814564228218826,2.4601629135505556,11.624908260888095,9.47218524840341,22.045583938615785,-10.65532788207671,32.150041807948,-19.372222995015136,40.16201805362658,4,S01
11380,0.3654465332252548,2.3725345466427346,11.206402359770681,10.397702361253831,29.295183030277947,-13.630801997297938,32.84091489127985,-18.66708633539711,39.47704805625534,4,S01
11400,0.14696780099633727,2.194130589065648,11.33191094317217,-4.412171290983642,17.885529353424445,-14.338123170304168,32.46645452186327,-18.31574754204138,39.03098873525945,4,S01
11420,0.30294708499261236,2.0936618295881724,11.096038468488524,-2.112978881056126,1.889710502268729,-16.456901668496315,32.84065767551468,-18.716211469790977,38.42741906621117,4,S01
11440,-0.03578696470479914,1.9405479816503963,10.999841906110401,-5.713754959117454,8.131956631086501,-11.335478717451577,32.796056892367375,-18.21004749245655,39.574749419026595,4,S01
11460,0.19960222187317467,1.296488711282473,10.523458035491828,-0.5500297553078499,5.641503566782611,-14.371738492733714,33.40420527652791,-17.708703246081996,35.98805201881591,4,S01
11480,0.09289659642773898,1.3858799254546486,10.238953807470073,0.16822476901466654,-0.6538995068837075,-15.409100847203012,32.54028295269326,-18.952309342147437,36.657567466442345,4,S01
11500,0.04035488070960524,1.1263966300457053,9.86181741793475,1.8337401223475673,-6.066184061769476,-13.767164867231534,31.27753384580081,-19.62262697080964,35.20692845886005,4,S01
11520,0.14661279466752417,0.8624615753756963,9.658453580016396,-8.320422862115219,-4.351492259973746,-6.0589061194774985,31.266061162070233,-18.705210670552844,36.300381908589635,4,S01
11540,0.05116383053997071,0.5933527956593347,9.665622922515956,-7.556967938811509,-6.56791338651999,-2.539047404388906,33.94474317571024,-19.45265762924493,36.366368524170674,4,S01
11560,-0.02487069345012255,0.5441966940418785,9.32642146024758,-11.870688238554063,-16.122166284372728,-5.599287105531444,32.40261020408697,-22.55065296086981,34.144275857785416,4,S01
11580,0.038535715696552376,0.36045086738790477,9.13404736619982,-13.646231382389605,-26.442207162706907,-8.677159485318182,32.22945024461775,-21.48859858392495,34.19916568449518,4,S01
11600,-0.16307786746502242,0.33299004749174005,8.947295238342882,-16.735526255520767,-27.96044408289996,-4.732147008266909,32.024699790593296,-20.65702932402315,33.76734235456529,4,S01
11620,-0.2698525774599472,0.0931273992765928,9.025783669223353,-22.00426628653904,-39.455991220951766,4.4552515776543204,32.03236731211176,-21.850347096173685,32.55984183757146,4,S01
11640,-0.2650791667970478,0.2122220841741826,8.883547802723175,-23.89551498222693,-44.837419447010824,8.403932079651607,31.56497978211269,-21.054594263610795,34.58561124636773,4,S01
11660,-0.37117083648890514,0.258494669143087,9.055185113585809,-31.578563412795884,-44.77156492787789,5.007767355182035,31.22443479505493,-21.221508727572825,34.95784435548366,4,S01
11680,-0.46979253462167536,0.3278902257608785,8.978940063055788,-35.178793912044135,-53.56804428911874,10.176610068229794,29.8470358586986,-23.203518020283813,32.56486387158716,4,S01
11700,-0.4119418586360394,0.37726050729755317,9.013991024020193,-39.74748558762908,-61.70127944744779,10.226224033777639,31.541866897891836,-21.060773482872513,33.27016554602565,4,S01
11720,-0.607112902555613,0.6024804184532564,9.06956408579105,-27.807688018184574,-55.19905562745135,19.961540946639623,32.719468321952746,-23.990446813259805,35.76930106948637,4,S01
11740,-0.3955756976796889,0.4455320288139772,9.34940429726979,-24.375873351455503,-39.49970051365754,21.278117089510086,30.24694008308128,-21.843492524411893,36.726382282106705,4,S01
11760,-0.43761165898508914,1.0113403317690046,9.597959513792055,-16.577726516356094,-29.766567880558497,10.790133681494604,29.29501916523885,-24.329214616225727,37.042337550898814,4,S01
11780,-0.1280690841273767,1.1163356781206926,9.729350856392674,-10.532197517955588,-14.813605851558192,10.079930549312552,29.14818934608825,-24.12344060429009,38.410847578215595,4,S01
11800,0.22375226575679713,1.1764124979362813,10.014405151934318,-8.650705901391841,0.26508671677807416,14.99889883779232,31.423308056415813,-23.456801279200665,36.488474907873595,4,S01
11820,0.2906677492178532,1.3650427898384823,10.235661503039024,-0.7668608666181131,9.234004670579159,9.66502659027398,31.01161915305732,-23.49896521419156,39.21233370436658,4,S01
11840,0.3413231211661713,1.9554548957042022,10.492545596875177,14.363723362262082,21.252906288071248,15.43777701889175,29.721977577856183,-25.27975658508719,39.812766028520734,4,S01
11860,0.6080568559100403,1.9878738071169024,10.888262835776064,19.6802619171234,40.275002759110784,5.49445071452449,27.671179144675424,-24.719045678238285,39.08487392226393,4,S01
11880,0.6493737510967305,2.163445154505184,10.873270391424802,20.251949152768034,40.06010862163553,-4.655820103285709,28.06508090652044,-23.164594741002425,40.63426891306016,4,S01
11900,0.7350327757347113,2.3585292414213836,11.223901832889805,30.10869185705747,49.55494940898296,11.932881107256728,31.340852093571954,-21.403361750920077,40.5936016000995,4,S01
11920,0.5468463555978467,2.4775668367662576,11.29983296207537,23.99891576967088,49.25455328874315,2.455312419466019,29.567274327478202,-23.361140570278756,43.73147059814978,4,S01
11940,0.6455925772293615,2.478753567431226,11.313290799036604,21.896772775381756,50.592435339687626,3.1603038642492525,31.068205857753586,-26.595344032604416,41.08325648986175,4,S01
11960,0.6048523414477219,2.6023887888465747,11.476812143897673,18.594996480250256,45.93036074254014,-8.573106294856998,26.974034708828746,-24.292115616794142,40.7093051335101,4,S01
11980,0.3975141675277112,2.50483217994327,11.728810373356518,12.877678258781163,37.96774480224437,-3.4235624859762352,29.07631217724862,-22.222159394163413,41.48006690678747,4,S01
12000,0.267343767685767,2.4705156918529716,11.55384696358545,14.078523780001415,31.611273051966496,-10.031950980426233,26.875004931871267,-24.538876577090043,40.67591078444906,4,S01
12020,0.2693627781713198,2.4103183035694182,11.507299891331279,8.263128495716519,21.170555592427835,-12.638855147992096,27.666091977061207,-23.662310016478035,40.393077244697636,4,S01
12040,0.46121913014287197,2.228067323643148,11.192447869949438,12.70467758334214,17.489723155829463,-6.1448159777733435,26.704184142467764,-23.751419409028895,39.008749848773924,4,S01
12060,0.16133668819732896,2.0474498622659687,11.127571850013029,5.635768169919511,8.439862601183211,-17.13637678014816,25.89370329877812,-23.566997441714435,39.67825805380057,4,S01
12080,0.2695378067541935,1.9684366620065916,11.05504108164071,-0.7516884536581099,7.851109956118255,-14.247659139680069,25.366141522752766,-22.356182394259452,39.16472613248472,4,S01
12100,0.09950402104371603,1.6841385211340756,10.701567936576142,-3.690225967180794,5.033379716194194,-2.065365574101413,26.875662403956863,-23.656389615947386,37.37494424918503,4,S01
12120,0.15258189125801802,1.5355838812964282,10.687851389391883,-6.984126744086886,-0.369275580439435,-19.119478121052925,25.680240084773615,-22.660471949702213,36.22434482392504,4,S01
12140,0.06142768351728072,1.2721246661198806,10.330754281568836,-4.250959172735061,0.025090664498249593,-12.295000530151807,27.05862918223818,-23.894664802063502,35.45456325312739,4,S01
12160,0.006856158977201793,1.004536564625267,10.077984308762524,-4.810904752719146,-3.552796994014188,-10.669108477771934,25.833705340936525,-22.977747672459586,34.48461192276284,4,S01
12180,0.041323535379448315,0.9331809099635513,9.814469997723707,-8.461778177052192,-7.215758448709608,-9.92553725040851,25.67807982559222,-22.688594022039638,35.520981331786814,4,S01
12200,0.17727774213004033,0.7586362305921244,9.536249293622573,-12.299264038324374,-15.54425409282348,-10.064981223164713,26.086651961428934,-22.61654053313625,34.13037757705044,4,S01
12220,-0.028945307530233333,0.386994508815917,9.26158241940156,-11.995316198713514,-23.83976536657453,-7.240588298402069,25.841894087654822,-21.428186597385235,34.7777123723789,4,S01
12240,-0.07253899329743912,0.3181156546663109,9.125859962440458,-19.147752315331278,-25.75811711683237,6.14583882841681,23.26048088619742,-24.324281038301255,33.42664130184323,4,S01
12260,-0.25763663657381974,0.30348252664954534,9.050206023823057,-21.49079704422169,-33.86069327021287,4.985884614875476,25.28325329918261,-19.456432265526097,33.727211783184586,4,S01
12280,-0.3876421748841059,0.18507680865622167,8.978602369724038,-27.436463239589767,-37.43104877343313,4.776454522480869,25.412422298346122,-22.223906421515114,32.86325426330136,4,S01
12300,-0.25316727861627375,0.08122893717343588,8.967778450504612,-30.04720276667682,-44.883900208897884,3.939900385867608,25.38364722500917,-22.044723971749974,32.59866885818906,4,S01
12320,-0.6523859242073686,0.1414788806933695,8.89134873080172,-34.46886654757994,-49.44520573724839,18.567756948606025,26.100520760850223,-22.669561325396458,33.755083707872814,4,S01
12340,-0.5217433686802979,0.06895633000994941,8.915854561139218,-30.763976552218477,-52.53439097479197,12.718300044720882,24.010118475748364,-19.08647067746468,34.65048190474407,4,S01
12360,-0.40249745538735615,0.37644796740060427,8.909411742803384,-34.2059738917877,-56.45698339074744,15.459337463291877,24.65944292222132,-20.817315413481857,33.08580398235658,4,S01
12380,-0.4144392722649899,0.7644482052145025,9.053621365148715,-32.8441554028347,-48.23880379800126,15.616899409314264,24.96317163626019,-18.857493989726976,34.29591284593698,4,S01
12400,-0.41800054319838276,0.9483381728642979,9.16285320505461,-18.357108433497295,-46.163894238598985,11.828473366635738,25.299291439680026,-19.14466282903797,36.003156117184126,4,S01
12420,-0.27598694090734377,0.8733620401700399,9.543422047826363,-18.544478646343872,-27.028182198312603,17.596035538463457,26.45579904480438,-19.54730084594246,37.322699294303604,4,S01
12440,-0.15389816968374567,1.194145185470451,9.71374567906703,-15.34323282913008,-8.72794051284648,16.889579379050055,24.218950067097033,-18.738836137682085,35.019180868864,4,S01
12460,0.026842280329732904,1.4027403038862618,9.892714797303467,-0.19853206587217453,-1.513890098865524,20.344194142322575,24.185067837689946,-18.049797933542145,38.503763045158934,4,S01
12480,0.24169327123305462,1.6961369965784183,10.296811508405662,8.428956741093227,10.445566269533503,11.410162310799153,24.423250041606806,-15.413616157374557,38.69493894366183,4,S01
12500,0.5341962715136298,1.8384401069761174,10.461132914043594,10.161906349541823,24.851298830615363,10.584872223173162,25.01941876978934,-16.827136407717376,38.88637066352007,4,S01
12520,0.4635711833861663,2.0282386522761797,10.845266356378959,22.032392793742375,34.07774903426386,11.895560283346109,25.624066722095286,-16.892824432992583,39.377305268436075,4,S01
12540,0.6959134573438891,2.3174909214387456,10.967995066576853,29.76568521567896,41.5025380237949,4.128015347782506,24.617356205641173,-15.69021269647314,39.61277602329938,4,S01
12560,0.7228825455662442,2.3914761810069503,11.244621708479652,24.15718298511031,44.60953764245384,6.808547735752839,23.6384031027063,-15.68999729814558,39.91928934135309,4,S01
12580,0.6943346929494382,2.431061643995784,11.322626524557807,18.760084718021442,50.81628715614058,0.9425577644405285,25.99802277919114,-14.928448518062957,41.616909972087086,4,S01
12600,0.7033608762608858,2.5176180490085778,11.375741797120233,21.71570461167532,46.46976471490229,3.7744579460301493,24.397927771760337,-16.222799617386,41.99595751430291,4,S01
12620,0.7516346524776003,2.571306655897015,11.42607826759546,25.31366437872298,42.31741906175578,-7.163369026335845,25.430994311604056,-13.165313581597687,41.11623857629837,4,S01
12640,0.48155204386802486,2.445403691181542,11.497031088567002,13.523568233932505,42.732670411209554,-8.233108001333296,25.78512664471245,-14.568980747839152,41.60342676362808,4,S01
12660,0.4650411545478247,2.4711455417502983,11.55564814565238,11.379982686527569,33.26899836829328,-7.719108837590673,25.02294325111084,-14.113492349798221,40.20471209686636,4,S01
12680,0.44332725898571224,2.2816877788059413,11.47840377356333,5.230954572115112,22.861613692076798,-10.121046764954409,24.644900466455045,-15.44326871228685,40.30241182696345,4,S01
12700,0.14266653356627754,2.4493353574121453,11.342680656408108,4.6206229529202245,17.45879967519855,-15.909422142621976,24.631180556406626,-12.748306815108961,39.12215138053664,4,S01
12720,0.2635047791471461,2.3042191602731275,11.118633717657952,2.3024230560300536,5.80839389431067,-14.851852226247765,25.42751863260382,-13.876858577287623,37.21289012673651,4,S01
12740,0.14897647215871462,1.8113155053414631,10.955428029868433,-0.4801457564001703,7.157487287761314,-17.375188991590594,25.09713864902892,-12.512888872561094,39.369558416080324,4,S01
12760,0.17747208979084297,1.8305680029143012,10.5832817305125,-8.66299822062335,0.5331700711273186,-11.595666080210753,28.57355732172174,-12.418401593146108,36.49860189269605,4,S01
12780,0.22423596081208608,1.49228442811772,10.547756215538982,-6.977390527392653,1.0199045580606445,-20.484316126087492,27.60540263159776,-12.8635343141557,36.48211834749999,4,S01
12800,0.10636852063659018,1.2359677575558068,10.284019877011072,-4.248437757572888,-0.08047760490846456,-17.082374275037523,26.547807603502218,-15.581979274108283,35.68957199095449,4,S01
12820,0.11533940038459055,1.0433078859261304,9.993911771649163,-5.860840842743315,-8.625694439248079,-4.507275692157195,25.294627741088277,-12.567387634830679,35.07616589609699,4,S01
12840,0.03906703051742563,0.788863731131598,9.471028673901097,-8.25676664515239,-11.16619436320234,-5.936427251583993,25.692763723553345,-12.28736952121756,34.033850372828454,4,S01
12860,0.013036042001096482,0.49305232073790756,9.503254193795406,-13.018811326553767,-14.102381769494094,-5.5851693585768265,26.775391592065027,-9.767768865258207,34.19320588811395,4,S01
12880,-0.22895046437613395,0.5666378666423983,9.371512706115535,-10.575532525386066,-26.981795682669212,0.5219152656986447,27.585846107022604,-11.366453191044643,32.79722228826638,4,S01
12900,-0.08281432163402655,0.4136078603522097,9.174425722268467,-14.467702856518912,-31.4835818928118,-1.0050703799098444,27.90209245192656,-11.991280996067562,33.48147349477813,4,S01
12920,-0.10952048562890507,0.13969850833800287,8.951283207240472,-26.668662688834033,-30.025595178179866,0.8776337067965297,26.855435648171117,-11.86286681949138,32.455502852033604,4,S01
12940,-0.31910157926450944,0.07683240748104497,8.957808583235117,-22.54254912379359,-43.33212380344252,3.206133944255719,30.11026646098297,-11.43696600637998,32.21919416901335,4,S01
12960,-0.5727170011717633,0.08426612900952671,8.913440822077831,-31.919738488389015,-52.563938895007816,12.267726258684949,29.36017627226218,-10.900189313595039,33.41065451023204,4,S01
12980,-0.44962623053427686,0.15985440582028473,9.093233512865664,-34.10725709099823,-56.98209345791203,9.397810531103735,27.427440068487947,-10.90147472870855,33.912757624826725,4,S01
13000,-0.6065352227364416,0.28356195127261385,8.929923602582164,-28.96849929884736,-55.28753512383732,9.32479726594753,27.199687182740796,-10.143598816905493,34.727138638470876,4,S01
13020,-0.3959673474117248,0.4687788990111205,9.102128658515587,-26.76763865001914,-54.3574662616398,12.114789323469447,29.17346057227959,-11.003135025220496,33.95132200805449,4,S01
13040,-0.30392357542266313,0.6422859496074376,9.438598074503476,-39.34069564938384,-46.23434943164408,10.885924188029447,29.051153485560015,-12.307750476026802,35.880337186334934,4,S01
13060,-0.3555558754582513,0.8987113245678464,9.324527526691572,-23.94965851013117,-36.160641117313915,15.349777170047343,27.558102938507123,-9.900342301617492,35.99197815611303,4,S01
13080,-0.17760892280727084,1.1540717694475242,9.634521409851995,-14.886036349950832,-19.58136031342445,16.3250243959402,28.820147651731162,-10.259262782590485,37.786031733268516,4,S01
13100,0.062116499600588626,1.277473815608103,9.805214269468324,-10.29852927668227,-11.29966575518345,13.653711196850384,29.895379546456617,-13.738754180798761,38.90381182029518,4,S01
13120,0.14789946800958814,1.4441158603084858,9.918994866904237,-5.065953519794295,5.076205798887582,14.356649802903886,31.29897022245457,-10.977162531103424,38.779162028306644,4,S01
13140,0.36591146626971927,1.7880567533917826,10.285772359027883,7.880712648583155,17.290732446399648,11.887255605881212,28.741348596621048,-13.093472565900765,39.250702533840595,4,S01
13160,0.4353779390349225,1.9058329780345533,10.53056151477778,17.60136104377841,23.81864806608303,9.897719914928874,30.24664881493055,-12.301122340481218,40.89547689289916,4,S01
13180,0.43801071239458833,1.9373672733933212,11.019011637301617,23.71371921074197,40.585276334078685,9.63225794810898,29.516658793184813,-14.37767115895251,40.31506546181673,4,S01
