timestamp,ax,ay,az,gx,gy,gz,mx,my,mz,label,subject_id
0,0.02126443925006108,1.5044844293645145,9.91725172082281,-9.564680457875548,0.5394038979612121,18.291393804613158,28.703631438579638,-10.424469458684925,38.60551999983325,4,S01
20,0.4184107404394789,1.7333143939834066,10.152925971307242,4.1515372029361055,8.535263064960029,19.59322805812597,30.756233676588675,-12.493967036371416,39.19024901295805,4,S01
40,0.5902311063586154,1.874774716946547,10.479682120722282,14.37589084044129,28.458806026923885,16.713962738617383,30.632157581265435,-12.08481536619474,39.10387163728104,4,S01
60,0.5582148575737338,2.0400232858988447,10.657074673313396,16.92819097397137,36.56365244294815,11.950395606671938,28.89764240148281,-11.584660411573843,38.6979122229269,4,S01
80,0.5426647098739247,2.0745414605959227,10.923109993372973,28.645873655417052,45.65639855131229,6.3697241133122615,30.822590269866183,-11.328369832436753,39.723176015635666,4,S01
100,0.666424474674215,2.3182864367628055,11.128749106756104,21.930597792823903,49.30528818870808,4.784663869244957,31.952141753443083,-11.442075916391685,39.21149469098112,4,S01
120,0.5384335248182225,2.440345276663486,11.55830654528186,21.516736334896592,46.93547135891639,5.873579259449782,30.397942928968625,-12.335182506434915,39.95087060717607,4,S01
140,0.7592631891628568,2.4899216644572233,11.637276789483867,24.412225858844547,54.59438844906292,-0.7826784469683067,30.76615460064397,-13.833621229485813,40.58868830056135,4,S01
160,0.557560596881017,2.5256657560919913,11.381685323517294,23.458891727455047,48.67962562162319,-2.3133520042803717,29.935069553941158,-13.30633731934423,41.55293370912514,4,S01
180,0.504899380448395,2.71248803261091,11.677609122185538,15.114764116943054,39.79382570671358,-9.697091521212352,30.153188744923824,-14.253154110924111,40.122568637615025,4,S01
200,0.3869514129103909,2.3864270349394587,11.329355424049744,19.699501667114536,25.527138607380227,-7.206487486628795,30.990975376999106,-13.637967537992685,39.13070732494547,4,S01
220,0.1837291056586498,2.3882822154679486,11.58165237425115,7.832811315388194,21.245868400724856,-6.5269521778623,30.751153031016624,-15.421570834633414,39.03682804318009,4,S01
240,0.23771231403238902,2.1779562876910243,11.421846884096508,0.9648318958371869,20.24435659304887,-19.954271582908397,32.66875853579697,-14.195893712507715,37.12962771838873,4,S01
260,0.3247843054859345,2.1870262424372595,11.183493019416465,2.806326216093546,13.09384837251049,-16.848469708601144,30.390452318199657,-11.887231549005271,37.11682623934975,4,S01
280,0.04635311228978439,1.897440394460202,10.972288464686171,0.3012762266237914,6.925965878135799,-16.362515995593462,34.61248079813521,-15.627730185128009,37.242280784884365,4,S01
300,0.14614935342527352,1.7157825127028374,10.882451994601006,-2.18062469943463,2.548721925986831,-12.08277218608176,32.77698006463686,-15.441512584424235,36.8982416317259,4,S01
320,0.05061102622502256,1.561140981582138,10.421793735088013,-7.331564271890918,-1.455187395426883,-14.987172157500947,33.259822215658886,-13.410253774695683,36.10600393219566,4,S01
340,0.1151276323158998,1.2230528139499273,10.301270354915026,-3.9988019302089004,-2.4972812834707008,-19.239057405853593,33.54184789321419,-16.406673772734525,33.96013763227565,4,S01
360,-0.04601721206129036,0.9725441166157636,9.954268391526037,-3.579089827479016,-9.30743867837815,-10.607323904619568,32.800146629071655,-16.220334879940317,34.21627265806362,4,S01
380,0.12593781529553083,0.834076367874504,9.631549833116237,-7.4026785350996605,-7.555201421832672,-9.667325030819976,32.39162937023732,-16.62319216383416,34.94416493186597,4,S01
400,0.1228857565657669,0.637929950318822,9.51364966213173,-13.316015561224166,-17.001540864305806,-3.505570625768399,31.51082450832582,-14.933423900154306,33.97348838667398,4,S01
420,-0.0628990164994852,0.44103197285711476,9.320062814740185,-14.627985103034785,-26.931252668624893,-6.540051236944159,32.4201103191881,-15.916742097440665,35.014562657395075,4,S01
440,-0.03986743012179622,0.3260873503904714,9.35027208209672,-20.818929255450502,-29.34382002067333,0.8451182279038566,32.67786554006167,-18.02293912473185,34.43222036435192,4,S01
460,-0.22820488658017388,0.17219237017155528,8.882290925052976,-15.750319715098161,-31.55932313804633,1.3173795357740898,31.990654619118107,-17.23055193740899,33.222879455788274,4,S01
480,-0.36718483413033587,0.191309403723539,8.905466682684093,-23.533038315292863,-40.96453402063666,9.44633937810177,32.651443609981136,-18.2440644890698,33.00882491026004,4,S01
500,-0.5656550723235293,0.18006839476068037,9.033663903317334,-28.91209382216575,-53.1648845273735,8.380879938240472,31.156869411000137,-16.848796704199252,34.9569277079605,4,S01
520,-0.5753931401282526,0.14154154515865774,9.123496467503777,-36.759788028609,-54.25653199741293,9.989087343458003,30.746674185918675,-19.52009974460779,32.906820243440755,4,S01
540,-0.47225043954992885,0.41063692468024154,8.82956830018409,-28.556882551401856,-51.213534537331114,14.088633035203182,33.79393395861588,-19.05785161634013,35.256346712260395,4,S01
560,-0.36806213583601166,0.34426972292716895,9.051249933851075,-29.356583838846678,-59.67838785412864,9.040255288170687,32.622238129897084,-18.9399163191005,36.1239326973659,4,S01
580,-0.32398399103263387,0.7170849974163944,9.153824684885027,-28.910696862999256,-40.64664239320145,9.175116593036117,33.610902271824884,-21.42824045919884,33.675469412609104,4,S01
600,-0.4279970964054054,0.8982036007675531,9.483782726959834,-27.736516220051417,-34.134579877867985,14.117320821142572,32.34300226422757,-20.194281967506775,35.22765158151459,4,S01
620,-0.4568524939316009,1.0283333712332021,9.830145621566635,-19.911356960396713,-29.180102492932765,15.062474629163003,30.948751184064598,-21.82329714175205,36.318388651779976,4,S01
640,-0.06877844036554934,1.292604980465931,9.90747758657885,-12.58416562708073,-10.199562237101071,13.921175120800159,32.34113498452706,-22.326637436661386,40.931952758955646,4,S01
660,0.22091724755041114,1.4305669095457552,10.093530156731822,-0.07679019132273801,3.4951633190911924,14.668023994638022,33.177893300948995,-20.615531614911248,39.111172361905844,4,S01
680,0.15719001254342832,1.4327631726162635,10.283186334579248,0.273652597388895,19.59490069578506,8.937194328023397,32.39252104370213,-20.767660564270585,40.958495807172504,4,S01
700,0.38071194160709554,1.9336342917879914,10.542471364365623,16.78163196754691,26.557527970469494,16.50346380444106,32.440113815565994,-23.25869308095874,40.337309956486756,4,S01
720,0.5408428272695033,2.104539017960134,10.819385872847793,24.249524606619957,41.45723922279444,8.757878123672102,31.097460034042467,-20.352822636618846,39.686519158635924,4,S01
740,0.6099303587776633,2.173993269607826,10.970401719265867,25.362538143289903,47.10425010098881,9.89892049087326,29.99881968087192,-22.867594780694603,39.879911831533015,4,S01
760,0.6407979294332432,2.471041190305665,11.267682274511337,18.15272705594906,52.040796071851915,5.818919596775261,32.322436821095046,-23.308990562547685,40.36517268829538,4,S01
780,0.7136878258277901,2.6779363651527426,11.281301189067394,30.36389422193839,48.68864634123712,5.7752837715943794,30.714104589564457,-22.060073450743165,40.41795320982367,4,S01
800,0.7772655009405128,2.656331932526541,11.42665690621611,23.679633893740274,49.13732068450657,-5.968863167316,30.00786206338687,-23.290075066843926,41.87780620683043,4,S01
820,0.5764562277217445,2.6734974503711193,11.524687980085913,20.803882270864918,45.951093177599,-8.302948526965006,28.595139200159664,-23.496081162951768,39.89104977364763,4,S01
840,0.4387311786076419,2.547896619254697,11.505735666147043,21.805461235169474,29.03584400939703,-8.496211332358767,30.50348811633506,-24.15626272631437,40.439402685349286,4,S01
860,0.3158980041433621,2.3877978080920226,11.435738626069607,11.84953252768857,26.10423723540355,-15.983157751701542,31.32517055188,-23.891673959917675,37.045093843282984,4,S01
880,0.44804378509918386,2.3743163910905345,11.466491670881565,7.856165013222019,22.93721195215638,-13.310025405265998,29.466041773207756,-24.354377984755644,40.58732818185915,4,S01
900,0.3314363927227214,2.5147717187111605,11.342419933580919,4.269170006270378,13.959869758851433,-16.084565303278456,30.275111234498933,-21.274667437866608,38.32040786649842,4,S01
920,0.2150120245682524,2.087737114132763,10.825574838189123,0.7930132527450109,12.8824589935263,-15.11069999538466,29.72024202384683,-23.454875933941082,38.832802432414056,4,S01
940,0.06604728667457033,1.9695778614951427,10.987373988821089,-5.382398315825187,2.28042618506211,-14.56744858271437,30.049780223999868,-23.62135294432266,38.467996273243735,4,S01
960,0.0401893734984027,1.4506709077237292,10.809218850529923,-4.468135221991897,6.9663638710571805,-18.19402538035219,29.165652149697237,-23.14945400698141,37.320947503402635,4,S01
980,0.2834431721975603,1.3918530693082918,10.232562240761094,-3.3515763655669097,-5.965540806961217,-16.234176680110174,28.70367829762032,-23.09029621714003,35.38702036396923,4,S01
1000,0.2089103210191285,1.0401252364566524,10.019920268949718,-6.611316248931524,-3.257244339790776,-15.961498991292524,27.921333550955307,-24.468965919166518,35.425346116219856,4,S01
1020,0.09420673616072206,0.924324755529818,9.908520214095603,-16.140724874302823,-11.680764207342811,-10.080637636752387,28.12476943616486,-24.74519847707505,34.704940069908936,4,S01
1040,0.008253368634755953,0.7126805693651137,9.825620827266912,-10.4820271237912,-14.59907635233987,-5.337021803685477,28.90812964181434,-24.809557751091152,32.70262617963476,4,S01
1060,-0.27605674219138576,0.6265409824708448,9.355985434106977,-7.393469213332605,-18.666558204828608,-5.565626977048271,29.639644609951734,-26.299976892285457,34.04975941406198,4,S01
1080,-0.07396831977275509,0.3404132284474523,9.198715344422371,-17.980310671492976,-22.974111956639724,0.3336374311007607,28.17883172674021,-24.311441773713085,33.684198034755624,4,S01
1100,-0.06305256916522692,0.26677869030148393,9.138971780512838,-18.573075474836674,-22.048821808699444,-1.6889929023766488,28.199660439658654,-23.1413920446811,34.022623641846224,4,S01
1120,-0.23679274004002485,0.3553306606787486,9.050942660216824,-27.052718752608538,-38.40924232129449,-1.2861087696724245,28.027702800696318,-24.85340338132803,32.18698937458255,4,S01
1140,-0.4316502438975117,0.08999870743682062,8.754406504449443,-32.05311115901479,-46.97637646028032,6.1782103271419215,27.25303822308581,-21.613008413074567,32.768424375209115,4,S01
1160,-0.2567722856742801,0.25227440162201265,9.049509563465227,-31.75386617788295,-50.25735850547385,9.364964825499552,27.265737893711925,-21.747223337764428,33.24914955143643,4,S01
1180,-0.5193662459159668,0.3316277659297936,8.998323199526947,-32.16635732542055,-48.15503239706343,14.559990619697482,26.764771324852614,-21.751113207691414,36.419325969316894,4,S01
1200,-0.5329176694806891,0.28638821813664933,9.17387383883738,-32.960514503700146,-57.538959445076486,11.38345663128905,26.775750243478303,-22.15432829408142,34.43128802194515,4,S01
1220,-0.4523577065093002,0.49126875715915547,9.169350131267974,-32.44112350405185,-49.695772271258264,16.47555306570712,26.870468178547842,-21.228492037942075,35.8763490981315,4,S01
1240,-0.4382522411070723,0.6610938752567757,9.259750496011689,-24.9914771589168,-42.10733490036963,17.23282596295568,26.130882007386244,-21.447931049373295,37.17750193706132,4,S01
1260,-0.10561451995569249,0.8752953492125404,9.453806136763866,-26.15042679849213,-32.194481398711346,17.429606762199725,24.56329081542073,-21.833280198882914,35.78880701666961,4,S01
1280,-0.13009639511751608,1.0380639129071747,9.723179098955477,-16.868665714717615,-17.84776759161513,14.385552527512852,25.687514106403427,-21.457737864434062,36.86577622980208,4,S01
1300,-0.08192415597966471,1.368950075718591,9.931651228461057,-7.079545545769959,-0.17928610202930062,10.862491213303608,24.93669634866656,-22.340287308689604,37.338683154441206,4,S01
1320,0.08069706166512783,1.4014276655726747,10.04104065792932,3.018993591072036,-1.9392740269773998,11.159359692101228,25.02821551813588,-20.181576505139283,38.69759215769304,4,S01
1340,0.2996574137904573,1.8449199844100148,10.34440050128481,10.447381494404272,20.90894710498485,20.864482476668833,24.944616737444033,-21.026453453007232,39.74668256356095,4,S01
1360,0.6948385692823267,2.0475478991475136,10.736375381780128,15.544932345068979,33.89698309200207,7.794213471290018,24.914238238295816,-19.196415562717448,40.747352086879104,4,S01
1380,0.604256226572123,2.0424516498647565,10.862453542538987,26.2079982927774,33.809105364379555,13.637728368114486,25.193481540658468,-20.435431085864273,39.76226753884618,4,S01
1400,0.5773606752512481,2.3736658418397814,11.148435410085309,30.03339866996674,50.27219679858619,5.782473552239074,26.514558970349327,-18.636339740530516,40.758197114943535,4,S01
1420,0.6494319267550691,2.396116428209252,11.37869495510018,26.482791394745373,51.44588452974903,6.560147379112751,25.014384903464727,-19.694642791935333,41.70228041626167,4,S01
1440,0.6714681337688854,2.4417006300761988,11.50278952797166,29.93295131203973,52.7249811611605,-0.3078082080093093,24.53461078172515,-19.094193089038168,39.98453159928717,4,S01
1460,0.6086831484940645,2.5838791540764974,11.503713892278228,21.744916761905316,46.819888609262456,-9.50362475588515,24.77428719786649,-17.561693191287535,40.91042596733612,4,S01
1480,0.4391875148085177,2.654313506834703,11.432727878557277,21.008165517558314,41.76281131404541,-9.099767178558654,24.276117600847144,-19.891559880442895,42.70217468663808,4,S01
1500,0.2872250541156396,2.4985732682720854,11.59503974832381,20.363049190010177,32.70539620462882,-8.609753754081975,23.71501902100324,-18.667065312797945,41.44520223482123,4,S01
1520,0.4454607624875351,2.285017835998561,11.481612242587888,10.81528277430218,22.327639826172714,-15.698135826081627,24.88531586859179,-16.89932117534191,39.47692000132019,4,S01
1540,0.19104870885120648,2.299063083997347,11.221772081054043,8.129844884681592,19.72973797349067,-11.361568691718798,23.48982942917718,-16.904244342082222,39.706671190860895,4,S01
1560,0.22760740964788642,2.204737716734779,11.293610320929147,-1.7926847860358484,13.472937662864329,-7.874618473276842,25.465005333902802,-16.660588458801676,37.49950352333408,4,S01
1580,0.2674578448359499,1.9031739712637836,10.879404872841196,-2.6186762455382135,7.3181137262015055,-4.873938557869701,24.974501906076455,-16.06653544082638,38.41182062570759,4,S01
1600,0.21064811010949713,1.8593740202651716,10.682721973574905,-3.492402058429878,2.1017510096458825,-18.35980938065426,24.580332445772278,-17.1552802861085,36.10514182978332,4,S01
1620,0.12978166280294595,1.4924709118198987,10.554555538325262,3.1947356714899575,2.666573056426409,-4.300057108836446,23.094435015782686,-14.829102511698512,36.533512670224,4,S01
1640,0.1969508845705169,1.2128464483900305,10.39866099529724,-11.86605239547348,-3.103084448507105,-8.998161496289635,26.081774016906863,-16.334050343704078,36.424034713624145,4,S01
1660,0.07816780492637351,1.1345132268635618,10.077583237565543,0.7711366836531166,-7.303803661955972,-15.274254114566892,26.38427329113257,-15.914807432333431,35.31752084846523,4,S01
1680,-0.12209962080306347,0.9619137407981839,9.650179206994185,-7.105774837214593,-8.968738257425317,-9.342483532898088,26.446423730450302,-14.704190958266244,35.007346234710326,4,S01
1700,0.019911240209155315,0.6887403413806792,9.530731758212324,-19.37779966830035,-13.211062421862213,-8.581951001564725,27.18306419001049,-15.272618048261625,33.763710383387654,4,S01
1720,-0.09271713404268872,0.5555618386032004,9.152578057764249,-16.33510555146338,-21.02244424739633,-3.3190998149520707,25.81584032898818,-14.999893491716175,34.2687914888638,4,S01
1740,-0.302658619124769,0.30926964455663686,9.294241320149462,-16.512810856755017,-26.478943286681176,-1.5724512595693283,23.955467038829745,-12.966237134132715,34.074433143445965,4,S01
1760,-0.23790402662773005,0.28165020488887815,8.893326287331325,-16.800773136743114,-33.42257343461627,-0.25375087612939773,25.604082669115456,-14.11567415781827,33.8498251858732,4,S01
1780,-0.3532250518035458,0.3055852808399574,9.007059790004957,-27.189487056367536,-44.21421215216126,1.9273089525966056,27.2050310706026,-12.342017687963704,33.70106687069501,4,S01
1800,-0.4343076852091068,0.3570283168953107,8.825535262315233,-33.181301583049695,-51.197246407514385,3.3167036610826206,25.429273185240667,-13.304016803651205,33.65527618006225,4,S01
1820,-0.37281480590818805,0.0974914422081265,8.939561459203194,-31.68207300098244,-45.19874782992216,7.701378390960119,27.865750078353773,-13.02664737347201,34.39859219227322,4,S01
1840,-0.39761773272810375,0.4347604461049623,8.969366593566257,-33.47661362168435,-46.37681234661039,9.041851604499636,27.11618901793037,-12.123674666191594,34.09914434265789,4,S01
1860,-0.4722864755056352,0.3958708526534738,9.120751499428563,-34.56292118991554,-47.0343105680024,9.29028589985205,25.421863785181245,-11.221909715867842,35.01433349721595,4,S01
1880,-0.4131676436631343,0.6035545542517078,9.18517951579721,-34.089753188695056,-46.22591543120788,23.71075374923946,26.63535775995325,-15.096530996454687,34.96121418601483,4,S01
1900,-0.4743479394065677,0.7744047743936393,9.328236393787511,-26.323294740279252,-41.682343892720894,12.36011275286322,27.826630884469804,-12.493974177094298,36.95104286538693,4,S01
1920,-0.19584531125958335,1.0897903505842967,9.581023469232258,-17.22923835289577,-25.803596066654848,16.07910500638956,27.25033808162598,-11.42508781045629,36.40370626504977,4,S01
1940,-0.26444581349259866,0.9491222504862795,9.613687626289734,-10.485601252547884,-18.56282283709013,18.77173717167443,27.86876000241457,-11.709389136406031,39.25434408823048,4,S01
1960,0.2578550993062164,1.3683999902655437,9.896034810666182,-8.784506886052174,-2.9405818262616954,16.29684614073156,28.749637938089627,-11.167710837130876,38.77041925251646,4,S01
1980,0.13877096145433288,1.5635263644713853,10.342607386176846,4.037565263326516,9.755173995049628,17.158500802613005,27.3295333235691,-9.673997004198384,38.30537087125795,4,S01
2000,0.40021625663784977,1.826574194442242,10.407594258231754,7.637293742562732,23.814636803704452,11.864386187738464,28.17127072132479,-9.996050954576535,39.905573830157884,4,S01
2020,0.47803097553683116,2.036542081580008,10.752185339231096,20.596121475370044,38.28467923140676,5.731059156500557,29.28700902466635,-11.517850327661456,40.48193859854,4,S01
2040,0.5844134448861333,2.1747841960750827,11.099769648361114,22.216699683026462,43.84707759393298,7.536798043880363,28.3783903339,-11.919948781360098,40.03390597612532,4,S01
2060,0.5097119803360256,2.3124971653996433,11.186943745652954,24.461623893613474,45.39761927190795,6.500247954219719,30.354482699376767,-10.962940897984407,41.617929140394416,4,S01
2080,0.606699784516186,2.4149659327869197,11.472657138460425,23.382962339979294,61.506654268104526,0.6526336727549489,29.778435681856003,-10.081240168676494,41.483214608596256,4,S01
2100,0.7037526068655404,2.4333726521035293,11.577468992039327,19.550512255273855,45.54837966609673,1.8999417037455126,27.76771321953038,-11.912898091537134,40.678405108971376,4,S01
2120,0.5494705920317325,2.718363084502444,11.629334781102216,21.735186255751266,42.43296716897515,-7.476195933814651,29.083258625010824,-11.110235481114856,41.86092293804903,4,S01
2140,0.6816075755828753,2.496560903061894,11.527798120215396,29.34154666030965,39.275863186307106,-3.503374724473877,29.19152639170076,-12.789058343713531,42.04049722956622,4,S01
2160,0.501389145106861,2.566922264010481,11.539222062329175,16.594541889494646,30.256750068344584,-14.087948236941207,30.698388024691724,-10.459230710191855,41.40307317803476,4,S01
2180,0.3345628430683163,2.408192275194002,11.435464998957709,9.138692359432238,21.083558394852485,-9.3800011223035,29.051869394052293,-12.610428329496543,39.01323447120603,4,S01
2200,0.16542298766516766,2.279163319571536,11.277462234041149,5.6493655305239185,20.827144161948198,-12.326934860142275,29.23955506373686,-10.853204193350155,38.82194788020214,4,S01
2220,0.17135844963156482,2.0800128134734126,11.190243863503403,-0.9225365052824386,12.022823440064712,-15.205002616665997,31.830834659545403,-15.099227729215515,38.264591119380505,4,S01
2240,0.15653942396271525,2.03841152060754,11.03252301763894,-4.885729924496109,12.135664792695424,-18.338598526809808,30.646146237227367,-12.882574368710658,37.69802366769254,4,S01
2260,0.15012228494589552,1.901318044027348,10.672100533972781,5.713129107668855,10.236025213161,-13.00669805072942,31.053477604127178,-12.042927058617403,38.65757148702851,4,S01
2280,0.06526026820146635,1.6220897585317668,10.394041222417751,-7.296736236044781,0.6741039928086419,-18.044054464879547,31.57466008369934,-12.825811641303273,35.937444147684985,4,S01
2300,0.21793904512864393,1.1941689632482153,10.324892185175816,-6.79918829929502,-5.059694846255079,-12.309472792206348,31.33835793296859,-13.873817594589463,36.48688480160211,4,S01
2320,0.15291863689530005,1.0412642961079543,9.897733855092245,-8.22078913225078,-5.75952306816863,-13.757389277125828,30.481681063628685,-10.433740786473187,34.83692686852726,4,S01
2340,0.25131830034778857,0.850993345234895,9.818954689414383,-10.586588219286554,-7.1906212357550645,-6.78226396714059,32.5856089684534,-11.702757772920549,35.56827663551121,4,S01
2360,0.0906207056964295,0.6200337076720714,9.545487615201637,-15.834124230503207,-10.414189520263779,-5.181065581089768,32.19271630563503,-14.001054421253428,34.008296822326,4,S01
2380,0.022205703139118196,0.5284426129997999,9.304098900351972,-6.637498211684148,-17.602055198640556,3.6443529813701967,31.14722650520738,-12.57558673104889,34.00063295997569,4,S01
2400,-0.15328735091476067,0.2965398871719326,8.963265534467224,-13.590652455475063,-30.30926033065096,1.7864451588252517,31.356812627027594,-12.863163500692233,32.962788074547205,4,S01
2420,-0.2076522523859158,0.30426738475817117,9.078441428214006,-21.903711121205227,-35.814636252558856,0.27184567312742314,31.837775405583983,-15.047783540206497,32.177351740889065,4,S01
2440,-0.5229594010362087,0.12278666691972084,8.939877809276096,-28.965650314957898,-49.453498535999174,3.234275667058748,32.48395193520655,-15.8137381069055,32.53941246943759,4,S01
2460,-0.38667615756828233,0.27079537225610373,8.983312758370554,-31.28956211699414,-48.466136000007836,9.007946239860548,31.736325838482806,-15.7320707797789,32.05717228089216,4,S01
2480,-0.5425578793870154,0.2812284081975358,8.954950456508142,-34.980917790567865,-46.56991543561421,11.959731562119336,31.92452122305933,-15.375146897689891,33.68522213207218,4,S01
2500,-0.5802239227094232,0.44799731708218565,9.072617597593023,-36.813923241551244,-47.881234058039645,13.688937461968598,33.0637311129252,-12.420363770659307,35.98678867358733,4,S01
2520,-0.40236792150694534,0.45059194033089695,9.192373939058474,-35.28093554291173,-51.30949818938413,12.077150741163765,32.02993160040613,-14.821547350411072,36.135849382042096,4,S01
2540,-0.24582820405002262,0.4930803795099357,9.121005937497719,-32.96075278576242,-46.14805527631428,16.475862071279685,33.23505110414314,-17.329265927840574,36.065153592300355,4,S01
2560,-0.27034256765617826,0.9541723070102466,9.280364843311649,-23.53341087035303,-42.31209712628129,13.842975174450926,31.404462420459975,-16.05448000938453,36.60493274784936,4,S01
2580,-0.2663908472140395,1.041800337660404,9.623329600137916,-19.802790597228373,-20.463969578137764,16.282465165944025,32.62214418846095,-16.274372603987402,38.86055027001941,4,S01
2600,-0.24331144114836575,1.2117639701787133,9.675674082210346,-18.329097325813915,-16.15185181692343,18.101633780508536,33.279979504200774,-16.76727420625675,38.00026932253079,4,S01
2620,0.161405434844977,1.5428808020731364,10.00373487148996,-9.245481010977834,-0.5637183813911897,13.294233197469367,31.028415742957517,-15.895743052703018,37.84014914884019,4,S01
2640,0.23370941970604917,1.7635978616896755,10.340882893189411,9.883844888790321,13.80870768697278,12.175774801993551,31.39966022087491,-15.585943764980687,38.55546165404117,4,S01
2660,0.4526804584759355,1.8647166507176605,10.547725846768856,13.974563404444616,29.060695940646426,17.81200083003699,32.05956142954574,-18.199887792770213,39.4294816190398,4,S01
2680,0.6295742571753358,2.075888639643122,10.754334005638722,21.174310799010605,39.906577820191416,4.166860699854731,32.27977091354445,-20.096808669072736,41.43375060077397,4,S01
2700,0.7180503707533791,2.451048182434654,10.921502788683794,26.64453692437866,45.91112782304092,4.670167923592922,32.86169496534669,-20.794076849296644,39.13551808825534,4,S01
2720,0.7412707385675942,2.5648147382335647,11.309583374228444,27.715205073378968,61.529515053836754,2.9339845407424905,32.193634701449696,-20.854434392879845,40.61920628269884,4,S01
2740,0.5039203215372753,2.392995249362779,11.471334363238931,24.153532515397327,54.13848426624362,-2.3303130690593084,30.92492807952994,-19.61152903406066,41.59973891681932,4,S01
2760,0.6702477087853604,2.712001267446892,11.574555693471762,20.71186749138256,52.00285684600277,-6.313226473694989,32.87131115928827,-18.989168835489252,41.17887663498841,4,S01
2780,0.43622146971773945,2.5962400719201186,11.624374371550983,22.306757414737593,37.33167388877459,-6.31440891600183,33.34689248630082,-21.201551644593028,41.59501739398209,4,S01
2800,0.7117516383785975,2.45070254201215,11.693605686345455,22.25639854944801,33.0062542693639,-1.6681785619163993,32.149051375860665,-21.55454181415554,41.272349082047036,4,S01
2820,0.36984782274293737,2.52794544801351,11.60823179321388,9.772703707496284,32.769286787853254,-9.50876659225376,32.47874382362508,-23.39582549326488,39.844093498213695,4,S01
2840,0.44119033631159765,2.464506928611453,11.4915650080127,10.388756267948093,19.41210425627112,-9.07635249174045,32.905437775258804,-20.353007337760616,39.877826518083516,4,S01
2860,0.1917531945663754,2.2752552621255213,11.411446722357775,1.1299432697442837,14.245335429138597,-19.5823810205,33.10360123272124,-20.62247062054675,39.14327239339807,4,S01
2880,0.2985584924445812,2.1313504196139625,11.229886428622953,1.7500977111205671,10.081400676758877,-14.435388921647794,31.78312666230273,-19.693625168281514,38.99134293109993,4,S01
2900,0.006772086038644445,1.6718991684996594,10.755663613755457,-6.730220342827199,9.982970889421608,-14.705981046104094,31.011487807204475,-20.381580946823515,38.10543350247397,4,S01
2920,0.2257169976619734,1.4818995003995157,10.62128581753453,-0.30080934419337035,-8.070892984280638,-12.944866467394801,32.09581996103922,-23.04582169816238,36.558862569924486,4,S01
2940,0.2542718169764022,1.3509305787266654,10.44984700549824,-12.279408910120644,-6.654087671542329,-17.1497981398249,31.591447544265367,-23.452549633796377,36.910953618689454,4,S01
2960,0.042500221194084045,1.2259674849832045,10.096687516662485,-9.81614225151274,-6.266174822979286,-13.658832828228899,32.87695693497942,-24.499326960124208,36.20912754452786,4,S01
2980,0.17656871843802813,1.020988870331149,9.784041480152537,-6.213617464933592,-4.540236586247015,-9.302504846303952,30.669950723782684,-22.666528262410118,35.161025815059475,4,S01
3000,0.15311061875879742,0.8032315692980605,9.778116365414155,-0.8794523473087539,-18.493454215229892,-3.9104716266749926,31.726264086651213,-22.862702724596595,33.39934167602853,4,S01
3020,-0.08324546345566464,0.5207570521773373,9.530292606365661,-4.52256679954463,-25.441235417037195,1.3078782714439234,32.08686796547828,-23.25001954815493,33.57656234809236,4,S01
3040,-0.11138582188913398,0.501385506946679,9.114288889951116,-11.029143594138056,-25.40358683962719,-0.9696804564389857,29.646181598812834,-21.546874874313723,33.81479402931141,4,S01
3060,-0.3706366079695742,0.36729201039746945,9.019142431522825,-24.69924193528464,-30.879557062932694,-0.6640720622789514,29.662153659999596,-23.762803329512785,33.728681358667,4,S01
3080,-0.19223726221892687,0.40132170170562026,9.058435378139263,-19.173708641079724,-40.464584924744585,2.7432033409468985,29.18206264918528,-23.425317883758822,34.99698989481253,4,S01
3100,-0.5021482797134726,0.21027359980158855,9.115451010580449,-31.21236461048978,-47.64261057145403,5.847819178537729,29.876511874671667,-24.350714386928175,33.75750347047094,4,S01
3120,-0.35354456885781593,0.11573926561668399,8.926927612477524,-31.375424198232164,-52.24389219549923,6.856453741083778,30.475858619476828,-24.441670496968886,33.02670088243342,4,S01
3140,-0.46423971578633483,0.2470431601090799,8.787408852347076,-33.95320669909589,-48.010064483275514,9.574887606784722,28.32069286992851,-23.013246600700448,34.43262922220451,4,S01
3160,-0.47787960353746994,0.3732871647781625,9.11363757807181,-34.64434502764742,-56.154159039023085,14.000731830268807,28.311012684687203,-22.959408495462633,36.02224339868187,4,S01
3180,-0.5204461657332629,0.6326801939885884,8.954170836536948,-37.25246027257114,-44.88927476763487,13.098547203170126,28.90765052258333,-24.643016727545533,33.90201295032533,4,S01
3200,-0.29181570648128796,0.49724179471872215,9.219303131488651,-24.854656580842033,-39.81896390055197,22.180061691351334,27.636164379604285,-23.68294876324085,36.02756005296302,4,S01
3220,-0.2915736482270125,0.8488306649198534,9.314223507346927,-27.080521099227184,-32.77530676315363,16.667530542537953,28.262203800852514,-23.15778970411581,35.07638169259158,4,S01
3240,-0.18119102333976103,0.9451648947587932,9.738956740219054,-17.746912865750154,-12.936781468867881,14.841159868261341,30.88232725374357,-24.92283775185302,37.344400330378406,4,S01
3260,0.057353358359726325,1.2630405890912613,9.903859166929799,-9.561830535418729,-4.260184805287039,15.084097278558431,27.084272904209037,-23.123597118247247,38.10454023600244,4,S01
3280,0.12157078379001746,1.5857835050576903,10.126506694395745,-1.5338412434594395,8.001773772567393,5.558520203214815,28.304565469847155,-22.87840528433723,37.78217484796188,4,S01
3300,0.5459539732116592,1.6795964052486088,10.403245963381469,10.75849711499691,16.53773279228622,7.324139876924162,29.30183966927188,-23.640837450155377,39.965488333256275,4,S01
3320,0.5738715863201449,2.013180749775704,10.572152952190217,22.01563559798726,38.172096731450935,17.08018578235454,26.964886091222144,-22.415705960327877,39.45006612810719,4,S01
3340,0.6364270075030054,2.04575317707867,11.11366799454999,19.855441052083105,43.61887206894448,7.015427322106315,27.66302462156188,-22.32364396166449,38.447210524902204,4,S01
3360,0.7397385847190265,2.5011992427789305,11.305078091178189,26.479891260914943,49.59652202657542,9.221891263737911,27.031696040246533,-23.99439598634141,41.09691500146672,4,S01
3380,0.719515422003759,2.391112777359648,11.545536664464702,23.680336166992085,51.65266862739083,-0.5582934797272346,26.81800173943748,-23.72894279544732,41.583994315411786,4,S01
3400,0.7955364655318742,2.65135802068771,11.267720042008559,27.102541256197444,50.64462331376295,2.7154283826107526,27.05470066816588,-21.758257581466122,41.127859656408745,4,S01
3420,0.692387295444247,2.478712291868799,11.463569349968271,19.6942137890958,51.21989435401974,-4.691744215697817,27.492542059445388,-21.874389322234563,40.67798933645981,4,S01
3440,0.6078597278749982,2.59683507222029,11.69865773713324,18.725069054187202,40.45691055458587,-8.197001829272871,27.690110678689695,-23.697044739801928,40.97707711372022,4,S01
3460,0.4972010145086003,2.503237055152042,11.717321493848434,17.829480000383988,34.75825232956716,-3.931716886707402,26.575719520103316,-20.32482285839,39.164393671804234,4,S01
3480,0.28193879491440343,2.279356175281882,11.569093330699685,7.0179517142669345,20.171673436136672,-11.609363592320555,26.660889377958195,-20.443078298224712,39.15660602264425,4,S01
3500,0.22599755632145266,2.2367711252084552,11.328239021994985,8.678752659935238,19.01795184210076,-10.590330949248479,24.614284675627683,-22.546241824578104,39.09559092102535,4,S01
3520,0.21712968698705953,1.9790066939116169,11.229361961282684,-4.648734234035829,9.2949601217843,-18.51849659350421,25.21254481769548,-20.881286548031177,39.24160552454195,4,S01
3540,0.25808603877320635,1.9394361469565593,11.069677048286508,0.38769754910069576,9.77495320770794,-15.634046395342905,24.71943581461445,-19.843902000541796,39.916229587597364,4,S01
3560,0.19671699682662597,1.753890833676341,10.748313473989075,-1.218776449665886,6.387137070352442,-17.16517255704094,25.999816583375832,-20.035656302044544,36.66719883706277,4,S01
3580,0.04852098020496133,1.4446371800524667,10.483885984150437,-9.729793444138846,-3.0015630498905166,-9.437819193533318,24.59642551549102,-20.002717058637742,35.76089737889575,4,S01
3600,0.2584779204652161,1.3614029629205753,10.254374632886538,-1.2794368728759258,5.209880496966645,-9.848112126131527,26.294614464371115,-19.10374575742579,37.42573090611471,4,S01
3620,0.12315611054723363,1.1547329116242269,10.054128577537623,-11.938194779506151,-6.1435311764242755,-15.324136049285558,25.533860617363,-17.063105745793074,34.447912251796666,4,S01
3640,0.13469486764717656,0.8006950336582908,9.804315308123376,-4.58754491633926,-10.20021094711536,-3.253766243207544,25.42760234584869,-17.565936938951573,32.47554442884793,4,S01
3660,-0.036189128603468956,0.7427407598214446,9.536358920977293,-8.714414817685373,-11.916328859871617,-3.0840961657603754,26.20008379775858,-19.570618914922658,34.14202375623427,4,S01
3680,0.03136686388083461,0.3562376995057638,9.3517768029985,-12.181812460755417,-21.061561793225017,-5.526691957145726,23.63854288020201,-18.57166934095657,33.77384762088394,4,S01
3700,-0.16496712895109497,0.23633223257720187,9.127756410323947,-18.56977535187452,-30.65534038669219,0.8263471919954356,24.199824582067954,-18.221822167629757,33.50177698327305,4,S01
3720,-0.34796707054844545,0.183527861171975,9.089764178352155,-19.56549832449655,-31.22784398729534,0.35349928124774943,23.70722978498204,-14.67875075152655,33.441967360285844,4,S01
3740,-0.3745289705023602,0.22924917499556435,8.934731883457182,-27.893787786385513,-47.89193959048781,1.7544592616548118,24.48061319628385,-17.461216707743056,32.82714061548453,4,S01
3760,-0.4072022179233583,0.27459119867281967,8.84246895539465,-25.256658827444074,-39.407196612515975,6.227472119116193,24.93967150872115,-15.098498338898725,34.556847876284266,4,S01
3780,-0.5363939583387678,0.3741729924421799,8.944060375833292,-35.08599823281609,-48.68834854009997,10.223216858568959,25.11862119390975,-16.379387453117957,34.357366155304256,4,S01
3800,-0.6465611567627585,0.3929860915172667,9.029801106913547,-32.195722961097225,-56.253991128751686,9.703478777015048,26.254253331375622,-15.392328696211388,33.59613917923972,4,S01
3820,-0.2912937710648009,0.4601322379938096,8.951678513328796,-37.57733848791187,-48.94513100736012,14.964948271494633,25.21505615765222,-16.32605907587447,36.177987724880445,4,S01
3840,-0.6388971680152341,0.4355598648087125,9.052131708008176,-28.815690179538105,-45.91095622880478,20.24449527102948,25.223753790910678,-16.578998146117918,35.51532299484897,4,S01
3860,-0.21328822753819507,0.6996633850574556,9.442931737605468,-28.808905906127887,-37.524461458576624,16.978072215524715,26.50299005761445,-13.543242392801229,35.99085986933857,4,S01
3880,-0.18992386919500506,0.9951541898429836,9.532165138547178,-19.9509114293901,-27.293860173273004,20.041536869263012,26.61616726953092,-14.606739345717939,37.16495728249539,4,S01
3900,0.029614209420926116,1.3051080503179897,9.743755934055853,-8.812520041106586,-16.782967692580677,10.494547157879044,25.858829861369365,-14.287939702929478,36.87253045077683,4,S01
3920,0.04965931167115804,1.4327375481078455,9.804729659972717,-4.487806711959927,-3.8159772886139187,14.739704003017215,25.216241020135158,-14.746398075797336,37.301055982903655,4,S01
3940,0.23653243736489782,1.354583493188608,10.36042987343214,6.2683264793947275,11.535669853731017,15.704625216025422,24.31822863352699,-13.022539607894688,38.935269032368005,4,S01
3960,0.4541044048506252,1.8167335508498503,10.650650677087155,11.57095117577764,24.276480485929255,14.404140055572428,24.7215513280082,-14.450817678048168,38.74271934963985,4,S01
3980,0.630948521746289,2.260184053972087,10.79586546487032,22.480587310749154,34.242121354983546,6.396021795790892,25.545075275058934,-13.486100432932588,41.17230958141514,4,S01
4000,0.46244770523884704,2.2241548906394355,11.155457091899445,20.202870050304206,46.45720996431024,10.651313301434906,25.525752957298927,-13.39959208527212,42.55603543678242,4,S01
4020,0.8775849571090727,2.429168895455461,11.260612864017252,21.6260431035756,45.761125929733524,3.3593741965388486,26.57247462548918,-12.538719158907007,42.00702385093289,4,S01
4040,0.7919615506835415,2.555909523706039,11.387089928010887,36.701281962515736,58.19946966873583,-3.194524161144337,27.05394604103856,-12.770384193070992,41.90112828159424,4,S01
4060,0.5579260743662591,2.5008117692955807,11.601919479868954,26.058876620425885,49.943973684178644,-3.7649697385234586,27.640415348027616,-12.3378785359836,41.62035800319447,4,S01
4080,0.43157652079332276,2.5260128119568384,11.553848057805677,22.824418636856517,45.419753636323506,-11.414280269125927,24.12310436723898,-12.044399369657214,40.3940662555286,4,S01
4100,0.5213470309165676,2.669809191823232,11.652909657443145,14.546647287218441,38.64329466597781,-4.013325633116432,26.683999469495344,-12.671167448045281,40.95240615245224,4,S01
4120,0.42129125991680016,2.4438572785911945,11.63897142228344,7.756161177574053,33.41822081136275,-12.77760558601539,26.90450138101082,-11.478048371566686,41.59864387159729,4,S01
4140,0.41912572477361776,2.4988435650234657,11.336539497271573,11.316774800710931,26.265966554014387,-17.951912399203174,27.590306256868875,-10.349375478776308,40.94017427507656,4,S01
4160,0.30554296291254235,2.3250433929135657,11.297894277126893,0.16199685247307372,23.716823523094863,-16.483436431573416,25.07182117884236,-9.571688239014774,40.048110103769105,4,S01
4180,0.24590955748378213,2.1497046011945717,11.182485627667852,4.744627671475423,14.86958473519594,-18.573448244521927,28.710173652550456,-9.925116604376282,38.50765839030523,4,S01
4200,0.24603898819159223,1.8361443491508675,10.916338087142652,-3.973374175382584,11.09745172409708,-11.158387369516861,26.454780948764448,-10.437387809066346,38.4670612806745,4,S01
4220,0.27947761452500874,1.5176170347053013,10.665032403021236,-0.3377411444580205,5.86466400257616,-10.617706356791247,28.716257199090432,-12.43347925179182,36.65172258743556,4,S01
4240,0.0317174425383122,1.4524859776761558,10.553913855410064,-1.6964456250043884,-2.3541223639170097,-14.336835416755225,28.374749408918984,-10.949645147731589,36.592722131562944,4,S01
4260,0.09031959356995602,1.1452881629672205,10.210173189618297,-5.625235341055388,-1.3752394682144902,-13.523269213721447,30.69433328318473,-11.141986334756842,36.03660522754218,4,S01
4280,0.1036262608045201,0.9508013506967516,9.856468003760863,-9.094771677284736,-6.345893468930792,-4.238626508145928,29.97376175628423,-13.768206472962454,35.43778137429966,4,S01
4300,-0.07696190141615553,1.0784945637500551,9.580906691870378,-5.234553103693654,-12.888906428152051,-5.249459167693164,29.79241371458817,-10.110442397796295,35.19183813188513,4,S01
4320,-0.14067767499854528,0.5639945522464007,9.287545625876072,-8.960473629216684,-12.789712086531706,-6.077417268005725,28.675731540646854,-11.129836083575274,33.19828894747239,4,S01
4340,0.041875584895253296,0.512407645478639,9.32983132770329,-16.609513338175454,-17.906456026879916,-7.82748336151681,29.776991977035138,-10.863134006142744,32.34124704795593,4,S01
4360,-0.22623822774580668,0.2392464938371613,9.143391676945116,-23.454598667371467,-25.20859767394861,-1.37118434933842,30.866828676722463,-13.133578292009567,32.51514188204316,4,S01
4380,-0.11270557638679732,0.13440761612135532,9.14060088095511,-24.382041484222583,-37.25633830322206,1.2734258336716198,29.96385732041982,-13.746037346844211,35.61556183197963,4,S01
4400,-0.3619756646298926,0.3875732523302948,8.9872875354257,-23.11704084668596,-45.53949189844059,3.273210150047153,30.954776973125455,-12.630437005784978,34.89840473603345,4,S01
4420,-0.39510100508580115,0.1855866613034286,8.733857847974441,-35.95184368381433,-48.985338768829074,12.089775280889468,30.428984425421174,-9.773168888719539,33.89428328932667,4,S01
4440,-0.5170299852785248,0.3667048122457325,8.893926848996125,-37.32802160917568,-48.141084637644056,12.471824961221502,31.980271598399604,-12.8254276215538,34.37273096349853,4,S01
4460,-0.24089141527445299,0.17296859563187247,8.977463237464582,-36.22673080562825,-50.23158512613523,12.568139169501672,31.04236725889646,-10.50392720646381,35.3146636632374,4,S01
4480,-0.386763328966504,0.47963520004781707,9.16384981996523,-32.362244196246735,-54.16865817883189,11.904393728666117,30.272375336466784,-12.84283353923328,35.076346696068555,4,S01
4500,-0.3563777902520828,0.6965274613774075,9.141529854189336,-33.94137538200113,-48.63799403468027,18.819806650982713,30.583194452267715,-13.612461463604738,35.19261837048853,4,S01
4520,-0.5160383296912844,0.8296970964989492,9.264125134791135,-23.308635043318272,-41.606513109464736,12.678842322002934,31.394033791696156,-11.858504331702346,35.157156437623144,4,S01
4540,-0.27330270978226345,0.9318533766521433,9.487302675743425,-23.273328308207024,-29.959615595398358,14.072757854854897,32.800015456473304,-14.673149578865699,37.53926665949116,4,S01
4560,-0.013727526205111196,1.105592218963697,9.792434763169974,-10.023215331299781,-9.937885973183668,14.624830574952654,31.469867035454687,-14.42031922101862,38.081266520313406,4,S01
4580,0.2874920196845313,1.5644074487529596,10.048913261295368,0.5810998461345163,2.5171706056260046,15.624570309883392,31.727757691661964,-13.366165061296407,38.92287900056092,4,S01
4600,0.24003765530173773,1.5992588733663122,10.36706881608377,7.429426291141746,18.15317895632961,7.1535258181957335,30.990294668029005,-14.837292365229267,38.58877045960012,4,S01
4620,0.3479772633573165,1.8861803496927663,10.588955368478267,17.848644327372856,26.957432579479665,7.29933050193142,32.169164914054434,-16.17232905642126,41.28434204582486,4,S01
4640,0.7414106801221239,2.13078819275322,10.870452028058727,20.68201798587026,37.06746461719605,-1.5700718839270524,32.11430979303965,-14.904315229219662,38.79678330929917,4,S01
4660,0.6860064281886623,2.335476240126119,10.970469423826195,20.873711959537808,38.12117117341998,3.507599569902214,31.776580685871902,-15.218627442363626,40.24999889054912,4,S01
4680,0.6618270246526046,2.3457906764737455,11.342033816690671,25.76652255472669,52.68617932281095,7.92776188498242,31.814428185520182,-14.967020386521956,41.705348125066045,4,S01
4700,0.7008695139841562,2.4563121889503843,11.39824588456234,25.27276621598137,48.55613683840139,-0.9058131961966748,31.314405513178134,-15.887364321965785,41.32286704401982,4,S01
4720,0.7301425701110056,2.6958760555653853,11.410588427865598,28.520357635989253,52.81157425706161,-0.27768706339385674,32.98530982334292,-12.334590402665956,41.73608257941035,4,S01
4740,0.8658761370768779,2.6285947627668063,11.568394594421731,20.90408621580149,43.318963694000104,-0.0367486691626141,33.15642668766131,-16.04549493064072,41.346060935893384,4,S01
4760,0.6257696117805179,2.660016312805144,11.56074930701053,14.999496180732056,28.59397567469104,-7.215381618666177,33.32162970685961,-15.83391521402353,42.07320599397807,4,S01
4780,0.47342748482689745,2.7636469242203248,11.384011542382868,10.30640051217571,31.209154228089336,-11.984466743277427,30.75030467755356,-18.05878340317293,39.644467303343234,4,S01
4800,0.28193531037383845,2.2173575550691225,11.729977396429533,5.782382104944602,19.686220664585097,-11.097977259895158,33.12539094155359,-18.78865957449261,39.03590062359244,4,S01
4820,0.260204956416317,2.3264498659381583,11.306167324051774,4.7439443306739895,13.114273234745877,-12.631922431504616,33.36599061858147,-18.009894117859893,39.46725052164186,4,S01
4840,0.24143559807510992,2.094950281801429,11.173489351983344,4.120459611427058,10.432949393223124,-16.175687783672146,32.372175596717454,-19.16899867547381,37.45093101659355,4,S01
4860,0.20441882365846425,1.7961246455797872,10.677630393603698,-1.7804355733963018,6.029586474347975,-11.672632064152134,32.85287024810853,-19.127882864669157,37.622155594121054,4,S01
4880,-0.0027298250847069827,1.694776164707705,10.470507181223422,-5.724516388137348,-1.3935528638233599,-12.49994227380399,32.87288458178792,-20.162784125817915,37.54014096789043,4,S01
4900,0.14483843994114382,1.50484992076268,10.33614861294442,-6.474263969812019,2.3290209876278434,-14.175632440689279,32.117067913068254,-20.26591303019859,35.2277019060293,4,S01
4920,0.11529533247035906,1.029921009196445,10.09635054544407,-7.190553819174676,-6.880083467253296,-15.653366424088167,31.748266585760643,-19.530951232994656,34.75297058587218,4,S01
4940,0.03642084074037838,0.8301124651933902,9.8917935865008,-8.578603844725045,-8.970152239883234,-8.678172841201645,33.25367972781539,-19.475781568860718,34.633488174113126,4,S01
4960,0.11656413464348606,0.8566121187289284,9.717393804859285,-4.51875037065369,-10.65904587840785,-4.8842501015421025,31.649676648081225,-20.888613562355122,35.499427895716465,4,S01
4980,0.06932220223033271,0.2910624823972464,9.574119651602363,-8.6037617935325,-15.23140626400711,2.333902661409874,31.969160118962986,-20.911924721247992,34.57173491399146,4,S01
5000,0.0850855926158362,0.49908738128643765,9.33068613922512,-10.565692856551626,-24.677968203561264,-1.4052649248332632,32.70278664073432,-22.36319804171238,33.56810564378096,4,S01
5020,-0.17384212924059303,0.20853707148697065,9.064007835846054,-21.873899662163808,-25.533314857516416,-4.858252160979135,31.241592835794943,-20.711872101404552,34.390574731011114,4,S01
5040,-0.2710219414891373,0.36576898378586453,9.081045741928438,-27.576473120021184,-37.718562515059475,-2.5358067575700756,31.359287082027254,-19.60664120796895,33.897010850847224,4,S01
5060,-0.3833504632247895,0.24777979986781612,8.858053458660184,-31.7441262094713,-50.08292502542288,5.7512180512877995,31.509040720696945,-21.512064714490588,35.315855245554296,4,S01
5080,-0.3007322424890284,0.2584183752271464,8.919040712282397,-37.21594475067353,-56.2989183060584,2.4770241724576105,32.22702506656533,-22.173684844083873,33.36513024270617,4,S01
5100,-0.44150619929981694,0.0865918305338454,8.782468107128958,-28.300274002168482,-51.754794099239504,3.705382285138294,32.17927771858193,-21.95462349939563,32.086067137176315,4,S01
5120,-0.2829850967145848,0.16501185165595517,9.073992063694986,-40.44277099406722,-52.54129893330781,13.410863741591454,31.783321463238806,-22.475466273335684,35.42088686684798,4,S01
5140,-0.455425913567131,0.5524603932643812,9.25210651830273,-35.550331453493065,-50.237130302809454,12.682462385719724,30.07911330775686,-23.333009863821605,36.45414553370548,4,S01
5160,-0.19675735072579295,0.6024525979215989,9.4034385778702,-24.904425808560486,-50.20878446689913,20.042176933594707,32.3063101359177,-22.10959015175448,34.97036736027735,4,S01
5180,-0.3614199550868581,0.8405613096206632,9.527414554627603,-25.396743266996953,-33.488745105900406,13.960464577954433,31.444131424730276,-23.949148176408755,36.66934522224319,4,S01
5200,-0.10698997994935536,1.1896338125644765,9.702860538416218,-15.305321251528078,-18.34922397288631,10.7190904134837,28.65194323988035,-25.22102166017662,35.17839773619691,4,S01
5220,0.027264470968524454,1.2819613428199992,9.792375392412154,-10.820662973458607,-7.008872877697408,10.673803458290353,30.460240712514388,-23.93346236197632,37.02236927206033,4,S01
5240,0.028370175754917626,1.4933662180817133,10.207192646566385,0.6477477656638166,1.1054392884848545,16.222942182812922,29.51519496593696,-24.48975775777973,38.27700883551836,4,S01
5260,0.1962637481840523,1.8167271552826763,10.250949341898608,1.2851985167657505,22.96616378684288,10.673218066867987,30.795744809914936,-26.027425588957502,39.25299260488059,4,S01
5280,0.31353287129017243,2.2717365370261438,10.63595874324587,11.134465947253716,34.753602783477014,4.849662770564024,30.535206202577804,-24.425912374945483,38.63523790998415,4,S01
5300,0.4760250777538876,2.131472752652966,10.832591390258134,22.91777585388343,43.97601560640811,5.2471877665877535,30.170136129160444,-22.024034151743297,40.03487612769743,4,S01
5320,0.4877753004982326,2.2652655511979325,11.16796428707036,25.60967946699052,53.50869434305095,9.8408448012035,28.616473721594286,-22.957414130096026,39.8356835182612,4,S01
5340,0.7705809677035218,2.50454621525797,11.322305014726577,22.054744690016065,52.7119902743664,-1.6204835153491994,29.377574076772362,-23.13788461969059,41.352719081757144,4,S01
5360,0.6648794720819796,2.7275356657845378,11.404754819576253,24.383905907350798,47.699578239126794,-1.5789331578944945,28.655617515075352,-24.212242383092082,41.20245389313052,4,S01
5380,0.5744509421050772,2.657240646854459,11.665669244573225,18.984689610151182,51.12532510683555,-0.7439264228467201,26.80221062457065,-22.875326055862068,40.498351206891144,4,S01
5400,0.6818968046036541,2.5644120446862204,11.500679658984359,20.024808401163725,44.48119873922842,-5.398167493354166,27.81541363427849,-21.804599439269182,41.29631349208918,4,S01
5420,0.5942419191774682,2.570233675085786,11.445976678148174,11.238698204649026,35.24789280057155,0.3478912670225881,28.358634672984028,-22.713568465176103,39.60978792270489,4,S01
5440,0.20933877688622854,2.2464919017382714,11.617205465701582,13.329329282945295,29.36833365916634,-6.879025822091608,27.054155340590583,-23.432266211927022,40.41445394666952,4,S01
5460,0.30300776205551505,2.422178391480369,11.415715999146904,-0.6821242077787923,15.861910729764471,-11.523219646564874,28.692955888126512,-23.399783768286433,37.33659583383658,4,S01
5480,0.2767506550131009,2.286643628199836,11.394527599054923,3.774445274410838,13.807466078310899,-15.082124113250027,28.226886449707706,-24.81781236842871,40.31975977323754,4,S01
5500,0.12817141785086114,2.1783401844279355,10.95367088849858,-3.5653197109530357,5.7138634430014585,-13.137213080661473,27.293186066880523,-23.97217524557941,38.24181516655154,4,S01
5520,0.09325825016521275,1.8501861194508429,10.723677439459383,-2.559486937401666,7.0601902467455355,-19.84282505681251,26.314458913228528,-22.92102032388204,37.40823520330429,4,S01
5540,0.048311547995347474,1.597882519550404,10.569760158377044,1.9612180355800293,3.4419059529721006,-7.498884962073539,26.04687095151395,-23.542609433171528,37.25556370100982,4,S01
5560,0.131557910211314,1.4857857466516167,10.164885816859066,-7.998359731124998,-4.839161509048753,-10.333819199064587,26.178287221058046,-21.741894474792524,35.41566933237952,4,S01
5580,0.020699329200272662,1.06107700807588,9.958632371952472,-3.347691283271171,-2.895695755087348,-11.098766678518256,26.417646306593415,-22.089849587521165,35.00858667318808,4,S01
5600,0.07404984071606892,0.9906737578703306,9.942453963173195,-7.2622799146652195,-7.8643828459369916,-11.91919234140604,26.098695072595106,-22.55589736349569,35.16545897625487,4,S01
5620,0.17757171789522244,0.5865805101683648,9.74843427075684,-10.886895847447803,-9.28247578268393,-11.290080144182525,26.197016318827362,-22.64168936780813,33.348606190973925,4,S01
5640,-0.06214408934187893,0.452487498717072,9.468196641933485,-16.907577716655318,-18.4535864915759,-8.484361968291614,25.715900572881885,-22.255329914449256,33.54286428726111,4,S01
5660,-0.1362380644533545,0.5071398300283314,9.01632261545441,-17.11610581346386,-24.83836441889439,-8.95740524523575,26.688285015963025,-22.496956199189682,33.455743532421536,4,S01
5680,-0.3240299004240439,0.1568770353528651,9.14791169519282,-23.91987484546134,-34.7427534891255,4.000244488107013,27.608394181766926,-20.477024993203464,33.9472142152043,4,S01
5700,-0.4216906264707042,0.25970180267912446,9.02872951718477,-26.78029163706127,-43.31285996036835,3.750862553451938,24.79942746206865,-19.634805530290535,33.89805074301811,4,S01
5720,-0.3713687081331809,0.11174658713800145,9.031549165351766,-23.68493099614516,-41.08328236773277,2.532239497764357,27.294478782726983,-19.456105626389714,34.359665514334736,4,S01
5740,-0.4346611637123119,0.17997808937959672,9.099351208441176,-35.218197712258664,-51.52342128045575,7.13446249954645,24.04411257333402,-22.078340254727216,34.93662194549444,4,S01
5760,-0.48482857434711346,0.3145859971724056,9.002873366139097,-36.402349494996855,-58.500932650629345,13.736132979116146,24.487616698999954,-19.663848901914875,34.221758799696026,4,S01
5780,-0.46178004629782077,0.659826844498449,9.05479113343773,-32.91441648224235,-58.34811787550973,13.00897119985344,24.62817984226856,-19.270227706408527,35.22092393874654,4,S01
5800,-0.39287623347342193,0.5213331528533771,9.075209422328188,-26.067816771614336,-41.952316987545764,13.62478574583815,27.003335928097115,-17.026049185548352,35.4413207679882,4,S01
5820,-0.5178253785098476,0.7613149832016632,9.464840709586003,-31.760190677554608,-41.77455078086934,12.913000821451002,24.70885995085925,-16.65534196146139,36.02664679049938,4,S01
5840,-0.2643902003894265,0.7168834493840275,9.43362369197055,-22.863778895925492,-26.706751877500643,13.142873713013692,25.892307192743132,-17.8985457596558,37.463572391264414,4,S01
5860,-0.14459167655091415,1.1993601491934132,9.738131540282144,-19.630408957814634,-9.961441179955347,15.499726015065542,26.450409472636885,-18.12731114268901,39.56106836470362,4,S01
5880,0.17233244593715408,1.347837575944976,10.117095133596715,-12.255560735738406,-4.17993909573101,20.011648997739503,25.19858884107316,-17.929199890470485,38.40355988504268,4,S01
5900,0.29676408287610645,1.5396393348873205,10.33003334334758,-5.152626821105238,7.5533370427508695,13.888432609561718,25.810338377939694,-16.754923157592394,40.11216616059431,4,S01
5920,0.3714780492957106,1.6505244192849564,10.54192382088814,8.006709731499736,25.98779823192109,11.36319605956682,24.113824935629655,-16.3174415854764,40.8112282435089,4,S01
5940,0.37526599698992114,1.9101541642543938,10.784526667923345,16.786926879273892,39.501859730834354,13.99513699828236,25.482717020475924,-17.185345724261587,41.42791641050357,4,S01
5960,0.6698125304390574,1.9881649124911325,10.903100945938311,24.329389458641682,46.70760048619937,1.1495274191533027,25.986008585140695,-17.015958458944965,41.108216676451114,4,S01
5980,0.5691046044550813,2.3706629183053707,11.070254439689323,22.600888249123845,49.7696613651056,-2.9940327304611145,24.6134995584056,-17.624432238802576,40.376513534394256,4,S01
6000,0.7648716576848846,2.592183775502839,11.322418353872068,20.110885914689838,51.822548943302216,1.3146974556492057,24.036579459944093,-16.723408456761412,41.10342334782625,4,S01
6020,0.6756307177877423,2.5430874957835217,11.535763895144042,28.452715036517052,43.59793460425186,-0.24285513928582836,24.706296327355098,-14.820515452480304,40.1003226310289,4,S01
6040,0.8093640610668356,2.6051911847749047,11.643831445285114,20.239087768996924,45.86571429491991,-0.714520115722885,25.47326254464312,-16.516813096703974,40.98800986989841,4,S01
6060,0.6653340158763591,2.5444219843682325,11.503212898277637,18.64096193273097,42.1272131846023,-6.943210290966127,24.48372543536683,-12.139493712600213,41.70571137230102,4,S01
6080,0.3442661646138525,2.547628672159269,11.583572088130905,12.708004346261081,31.80387102986666,-4.5710092357929115,24.806064061027904,-12.736894807800342,39.87043703617043,4,S01
6100,0.4241145443858415,2.4437061125463284,11.488607094533553,4.064879017815403,22.35505267218713,-16.57760754414185,24.194088427787342,-13.934170368152161,39.12505448443718,4,S01
6120,0.19291287312841826,2.3693279775213374,11.179272915660476,7.206339199809533,15.435652694379666,-10.50609933763524,25.901022369259604,-12.597532065222614,38.87815560442928,4,S01
6140,0.1725757336825843,2.1134956738263235,11.14937635687538,2.4301288957383225,18.214593640413522,-14.361364449345086,26.539547721399835,-13.565233184755257,37.750175934992406,4,S01
6160,0.3025874777769494,1.9426449996339612,10.986169595137413,-1.2252286882590746,3.5533630579730717,-15.403053946901126,26.962011169707743,-13.528356420817307,38.93663896673806,4,S01
6180,0.14089161857677307,1.6455267084071086,10.60139130783059,-2.8326205457884104,7.096436879798268,-7.498672600298695,26.36223819643291,-14.152805397801297,35.640207379390866,4,S01
6200,0.1491964464076428,1.4956718369911126,10.298006618067197,-0.9185994435116038,-6.37783617981581,-18.378594603762306,26.175935965114757,-13.82995500699478,36.185433070068925,4,S01
6220,0.18657232787114253,1.1227201447833028,10.371300956963132,-0.5571399250954934,2.7586106215908597,-12.918243711795057,25.78731850545261,-13.36083014726809,36.91217574100177,4,S01
6240,0.11559171547539368,1.0996572690027073,9.856290836767375,-0.39117583982863025,-11.438020149726029,-9.233646178370584,26.75503614284943,-9.745409299817112,34.199286233535176,4,S01
6260,0.0346436141314516,0.8461538304400154,9.938090623628904,0.38211135270813745,-13.666508958349663,-15.909575398096491,24.157027293580576,-11.256489580760274,33.51353245200971,4,S01
6280,-0.01088913472680568,0.5897128948730253,9.267871123502816,-11.793706039687702,-14.018985172051105,0.16862983997997583,28.11611805955648,-9.372300575140958,37.63312437616253,4,S01
6300,0.0035612209148676854,0.4766726328812569,9.235320082224405,-18.037665243766423,-13.30211166984487,-4.0542771005651215,27.047707391066094,-11.981905257135484,32.72769533572894,4,S01
6320,-0.10428960766223933,0.3574736644837729,9.240673920164719,-15.861493154353663,-29.948838280224624,-0.9020507268043777,26.919008974368772,-12.622021551949025,33.60631082620792,4,S01
6340,-0.22647555884461237,0.4180442774826441,9.037357983868993,-22.87960309789003,-33.824771895346856,2.047346295453864,25.164720416298344,-12.08631417181261,33.947820985894744,4,S01
6360,-0.27651605193658024,0.08414338471166358,8.915311020942703,-24.39922631956799,-40.39892050644318,3.017330290132341,26.587627409386144,-12.142608405361484,33.81215520367735,4,S01
6380,-0.4786666506986862,0.17526353565138136,8.893768091531216,-26.78089078392108,-44.99571243475604,11.268353360501658,27.105679878518185,-10.088563346605701,31.89458332925137,4,S01
6400,-0.3329634825569263,0.3117789425748159,9.08962058917679,-37.20843279686935,-49.06861607260988,14.133359085188172,27.782345063307538,-12.355564585355156,34.66936713101885,4,S01
6420,-0.671487738453306,0.27084184448907345,8.985787819279183,-34.2341244590247,-62.55737457437365,15.210049749551766,27.629294943085263,-10.01326844559025,33.70649122978878,4,S01
6440,-0.621209500792264,0.40136833455042426,9.289248156630084,-31.03506553394861,-49.55343848574714,15.06052184817373,29.736466048477972,-11.489862518824744,33.70829352662884,4,S01
6460,-0.5646829515560425,0.5662083648545106,9.158177449238055,-27.353185412328116,-51.57820881744834,13.394391564406552,30.001141077963126,-10.52885499469631,34.38559660642689,4,S01
6480,-0.32540131672023154,0.8471595175902695,9.613123922942064,-33.5734650248349,-32.73647837968266,17.916147352269512,29.24501429808884,-12.75430313251709,37.061936284440534,4,S01
6500,-0.11243575625982824,1.2211042481157859,9.524675256427397,-24.388831701972702,-24.040005081906987,17.406494433264516,28.765394008880115,-12.66201206638869,36.59784800022316,4,S01
6520,0.003085145563471059,1.157767887581638,9.861125238184668,-14.480695599510696,-11.24815768027563,10.167257787770748,30.20215224938139,-11.281154170237519,38.033596538902664,4,S01
6540,-0.03158870635884797,1.330384427076253,10.131598761740149,-3.4927296631377005,-5.978396484693393,15.985912261465458,28.381179276854755,-11.420630652956001,38.579690479330466,4,S01
6560,0.42842356928629965,1.7289529765547917,10.329181454754902,3.5233034981482207,16.328413046524982,12.128074982134137,29.224591271862263,-11.57113170539652,38.47469734523975,4,S01
6580,0.3133750387840352,1.8787553490544724,10.859738035181802,13.694163286676929,26.78871815017963,9.631476430953798,29.79213814823391,-10.57042550893033,39.29343659068125,4,S01
6600,0.5629073218640505,2.1338615631404956,10.667640605262958,20.682640744687085,40.20660994030517,11.5334108785578,30.95081401521361,-11.879731267597247,38.66795678635366,4,S01
6620,0.6990929027538628,2.3015051402002764,11.055612876425723,24.512026699907832,49.58022220960953,7.870126122185141,31.34146975610726,-11.720558346551707,40.42314464647543,4,S01
6640,0.8763614605615163,2.4762497654007682,11.121032248308701,27.193148006428014,53.70731095748236,5.031844786902461,31.90092742506836,-11.53986181102801,39.18330492479939,4,S01
6660,0.7947511126770023,2.490308406283918,11.435944372017966,26.467030995244862,56.93501510542609,4.330538458221623,31.397772342341664,-13.717921077785512,40.22135686301981,4,S01
6680,0.5664452151095934,2.480079872032848,11.45637610730731,26.530065489934763,45.3719187784673,-2.8769823209922647,30.98045665336935,-12.90135102689116,40.730748515304754,4,S01
6700,0.5562649071600819,2.650618551751757,11.559117420807182,19.22852546932118,41.312364024318086,-4.000314995342491,29.979806829713937,-10.855412463654568,40.73412242030904,4,S01
6720,0.38463679536804274,2.5509559667014994,11.449689796676175,16.621252282959034,38.80900939472202,-6.38044412238194,30.33668813749056,-12.45417428193041,39.283308205408694,4,S01
6740,0.2946408458665602,2.511383591311702,11.445815729866943,6.665847231137682,32.41021730018909,-17.28076232056554,32.40233367006823,-14.102290582046983,42.15718654096054,4,S01
6760,0.3332135250598247,2.5371725676200483,11.46902979449224,8.994670271998373,24.46836380759281,-12.938059746515197,32.38510860453917,-15.218705100792233,38.94110553989559,4,S01
6780,0.03949009431366354,2.019256457775823,11.15024615505225,0.7581936865977488,20.040073174211887,-9.227558290827233,30.93964572981678,-13.016932965878784,38.31485786751376,4,S01
6800,0.26245438903543006,2.053589290950921,11.14554586730716,1.507448377580089,10.91435638068262,-18.394349063312497,31.95553464701564,-12.872830857621718,38.06867491621665,4,S01
6820,0.15855975164434266,1.8243880849157323,10.930412063121581,-2.322332187451932,6.87709051824558,-17.93078202357286,31.625009289555365,-13.858758921802652,37.55088963005222,4,S01
6840,0.1843845551006849,1.8281897064868957,10.773961673783853,2.398247979172278,-0.08447365213087443,-11.375918736965422,31.174661896229793,-16.067058300243314,38.46352820696876,4,S01
6860,0.024563598503458947,1.565369762963443,10.52412814182796,3.605249826921211,-3.8405388727073095,-17.86316662280473,31.629209328610532,-14.347154072391154,35.8284553442591,4,S01
6880,0.05006172690752892,1.0063366682757398,10.058782313323945,-1.698018338932552,-3.4200027234285555,-14.970122769350771,33.91213365772063,-16.458711330103476,34.789399724301646,4,S01
6900,0.11969135582759283,1.004542854094959,9.815506886015811,-8.923089672043336,-12.354074810815705,-9.47142101323043,34.33066075586009,-15.414470156153335,33.83691620387929,4,S01
6920,0.053879526848694605,0.782202929842825,9.457043338745944,-11.002002397567704,-12.976282418704919,-10.230532241686808,30.829423304282628,-17.505391787631467,34.048975620601276,4,S01
6940,-0.11893447932136017,0.7094956500316976,9.510883060351158,-11.264289817396829,-19.379994684313036,-7.034055285757571,33.118847079873646,-18.742500443826877,35.978730366212474,4,S01
6960,-0.12197933776292,0.34867065693353727,9.243833989732305,-16.442733315645643,-24.89731144614924,-0.45011045811286554,33.25826152353693,-17.879844369887337,35.35925308691297,4,S01
6980,-0.06529640466750611,0.3548759473231027,8.928378614687238,-15.997605201333105,-28.269571872477336,-0.45662392185656653,33.312805357638396,-18.97926535816096,35.24555958097096,4,S01
7000,-0.23215769390927973,0.417537978864127,8.913075399055396,-26.151587559033437,-34.383997973058776,1.7754115252129252,32.35405767468944,-15.987244672341179,33.833368268663136,4,S01
7020,-0.5340942591685426,0.23723618549876607,9.017318742676215,-35.20100316939635,-43.52658832231228,9.895380254962154,31.889018500893933,-18.469135772554772,32.41912179669069,4,S01
7040,-0.5515931337986372,0.3113721379420328,8.97750707970444,-32.18073489683943,-49.13905239133326,10.156130762540903,33.24074820254533,-18.702735858842697,35.31352056879419,4,S01
7060,-0.4426185726122691,0.1618292752362721,8.917471117010118,-42.200217502629556,-54.66948193724966,7.21487962810866,32.304020191115626,-18.54594824023394,34.09946964251165,4,S01
7080,-0.6337387288859307,0.4118808280022466,9.043994597048794,-38.18192981872156,-55.88995080393387,6.285713561859005,32.91334116261595,-20.26407289870393,34.936199000698295,4,S01
7100,-0.5572783705263039,0.3199504883760776,8.911252880923636,-32.40925829045431,-55.3325437832976,14.38984129216825,31.98442677715637,-19.788407613352575,36.01803235233739,4,S01
7120,-0.36896896069292484,0.6112398832548653,9.171383050020527,-25.71122773310263,-44.066483888461704,15.01881029968144,32.98994480327022,-20.443651303568334,35.431110531908345,4,S01
7140,-0.4090437489637595,0.8935172289796891,9.623160314003062,-21.844154111569168,-32.33161290999527,13.386788072313145,32.60805669010524,-18.912122903898364,36.08863823296732,4,S01
7160,-0.20096575819652976,1.0649766655395057,9.810935433635972,-22.854708006425152,-21.30001866756323,10.840984620378649,31.31463749946133,-21.551777497716245,37.066807370311935,4,S01
7180,-0.010975218889320779,1.4231370404504493,9.840362114910704,-10.445511964833564,-9.164202720683551,20.990031079148082,31.85367267133005,-21.168534916090394,39.0683069760293,4,S01
7200,0.3314529749319456,1.5033488267844182,10.050219637059337,-2.0014665442354524,11.261504044775181,12.513901552305015,32.46968181376302,-22.27148172213718,38.67225390559126,4,S01
7220,0.39884565083289547,1.7233621897668074,10.444043265847608,9.051983238170216,22.29034046580571,12.16022109444046,30.884951508071573,-24.421844245263205,39.05134094052847,4,S01
7240,0.7041906428634267,2.0029736224825196,10.785801552420395,14.901006270754664,36.56628797590276,6.030203571060508,32.32359428325914,-23.435996072982793,38.84742168508167,4,S01
7260,0.7735873177816573,2.0333248606150223,10.858299209458085,18.794153804776233,41.21711064717231,3.0837660781159815,31.31641530766061,-21.47119531747171,40.83143072842493,4,S01
7280,0.47181938498703146,2.3217247321953627,11.16286287588378,20.938521194574488,48.34553361435225,1.4075429565066115,30.64016127895116,-21.49944332503227,40.85420851161207,4,S01
7300,0.9035142098514884,2.415729076080749,11.362264858178024,20.563638729350412,51.926881405038706,5.514718162704017,31.31749423823382,-22.027492166645676,40.75316011898529,4,S01
7320,0.6852067510498677,2.500920731897362,11.467758811967252,27.64914482417328,56.230635334334664,-4.205563901474695,31.495165861770904,-22.784774502708267,41.43718934428315,4,S01
7340,0.6444821590476585,2.4027875181333305,11.523692117064419,26.16019560731611,46.294071186569894,-0.5067086611880974,31.255849015864523,-22.5552956865879,41.03978352335379,4,S01
7360,0.6638285744692924,2.5670739345513978,11.54869057895407,20.385574123399415,44.4583844215602,-2.4682978590380396,32.07673292356276,-23.455087992377248,40.02476952555569,4,S01
7380,0.3932407060205484,2.4546243843821864,11.665687922669882,19.596329904063307,40.79929552852254,-12.592923409668106,30.16848352625973,-23.303021633972897,41.551970311383144,4,S01
7400,0.30715011947737836,2.549883379486034,11.518681167855695,15.352736541879889,29.74194749774863,-14.18662997454471,30.926949353568027,-22.01588995603604,39.800562713780955,4,S01
7420,0.35301447290756216,2.3799286449011032,11.259073506106173,10.174809113334398,22.7589326905536,-10.642203569409672,30.42480585566236,-25.98408401871986,38.546696984836665,4,S01
7440,0.440782078609685,2.301476894185215,11.265092162138341,6.234739867284788,12.087117527878375,-17.86161625043917,29.049978114314534,-24.694936158408385,40.95981889053947,4,S01
7460,0.23753333958628112,2.082399693640604,10.927402795385447,-3.154115857167136,9.566697937868872,-18.10822535120781,30.65395341027022,-24.85637827832911,37.019326794879056,4,S01
7480,0.23175109913595496,1.7120491279254253,10.76845450386945,-3.0922709404222,-7.1402876236579464,-17.757581298593777,28.689371471581076,-25.393850416224222,36.83853056121568,4,S01
7500,0.06155501220546762,1.4486619056188998,10.51373473685388,-4.196814119658647,3.4625137968189383,-11.22221134648475,29.374771772852764,-22.659923997048708,37.11107398527163,4,S01
7520,0.07020985646265741,1.374183159445981,10.478885228030382,-8.62657327739127,-1.8419797470048422,-12.16832964956795,28.702181948253273,-23.165748100605356,35.592949536013165,4,S01
7540,-0.0038676331080835236,1.1801820504210314,10.020647510068736,-8.866594229231008,-2.4746548210400725,-12.435158190949435,29.68219344244801,-21.831460652735544,35.9985914832335,4,S01
7560,-0.008966202057304709,0.8056302428517652,9.84435565044238,-1.4961244288177724,-6.14309084694452,-4.729982410589751,27.934510385293823,-24.434573976562266,35.25812731661826,4,S01
7580,0.1150880054166608,0.6754281398046218,9.582648617236849,-8.550589788412875,-12.790780629976183,2.0250155989430927,27.71607850194149,-24.131520420699736,32.59994989716515,4,S01
7600,-0.10890590765697628,0.548842872568271,9.29551793462592,-14.647176330983974,-16.110599204081915,-7.6477603766592495,28.399022625212517,-26.67056650947648,35.271568159210915,4,S01
7620,-0.29615746434157975,0.24877539791730885,9.070514690237552,-16.689666691646472,-27.24384918857523,-4.665970404668261,27.56747586753813,-24.517650050557105,33.10739949024543,4,S01
7640,-0.14541113446548193,0.2887333396065343,9.086007369357311,-23.94214706745601,-32.313810942424205,9.346928956095702,28.182490299499122,-23.810442843051806,33.68861180366841,4,S01
7660,-0.473155634918612,0.15707143851495267,8.93236980522048,-28.032175024719585,-39.51962147164326,1.014860815592845,27.15330801253464,-22.297849873365188,31.887522639306823,4,S01
7680,-0.28694363931178757,0.13315301228894355,8.974841858390075,-25.370519351127854,-47.1372922597315,7.0213467902465005,30.553618930436137,-24.22018847901018,32.560966270905034,4,S01
7700,-0.6065240069720373,0.3943260521528994,8.754980445132986,-30.485674890223205,-49.966156283443176,3.8969920906793303,26.871825193999687,-23.867734908648107,33.3495339160026,4,S01
7720,-0.4924908080479251,0.21162517662948932,8.893575973693856,-37.952169905323615,-50.98332298133157,13.518702681384664,25.4871568973141,-24.410170348171484,34.68163081424796,4,S01
7740,-0.38186365938199684,0.3210437046015462,9.082664465097295,-25.56957353278723,-55.759464884726754,16.53013908058348,28.200514577355584,-21.22143789409361,33.851416394875926,4,S01
7760,-0.42149730790677586,0.6155026577030511,9.113269389285634,-28.65064446540843,-45.53823261389439,12.175328904673082,27.640694168910514,-21.316195629016292,34.02090951056545,4,S01
7780,-0.44283558023392133,0.6926179670627712,9.401504746824541,-25.468066674765907,-46.91087439880385,15.634751851770488,27.294942672898678,-22.013405836911176,35.29584253571686,4,S01
7800,-0.6102012120755194,0.9274825864485496,9.436428125320985,-20.85346444926018,-32.21444571670744,14.305066015273486,25.508974987762684,-23.232947670820362,37.36008669626692,4,S01
7820,-0.13162275432845022,1.1177021089441197,9.780476860853826,-13.355782537376353,-22.03036000305077,17.778773966510663,26.049381632966554,-23.530558138626226,37.87559059955681,4,S01
7840,-0.04240821890932758,1.2986671983299076,9.892965018920933,-9.441126074567741,-5.613517154103687,16.13577562319759,27.331402054262522,-21.185139904238056,40.055480541349745,4,S01
7860,0.27314222159959134,1.626125135970976,10.18215397315488,8.52752038151447,6.320565691194131,16.51514240369664,25.79806782578983,-21.431670545749462,38.076422501082305,4,S01
7880,0.41571439994182846,1.801066189775958,10.488179981867837,11.254008245095665,29.50335150343247,5.672314477249464,23.44385373209242,-20.27115665831151,40.30606391732766,4,S01
7900,0.4993401984262805,2.017026489867684,10.644834142046987,17.662627829107674,37.34372038287017,6.351983672101762,25.4652707096494,-20.166528340309362,40.585369267904426,4,S01
7920,0.5015135248295414,2.1955035582427076,11.086097743934738,17.596226047428697,46.69371854999896,1.512255718394893,26.97171106295802,-21.037576445084852,39.385726697257056,4,S01
7940,0.7705520594496215,2.435812492171664,11.124432633683544,25.53526428756819,55.667621161399786,3.7495164226658586,26.50769959572268,-18.18089605817083,40.21884753939977,4,S01
7960,0.7937576442950581,2.56747979557059,11.372628087556382,20.76088762661258,50.585943479353894,0.3440104907661464,25.982552388017492,-19.548631740378568,40.778112556709836,4,S01
7980,0.8076802502883789,2.5866695121787084,11.480052856315051,21.897629168385322,56.474934857974176,3.0937218459742204,23.894370328022703,-18.212865878133037,41.28678633993282,4,S01
8000,0.45674959808600635,2.4509791206151674,11.576422310827526,25.48803419637468,47.19501771284448,-8.444610932450644,24.953828757121116,-19.043328293071113,41.43708165973848,4,S01
8020,0.5792597178309644,2.599663535466371,11.492386611376617,24.37640943245536,42.441167678343575,-8.433977662591756,25.62923658671184,-17.367569467422637,41.35761521281879,4,S01
8040,0.40551301962869635,2.4507392305241926,11.47879412842618,8.10295000753694,33.566919260231636,-10.746456328506516,25.17854900722684,-17.2079483697092,39.38658425024293,4,S01
8060,0.1283079865118466,2.362404356882808,11.53368830466276,11.369686458676153,27.645075910368185,-17.940595222918382,22.9966372952653,-15.78735808225806,39.67960481882801,4,S01
8080,0.22625945463818692,2.2200484959371996,11.189433590973843,0.47677028684360323,15.510482789714278,-17.413952041973744,24.623759437770232,-17.61339563569624,39.688868580122886,4,S01
8100,0.20576236889681015,2.0039620044550954,10.995824642907769,2.092052678818918,13.933587079538999,-16.53679726546576,27.249374128404416,-19.13535052167294,38.24387288827834,4,S01
8120,0.21549056842247427,1.9740368981729033,10.967901373570847,-0.4735240587432452,9.414615740693009,-18.25324529354022,26.414017655020704,-17.27474647427305,38.91144176130723,4,S01
8140,0.20280475392436162,1.8741649390467503,10.80082919946742,-5.264723338034834,1.1063668133639812,-18.661514143427798,25.499703179266312,-17.587392761624557,37.55747671546917,4,S01
8160,-0.043494090080157616,1.6467267160584065,10.475508746066717,-0.49474073730135615,-5.546128221229492,-11.942888869159162,25.03563988647509,-14.457255242846266,36.886277329395575,4,S01
8180,0.048505346163820205,1.3038640914722952,10.206355686003512,-1.301292046134134,-3.1324720080870723,-8.24336940739002,25.84952862759126,-17.506477450724397,34.78221705643767,4,S01
8200,0.055399898037092124,1.0565612088448681,9.892089986051692,-8.832639585009371,-6.017918634560885,-16.549534649927132,25.63428437174162,-16.0579088692,34.98817219519457,4,S01
8220,0.14640900859457806,0.8795922989399658,9.688995030964334,-5.146226614366302,-15.386108694715755,-7.940130510406826,25.552593436317842,-16.202709718217786,35.12106666675605,4,S01
8240,0.03166519849910264,0.5807052903422896,9.576893986675119,-14.18209155103322,-14.598952394816791,-4.279191229767256,24.996691798220787,-16.49708867209803,33.39379544539451,4,S01
8260,-0.2299167998278462,0.5273052799202269,9.554257940317601,-8.364946052930602,-17.157127313248484,-1.587393695460293,26.41953347272684,-13.174377075539933,33.18451816100011,4,S01
8280,-0.24989371766929455,0.43534872914762673,9.185375833333866,-20.776228006160668,-27.17646851833912,6.284951993502541,25.892791978918197,-12.284522741114136,34.83813164110768,4,S01
8300,-0.20940621558113778,0.20700019634682637,9.020866038747545,-24.79810362178636,-30.22402764081284,5.828183623187043,25.407542865779835,-12.70534033155245,34.44791819083814,4,S01
8320,-0.3105338859858191,0.1887358483087364,8.986976951796512,-29.942625632380217,-41.2828599551362,8.514657015791517,25.18918316503324,-15.020437879965108,34.336403628862044,4,S01
8340,-0.3930363043560967,0.1774871478829827,8.830562255898714,-34.77844326788247,-42.15654442986635,1.392410805705508,25.42274830875712,-11.72787959883091,35.20007604297453,4,S01
8360,-0.5787508605771421,0.20791191661196634,8.891356217958943,-27.5748365785112,-49.8584391893364,4.793607009259638,24.785434274800735,-11.862494318208867,34.98027372960907,4,S01
8380,-0.47920967384416424,0.40159172869448295,9.012774618026263,-23.97783666510985,-52.416589395077324,15.42025921616818,27.201528685345007,-11.324883816226667,35.92382750725954,4,S01
8400,-0.5197748249756298,0.5611717661931457,9.118058278104563,-28.821809923740723,-55.17974718205116,17.303192614893813,27.278328556263624,-10.038891658597535,34.791640649890525,4,S01
8420,-0.4517156599726351,0.4846103410734817,9.14721955124345,-34.867723048180174,-41.595975741050495,17.34827583533298,27.80511244062813,-11.033154013531583,36.11130939521154,4,S01
8440,-0.2988274622671757,0.7323574936233361,9.2978446792923,-25.8794385302399,-35.98909176129271,16.8669805636541,28.255133584156948,-12.531555268733861,36.38121965277888,4,S01
8460,-0.1224987711319469,0.7377664225902696,9.49083679031913,-21.573990026450705,-23.755714254812215,15.412791622066136,27.865969145081504,-10.573105458233742,37.80960046535682,4,S01
8480,-0.08845077035044469,1.2299397838927797,9.882175204637399,-13.387417627985592,-8.843447276972782,21.407860310200572,27.54619385846551,-11.201543741571143,37.86099092394854,4,S01
8500,0.05778672370135505,1.5305494834013476,9.834225072164061,3.3026912317435126,-0.8643618130894237,11.2956722138995,26.96063790307658,-12.677950587026572,38.09629397338122,4,S01
8520,0.13188742980983328,1.7180696674266076,10.414902355385763,10.481167675893563,16.48862688238514,13.179803964302812,28.521553535615585,-11.166619676350814,39.84401332448075,4,S01
8540,0.4162077734282207,2.0095656890167897,10.683488205334353,15.235415742553087,24.181582995025554,13.452943931097936,27.582828894936135,-10.695703501912405,40.07368888261332,4,S01
8560,0.48706104313409815,2.2742958786997747,10.949014310802562,18.157436731719365,37.43321858993305,9.910840132365964,28.564892028766913,-11.526266095854684,42.366213796274224,4,S01
8580,0.8434377701981097,2.3552551832054687,11.056966948385478,29.19474484026063,43.5085745927085,9.583438452433338,27.64247371102718,-11.969735076645378,40.73416808862953,4,S01
8600,0.7580251028360735,2.393557447690223,11.336322732158603,26.99918723655097,53.71083111061189,4.198029048367581,28.60334526127545,-11.722476158689082,41.298509513795786,4,S01
8620,0.6609813307227619,2.399773945072957,11.477795634340152,29.527081019912952,49.71777514825807,-1.4480727049888018,27.66715896154978,-12.107392091722232,40.06795160657309,4,S01
8640,0.7149288077255539,2.5901274173012694,11.537868050652305,20.574096650442154,50.53350376841605,-1.6268684839851812,28.631815578296088,-13.896007201123162,41.74239517477366,4,S01
8660,0.5856987801517864,2.5041679599935196,11.564613803530241,25.42635624671986,47.38159846841527,-1.5204258672192057,29.491274393219616,-12.169038529053978,41.512988871647806,4,S01
8680,0.36084532996666485,2.273813755286322,11.570054958739894,26.465674088099828,36.388624800246745,-11.710557821469749,28.917774423885334,-12.782163313356296,40.02399100393733,4,S01
8700,0.400445323178093,2.4381026951800684,11.51245225127175,8.885273293673482,29.698883241369845,-16.625060303495925,30.315441503783934,-10.682728901435166,39.650994283996326,4,S01
8720,0.4345349820913075,2.300321505172155,11.41971444466976,3.2989873870052113,25.3102990293422,-14.579297116052812,32.08320911481755,-11.388713328036811,39.8878117154602,4,S01
8740,0.2989422592579522,2.244087538567084,11.157663171092022,4.11787913099852,12.105643776055938,-7.954147843023572,30.12576344941784,-8.773105553977091,41.68944895825341,4,S01
8760,0.26871464307095994,2.1466848898025526,11.167093433700307,3.8950752154293644,7.087026921265262,-13.346862695058336,31.653321717094517,-11.512796552781243,37.24585817660675,4,S01
8780,0.0425297027717519,1.8317328350066955,10.883860222324532,-5.182462176616954,5.670459647928873,-14.287351468020836,31.45323293533575,-10.920648070461802,36.17829183311957,4,S01
8800,0.13641528512945977,1.6497452690950372,10.733720385148343,-3.149380639529931,5.245521516164479,-14.934076752789897,30.331725450921,-13.630378248029645,37.05769993123429,4,S01
8820,-0.011464511075738495,1.354112107327259,10.26502600406054,-1.7460215924960067,1.349760132543569,-14.654525695616838,30.475006261993105,-12.315882315245474,35.922909840375965,4,S01
8840,0.10465758123525924,1.1159285669418322,10.238327292181097,-4.360653271568562,-1.3408039058665542,-15.036859237788766,30.99304285429843,-13.191916156858618,34.69707320852916,4,S01
8860,0.03249159619715046,1.0262374964155734,9.938209056585286,-8.626240533969277,-4.014423344357419,-8.34483642949416,31.925878292791705,-11.60680694382324,36.019500464608704,4,S01
8880,0.03840922011966979,0.7185165257079522,9.608456391104799,-5.3272268321644844,-12.080281954675595,-6.568050652546315,31.704849628905453,-12.63193698372398,34.453923329566145,4,S01
8900,-0.09442790314647587,0.5639798253507331,9.500671707110149,-12.668649109221242,-16.719718392720385,-5.043951338056484,30.890595375156504,-11.547232285280131,34.367038112145046,4,S01
8920,-0.054453285976911875,0.40760767176935114,9.177644027163696,-10.507780384541629,-23.538819943199055,1.454614508179597,32.43985224354006,-14.79137583139506,34.00064224810158,4,S01
8940,-0.22962031580267725,0.21747606788461799,9.056584934024535,-13.18406273347605,-25.477110390812495,0.29154215242217807,32.67263126765221,-13.121413622109216,33.49602871637816,4,S01
8960,-0.46386941586047825,0.3245322226550932,8.956674875262907,-25.621806559339326,-38.9754866376147,3.04596216555027,32.70486336744204,-15.845678996216405,34.07716764478748,4,S01
8980,-0.3170081911923436,0.36777504884036105,8.87979584694242,-30.84537722813116,-42.48161238672022,9.420410985054785,32.33265931647897,-13.838558702017204,32.21746188955909,4,S01
9000,-0.2902655661776299,0.1685360824687819,9.005585168136475,-28.436538006254533,-47.694803144262,10.084154572214825,31.684603980735552,-14.890095685407466,32.68000727318391,4,S01
9020,-0.5668895564932982,0.38208247219714464,9.021408530878409,-30.217223373036795,-52.49892213675234,9.171895694803297,32.3229814569086,-14.211673126280793,34.72476408424419,4,S01
9040,-0.3066540017632865,0.37017263275614354,8.935291058850833,-34.828185918837214,-55.57442421912515,12.995667819510896,34.585202274570705,-17.296676370687756,34.8776604006936,4,S01
9060,-0.4371585619754663,0.47364312074764797,8.996059202111333,-36.509219212128684,-44.012172851966234,17.190244458569317,34.154501837164396,-15.64897127122166,35.32459634179669,4,S01
9080,-0.3481017069914605,0.7390992009317199,9.308608311379995,-34.26297157119094,-47.30163848902904,10.266933263454368,32.75762790236304,-16.035658076225513,34.92319083690752,4,S01
9100,-0.31536848795780037,0.9421009762722434,9.304332264066371,-22.217632542647255,-33.65125204218619,14.624913882327336,31.600994769168622,-15.56924402726666,37.69866650904446,4,S01
9120,-0.21861298646901137,1.088466597516571,9.647331096901926,-18.459102651401064,-25.34073829783944,15.208593773736714,31.161817268957417,-17.443231112064616,35.464309702564236,4,S01
9140,0.0896192842231225,1.4035703905833319,9.692754529904942,-12.368906516321982,-7.847958734959225,17.889332324558634,32.3826411568741,-17.48536555890217,38.50370249121124,4,S01
9160,0.08055224301002065,1.6360525242482176,10.168269561412773,-5.533439268788497,16.714608096079385,18.17670986020753,32.98486645072473,-17.344495848753077,38.691981798862315,4,S01
9180,0.14884118332793084,1.7850467827045966,10.320780964344547,12.200696323646504,13.113878044464307,7.604373001601311,31.050995726293767,-20.081709793363963,39.97113621795138,4,S01
9200,0.39103162384716494,2.0193910118174174,10.732429159727687,19.40438360227497,36.01823221107527,13.523294311879356,33.30846152593756,-18.642407798969366,39.075829719378206,4,S01
9220,0.631382541225518,2.161830517442793,11.011032629075816,20.95971955127177,40.382533452888325,8.928082126378062,31.903114041714748,-18.029973915245495,40.12820022453196,4,S01
9240,0.7723975826955951,2.39075358542585,11.144438252834503,27.596469581931533,49.38505718031534,3.9014430314913,33.54101345789337,-18.368569684386856,40.66837105297682,4,S01
9260,0.6873280539206135,2.4379046880128246,11.242147269283539,30.806718676422893,54.04475208449405,-1.3172166456210301,31.515078201167135,-18.229326194573787,39.77383094483108,4,S01
9280,0.7425846433042673,2.3882441020303795,11.497020640853334,21.080893702360505,47.76301267112558,3.2721786016043337,34.22859736095987,-18.869758027558664,40.237895380207405,4,S01
9300,0.746346994122929,2.6115499543550937,11.433720005602098,27.566913434820545,44.967016042461836,3.6772625379260067,31.10464878664525,-20.39306385359383,39.23716063704712,4,S01
9320,0.6653958881603727,2.75414426058152,11.568899124234596,17.160480451474903,40.43178478923862,-9.976556848426922,33.29021090705862,-20.32555319979967,41.55844170183813,4,S01
9340,0.4041299773047411,2.5686665173406253,11.670957339698683,10.077854902038599,38.825326776562164,-8.193991623050039,32.39913783256419,-21.88089572847884,40.43105069571048,4,S01
9360,0.5078975945652473,2.4632971949326494,11.496557941418988,7.015598257888157,27.517115729333742,-9.899354707138677,32.30559318070454,-21.228390676837044,40.00042153007647,4,S01
9380,0.20670335196055883,2.355554100209992,11.284756253430674,7.971764375994726,20.250400695571784,-10.78734694019568,31.249887477030907,-22.124452820108665,38.206744457711,4,S01
9400,0.2686740275528686,2.0840068918019297,11.27235672746454,2.0000624256851465,16.83583533518659,-14.382721135318254,31.50448993622626,-21.74589182948985,39.07845732777336,4,S01
9420,0.22965963015187033,1.9757111339944513,11.03138699109548,-6.964226177159077,3.3776899174351307,-15.027819947157841,31.549760217343255,-20.955448275866694,38.556598789364344,4,S01
9440,0.12767148631826505,1.9020725229616828,10.740410382004141,-2.615312427905323,3.314366976040106,-8.621592356303596,32.37571947933465,-20.901061524881023,37.81346105283603,4,S01
9460,0.04816631855455947,1.7405607686992997,10.675665433923637,-1.3481966576995852,1.0425357802348711,-14.92057816631542,31.611005650943376,-23.683473532804275,38.07250303453211,4,S01
9480,0.12336667234859813,1.2360101178357998,10.40241868777858,-9.5310169252038,-5.530559266073445,-12.165205957899941,29.69912582453659,-22.544989041281852,35.74347045464805,4,S01
9500,0.09192692477758355,1.0847099143873011,10.09720995883128,-13.509241263183704,-2.9462653705575947,-9.954589923171616,32.714102195082646,-24.194017335334227,32.90488754196136,4,S01
9520,0.13664847037430697,1.1239960280704657,9.700601777277363,-10.00255921858382,-4.4916953373831605,-9.995455574764954,30.058794032282815,-25.17588406850869,34.71730462864509,4,S01
9540,0.031872129107242964,0.7727205028321424,9.568982904408335,-13.178008976391574,-17.433488498256725,-11.546076557903437,30.408888546233033,-22.705910332906292,34.00751999396214,4,S01
9560,-0.011134129758351069,0.5537206956921168,9.471766758123096,-10.322698366582319,-24.39065590353058,-2.473361565013411,30.81248870676206,-21.126071384375877,34.58845725714069,4,S01
9580,-0.02791028962925665,0.39450438775265306,9.227387229653239,-16.74565468094364,-27.771147473197104,2.2548772836390976,30.096008466328374,-22.49192285776378,33.663657709912606,4,S01
9600,-0.4072230804190784,0.3585066796533442,9.198579648748069,-17.055924107363357,-31.444424960554453,3.2921783650668144,30.915132166219806,-22.008973075407845,32.482483043870715,4,S01
9620,-0.42801819085175474,0.3393121911391161,9.025791089433651,-27.81329190923848,-44.89891507379641,5.23939535045924,29.286643320191875,-23.95349916945535,34.35627499481683,4,S01
9640,-0.37497358328635566,0.2940207020623125,8.935983057437706,-27.6384490361883,-46.86732117807553,8.288222857225854,28.94763464662995,-24.626253456809252,34.180343845780286,4,S01
9660,-0.306896854106539,0.36532356852269937,9.04035686351161,-29.518774356159533,-52.26652105946264,13.669135103231607,30.28146677710841,-23.35982460955347,35.547786509110956,4,S01
9680,-0.5072067762817216,0.09826547895066218,8.887075875676729,-33.600715288390205,-53.95666177111517,11.307076035843734,27.76480608082986,-23.87409425746155,32.18002721676575,4,S01
9700,-0.4627244724591737,0.42266237138088963,9.153054185609808,-33.976958960971544,-49.28766454129933,14.850877556820512,30.160716113473555,-24.57204951921745,35.01450989739517,4,S01
9720,-0.32723718395422907,0.49276913707242626,9.35496078785044,-26.34834698684121,-47.05612863263948,15.995241013668883,28.380735858923686,-24.81448803632511,36.97398242952154,4,S01
9740,-0.3851503287685757,0.7437398183669006,9.103683620151655,-27.299630659960716,-45.53476890067046,13.033061077322012,28.21723826771077,-22.00710783436916,35.391002994913705,4,S01
9760,-0.27611069047137937,0.9208620777802046,9.43764048006688,-15.489331975490309,-32.06865912281131,10.575109117548154,29.36902902438528,-21.87831172157287,35.99087385949619,4,S01
9780,-0.15004010847562807,1.0598227987737285,9.628428699475233,-15.629265988020197,-25.02986734684405,18.04814010584448,29.887616453469853,-22.468396727430708,37.715217547034435,4,S01
9800,0.19654647483715576,1.3016324021765266,9.785377460962284,-11.380595980981141,-5.469806266452381,12.52694335466603,28.59636212494785,-21.842607915832808,38.503126681190174,4,S01
9820,0.08674448759941873,1.5136708363149198,10.134468812425746,-0.13152790917423562,10.524813494182034,14.384269116790831,26.172891800417986,-24.995022378939026,39.588408607442865,4,S01
9840,0.26042480078474106,1.8650830687587632,10.244479190846116,10.226144638627325,25.299204950258932,13.159994501482865,27.032734732662043,-23.019880957587493,39.90067878894657,4,S01
9860,0.5674856711306022,2.0492626696459553,10.74697549019391,16.144193663726693,42.6792778547334,11.712340005291408,27.905151052588543,-23.75439696019154,41.28374715790032,4,S01
9880,0.5630109251304524,2.1257722762283646,10.93505744075961,21.924852741894135,41.17838124504935,8.065838489391869,27.23378717592109,-22.101655560062373,39.188415444077464,4,S01
9900,0.5692961326073894,2.405722877299533,11.143781318303908,28.20802728599016,50.46022475675578,0.424534597502498,25.73228579789383,-24.037985472413954,40.207444642372394,4,S01
9920,0.7633425571885479,2.559649949815081,11.44012057980454,14.641397886564338,54.867706791022506,0.8460258174166564,27.183769707461426,-22.105957151899347,41.51148216327892,4,S01
9940,0.8389456083038827,2.5332689030203133,11.370787791584291,26.676796425512705,51.38818158830644,-4.145018691401756,26.083342732637455,-21.550743080883308,40.388551935376796,4,S01
9960,0.5984609764077418,2.573308968212154,11.709110837310638,19.852515329198326,46.239792645396165,4.086210287075104,25.940274439813226,-22.81752879246028,41.592078198732395,4,S01
9980,0.6909728976309166,2.5761282676701005,11.511678165016402,18.726315427978253,39.31428170109553,-4.988118025936387,26.216650170619182,-24.537571929823123,39.285195364599915,4,S01
10000,0.46584489733984846,2.5332879553402985,11.727574306898857,9.765388967000877,25.19385964293961,-14.786235032137098,25.709378983236384,-20.617178704796274,40.09594803864041,4,S01
10020,0.5058690369500062,2.5147111483234226,11.579027667810333,5.116712361978162,25.075951847987586,-15.48015652745942,25.626399752714228,-20.272981127420103,39.659493148573546,4,S01
10040,0.39274533059545025,2.4353117429420936,11.197515881010682,2.757316621917467,20.551826885879013,-19.903997819477844,26.70089431644894,-19.372491257521986,38.849713170423364,4,S01
10060,0.28325263522073424,2.038403012732723,11.182590731314875,-3.7754262742131806,7.2460540040684895,-20.177524558321405,26.79345317152062,-21.090550946187967,38.19903063696739,4,S01
10080,0.005172955557550318,1.893429708304486,11.115944356561993,1.4363175423534562,8.359238921558175,-10.501769620259932,24.0747700273143,-20.33116245991001,37.1232710891,4,S01
10100,0.13210766597071755,1.9083486409437853,10.85986679218055,-7.58186149957689,4.132859925872558,-12.790914853911014,24.92407342231862,-18.380945012026245,38.315819516944266,4,S01
10120,0.10952494639491542,1.5358842330628488,10.485326284433162,-5.803830173894463,-7.468623998198285,-8.539801070743726,23.700722291648496,-18.53770003722812,35.551288803323715,4,S01
10140,0.06154484608301348,1.2827527019265774,10.126969133358008,-12.316073687879747,-2.2277208072698294,-10.531362497274875,25.095347422367666,-19.57458347142699,33.12290025516068,4,S01
10160,0.003943682517284983,1.1752023119745212,10.057088019924796,-8.677403813967427,-6.670881235008637,-11.224000355700321,24.32746832736192,-20.23220930730782,35.18908653649282,4,S01
10180,0.032156137461655826,0.7559032760930458,9.83784797449756,-7.695270337260966,-10.14928173812994,-10.724500302566453,24.46729587121033,-17.39831526088294,35.08926439374676,4,S01
10200,-0.17030637217064695,0.6624075364933548,9.5975793875973,-9.678783936473025,-12.282684839204087,-1.39275569065471,25.61935459610808,-20.286198723297016,33.529471846093664,4,S01
10220,-0.011806458099689013,0.49918930514352416,9.330186430332034,-10.500817359396244,-30.584166791109514,-9.663180362229172,23.701365306127478,-18.536710723892874,33.602098379142205,4,S01
10240,-0.19054795740964273,0.27689494329057956,9.215611924437226,-11.623084949680216,-29.600363393504008,-4.169179672240899,24.6750637383063,-17.95713367517913,33.14932356276233,4,S01
10260,-0.24661361122260658,0.2815220471033688,8.880746430349003,-24.379973306035033,-29.035085249545293,-0.42035753062094183,24.703255633354345,-17.086112237750207,33.792429287148124,4,S01
10280,-0.17897183422249244,0.011260514469094624,9.051663180232346,-17.616907977960032,-47.35870018252338,-2.8197855419530193,25.596358297431493,-18.347266864172113,33.3020893616687,4,S01
10300,-0.27429071314699227,0.17666514310840023,8.896359705082613,-38.550820818912406,-45.90777042075882,3.1379015198697107,25.27769628177903,-16.85659604762339,35.49702905298014,4,S01
10320,-0.31665040581615345,0.21020069089015264,8.92740332283848,-31.86377484143469,-49.93447549194098,-0.08572807802113191,24.04816056932591,-13.97530763252176,34.05683257416614,4,S01
10340,-0.5622119285928465,0.555505699596271,9.055692126982267,-36.17546370537801,-52.73590639990675,13.007633612928771,25.71290120827038,-15.860385179047457,33.83729766163099,4,S01
10360,-0.5111646198427707,0.3205984045872077,8.964566274084904,-38.21794102700151,-49.77216320022309,16.878092082055215,25.609377822787334,-15.006895615965277,35.844285665463914,4,S01
10380,-0.3100886352768869,0.7181321276429231,9.368316161390835,-19.748849141281724,-51.29566447784005,12.932880422345294,25.342563325956327,-14.029408653229115,34.80883141243686,4,S01
10400,-0.22931386544020751,0.7472368538026128,9.32095043809497,-16.97932571954638,-35.70484324165258,15.38923608296696,25.607754500731183,-13.022416926641215,36.593142015184746,4,S01
10420,-0.21130681417399402,1.011277914070407,9.662098939146468,-18.26573373043314,-26.56583312491963,14.047946538668555,25.322906107338454,-14.707470580578827,37.19632951813368,4,S01
10440,-0.07261480116244576,1.2772444423008,9.9430058907766,-11.600003592214383,-15.384811021593675,17.93423257996357,24.7070480667342,-13.698048075540289,37.27713241403162,4,S01
10460,0.09574149141040697,1.5388779305853342,9.962143877644971,1.5993532920135811,0.002283477910344889,24.42121229571536,26.049074823243426,-13.727602183167825,39.504943184140906,4,S01
10480,0.23998657931354545,1.5485727306888006,10.240235774732724,8.257087918648118,16.61395829543295,9.917620024917646,25.673771093202696,-13.614678460032154,38.485320257368286,4,S01
10500,0.3672963245542781,1.7600386576537144,10.571182878753769,9.76669053358535,29.514337843547683,13.557348262923547,25.99048294149175,-13.967300440056302,39.307328997251204,4,S01
10520,0.526082806987615,1.911460856754689,10.861695240981897,16.079457425409476,30.969346076258024,4.854790538277297,26.269267544979876,-13.404637182686965,40.63078884461268,4,S01
10540,0.6136135673147107,2.3765568101060435,10.994595185228466,25.501460892389115,40.02283883017267,8.078477620516468,25.731884795984776,-11.992161149320804,41.31685662852032,4,S01
10560,0.5997341803609525,2.2764482338637557,11.167322718997122,30.21581944703546,47.719609025997556,10.807545461768845,26.819712241502156,-12.087900497375589,40.24188536078015,4,S01
10580,0.6026017935413321,2.4706110896388305,11.34323506725279,30.980183421269818,47.96715006794087,0.07054547383044496,25.67640291896165,-11.714131774902835,41.95504601542821,4,S01
10600,0.9175609966503513,2.5400702994809197,11.663226598454523,16.50696646536786,47.22950205845911,-5.443298279022203,26.878043771124403,-11.707035581835644,40.27629912803791,4,S01
10620,0.8104450386905234,2.4869428084828114,11.59805039095222,20.753109079822494,43.48359424280215,-3.599724458389901,25.971405876811687,-10.978221792854843,40.735797955975954,4,S01
10640,0.39844062968227856,2.383951175142564,11.519205921449558,13.220660936909802,32.41049948340722,-14.275756697667536,27.501472923756765,-14.476117446437826,39.59620986227983,4,S01
10660,0.6256174230091527,2.408252190373466,11.582779841426976,15.060780735945219,29.63871534304392,-8.917481612060476,28.200314107057938,-10.362408501738162,39.934366479647835,4,S01
10680,0.44230514203538207,2.406293758008871,11.303763376330323,6.768981409487764,21.414484067028383,-7.180513359925058,27.619768850569262,-10.90049257949897,39.43510165141418,4,S01
10700,0.20218451625907186,2.136613556604817,11.283023130159354,5.540663367808944,19.359220858992348,-10.590221901655045,28.10862019970434,-10.74440365664491,40.728843837580854,4,S01
10720,0.2660289076484219,2.007996445412555,11.130079078599163,-1.9125296010968107,11.334634027893573,-15.530270412317497,26.02053326095718,-11.876090391924023,38.378737467985545,4,S01
10740,0.08311665346377517,1.8241327843037034,10.912997811330186,-1.8571142437478483,5.547387428904865,-13.619218632430629,27.190046473794837,-10.67611555555104,41.050447385635685,4,S01
10760,-0.03394961552548728,1.809815778157877,10.797013806409165,-1.0788706327591893,-4.438034271571987,-10.72259469137274,27.620114684343203,-10.713529751622652,36.42319103835426,4,S01
10780,0.08276641824993697,1.4579460289368542,10.376094617249391,-1.0674786265908924,-1.9718865619454677,-9.502545187048325,28.865500268838915,-10.306407442548014,36.580391020101885,4,S01
10800,0.19226414526462615,1.0762481532144346,10.000475023382771,-7.351882149553362,-0.08311869391593363,-13.976426786542747,27.218231514630954,-11.956278749046453,37.53514613222007,4,S01
10820,0.02521531607655081,0.9069144840530374,9.908499779446682,-7.5258151259943045,-12.043446375407733,-10.576691815705223,27.99477882371308,-10.043936290742918,35.12294973940411,4,S01
10840,0.19547850627835905,0.6820391470476665,9.719137390465141,-13.168633384969773,-8.014945373340167,-8.987092776776501,28.778818879230958,-11.748994433838828,35.26091193551272,4,S01
10860,-0.19912787268374785,0.6729875353573374,9.328514366946509,-15.218690407352096,-12.019657954665286,-5.925086093973312,30.388568297233306,-10.953202534388637,35.517921908308665,4,S01
10880,-0.09002494885624576,0.47162115982601,9.260796387366327,-9.171677615240817,-24.126830066640295,-5.148054510732334,29.66661429549195,-11.145404167899619,32.740200671659366,4,S01
10900,-0.1557451020577725,0.24752705769309652,9.223065251178275,-10.786876572639244,-24.903219810621433,-7.88695130695767,30.619336578951916,-11.59459446047681,34.63607502298734,4,S01
10920,-0.1040768207053675,0.2696203383146744,8.972500281012922,-18.93055462569621,-43.329198993195625,7.999437373151695,30.764227530735546,-11.92553266267712,36.69297743661169,4,S01
10940,-0.2771648501495436,0.18940138531225048,8.938569688534816,-26.802518544878282,-47.62430420442783,1.3638407922361604,31.594365667765366,-13.484492657742063,34.61812189754322,4,S01
10960,-0.371476956986423,0.21768122053088507,8.892921936694522,-29.363514948896,-43.233207607747985,8.308395634728043,30.305972158128327,-10.797652653759517,36.10872209216968,4,S01
10980,-0.5114678466779956,0.33810541987982623,9.036708032536058,-33.94140711760773,-55.96654571026724,0.11060230502031165,32.13235653824925,-12.998546204680084,34.18240136638646,4,S01
11000,-0.5021660959517816,0.3840449545033565,9.169344855184166,-33.65374691183774,-50.39595366922643,10.849195522809547,32.01698946613378,-12.059240225954753,34.181386908042086,4,S01
11020,-0.5993083681197541,0.41848760979721755,9.15230156632579,-33.97461553106122,-47.23835104507323,14.36098852928548,31.960056140228772,-13.821499456413871,35.245874524865215,4,S01
11040,-0.4387914743176402,0.7254514422152092,9.283849290158116,-26.103348130158185,-42.769181149421534,9.234846520307366,31.855773847567345,-13.627455707411931,35.45272974682699,4,S01
11060,-0.28287687759586544,0.6068633394589213,9.35341936065532,-25.22908880101083,-37.34113449359681,19.99875894049783,31.037260949989495,-12.573430912546016,36.95748726585239,4,S01
11080,0.08121281020895804,0.9667864635526802,9.351489890001448,-15.690701720642561,-27.753566530634732,17.127759060832474,30.413150645755103,-14.671292676748132,37.38593237037789,4,S01
11100,-0.023616489390529724,1.1004367252518936,9.76896819620535,-5.580908457074573,-9.94648733653638,8.994328056769069,30.070379953343213,-12.003437890493512,36.63833771888143,4,S01
11120,0.288881060964467,1.4574083421076542,9.8681991060411,-3.406632416822647,7.38743920874025,20.014593397036933,31.43136990766122,-13.740329996043576,38.54980335635157,4,S01
11140,0.3987182905024306,1.7002848470346237,10.33844422888563,6.593169196905987,15.58935786227579,11.529308540207492,32.11108947917476,-13.423533829696938,35.94404716065456,4,S01
11160,0.2931905315130172,1.8999818612418684,10.60910819974677,16.14002117274626,28.432537381483897,4.17591867654987,32.42467947297083,-13.744593339230844,40.1228950452906,4,S01
11180,0.550362513904938,2.2181821240941435,11.044020078349057,22.13939754340687,40.6110596531559,2.7302389088345147,30.595996556981145,-12.481559192738537,41.247327699361115,4,S01
11200,0.6681112007389273,2.2359924391914885,11.038477913906739,22.565423789118235,45.78873285060116,11.729648793990405,32.1882530406093,-15.74724742136198,42.39059115425084,4,S01
11220,0.6912338159797604,2.504940121229586,11.307347890074276,26.55566172312792,49.81568036971215,7.442014978002195,32.103969958242054,-15.741298021588147,41.519353147981,4,S01
11240,0.6953253307878516,2.4663867244722666,11.455949168601862,21.829094342438207,56.785317128303646,-1.774836270122369,33.17054148108635,-16.833458330136487,42.330915095566,4,S01
11260,0.7165818234766475,2.5480467759742704,11.594060428178496,24.243723439480995,42.86835996739254,-6.753708520170995,32.89515466642603,-15.652273653696888,40.64295090537688,4,S01
11280,0.5822871715287332,2.6404193287207725,11.616938919332009,21.42515970303409,41.403523681444554,-8.200009025331306,33.851152447310255,-16.46183238416687,39.21840813740712,4,S01
11300,0.5868864589430742,2.4983962820605234,11.512201954796986,15.787899422818313,39.220615823178676,-4.918968280793812,32.4691296901984,-15.969590711280887,41.29103794306685,4,S01
11320,0.5047020526544882,2.715641089865395,11.639594716211999,11.636202697662963,18.83622946457888,-10.614327705109199,33.06698761127157,-17.247795643963343,40.54541674005336,4,S01
11340,0.3842559895758568,2.4060941216607756,11.387706935350062,4.668338827686118,20.112185310548224,-13.197761639569041,32.966557428432964,-18.64014547610114,39.34326520352163,4,S01
11360,0.341328229731112,2.216405481575639,11.265149259895,3.759985160873766,14.4988473968816,-13.392379938832967,31.9070464011486,-19.518214688975576,38.95727191025494,4,S01
11380,0.19972635302549172,1.8471642090592546,10.975009064648841,-5.766941385336588,11.36118810106348,-19.359651409824185,35.438914059211946,-18.210398367512006,39.042312878325575,4,S01
11400,0.12696384048182943,1.8192655203401014,10.769043495138291,-1.11867962689064,6.999800925224322,-15.551981326938831,32.463821503451314,-20.71982893530589,36.961858292158304,4,S01
11420,0.1669370491126049,1.5964851702680714,10.67423648430195,-1.557924701389676,2.28810267675325,-16.34626209764707,32.89171712711767,-20.176307531579127,34.39573141709709,4,S01
11440,0.09909637699842967,1.3580980481846059,10.250504485083345,-8.2932928947927,-4.416474098751837,-11.72870905216622,32.07583982495473,-20.27202524659001,35.578531069377796,4,S01
11460,0.26931628786086986,1.154027953190789,10.214208471758013,-5.114496248963142,1.7065988458507413,-10.427890703288934,32.18870820380212,-21.695633627501707,34.74085143702387,4,S01
11480,-0.02264782149788154,1.0304508955954768,9.825917608414983,-12.909838168286296,-12.736501693616285,-6.227791180269619,34.569414003202965,-21.270619706830615,35.15631210765931,4,S01
11500,0.040458869618988764,0.6933164877667775,9.70505844381465,-13.774149605425908,-13.557432455230268,-7.27804630405238,33.022566723198665,-22.171430150552247,33.792442538277754,4,S01
11520,-0.016198389274783717,0.42220911603357625,9.293573609352714,-13.088031866003565,-20.079264436899308,-9.703425447186929,32.20823320282703,-20.61430960501783,34.482698060228884,4,S01
11540,-0.00891019392332236,0.17778536428587904,9.288009507162336,-12.765338315857143,-26.504019141154142,-4.32255045914431,30.961444605375632,-20.891762316441348,32.05547948420175,4,S01
11560,-0.10545008443121781,0.32285617163434677,9.022979597014167,-19.091795063825057,-31.450042906936027,1.8093066084294684,30.79624834208791,-20.877718906569775,32.610827982918096,4,S01
11580,-0.5177417408696231,0.10478559794109638,8.940734315714352,-29.169476468585817,-44.630368152152045,0.20655333704751866,31.63301386903417,-20.976005098708242,32.714965901673715,4,S01
11600,-0.42424804299899077,0.2478271744837659,8.846492977210513,-21.299832984117845,-45.63596354343994,2.256236350749702,32.05873228350412,-21.5261667221573,35.59620908141467,4,S01
11620,-0.5365145347899146,0.29657650825957554,8.946177985405212,-37.12341222063864,-51.69660435222259,12.112461142888856,31.926018352540293,-23.137359436535643,32.59232589335869,4,S01
11640,-0.35793671601114785,0.3878585742547425,9.053019727856027,-34.32201765813552,-48.04275443553387,18.835029585165795,32.303723407778605,-22.712352030438268,34.38389811708774,4,S01
11660,-0.47014078227576206,0.3404687676255038,8.939183367811806,-31.899085435674028,-52.12405722321397,13.411545817545349,29.302513474283447,-21.340608538811686,35.5017077593742,4,S01
11680,-0.6194685537641874,0.4942168167409286,9.130239271625477,-35.241444394021045,-47.865747678949745,13.147958747500432,32.50600100910254,-25.243085864670253,36.00956614841718,4,S01
11700,-0.5090308785309557,0.7798869799801293,9.321355245942666,-30.168663727525885,-41.850684576116215,16.585419008596666,30.51345065623759,-24.238446832677933,34.47434452458632,4,S01
11720,-0.27210620097907856,1.137246306542413,9.423993860315406,-18.775516747352928,-35.312250729475046,16.777220862314543,28.89268734797109,-23.23585683272465,37.50351249304566,4,S01
11740,-0.008756600490014185,1.1705775268576217,9.64201035816795,-14.145500182088774,-20.979411799749126,14.391799640591335,28.750162963550366,-23.02663295690612,35.98929460727777,4,S01
11760,0.15703131659237124,1.3101353559394282,9.764976927750137,-6.183369467537739,-1.4917084411760586,12.232090780593934,29.985446353853813,-24.2160533846767,37.25055114584333,4,S01
11780,0.16162579369702296,1.6028729108150932,10.28020835897297,0.3577483541006421,14.80254668999466,7.906084987993287,30.056088929055125,-23.1401223216612,38.56266654046335,4,S01
11800,0.5008200510819966,1.6673768699566456,10.346869914172597,10.861502335857292,24.28673455032621,10.899581451252715,29.65619321203117,-22.76871643193412,38.927274727045734,4,S01
11820,0.5351901132714413,2.203813317278976,10.688749225225514,19.747916310958917,35.149723701807154,10.584101561813585,28.579662859949824,-24.18834141358592,40.046622850164304,4,S01
11840,0.45838573936072136,2.2473078952340546,11.076171840466209,26.807935515667022,40.25719663589533,6.258263298031865,30.301408929854407,-23.438344101529196,40.0300967908324,4,S01
11860,0.7602265009369551,2.2528096105193423,11.161850624775576,28.44365754055843,45.78807024598142,3.596329997897533,29.423298038861944,-26.1736143675716,39.804626588780636,4,S01
11880,0.7730441710526156,2.4122884390855304,11.257592313634337,26.874366175332906,47.966568773372344,-2.633503299288331,29.525851867354465,-24.898510672683006,42.50836289306386,4,S01
11900,0.8702609230795281,2.3139693250419735,11.379990207205001,24.276321341945422,51.31466460734019,-6.038238151117003,28.678689895561547,-23.667627432441982,40.753575368256804,4,S01
11920,0.6988655356259432,2.626181296933245,11.533150142930733,22.271794204515135,48.15371154001974,-6.312487132767092,28.1135422207703,-24.69042745305993,40.58855367409449,4,S01
11940,0.6725031428806773,2.6202860179081093,11.76477348148071,24.98433025318425,36.24192166081141,-4.551165339778852,29.614510441781615,-23.344950499196095,40.29406918782298,4,S01
11960,0.4220212025139872,2.44664530249286,11.543430846724334,17.594389670256433,31.427458366648654,-12.993592320809569,28.871883792777545,-22.93908324611362,41.51696412190606,4,S01
11980,0.38933437782943137,2.2894496388425525,11.531360809132385,12.042184943155391,24.110488387270347,-11.26124628632962,26.53968659562249,-24.33995040702479,40.03706341521179,4,S01
12000,0.2259662200786141,2.336297615912878,11.367690196418176,3.2813150750003084,18.540600238565982,-12.781497764466033,27.16088014273954,-22.95643576546812,40.1940028763548,4,S01
12020,0.34290105608739396,1.9810430035703652,10.922263981439436,-0.6817726979945404,8.464670459515382,-13.87109526651227,28.63828336821034,-22.511473789669786,38.491508936125015,4,S01
12040,0.30186200214766407,1.805926447612601,11.189169231984303,-3.0645301729392926,8.819265203813881,-10.55336714498426,26.002904186351817,-23.592404959249606,38.84064254544899,4,S01
12060,0.19410876693933726,1.7374507028338622,10.800400587028038,-3.0887394334184513,0.36496890267710325,-19.310773435123608,28.559642543010945,-20.902872426084905,39.13858968543309,4,S01
12080,0.20157396420233603,1.4132572635123557,10.605186954743283,-0.810094756613962,0.9277271519852304,-17.466629588542254,26.276880362059895,-22.373325267348193,36.79468090114366,4,S01
12100,0.014354752211759372,1.2752926882266515,10.28681230163838,-6.443786945369238,-2.1564928239129024,-8.955073128736336,26.03210800441568,-22.04238685788198,35.55350700464331,4,S01
12120,0.032723071747428334,0.9269783284769197,10.0730363260863,-6.728707229768389,-5.2199460202394325,-4.041789145392698,26.371706158773254,-21.63470361453908,33.74896214527675,4,S01
12140,0.03033064991466522,0.8921290212841768,9.816533486901717,-10.746322064299903,-10.526308693851261,-10.864512228261079,27.55205109134907,-24.136235501709866,34.41812970651687,4,S01
12160,-0.2398424688488723,0.6513971816285131,9.709727571014101,-7.699368627535904,-11.389066579993301,-4.413020381860807,27.22124245397617,-22.720997651766805,32.6631830445901,4,S01
12180,-0.127892510204005,0.7479346814196555,9.21243906603604,-13.385422204622568,-22.690443069418357,2.21866334852398,25.83288887432191,-20.928756912923134,32.96999349534103,4,S01
12200,-0.21021838940637308,0.28442970095369446,9.119067862577248,-14.1216784330028,-28.79076025331259,-2.316987761017066,25.144039663050044,-22.228152286211387,33.580775987713736,4,S01
12220,-0.18875247948547094,0.18605828995457058,8.940598582639518,-16.12297534679606,-37.76002107026765,0.2664784044690802,25.915987291152213,-18.8966715127241,33.57605045784668,4,S01
12240,-0.43747017766498386,0.32864598612797163,9.126817593239407,-23.31117572216195,-41.366158982267606,12.508901809260905,25.769538202366434,-21.272483490215627,33.625363832141666,4,S01
12260,-0.5075085416109253,0.08124040952433242,8.918842988659382,-26.05964138629339,-49.226720790721814,2.6972011150806696,24.01636100797124,-18.754365440417935,36.08636392468729,4,S01
12280,-0.46259668020175526,0.23911020741163747,9.066547720336017,-33.78065206061277,-52.68174381984859,7.8303936879742,26.45445523786934,-20.097982253606695,33.15329673418169,4,S01
12300,-0.55555844651804,0.2213001620209198,8.937053285096992,-37.50446163005355,-56.6610381561398,5.463174044285619,26.546770412616027,-20.411493353322342,33.62577695507101,4,S01
12320,-0.5128917685727572,0.4765592471880528,9.159618436016572,-35.043435214296466,-51.539016048735654,18.466532612384732,24.571820367824692,-18.10200882998944,34.117035774547006,4,S01
12340,-0.45100762917178716,0.7366940346384836,9.167455328439065,-33.568078118038905,-49.15018547318647,14.025451403039499,26.9983363003482,-18.690248170794035,37.54711998731843,4,S01
12360,-0.3426332784971148,0.6266284622636593,9.106183401050675,-28.042363351411726,-43.08461969946615,14.313377782907233,27.462137259420235,-18.205484015304087,37.4655477270106,4,S01
12380,-0.3536515312870895,0.7039661530832351,9.560691997849675,-18.90245494852712,-24.384339130834913,16.046673188718767,26.28230692495723,-17.8250582197728,37.10802761746561,4,S01
12400,0.050992389449060024,1.1545561134297462,9.833406979963508,-11.08595246083854,-14.5726888685318,12.471178419042781,26.618841205095443,-16.965861938245492,36.5106518304056,4,S01
12420,0.19147086426818855,1.4146519860411686,9.877635244184956,-5.788277890235401,-5.314102820220796,14.379276978321553,26.317882397002165,-16.089225066618802,37.339896170981454,4,S01
12440,0.32365661577266125,1.594700834168883,10.258840059931796,5.454022421351154,18.261587015748074,15.93966688045381,25.168327314777827,-16.188632079792207,39.48592489587292,4,S01
12460,0.4353212984929108,1.96042038582623,10.66892957913794,15.993846292994604,17.529256657542174,11.813787808695228,26.107222823939374,-15.53123619100271,39.59990613788434,4,S01
12480,0.5174940094148979,2.096211668858499,10.764699957525554,19.969427765387213,39.67008603669011,9.7504911968211,24.61178974587311,-17.252625700969134,39.07590172393642,4,S01
12500,0.6163675663394098,2.2007112266125057,10.97673310467565,22.55574162762943,47.720028097042544,13.939864618772189,23.762475918550777,-16.791742759502583,40.217675710075255,4,S01
12520,0.8712139752681035,2.2992643660221947,11.12400292496788,29.753295415235957,49.95839433887419,6.723107430425445,24.63143038237736,-16.102003028738025,40.319177553733134,4,S01
12540,0.634601040010355,2.4275028751560317,11.305560985295495,24.494328180193275,46.964078953146284,1.626054791444155,25.20087321241415,-14.338071146302658,40.642585264726485,4,S01
12560,0.7913518117696977,2.723300561094312,11.479407463883446,22.41710444097563,44.86574714981537,-4.980308552693381,25.49628413963777,-15.95824247082906,41.274614775533784,4,S01
12580,0.6912145116871105,2.5435858205058337,11.48630121315381,25.59869564996268,46.187663605053814,-7.841616209610894,25.23125232817957,-12.975182882112376,41.31060822516396,4,S01
12600,0.6937660387857443,2.521731453073117,11.539136204509049,16.219805304369995,35.4697382542868,-3.6771549131862904,24.226243702945794,-12.046458764257455,40.958580755706244,4,S01
12620,0.43693847684515186,2.5104263181165605,11.447126763751164,17.110952702386772,33.02744262488179,-12.965230793830516,26.21691742355301,-14.10042140506956,38.38985497043416,4,S01
12640,0.44178752171712654,2.329063126330314,11.528235736735327,5.79589083607613,27.15966685633214,-8.05440171106039,26.14209639131448,-14.033433483006771,40.218319834559274,4,S01
12660,0.323181168662549,2.2727539906690897,11.331870799290364,9.948779573059252,14.760199162234462,-11.943992284505404,26.023674416109476,-14.64600079098648,39.09280846449795,4,S01
12680,0.2381209503056345,2.203911167316158,11.107221502522716,-4.483503415344764,5.911233644530715,-9.391503267957267,27.05405663229302,-13.990463297778591,38.406421765230164,4,S01
12700,0.19348811655241405,1.944375001127464,10.959027329592892,1.6420852223305697,3.294568977665235,-9.691637167381794,27.332715396983765,-13.482626314340415,37.86260270735185,4,S01
12720,0.10718306906966876,1.620640547904365,10.73313020300588,-6.103345918860469,6.01647194477603,-14.339868073440806,25.32857795824999,-11.839125530073993,37.54305744808083,4,S01
12740,0.08852444297961107,1.4970459398966922,10.413797289517364,-2.9572092410946453,-2.0561248093799596,-21.25955899328866,27.726427801726462,-13.466436379673203,35.296185400559104,4,S01
12760,0.012934216967976822,1.2653307989333513,10.421523025316498,-9.440400242880383,-4.315800003991614,-12.93870069715783,25.19813722832385,-12.762170555165321,35.654987153799546,4,S01
12780,0.2793148550720176,1.0557967049607326,9.823285167481504,-2.557101623716475,-7.891966031001758,-3.314642632850689,25.471861525061485,-10.62303225907607,33.88602627120072,4,S01
12800,0.11110437006518367,0.7711877924715862,9.574464290458595,-3.7041762853245492,-16.576841777823468,-9.045869253329853,26.47792307593709,-12.370322687120371,34.58105328774434,4,S01
12820,-0.06184020668862225,0.7793306340674904,9.535379673570706,-14.12118608764905,-18.432509087764757,-8.600627306601208,26.898948626336832,-11.726012400240034,35.75088406792736,4,S01
12840,-0.05801299679028604,0.314768901780114,9.29570204373849,-12.884235225595653,-26.134375254489594,-4.410349547827271,28.235132871344245,-11.679889959772943,33.09979419935216,4,S01
12860,-0.025803019693258794,0.27949775855486364,8.97615245377215,-14.331197184068127,-27.312198078758154,-3.6947156783861934,26.965165132352883,-11.955496249230038,33.3971964235142,4,S01
12880,-0.28172376599537297,0.27750664120648916,9.181725589613725,-27.99323849250291,-37.98629069056238,-3.1244702871175183,28.295229531575686,-10.957209303574706,34.010394626310685,4,S01
12900,-0.23991161286315352,0.18703323279949113,8.939364075568788,-26.253322713654054,-47.468293856590364,2.2845651094075445,27.543007347205556,-11.220933008376587,33.82687735704005,4,S01
12920,-0.29707238596998153,0.12419210834861957,8.833237223050713,-32.90084063303674,-46.077370972969184,11.578712381071162,27.298912818413996,-11.891531267853829,34.260262855687685,4,S01
12940,-0.3956278380165311,0.39982110983746055,8.877830145126566,-33.25147284452151,-55.467581490116004,5.716959125276279,29.96240677212859,-9.055949678229421,34.17124399520105,4,S01
12960,-0.42960680965609965,0.386834723925494,8.936107708880014,-32.16305578784459,-52.7589410178519,9.679892928008984,28.26140372428824,-10.070937961288198,36.009884815951814,4,S01
12980,-0.38490978025510436,0.39528487822831937,9.012040073799447,-28.746091908564463,-54.83595983566935,19.58500028107631,28.241881019529668,-12.48558251352268,35.01680702497468,4,S01
13000,-0.45714362747326553,0.5637428342207529,9.36803521528758,-28.597716181674503,-41.151756826932235,12.532538114868181,27.213848566947934,-9.398680653718957,34.57708550565348,4,S01
13020,-0.3647606036085148,0.9001951578243912,9.393449778095595,-23.299026815106522,-36.86499986451068,14.007208483699086,28.125374490177666,-9.764651707423367,37.719977583208355,4,S01
13040,-0.08195488329898654,1.0984174442183592,9.652095563491145,-14.792080828163808,-22.519210534064648,11.49130457707608,29.376639665372977,-11.509587329464718,38.097993853625866,4,S01
13060,-0.09251445968384048,1.1317637406268695,9.840659111024193,-9.859176335105651,-5.726746534531813,16.632443829671995,30.036900204214025,-10.887078730557276,40.096708823461206,4,S01
13080,0.2618775846568694,1.4567327621278965,9.910237602138837,4.18461279610982,2.217093204964093,12.929008193433768,30.181343971531152,-12.015141422362824,38.9134998823878,4,S01
13100,0.34766820796882525,1.7630275092976213,10.469421822997427,6.268821465819326,16.415071877679882,11.986308723694846,28.717571413526713,-10.676062695326031,38.04768577147417,4,S01
13120,0.4208129858242262,1.9982297023156261,10.508698618554527,18.439967002239325,29.539284099091166,6.043168158198528,28.958170036528323,-12.414228921769663,40.783001241881266,4,S01
13140,0.531388829985212,2.2110612405075365,11.076426617611904,22.848684909638322,37.72113364392382,4.006721627658801,30.99407735498731,-11.851425577462447,41.018832823874845,4,S01
13160,0.7989703919288954,2.048919584128281,11.31643540812301,29.677145427377393,48.4741568809145,5.20328827015666,30.836021075823894,-11.84894636119204,38.761845583177546,4,S01
13180,0.9102505384278672,2.381113259138243,11.37305852100697,38.25653462262665,44.98266244293267,4.880910063685695,30.921411862166025,-11.158600294098951,41.57788070794869,4,S01
