timestamp,ax,ay,az,gx,gy,gz,mx,my,mz,label,subject_id
0,0.030787588620333914,-1.1784898045203573,9.890715143672939,-3.761516481894721,-0.5665304859710725,20.098651749269486,30.593097070736306,-10.293404048448334,40.04004541391695,5,S01
20,0.5508789272255701,-0.7084366680635947,10.088054666840044,8.46018980264795,13.68375335297064,12.507361028424521,31.102567484126673,-11.047290675186076,37.672408709434485,5,S01
40,0.3483344556637227,-0.43060578519914056,10.350610029248303,19.63865108997469,30.534078395757582,8.462688824546163,31.57817352564939,-13.193137757056057,39.821480341336404,5,S01
60,0.6983632868821644,-0.3981719219535428,10.730898796551834,22.945364129061304,48.74426812540685,14.119336044174709,31.05830018085736,-14.357028211927432,40.8431764504702,5,S01
80,0.6270326557211846,-0.24214236593535593,10.926672814502727,20.74700822636588,47.238213504933206,3.979517812055709,32.24262176262911,-11.305684608366661,41.4139360571419,5,S01
100,0.7301333920373809,-0.22781309896909155,10.812525951444144,35.803337217562195,56.44815731164176,5.317826782377744,31.62682165530223,-12.656791706144713,41.87542927004391,5,S01
120,0.7349746690894698,0.0032102276092074583,11.13691769594946,29.836887798541174,52.431160177358706,-3.4730980969572003,32.52687402797132,-11.847746012354701,42.489793497739804,5,S01
140,0.5227596516742122,0.05333413401728468,11.382407242574446,26.520351926335014,51.25249762047543,-0.033748758960993386,31.086968811301524,-14.482106828009883,42.51245216207547,5,S01
160,0.7182209546887224,0.00799569277244784,11.331357138342305,28.849480102471713,39.88887058448873,-10.663610103946729,33.02916963022733,-12.829890852570456,40.90228402990094,5,S01
180,0.4666182090982185,-0.1277317205021925,11.177229061553172,15.618230407896217,30.905489577228995,-15.66734231065672,32.75001038099879,-12.733839481187207,38.74543967396385,5,S01
200,0.3214839720772371,-0.010181422760801417,11.250279623261319,15.208540910378122,19.694627119088533,-12.41130186924942,33.04253060830695,-14.670381463347939,38.81407742550043,5,S01
220,0.06114064883328311,-0.2475279878104546,11.398006553825692,5.280135451386532,13.641872784013987,-17.015897032554147,31.782110705224287,-17.041251648943295,37.84434036054165,5,S01
240,0.2854406549407974,-0.44610165887560316,11.28765822225113,2.760250013126554,17.773924928720163,-19.093175964046324,31.9017144639593,-17.503890462773384,35.33416024207942,5,S01
260,0.14199282827894918,-0.563782497123797,11.060350478066722,-0.07095062656260875,11.56959444047472,-13.002146093143987,32.227210335395604,-15.910743391079365,37.5237590389593,5,S01
280,0.20369208082059345,-0.8058934734694023,10.945992772456755,-1.4292285632427895,1.5336393420263505,-18.230278039769825,32.34160527089998,-16.55051995942865,35.50461251558178,5,S01
300,0.3770237080247161,-0.8099483088122932,10.759993955091902,-4.3632978879919255,-1.0655621619108173,-14.571764856873262,31.945469493362367,-16.33720184640788,34.68797942529223,5,S01
320,0.09079750564013198,-1.24712007430189,10.407235401398385,0.1322812652976273,-4.358010722071099,-15.17580835538584,31.74543424299016,-17.95292030869765,34.55549127577578,5,S01
340,0.2005387594840431,-1.46291583214232,10.170840571466192,-1.226978228047547,-6.166772760371832,-11.729943683201666,32.22699663220464,-17.970775548825834,34.64560354468781,5,S01
360,-0.057444203784047326,-1.6577852442940457,10.020654621444628,-11.216032932014404,-8.9109418258516,-6.962634631555522,33.3931357365731,-18.057015426527304,33.644398244798985,5,S01
380,-0.10828579479892464,-1.9530241966111923,9.79669702840715,-13.161660702862019,-12.738278232022031,-8.707540291313691,32.24771518660447,-18.615978539099373,33.0455511921337,5,S01
400,-0.2300594178435916,-1.9793549187023431,10.059902791055597,-19.75503217011335,-23.12203587337229,-1.049143327862958,34.21852653504621,-19.19036555090164,33.385008822812026,5,S01
420,-0.47126222487485037,-1.8088621369779774,9.67801125587547,-15.032901539978546,-26.941402151619602,3.8206253501368597,33.17785150447952,-19.79388128576246,31.588643151152763,5,S01
440,-0.3686310135108227,-2.0146627278890077,9.727866012051196,-27.521001386693772,-38.523484407623435,3.0188021943429457,30.76369884744091,-20.46779302361412,32.38829933905177,5,S01
460,-0.5856570571834316,-2.179947781071303,9.380278112114368,-41.12686527756986,-45.63209054456029,7.652597156307561,33.770713287992564,-20.02866042836375,34.405923356766976,5,S01
480,-0.6304993101523414,-2.119137952247829,9.210851366221611,-36.11211807844259,-50.67066472174364,11.044625511910972,31.714046768883193,-20.366925667015245,34.435292488647235,5,S01
500,-0.6888673665403002,-1.8811249540231518,9.425914940804942,-35.67988756834734,-60.73240653464506,17.000068848626963,31.980904255630097,-20.778360371819982,34.556110339661046,5,S01
520,-0.582902353010864,-2.003077814240584,9.448505166076863,-31.635942062959618,-52.66641537341708,24.45140971610754,33.563453365345175,-21.30054761468036,34.60842143842676,5,S01
540,-0.6958492958267626,-1.738878792913295,9.65905572090411,-37.265187204332356,-54.660645545596836,18.05478425178711,31.517079784024666,-21.551013952093548,35.73133042844117,5,S01
560,-0.45791531446762324,-1.4308348204579482,9.7260230956134,-35.38383775170346,-45.179034808067264,20.037066239867283,30.95248647746075,-22.083910494234775,36.65634025818714,5,S01
580,-0.2597886979881455,-1.4903074368032574,9.594800003655761,-19.42706889468263,-26.520362109856737,16.472258006811472,32.16611438265581,-21.999457917798615,36.91143252234635,5,S01
600,-0.03813731003648721,-1.3379141767486955,9.81281176562068,-12.141617823966929,-12.601718913753547,15.497463035034015,30.89079246943614,-21.767661193148108,38.191323659576476,5,S01
620,0.12378198172297813,-0.8796669328882554,10.012522364325022,-3.110873239801367,9.561593844224072,23.166965275081306,32.67807796686763,-22.77755141216788,38.83200190977079,5,S01
640,0.34015413648466863,-0.8954389024410412,10.181091699540056,2.413993775526487,20.180045764971236,8.393931720979115,31.2128210805647,-22.513479311441877,39.79893008006427,5,S01
660,0.49658208206463306,-0.4353360499581856,10.438181349991666,15.99517315470558,38.22965168816833,8.800086298004183,30.36517839378795,-24.1219284046941,41.07870390137027,5,S01
680,0.4817459741365242,-0.3822355310424427,10.606708897487765,26.105150740807364,39.70556045885615,8.201534209283153,30.642119082370357,-22.185236831490222,41.103182789728734,5,S01
700,0.6881610466736079,0.013128306518967223,10.739985039413781,30.446174160033625,54.15343077430808,1.7792843939683416,30.435646009555697,-22.997111731931277,40.81203946749782,5,S01
720,0.6937928262671443,0.03465646106907,11.018338135507806,29.304943084583943,52.55900144042027,3.1618183046028694,30.376486474984564,-23.91686915155889,40.7709988408369,5,S01
740,0.8376128749945128,0.06086720492941819,11.233977057841694,24.234511169083245,50.647934792438775,-9.349575208122507,29.917537370549784,-23.68414240831806,40.70722565255469,5,S01
760,0.658642441367849,0.12309712032038675,11.321987402079197,20.99045138355454,51.08822332864425,-9.311731340548866,28.69220678598957,-23.349889301405707,39.44224136009127,5,S01
780,0.633434508804366,0.041798658963187546,11.217613403351812,13.495431791253825,44.25834124009156,-12.145338954172589,28.093991043112684,-25.64382472303217,39.38684825076501,5,S01
800,0.3827316072329895,-0.21369452530977284,11.459423163215755,11.927425831081443,38.203421804448155,-11.52060225720904,29.654881207370224,-22.417555190019073,39.45651344247477,5,S01
820,0.36846215685294537,-0.14295114191302938,11.37002114291389,12.725855856529932,25.582106602297134,-11.684944174232301,28.63882374559815,-22.115692964850787,38.84778809505793,5,S01
840,0.44079017424017264,-0.2566293824556885,11.335987748965529,0.03357025417540882,18.568014621572956,-15.324868176636262,29.339029390009017,-23.662432607803563,38.71148793331052,5,S01
860,0.35090174971933474,-0.551073169585887,11.12669110856917,5.208029574457403,7.805184329818727,-16.292003061708584,28.79414188819856,-22.938129665884333,37.794498472292744,5,S01
880,0.24994935722717046,-0.6200408732879585,11.007127792633044,0.7919896772564625,10.401016673539779,-18.65072503731166,28.89768846966681,-24.635294970307815,36.26528436180878,5,S01
900,0.1984807350806291,-0.9283171216929906,10.957414624777536,-5.544073588921035,1.8253418966791297,-18.536583920381766,27.73093885421099,-24.129794884013503,37.08442783175281,5,S01
920,0.26098055949511817,-1.041468352896218,10.800325972670077,-5.325609510225896,-5.530656892345237,-24.13140488933529,27.93931468171935,-23.146271373192377,35.28009114253433,5,S01
940,0.09033173492984081,-1.3159523560045674,10.444495798244827,-1.4922771776601116,-6.2583169966387215,-14.829667183303236,27.082529708980285,-24.162931340543384,34.23818662000809,5,S01
960,-0.09472119053545383,-1.3829499613509013,10.234487224992503,-6.794886952297221,-8.846936692867315,-17.310809691222204,25.26205194020359,-23.299903473093245,31.94262671863332,5,S01
980,-0.08274061680309311,-1.7435181740654029,10.155223174488142,-11.83224737153148,-16.530285025396765,-8.711051458722476,27.311292278406036,-24.801035652211404,35.1324838864719,5,S01
1000,-0.2390249973722148,-1.7497629716198573,9.947632979840142,-12.279352749436647,-13.082244522220389,-8.164164907280673,26.649531347270685,-23.21657899591362,32.72610681658435,5,S01
1020,-0.042765117171149725,-2.1192566625608023,9.697949872825928,-20.435577188920302,-28.466534524400142,-1.7588292787935806,29.77651333643783,-22.270706477033848,32.10118765991302,5,S01
1040,-0.34610656655350003,-1.995549887353561,9.72681408370856,-18.809738213660395,-29.587621349962983,2.301030306902477,27.6721868241229,-22.785823070140786,31.847090213284694,5,S01
1060,-0.5283340271888458,-1.9699675350663093,9.59301690643135,-27.03951367069077,-37.55731074747226,10.630651795380318,26.917140305518206,-23.492866437542958,31.689957925855254,5,S01
1080,-0.5139970261955155,-2.217604302906001,9.576348901849633,-35.82385668562919,-44.469337243644475,12.873292804037128,26.261283657408587,-20.900367301644984,34.67253670616021,5,S01
1100,-0.5657084448379355,-1.9200264728389385,9.374669580660134,-31.465885949961123,-57.65718764439005,12.681432738667306,26.802679733750654,-23.408614907155123,32.91425927077961,5,S01
1120,-0.49134390074749734,-2.1446450880525814,9.37027043679845,-32.544859143663246,-59.55131703069899,14.65636121882956,24.75668779389588,-21.067642104563113,35.47341168431029,5,S01
1140,-0.5938792774114341,-2.0341641988187464,9.362425405998742,-38.152385307116994,-61.22172070629558,21.536326788527827,26.02560405065612,-21.865251512069058,36.8682848804123,5,S01
1160,-0.5007426477143737,-1.8238086111188507,9.282365418652082,-37.698964563549,-53.30964919439966,12.912040171775152,25.327189687938507,-20.33523205381168,37.024893798401806,5,S01
1180,-0.3828558571044476,-1.6440838641257507,9.618693178842724,-31.8365118497805,-44.95976995140126,15.394150495540467,26.526324781025984,-18.483278827601413,37.213000666922554,5,S01
1200,-0.06343587327681369,-1.4513638231137147,9.621139825298517,-19.544300971718226,-28.614071310814357,20.531225204845924,25.30782151203978,-21.645129631486387,38.673171576562424,5,S01
1220,0.008647664692542217,-1.2147359968947984,9.935999207721247,-9.573937568244267,-10.415338020880807,16.59847538749251,25.99807215020584,-19.153508753844534,38.057400259079955,5,S01
1240,0.15299631060805488,-0.786165249994454,10.048222683799828,-1.9561745280541762,9.977618807021111,15.910431667027554,25.945134835623332,-18.125509750432858,39.01376813828624,5,S01
1260,0.2889672330296449,-0.7889160014077885,10.132783495335286,9.99799853098688,20.231148607534795,12.581966913200322,25.051673571770007,-19.28534153920205,39.75094194293038,5,S01
1280,0.5186853836099844,-0.43343918165570156,10.682853062933535,21.769917001344865,38.58442069590262,3.5282721589291257,24.253383574721767,-18.942389390114187,41.6454729966267,5,S01
1300,0.7602963093041839,-0.32392553167647564,10.613618509297384,26.13984972958822,47.565435729591556,6.164083748373162,25.894646817876215,-18.989896024342485,41.757036644225316,5,S01
1320,0.6873212414686718,-0.2171014060103588,10.992910778695066,27.648606036116167,48.29197455386001,-0.39437825891001677,25.395662296210183,-18.606945104421317,39.716338674024946,5,S01
1340,0.8058532671711962,-0.1502724102611394,11.124573145603811,25.61077270783476,56.64858669693009,2.8473326326816664,24.388262188461823,-18.35083604468783,40.815359775182095,5,S01
1360,0.8686166075270584,-0.1104482461197606,11.00717989700501,36.43882617544653,53.35273671928174,-1.3364102805765388,25.42080215137984,-15.255037877207572,42.67123622003285,5,S01
1380,0.576904421940693,0.005603880125202201,11.221730161292719,27.234154870534404,49.96071984278053,-10.296764023264307,25.288551989924386,-15.765414283906162,40.65425492230811,5,S01
1400,0.6026404821521871,-0.04295438011780778,11.310755682500918,23.177085153959045,36.90907614750591,-11.672735590182652,25.453475771947687,-17.12070019162683,41.26287387206956,5,S01
1420,0.5276364859397144,-0.031120633405910286,11.368460778075287,7.300240156298863,31.51326050153912,-18.91660394484508,24.645827530215456,-16.034820277597234,40.67905612982843,5,S01
1440,0.4263989464876098,-0.12417719716934213,11.167721399412555,7.145240496634448,22.56141442248421,-18.87898660535655,24.179359375287486,-15.843306512709463,38.420781496955875,5,S01
1460,0.32151976455987663,-0.3051918431028112,11.269492860578577,1.9169303944630425,17.88939550019695,-15.783504265739579,22.410528308127965,-15.395404670701362,38.17271194026717,5,S01
1480,0.3390870856047497,-0.3409772275812714,10.990477958970647,-2.01853563764603,9.409002655903697,-16.33043123963445,25.25792202990268,-14.709553932426655,38.52263073836976,5,S01
1500,0.30938237454823575,-0.6689229306890114,11.084951255965313,-0.3413204720561387,9.959219732959047,-14.49501910779131,24.12840102042703,-15.09514770533812,36.978445217191116,5,S01
1520,0.20913469417591846,-0.8161457122844364,10.854716202656174,-1.0871221328178504,6.441693107177903,-21.252972063391415,26.04997165963436,-14.48957182190593,36.62581040667959,5,S01
1540,0.2476175899650382,-1.0820297595612856,10.743581577553051,-6.101304485663109,-4.2722066634847105,-8.00903284668039,23.644042528657,-14.333313871682972,34.15259960677782,5,S01
1560,-0.0013168364001849286,-1.2514608138625731,10.334245720697977,-6.319523329154495,-6.777630811162754,-18.88293275413171,26.53539389365215,-13.41275171311531,34.59316996312835,5,S01
1580,0.1609327236402767,-1.2651347483707116,10.301299892576303,-9.967934436501146,-6.860902341798583,-13.831467480871154,26.959345812808635,-14.938106013619088,32.67605727569615,5,S01
1600,-0.18480541022696614,-1.6215928180382828,10.059538907667784,-11.204333477913737,-10.436570645295584,-11.502412410633069,25.714346552148918,-12.713837052358443,34.03487331938041,5,S01
1620,-0.0009164354840222183,-1.9283720924175005,10.026676992399603,-9.31667582786277,-23.12554637756403,-6.6488672128137205,26.388699753048567,-11.884376056620678,33.12241423094804,5,S01
1640,-0.23975868461300945,-1.7958224200170594,9.646744542633607,-20.385778411971383,-26.030227448458437,1.8609612754378388,27.373558269748848,-12.413147619377735,32.99212910567145,5,S01
1660,-0.4151314991593179,-1.947564577791618,9.781189443660955,-22.421294912112945,-31.623956512237754,2.6593832451539017,29.157833390904898,-12.360160166987953,34.6645092861933,5,S01
1680,-0.6149669763167985,-2.0317005579396255,9.46293184683375,-27.680648993912243,-47.62462198883575,1.3365504009126874,25.66522548848846,-12.644883178657594,32.54704222838636,5,S01
1700,-0.47223770791638253,-2.1833653468884537,9.33569591733025,-33.78973129554205,-53.2546232483323,9.668745467382644,25.609780655096042,-13.509354077556763,34.98819411731694,5,S01
1720,-0.7889411894367351,-2.0663175943893446,9.42537523122307,-41.88085853837928,-56.957766594122404,9.171401730485844,26.871861263273473,-13.035547986784419,35.26478869265865,5,S01
1740,-0.7966115061219295,-2.036974276618907,9.515884842206118,-40.24673925953034,-53.132371436244135,13.20549971517091,27.56706150267039,-13.031011871714718,36.05149933137132,5,S01
1760,-0.376364517259674,-1.8100913019660132,9.367850777544664,-37.083069852457726,-60.701693731559665,20.114783220666286,26.647030232095567,-9.771746980349066,37.88054675361345,5,S01
1780,-0.5053026180160429,-1.694131987543767,9.682323705778005,-41.18687090544321,-45.316604754507836,17.483898732184425,28.03924953151013,-10.533127875095985,36.27786820027093,5,S01
1800,-0.23111361454456605,-1.6092036776072187,9.66259226029757,-30.166063364647762,-40.12071455225613,17.527361166390943,27.982120656292086,-13.439441792044352,35.60964951241681,5,S01
1820,-0.06446992550488234,-1.2613951923885554,9.72493883739758,-15.039121538716177,-24.836282481073415,13.215992822871454,27.556871182110587,-11.283069803215735,39.6291956451343,5,S01
1840,0.007965329767500584,-1.093218266328532,9.93053636759377,-1.3564915267345938,-5.37384361674168,16.63092019653385,27.836595949992955,-11.134723898692842,37.634991489576066,5,S01
1860,0.19317593964768995,-0.8881294099014001,10.137898828107312,-1.3392109120694675,4.6803075698722605,27.406770255162876,28.798009940433854,-9.751250319041663,41.927609608855455,5,S01
1880,0.37733801435043224,-0.5166013623379648,10.266724237288326,10.55524622709046,26.460975474081945,11.057710491615731,29.10195139071725,-13.343085602553316,41.40358275347781,5,S01
1900,0.49089953765068306,-0.6426594631888456,10.289978541399133,28.687267410561727,31.866084814642537,12.037067786655944,29.703931052849626,-10.641289279244935,41.02014512716253,5,S01
1920,0.8210875341647992,-0.2936182606980436,10.837283936283335,27.475725695948228,49.66165310819746,13.44623868927245,28.910212511130226,-11.1689561772057,42.10659429840628,5,S01
1940,0.853115177507986,-0.01313847287070933,11.164084133334317,29.986582530755225,49.606209430885094,5.889900980969288,29.34268795622447,-11.944230582593754,42.38483893160614,5,S01
1960,0.7663002041053181,0.00907053805519327,11.179078912101572,25.10820108267613,55.5968791605795,-3.2914307636771305,28.86620800414125,-11.33772797343769,41.896828120143766,5,S01
1980,0.8158271439404182,-0.16799514986429315,11.327122180928475,30.39645951048013,52.79909367211336,-2.1419411326622786,28.632754427511866,-11.75751795295174,41.22832965058795,5,S01
2000,0.658969353852768,0.1103708151983599,11.269837683995338,25.0329270866109,43.58961642210825,-10.141011415272244,30.245567236873416,-12.361753463384563,41.65947694253513,5,S01
2020,0.8043139676274423,-0.029885565942361733,11.224578999716432,21.520828347916552,40.49222143243196,-11.640684420085744,30.239300051897782,-10.760662196213964,40.448693333347485,5,S01
2040,0.49195849170177375,0.17866554870692114,11.49199340441303,17.351221987143404,31.475533251143847,-11.455231890193122,29.287065134249882,-11.8311700033356,40.49213026533689,5,S01
2060,0.552632913761627,-0.18983647213749447,11.264382025998604,5.9220600819265625,18.202540998860506,-14.349206094994816,30.72279741867982,-12.661550317196042,37.94923775727239,5,S01
2080,0.17225524669357975,-0.25439268159001804,11.240140748993898,-0.4955569432309268,11.79549610080368,-13.758827331201514,31.252920339928377,-14.108763538709026,37.400301467567665,5,S01
2100,0.39892105338836925,-0.5513828461669797,11.28789025477415,-3.5794670832129913,11.476335695733964,-16.08269510758915,30.437981052090098,-13.171361837956892,39.06183617524019,5,S01
2120,0.25065256420696186,-0.6253115768549449,11.06269209281153,-5.177417585704072,-1.3310087832577409,-24.041847128282992,32.524975217297936,-11.974627021919137,36.63273960267624,5,S01
2140,0.17621348295690598,-0.725417187834928,10.686928677342237,-3.8439095605368765,2.8698524839532054,-14.158971457842705,30.42449475857662,-12.6576563585301,37.20946904023978,5,S01
2160,0.1072467571734114,-1.199602187478324,10.44087610081084,-3.0283568746684306,3.4355016085455485,-15.556540532670072,30.22456342210853,-12.758083857451837,36.00210249263552,5,S01
2180,-0.02505682767288836,-1.1161313231243937,10.429648613330812,-11.603695688068377,-5.035357509929931,-12.36611680621194,30.31078890677261,-13.414685984057005,33.95590411968679,5,S01
2200,-0.005911311859620821,-1.5174149341085519,10.158650397487298,-9.40550439962443,-1.89537700328911,-20.87536983821822,31.74637682430007,-13.093062978800893,35.30866130124518,5,S01
2220,-0.1373230039744273,-1.6729791379298609,10.00575150179891,-7.312155401150516,-10.290109145084703,-9.04741120158189,31.8159396384879,-15.286362605573004,33.50155484758926,5,S01
2240,-0.10004755008866975,-1.790205735466775,9.67200484601392,-17.75903376781472,-22.901976817199884,-4.64202044044075,32.232752517940995,-15.48705785454028,35.25873298584389,5,S01
2260,-0.23824702033510228,-2.059409958325137,9.950439241256058,-13.596390181438405,-28.99440179013488,4.708040440629357,32.33173759734938,-15.568390929960566,33.502170295437246,5,S01
2280,-0.45740168687542837,-2.3261868918271036,9.697521937001026,-21.983855142559776,-43.98687441404547,11.18273148501182,32.611254143188056,-15.3639938625152,31.88606223110447,5,S01
2300,-0.4017401388786275,-2.0810995697614514,9.4761421797809,-31.340455595554474,-51.030118737661404,6.539692426954849,32.31554631912711,-16.147985617992028,32.197182708858236,5,S01
2320,-0.6436173105512061,-2.249097356776116,9.351061631367932,-30.482694671109545,-53.638818621697354,14.589365371852926,33.35562165495268,-15.498617087349938,34.835056552319166,5,S01
2340,-0.8424721681811194,-1.9917826762741975,9.36607684675403,-34.864507969534074,-56.162195150149415,15.640937384904243,30.46003286301326,-19.44355354101669,33.70694728943189,5,S01
2360,-0.7716877608378419,-1.8635477366704496,9.432394376920588,-39.12357420940701,-60.672326517516396,17.129424304127735,32.63359675145569,-17.537950471591273,34.616522826617654,5,S01
2380,-0.5478292222897896,-1.79753897354853,9.475396101170146,-42.39201241901082,-57.65299835537696,18.391408564030563,33.9301304661245,-18.854488389277307,34.84338704149825,5,S01
2400,-0.5779788438989878,-1.7578554757797131,9.599953860860165,-31.153733425749923,-47.4533872451802,26.629431631268837,33.55505904673467,-18.86091236530784,37.41059586776096,5,S01
2420,-0.4096765636144153,-1.3979262651818625,9.455856296968514,-24.240124856488023,-31.406815199406218,12.561373185329623,32.99723078091543,-18.860960512626814,37.307249914450104,5,S01
2440,-0.04283519261817184,-1.149625306923662,9.725808641541418,-14.743887207326871,-20.335713229804778,18.051626472991476,31.903389941491422,-19.937317523621825,36.75148361112021,5,S01
2460,0.004665451327438383,-0.8583806435988257,9.67947408072516,0.886361675116853,-4.013718392270721,14.882678838482116,32.25753599556313,-19.00275171493781,41.61636624966051,5,S01
2480,0.14948745492481724,-0.7459563447210256,10.093020249268074,10.618796726990947,14.7191965127709,16.38550598855085,34.08481474715144,-18.025084135055465,39.27427408840855,5,S01
2500,0.4901181764713656,-0.4623693743099928,10.360335210172193,14.664775827112262,31.422232474982383,7.2686602434378305,32.249533569328484,-20.253667625388502,38.9437685640078,5,S01
2520,0.7406393290894947,-0.46319774205022113,10.615817507440683,18.275498615458158,40.522652572656696,15.15066333156174,32.647868749956736,-19.161108176007097,39.45043855609352,5,S01
2540,0.907052807143614,-0.3510525941709856,10.899470778168046,25.556080185061763,53.618971065235236,1.4614538929701872,33.51743994497973,-20.342842959813687,42.56726712659505,5,S01
2560,0.611456182653514,-0.16751071664486522,11.138404000144345,31.5362582297568,50.73213943329713,2.437072715733232,32.22547406713453,-23.454306271860712,40.854789444179815,5,S01
2580,0.9063766548953929,0.006017025911146848,11.236684120797117,32.00281888155434,58.77535191330425,-2.6038358107502884,29.028286556181456,-20.422932404886993,41.710825355387385,5,S01
2600,0.874011461522471,-4.491455513218334e-05,11.085888695107908,29.027461802026135,50.634703502234736,-5.733604102295431,31.549913133582503,-21.475788110107217,40.40704409890811,5,S01
2620,0.7137472940392326,-0.02494976011993067,11.351545299912917,29.25783441882074,49.77558138165762,-9.934050294599807,31.144389657992164,-21.829432419786492,41.22750917819008,5,S01
2640,0.4639662499302857,0.1814180583588726,11.392118035096301,15.095879140599749,38.99637469481434,-9.071677012431515,32.00142434032625,-22.64738873815234,38.43329595991354,5,S01
2660,0.43543213847399787,0.07046543176939427,11.27441579776785,12.920162035926513,24.59782723038063,-13.85947397257142,30.58409317074558,-21.76031401153918,37.74857438750421,5,S01
2680,0.37277162274297415,-0.2903007789978625,11.104865145663329,2.1684198574840545,14.7156392332772,-15.9102390297447,31.569590735169932,-22.16253555253482,38.24024142898491,5,S01
2700,0.15355485584657166,-0.38517089909742463,11.018247963999846,5.4770447900317185,13.819372179280796,-19.747801807435856,31.13138744943673,-21.873225890201077,36.3147256621142,5,S01
2720,0.028041328155768278,-0.48258571824209034,11.101238917404567,1.9098633429823364,4.334243405083167,-12.2978487877939,30.75596732884628,-24.219185836957127,36.923134694253946,5,S01
2740,0.17486080926532643,-0.6793736955411054,10.888356168411297,-8.832865240760693,4.437382195374734,-22.443028041247025,29.85561349137597,-24.059636811130005,37.006063135069176,5,S01
2760,0.15951087552606752,-1.243415022521805,10.725629824650104,-6.436594418175117,-5.53804916615445,-15.504014614656002,29.351649259777474,-24.0580082670601,34.59899061057804,5,S01
2780,-0.008680939920268332,-1.1314350657554035,10.41924263482253,-2.991587684507736,-8.180873863894453,-19.307734427863398,30.296353807918543,-23.91867895076828,34.337851045319866,5,S01
2800,-0.07833852344403386,-1.3646960246347772,10.368944595027363,-9.77626697658501,-6.095171722715092,-9.526341203236868,28.99299320005213,-23.26617396208721,33.934454307291695,5,S01
2820,-0.23361926623026483,-1.474135444834042,10.152129311851706,-3.4966258050422105,-14.904028225175622,-11.240251095700108,29.925634301299116,-25.594155034604967,33.609708023973084,5,S01
2840,-0.10796740649180173,-1.7780046755366037,10.091276811401896,-8.682366108042926,-15.417328031836506,-4.217799735300185,30.984607783934155,-22.36044468679546,31.206864337578242,5,S01
2860,-0.2534102830538336,-1.8918674407529676,9.871972146480225,-12.778625372533462,-29.091007022312485,-3.1008162048374315,30.357514550873404,-23.829909483892468,32.88769208417122,5,S01
2880,-0.2830167721893815,-2.0304293440197836,9.73537437129462,-23.50636823976108,-38.19862927263371,6.800228419380533,30.67545124591666,-21.91139746867411,32.41296757537987,5,S01
2900,-0.3515448013381045,-1.9983807969485323,9.665225272208898,-28.29660866906386,-39.855695785124645,2.520840462537498,29.830038788967958,-23.233712435997536,32.60335848883055,5,S01
2920,-0.4837835167445387,-2.2623408015849296,9.529667732765619,-29.99571839124646,-52.84537929808151,10.54292833778403,29.493877692809168,-24.0807661160081,32.839229178520355,5,S01
2940,-0.6146629409888057,-2.2341077347455367,9.33323688069297,-37.88251503804409,-51.14063851261204,8.01089603640639,29.279387938920152,-25.07772191270261,34.18659729214504,5,S01
2960,-0.6792432635070402,-2.099637745470612,9.569312459429563,-33.50957272874655,-62.69682903882196,9.548321354357475,28.005220439961857,-25.77282097606854,34.25362142616154,5,S01
2980,-0.6764277688406056,-2.0284435593433616,9.506538251986868,-34.72913724936854,-62.3174916480305,20.68129712921866,27.22871246877606,-23.885600117094917,32.7341952554689,5,S01
3000,-0.5374405451074543,-1.8051781671017433,9.5289974929823,-37.766768369551926,-49.0072067820315,22.02412049976968,27.66960058609691,-23.73326616580023,35.87640885525632,5,S01
3020,-0.3887461062376707,-1.5755510563707147,9.490235512299932,-31.75028280846561,-44.216053080548875,12.26695208859008,27.310633762230406,-23.650956421686164,38.36499398416114,5,S01
3040,-0.19235382298373874,-1.4773619947079024,9.715937925736917,-23.945137745447465,-28.740957311669696,21.109812287669257,27.492296384981884,-23.673441747653843,36.83602718093308,5,S01
3060,-0.21222805260022107,-1.3083234195414333,9.78256052687025,-7.924493445380354,-15.398607868745074,14.853124834457061,27.01762454214709,-22.392403418775555,37.4098869695447,5,S01
3080,0.00875497095016528,-1.0427014382000155,9.920922846518312,3.3007073159029163,-3.5332168870126717,7.76829627503869,27.29104199007827,-21.864407792597245,41.6494766463357,5,S01
3100,0.42432047944021245,-0.8247611625747033,10.08115322501748,9.297000965515746,17.60437867355282,10.272303566958168,25.893780858192628,-23.31662750334272,41.11231832714837,5,S01
3120,0.6128412622619129,-0.4157659208405006,10.538498721218184,14.878135748798119,28.139484879938294,16.539466465112323,25.799987470852763,-22.961487546853117,38.86497960172199,5,S01
3140,0.5828460012147713,-0.3852245669484218,10.683737538060313,25.558404512777415,44.3225180518315,9.68330260164474,28.562715940930524,-23.076311131241038,40.524411554861814,5,S01
3160,0.6421372313522096,-0.030600386626854076,10.980010504298974,28.005489262956818,50.64529442853808,5.545276463782056,26.132264256887858,-21.961080439918003,39.18523401925534,5,S01
3180,0.7137451241425063,-0.01874998388893688,10.899121724447898,29.381137029280513,56.38335906640352,2.795190455726283,26.641402351447805,-23.053386681226083,40.14074343200221,5,S01
3200,0.7323356974139351,0.012170315486709438,11.078386406421863,23.395276204829383,59.71900522167583,-4.81935336585259,25.936876308224043,-22.234192761417525,41.18543656096434,5,S01
3220,0.8227940501173917,-0.11161395824182271,11.30596397496233,27.98938190343136,45.001385966006815,-12.938076160875232,26.358581780379776,-21.05931778403147,41.034847371974465,5,S01
3240,0.6746318934281593,0.07242927108748035,11.157301772571152,28.59348461069059,39.62838737494712,-10.104578862424951,26.462648724253576,-20.652479914782532,38.36863193267,5,S01
3260,0.642687789797075,-0.025027278040672174,11.336666036646308,15.394536391678145,36.30007236314398,-12.027301241588734,26.96400393631401,-20.437348454678453,39.79818841461323,5,S01
3280,0.2859298527458573,-0.1439539915539406,11.1406586840175,8.200710053949738,28.296221825891227,-16.034566236034586,25.716442876958126,-19.703405718450448,40.445866808840385,5,S01
3300,0.3821887765461708,-0.3538215509674831,11.19463325989205,11.288307416857897,13.801024808947272,-13.631641155966223,24.01578347125004,-17.01068620393017,37.167879433633296,5,S01
3320,0.31735401378041606,-0.3571503387293891,11.110853128078853,-0.7481194508192002,6.654833370146378,-13.553053270351617,24.0937839487724,-18.107980630310237,38.099679324721436,5,S01
3340,0.14292264860479204,-0.44351043565932335,11.121963941737771,0.6587355441991845,6.266919439163112,-14.594806643711268,25.61625419582765,-18.011263345874646,38.58853415145348,5,S01
3360,0.2464373598511044,-0.5524116162621586,10.831423515371265,-2.450457340883477,8.062482283376172,-11.894830064464246,24.959732435472848,-18.627109254146745,37.42288409810263,5,S01
3380,-0.01961593076764251,-0.8974863837374771,10.679003325434007,-3.4485704043987853,-0.8116275521288688,-18.212329975575685,26.155635881435938,-18.453432140671122,33.865452009661226,5,S01
3400,0.12489243294994168,-1.285811026274301,10.5140692372484,-0.3552557562770975,0.8153206973957678,-19.58215763435753,24.53499531446471,-17.638593755584346,35.28112711298964,5,S01
3420,0.01021014479607954,-1.415360987332441,10.481575884084206,-6.915990484870443,-5.1817340492871296,-13.162269228015052,22.974524158239063,-18.94228991012616,33.70570419069648,5,S01
3440,-0.030150710666110192,-1.3688617629970177,10.12885821989358,-4.290759663422121,-11.298798474064935,-7.5377789289915835,23.793975576961053,-17.173248209506344,32.78781386903356,5,S01
3460,-0.13941844734065892,-1.8341083920938015,9.831375261462883,-10.592065921662122,-18.83105770896198,-1.411890598252671,26.062135799460364,-15.89671787641269,33.237817441365856,5,S01
3480,-0.2520832753379495,-1.9116394644467407,9.887769044340121,-21.409391444136293,-23.26423252179244,-6.320489547033949,23.300111519675042,-15.460141619802137,34.12267714504713,5,S01
3500,-0.19692367818085524,-2.2017263353865233,9.502611112922565,-24.076244351640145,-33.59534669014063,-2.2919069748932204,23.91855530191762,-15.944242529655812,33.10926322600014,5,S01
3520,-0.3343764886944426,-1.909321442971697,9.675455693019357,-32.23991715978824,-43.78123982218752,7.602103832135931,24.825791144375945,-13.866408787664021,33.20939623246578,5,S01
3540,-0.5012958290033922,-2.177485176364258,9.445674772561237,-33.98916014098052,-51.50043114197925,11.390943116730751,26.609116524313063,-16.550145220771384,33.60923219174778,5,S01
3560,-0.5010876730721954,-2.233345981224733,9.510678220853295,-31.903116984255973,-56.844742268098585,13.02413554625573,25.868171278986313,-15.127079966158718,34.07571678215865,5,S01
3580,-0.4851669599720051,-2.0540013714845653,9.381489668057078,-39.33469888901337,-55.17127731254701,13.044015032465177,24.992338791214163,-14.58203881293543,35.07499631608179,5,S01
3600,-0.6093998807040522,-2.034284438325594,9.480199821375528,-33.89261681805536,-52.42844554666556,19.55219972527594,24.548917692643585,-13.050490674042361,35.137400163815286,5,S01
3620,-0.5496278539510824,-1.6637441279803078,9.577971623437968,-34.088261447153656,-44.352302642621204,17.607965233462977,24.954038647590956,-12.421474145657953,35.162701355291276,5,S01
3640,-0.40726830080576126,-1.481896622366629,9.683313462227776,-29.880422266767965,-46.72255344445837,21.16070402823215,26.540127266583625,-12.705216935814846,36.286367976619225,5,S01
3660,-0.20119398832060462,-1.3482807556477638,9.630989027468292,-19.616016155666006,-25.347800389274703,22.455996319208896,26.109889967816798,-11.266740796151854,38.58545171124502,5,S01
3680,0.003999828468516542,-1.139157918335299,9.860078090585704,-5.21745243653694,-11.148051832502437,16.916792663532622,25.897756233830997,-12.045427307313698,38.13072135606079,5,S01
3700,0.18065871233756847,-0.9494558274325657,10.215711406575693,-0.8777493597197417,0.6747752843246693,15.262536930997333,27.31793750884372,-12.781180073839906,38.90538310971102,5,S01
3720,0.3256135737678645,-0.6586589925636299,10.260244790345476,9.305488432858095,24.54083539178466,12.873210711213394,27.079958809041507,-12.102407737558874,41.50444361383563,5,S01
3740,0.45964753426177896,-0.5225322485932755,10.37668102301573,20.1125598711938,37.13520123129299,10.513318054844573,28.502197667051426,-13.205278701058829,40.896820161387524,5,S01
3760,0.6922385018292538,-0.3604844200962949,10.668576734744681,27.77028031880358,47.46076566419293,4.575929343555654,26.77604575138706,-14.202296011817968,39.483798795053914,5,S01
3780,0.7624147196855279,-0.257663306798829,10.748969350088968,32.981214227194485,57.6073171744923,1.7502949431168897,26.372203586576497,-11.441989336497471,41.218202909555494,5,S01
3800,0.831577105754256,-0.030007339397662605,10.936602712766717,29.292216842820924,53.0012102298693,-5.935476279742805,26.355288218221926,-9.497350684977114,41.39606885494303,5,S01
3820,0.7850663990547916,-0.11663515062542967,11.178638074502844,33.099749847115895,52.425961161308514,-7.016606905557292,27.121262720855228,-10.32504612104697,42.40899620906078,5,S01
3840,0.599374182904942,0.0026619546181180787,11.351991118558184,25.193652731109783,52.87278769394333,-4.880759200282555,27.262683082812977,-10.432634573031624,40.63874443884863,5,S01
3860,0.6994011375772341,0.18047916457130253,11.115205367353193,17.81775082068983,44.27625883349744,-10.03301712610064,28.746421904726628,-10.694876096327613,40.57375281022859,5,S01
3880,0.6110653112696662,-0.002787227671746398,11.366053502301956,5.91061495714374,32.75320533555214,-12.267020616937778,26.48185853730859,-12.079603715731512,40.45113901312894,5,S01
3900,0.2479632190541745,0.05241085729126059,11.406061156288843,11.685813816704826,22.895229318364816,-18.256799571374916,29.483255734146024,-13.033740183877093,40.518327673954694,5,S01
3920,0.3035895021614827,-0.388244979654778,11.014141322511747,5.4172845468747,18.231071542619002,-15.087965443598268,28.584552134202447,-11.953636401088938,38.483210558608924,5,S01
3940,0.3394121468233691,-0.33914084975548614,11.034437099314621,-8.891230793712406,5.927534774196932,-16.892601286660515,29.061450397252933,-12.07282880651885,35.687773346864205,5,S01
3960,0.30482290017717506,-0.6461221323145325,10.819486968546492,-6.649357591838704,4.967315400627556,-23.180543810098673,28.67667099816313,-11.10075390529514,35.61741695323637,5,S01
3980,0.2853804399564126,-0.7930125872776921,10.828914312030255,-2.853105262133483,1.0099477690562344,-20.4210386662142,29.838927601726446,-11.327834806487292,37.40609326579442,5,S01
4000,-0.025828923860628877,-0.9807850494832748,10.657852167297731,-11.148757690656044,3.6817622077565444,-21.991471659353582,29.906413541559083,-11.161943116687311,35.5857331261776,5,S01
4020,0.14388750824670093,-1.2862988702080917,10.444749436075485,-7.5964475955765565,-0.2866907620671,-12.212948606376337,30.244292737224733,-12.834751202463133,34.95889147627288,5,S01
4040,-0.0798088970105717,-1.5000947840288668,10.260920061275815,-8.355045301055988,-9.888458397775514,-12.258582812384205,30.315415201206164,-11.13624818961909,35.44573907292633,5,S01
4060,-0.19693345134766196,-1.6488156964866876,10.0540499284092,-8.60997764748539,-6.774956415563674,-5.430816392130954,28.59817587461718,-10.730395592796036,34.52866428334084,5,S01
4080,-0.00848364923017407,-1.8021991623271232,10.006075804083212,-9.688907148307663,-14.639005140429425,-4.76259563038303,30.624000868693102,-12.137131023764752,33.055282070724274,5,S01
4100,-0.18209308905533275,-1.9870050118470723,9.762493325947517,-17.674255054648334,-26.474946142713772,1.7233316059091996,31.179352567592524,-11.309545785135361,33.710527739238145,5,S01
4120,-0.3216212007507955,-1.9983050150977815,9.588259333228622,-19.986622614005753,-39.703329910033105,5.270363618290707,31.39757572194709,-11.73173945537529,33.861031692835326,5,S01
4140,-0.34242935083142123,-2.0408845536997524,9.681306914710737,-36.49501708877587,-38.868164614969814,6.354657259440118,29.766358540798056,-14.32419644510911,33.55122435218503,5,S01
4160,-0.27832708070050305,-2.0489124955134965,9.433844931226218,-27.702550269370814,-53.12826667034621,20.151895033433078,32.41901636538503,-11.943881542794571,33.48551960448591,5,S01
4180,-0.47567797958826796,-2.146613834896801,9.33503001802608,-40.83294091049329,-59.74686868073645,16.116635681867166,32.14842759549144,-11.911574495992946,34.66466076592985,5,S01
4200,-0.6221008353069588,-1.9014036006384056,9.346771755904989,-39.10740777411463,-54.08690412842856,14.760555448350662,31.815022839878907,-13.039830939147754,36.75359609927964,5,S01
4220,-0.6995426095255792,-2.0077174159412885,9.301734922957445,-41.54720951821046,-50.39393158479689,12.688914337990617,30.9659724019367,-13.510652328142541,35.37433936366956,5,S01
4240,-0.5267908371450492,-1.6916434186057034,9.486996552050975,-33.980666160477114,-54.45220379550526,22.505615817693933,31.595668951313005,-14.502414328312543,35.336794774563515,5,S01
4260,-0.3633437365333163,-1.5968267200268282,9.59857136565557,-28.36257908134092,-40.72095914557733,16.174583065100304,31.420000668042945,-15.040514617984543,36.69967473040838,5,S01
4280,-0.39744916445416123,-1.3717689734821819,9.417903760191027,-20.97267352981949,-19.513117604046737,23.87422344860559,31.900391055521876,-13.714408704612953,39.52732221710354,5,S01
4300,0.10799606339054331,-1.0494446425163542,9.938786968944953,-9.30822971028207,-8.104709470947354,14.15130410555281,32.59215290712945,-15.452710952546429,38.40660810194164,5,S01
4320,0.2440531108116642,-0.8123262962003865,10.091958829046547,3.07570839037486,14.233152960314595,11.20073139987084,31.630929462307336,-16.837074875424573,41.65386955984914,5,S01
4340,0.2625107832934043,-0.7047681024807133,10.235437536871945,13.322712120472335,29.93883623090446,13.781209808259016,31.940192475339387,-14.926461423522717,41.34635843405977,5,S01
4360,0.5329616742633476,-0.5610364235397987,10.428891958080234,19.038201336123368,42.762038465833456,14.750872793620461,31.69074919121317,-15.576700164610383,40.60412970258706,5,S01
4380,0.46729425750320397,-0.3796014011779376,10.59371737440399,22.47015695077671,57.13549791165461,6.000680909413074,34.181417792924265,-17.44052501679957,42.6840270071749,5,S01
4400,0.659894145713664,-0.2323383572662397,11.00326309489972,22.601758241508474,55.05095203634959,6.746469592848858,31.527149182695954,-15.648708518206044,41.251673352801355,5,S01
4420,0.6470317666142208,-0.10681535300614406,11.21928880348983,27.070442188247352,60.506014622574675,-2.7697765513617663,32.748759902968146,-14.199223897344892,40.68443191810993,5,S01
4440,0.7813052110252307,-0.019533333542484356,11.215794805231655,22.781977181157732,49.45771534457713,-6.0794991144899555,30.69340985577196,-17.92795548651785,41.596157744181944,5,S01
4460,0.6684163318326477,0.09471073626735146,11.052377648469038,25.861474963985742,49.23790637985952,-3.754688002842141,34.085763681997136,-18.44064780130448,41.286681027106226,5,S01
4480,0.6012220656116285,0.002510899598696409,11.42124892753912,13.272898856492287,41.5217602002723,-13.362901613551449,33.39704461544746,-18.37089987856146,41.10103208399476,5,S01
4500,0.6587571707300643,0.025527483863764036,11.371550823007652,20.653443280401184,34.35221097574956,-8.34922645589225,32.30998321298516,-18.112149255469845,39.612272958762375,5,S01
4520,0.5513750199947964,-0.1474396069289978,11.48226654138894,5.093201293286266,20.64594514634711,-14.28166625710098,31.99698503861469,-19.641458091965543,38.80428816865463,5,S01
4540,0.36128302942437773,-0.22338048184285986,11.319411019842676,-1.5736307270649172,13.799291401323224,-13.483631882798049,31.5185655137101,-19.21605561762772,39.135952189140056,5,S01
4560,0.16094457127236722,-0.6231998834482322,11.18642597605754,-0.6758228584084147,19.012231117719,-10.544691382842288,31.803406286139356,-20.74922821624206,37.259749564768725,5,S01
4580,0.2241183415969922,-0.735676507826245,10.85242149420346,-2.995420806533759,0.6121549795129508,-15.355528777939371,33.30618466555474,-20.717684262244997,36.59879723534516,5,S01
4600,0.19006653135120313,-0.8662788825210828,10.819895446289587,0.4065339713370051,-0.3191541030438554,-25.060525689114712,31.21363909941872,-21.57299313519362,35.19497305247419,5,S01
4620,0.20994180856284395,-0.9135601493406731,10.663334054234086,-3.144001590608155,-2.479057046122949,-14.374075277194898,32.177665568072655,-21.49216480385057,34.68267530758024,5,S01
4640,-0.07837618471674312,-1.1222940597876685,10.694111697124532,-9.375392464737416,-2.851908454724139,-12.738649038618794,33.16651657632799,-21.539723190120334,35.39489505530554,5,S01
4660,-0.07964876679624008,-1.2716943156710794,10.312389741881798,-5.572998602502779,-8.862748402993944,-7.216759842874385,32.18468690185617,-22.31896207581331,32.52693001136747,5,S01
4680,0.0025883438457200425,-1.6336637280316708,9.985918673134332,-11.40710103135209,-14.883538181665362,-9.801457786908415,32.577436318119965,-19.836366728375197,33.49558655124463,5,S01
4700,0.04988306233878727,-1.9110178605107166,9.86479897597573,-12.164205702957315,-18.424086500023552,4.100332906577961,31.09075771674654,-21.953217195970645,32.73284056159933,5,S01
4720,-0.24092262806982637,-1.9432172465271915,9.669763425690295,-22.989857949123838,-30.435292532588374,5.531537958821771,31.668475389616997,-23.291211722430624,33.97509810827535,5,S01
4740,-0.4502941465810206,-2.1774914018731737,9.600342696096213,-23.11839716915276,-37.77988499493552,3.40417080900139,32.624327190851126,-21.721714009639552,36.098170085109416,5,S01
4760,-0.3319908532877822,-2.2143256610149753,9.379019690682384,-33.74793572724071,-49.16141979232532,5.518791909515842,29.15082842419899,-22.895006358248196,32.70657940069134,5,S01
4780,-0.7433990420137615,-1.9074266960485087,9.341512780760205,-33.764711912383774,-48.09981428728033,9.014747004994474,32.51710341394225,-21.475509375508686,35.71806867907682,5,S01
4800,-0.6480770425311576,-2.088889813021765,9.430228584371987,-38.660178282757116,-58.07923881063222,12.970778656872467,31.34755358639106,-24.97523093009836,33.81301452138395,5,S01
4820,-0.6350194723974517,-1.9375621396689757,9.496520156985842,-39.23180550101736,-61.798026982848796,17.367298791747277,29.809810384555075,-22.37426230758217,33.07662201788542,5,S01
4840,-0.579794375499457,-1.8204078145849634,9.43684565198509,-35.38274247503226,-60.62631007307244,15.405361892857558,30.836850417114483,-24.247400991956994,35.843355351954784,5,S01
4860,-0.5329615184554671,-1.6268206520449346,9.54278055555892,-27.60474199833132,-49.53481418167983,17.681925925023485,30.899226975665293,-24.45452732636242,35.862713847386956,5,S01
4880,-0.3520659693295257,-1.2245632532673973,9.734727336636194,-20.595827827098148,-41.37096190179423,19.379912782183915,29.202076877156507,-22.937073454859863,38.187381285873215,5,S01
4900,-0.21379639521162888,-1.3608435984919922,9.555815020877231,-14.31708654496104,-17.46985945596648,21.49535144942275,30.25165370809576,-25.113389314875658,38.4947595964845,5,S01
4920,0.08354781415769853,-0.9686432797187547,10.001983908153383,-15.300163353535225,-5.939417537948912,9.590002908393398,29.859913869152066,-23.226852378748205,40.776645034653185,5,S01
4940,0.24869507042264177,-0.7318372676752687,10.093616421715115,1.0012331471992102,12.09700405202146,10.866065054022764,28.177859908151223,-24.375938397650952,38.199221074110106,5,S01
4960,0.4464908832909792,-0.7302371454555481,10.429712089667774,15.397380378820422,34.6680574760249,11.609326629195069,29.08172093699977,-25.075282316870577,38.40946132265739,5,S01
4980,0.6348447096428098,-0.4005397222482008,10.543517085770768,21.012110215167894,43.609439212245626,14.9674852741593,28.20993484015751,-23.82243919893975,42.19022872176858,5,S01
5000,0.64552120885974,-0.40146474115174063,10.696263829296292,29.39629677132528,45.33027523339118,0.08111481200719461,28.500109234398685,-23.168564134020045,40.84936192395893,5,S01
5020,0.8128642421602449,-0.27586880363784655,10.851618461059775,27.29499274237367,51.20569797732212,1.0228903574317658,27.503850447890603,-23.84272098963698,40.07519266185157,5,S01
5040,0.6069055958961438,0.10504796624694016,11.134238749317275,31.165559480823436,56.38702360476197,-3.9917786317770854,29.91476481815289,-22.421895876114924,37.960323022907666,5,S01
5060,0.7426498268708025,-0.09790124545846406,11.213375519552176,31.27548643803198,55.78725348900728,-5.434255125682925,27.839114155070785,-22.928027990528335,40.32653419252583,5,S01
5080,0.7719975501038109,0.1764549814771169,11.213173427299353,24.652132360089105,46.240192484086585,-6.216509654232531,26.64486731965816,-22.744662392479853,42.43435494054589,5,S01
5100,0.8469507002029038,0.05157393452698408,11.348234362391507,14.031951213361967,35.65732353820397,-12.704227239666649,28.045173450462077,-24.24685145724981,40.52413711558239,5,S01
5120,0.49547382464294787,-0.046286058889757294,11.55653360328818,14.367228636210122,26.18069806591458,-13.174956141611135,25.863178269548662,-23.37574579422543,40.373401631520586,5,S01
5140,0.16201287822986588,0.019910737635995712,11.229651533280068,3.1727761532670593,21.04976065022642,-15.067349272486306,27.660040114163387,-23.06051662734527,38.27883202865662,5,S01
5160,0.4245399906504722,-0.1685636577319733,11.238999793847514,-1.5152835200896089,15.291756575022877,-16.67711278747652,25.29716704850899,-22.20747013095884,39.20997745278108,5,S01
5180,0.19247067962318476,-0.48172498692244087,11.014570617339867,-0.3219564677638731,9.43894591731771,-23.80217187860577,25.23172923361402,-22.017835565585216,36.24939272363713,5,S01
5200,0.1529822254578408,-0.6759308952670233,11.033985352953303,-1.0117425024247555,4.16732107091456,-14.079487448750289,25.339386686215526,-21.389011911050574,35.5259590194905,5,S01
5220,0.18182838619812602,-0.8800764621866459,10.82242649070274,-4.667628026026334,-4.309372155672181,-18.649234604857444,25.741391666561285,-20.419363769182887,35.24084568670772,5,S01
5240,0.21809119424594015,-1.0632192126094095,10.521501464910807,-8.112387291601369,-4.187403913827789,-8.976812818843017,25.125531456272718,-21.537268158274316,36.17576300853939,5,S01
5260,-0.026319491315904192,-1.5093936465342337,10.348530686950262,0.48102609851099754,-8.73310779935929,-12.032864006680223,25.04738050026099,-20.627307818512868,32.96089896807169,5,S01
5280,0.04189214879910563,-1.6830516316709814,10.171223228109634,-3.6317158234024625,-6.979204269143868,-13.536012036522772,25.983817107154167,-22.03114640634707,33.799741177935246,5,S01
5300,-0.2211190308876149,-1.7458204863265474,9.968987648735785,-12.63375005011111,-16.271522358847644,1.5000824798237766,26.279209062092033,-22.38564398502526,34.50820931530136,5,S01
5320,-0.13386206295128752,-2.0082775305546026,9.898982310207444,-16.303217164733073,-20.877621405058406,-5.078819550304024,26.01572641943592,-21.960509772017822,32.02434818684048,5,S01
5340,-0.24247333394947504,-2.0426060653332168,9.62010794033911,-22.41825017108748,-33.88578418644168,0.7479613639693287,23.75762732930591,-19.673149382967107,33.31325521293313,5,S01
5360,-0.40451761952846566,-1.943710437023828,9.576918566821805,-24.83202743925551,-41.12440305547253,6.649776683684449,25.896532421985214,-19.923237228757873,31.10305935993835,5,S01
5380,-0.4377148819521872,-2.215877030116666,9.35504193049464,-25.380431149352813,-49.284522643268524,7.4748216854554395,25.46750030044536,-19.445171987662775,34.13182554175835,5,S01
5400,-0.5235015084361287,-2.0781779365837805,9.3801384743859,-40.91428222619644,-52.7435422126725,18.34617758041838,25.879176376289973,-18.283454539083916,34.17330892331272,5,S01
5420,-0.6707282929302589,-2.0929139335305407,9.348199799068588,-34.10446070203117,-56.115712821579976,19.15632002102227,26.353591163779786,-18.19144429358711,34.42199765737439,5,S01
5440,-0.4358054021398372,-2.1511360411593987,9.427357048537603,-43.64098971705151,-58.23746732852778,18.016924150920172,24.528075591837215,-17.904686554553415,35.28216763307018,5,S01
5460,-0.297494189565241,-1.722740502308591,9.392962280184525,-32.14209409103112,-50.80423793766615,20.088942526967667,24.569402744460383,-16.914189089669822,35.967783093087846,5,S01
5480,-0.4907387906003333,-1.5805246766321661,9.372776537658641,-35.184537953968835,-47.07864656913777,12.002217815768896,25.398138969057648,-17.398463130325553,37.09371700679471,5,S01
5500,-0.1692181618428771,-1.6314506307207073,9.709342478773094,-30.282153642441887,-32.19214077305096,15.249906081584305,24.852092112554658,-16.563482012221577,37.95384623017581,5,S01
5520,0.0502676437861274,-1.2681581568991946,9.937881232799626,-23.36313004549915,-21.60964537064368,16.30874823606835,23.974497936397135,-14.099454052530785,39.21464801641129,5,S01
5540,-0.11146858075794322,-0.7543503914712106,10.011302631061927,-0.5354588370276199,-4.432060412801,17.354711802578155,25.4372833644933,-14.261086905839598,40.05664781270431,5,S01
5560,0.3419344048511015,-0.780540922168464,10.116346011203927,5.356481477683663,12.739522626877122,15.248239236954662,24.098229876442655,-16.65596066619298,40.66042294678995,5,S01
5580,0.4685533133217106,-0.5335688853201348,10.359671554448111,11.970590185601484,27.696253728055613,16.31664686219569,25.79975400621047,-14.050289458836655,41.89704923855227,5,S01
5600,0.8021725319550499,-0.5677546723370503,10.545963780645426,21.900037593784816,40.863895178213966,10.650356024731435,24.671737906666614,-14.533060600441766,41.62499150117432,5,S01
5620,0.8214590410915753,-0.06132959158782085,10.725078912047218,27.88520238427383,51.898064142318844,7.418939496311161,25.180888699786596,-15.83550197379668,41.71379906654705,5,S01
5640,1.0018290417931468,-0.14297651565068045,10.967723609681121,37.219556017838066,53.7361223857343,-1.0669921611932272,27.265359049705445,-14.748407466050258,41.00615293226988,5,S01
5660,0.8019597091962231,-0.038782933099982,11.113229311361634,22.82407366142506,60.11989451144157,1.1034896881316811,25.263205340681143,-14.11974330293763,41.1148402481094,5,S01
5680,0.8020884261930976,0.03493475819224491,11.21325164314566,25.000972506594145,52.5124096151798,-6.32353907612785,26.117394972811045,-13.10583884645695,41.13456610100119,5,S01
5700,0.780150833107654,-0.11158481116817115,11.484914637893556,21.946352222374916,45.66743693068441,-16.026105759385306,25.926936200729635,-13.542281031784302,41.14741003718287,5,S01
5720,0.361588960976004,-0.017477715252769747,11.342540243146734,9.258773964648558,35.8793321033235,-11.540154594629586,27.013979745776048,-12.630908310545262,39.259307137071026,5,S01
5740,0.46581982536521305,-0.18320800555539746,11.429615574727293,6.700625618398662,23.71040353384233,-14.014426358948901,26.26835771215461,-10.592531916761383,38.799731976923546,5,S01
5760,0.2691351143629864,-0.185801603984928,11.398682338776245,1.1434038517018505,13.61063100623811,-15.607634146169561,26.642611197739026,-12.977095507539726,38.36701304115979,5,S01
5780,0.27337476027784147,-0.37083345023476233,10.959565887631173,-2.206316943943315,10.7729252063386,-14.403898293854873,25.388424042533828,-11.32421144188092,38.08475754508357,5,S01
5800,0.2909897949302098,-0.3429049422958738,11.009755179783815,-1.8392878697647506,9.203482489443957,-17.623544146007273,26.616382122661555,-12.00507514006507,36.75639441272476,5,S01
5820,0.08298887940727351,-0.8225583565160934,10.646076069643039,-3.8891438376972625,1.3614595243029906,-16.9965823386738,27.726793004455995,-12.794067969524871,37.3579540207484,5,S01
5840,0.2095984714820336,-0.8717842396522417,10.621438454292663,-5.547380539103578,-3.1817114959090986,-11.272018786946195,26.212610454254094,-12.651426301281617,37.42227476870391,5,S01
5860,0.03904986534364803,-1.0708048591808814,10.542500448661446,-3.595330984198048,10.140715085894762,-15.587373968865128,27.5050770881584,-13.40812856247462,34.99509948820229,5,S01
5880,0.10122302675876693,-1.3486109920737601,10.36071739413655,-6.264168492872194,-8.088653343890789,-16.859790936940904,28.40925269315449,-13.353701576519704,33.250112078212126,5,S01
5900,-0.1316880119976091,-1.555398406039099,10.084815311006299,-7.96600950523173,-9.430539007617677,-10.237000899784446,28.194795025060717,-10.338094688246334,33.01367487340004,5,S01
5920,0.02426469892784358,-1.8637177225699912,9.977190587113274,-12.91002425891951,-11.5724946563083,-1.6337869482236953,28.28842829500632,-9.962419495779276,33.39020703549491,5,S01
5940,-0.06714911538252874,-1.8505508365808903,9.761849186700818,-16.350682467914886,-25.43544259220702,-6.224500920977362,29.809634373350544,-10.049270737024198,34.97009533876808,5,S01
5960,-0.3854454945639103,-2.070327446273936,9.682092833349264,-21.943039113649007,-38.397871912181955,11.153885705728955,27.577070468536213,-12.652234792611132,32.7046454356491,5,S01
5980,-0.2611811636339679,-2.1931260373840398,9.330524221971867,-24.823120162219883,-44.78790025540659,7.29129900598347,27.857374184593727,-12.512581853047863,33.184161340670144,5,S01
6000,-0.2901990175542073,-2.26703489857435,9.428416464974152,-34.492129508766745,-45.1176986600775,2.377916477326338,27.134400166800273,-11.610512455889248,33.470967309157466,5,S01
6020,-0.5348648559305947,-2.202252713604921,9.422789852920294,-32.25810478683825,-62.85652463968322,14.121016440096176,29.528527309248492,-11.56488107067106,33.08122346192708,5,S01
6040,-0.48737212225925464,-2.028064374124829,9.365012916320639,-36.01865038158951,-63.45596471480845,19.801889178255724,30.366587888387915,-9.957335963272765,34.86404610894717,5,S01
6060,-0.4243255138634643,-1.9499599586026952,9.472910280223562,-36.05304356116215,-55.81463068490095,13.846028080655431,29.82657955429951,-11.360330797069478,36.14822870129241,5,S01
6080,-0.48102989734598045,-1.851991744311617,9.453922539386562,-37.2783847550445,-56.40258403051554,13.302968501412273,31.114777161451087,-11.013393835485356,37.38737365110194,5,S01
6100,-0.3511957519304214,-1.5894281719473082,9.633941934376727,-26.143409535183896,-46.88603511211319,13.457930337267856,30.984262079880175,-12.309989062337962,37.31469064657815,5,S01
6120,-0.0829253816979425,-1.1793483202465036,9.584150996621535,-17.513877096693207,-26.2229739884519,21.450570226766516,29.420430233254702,-12.056210937289855,37.5336729635459,5,S01
6140,-0.0061631151317069754,-1.1777808182951404,9.838482420362743,-12.224174168963476,-12.946561001978544,18.680938187462065,29.687642045367348,-11.192181755963631,40.107560731895624,5,S01
6160,0.14044906443026411,-0.9707788797650465,10.038946581781838,6.569905890970774,10.465637154016932,12.566765414122512,32.37449732298421,-10.322469734167331,40.84305947684161,5,S01
6180,0.47077472622567407,-0.6049549092408624,10.205346878070138,7.778700664249583,21.84656395128448,14.76417882896049,29.242751543308124,-13.73779586334384,40.13792808924719,5,S01
6200,0.5414265243597748,-0.49514648629231967,10.567867273459116,13.041662934894365,35.20577932024896,8.498212157813047,30.50887070564782,-11.525132944776633,41.941781013092886,5,S01
6220,0.7956786185292966,-0.19951892554968784,10.644978794243361,16.270009625721844,46.48047936314551,2.1899134440326775,32.02070184947455,-14.879469522953787,42.27042570925358,5,S01
6240,0.7928957387152998,-0.4214127364248653,11.109735780199575,25.157714397012946,50.95471744790187,5.838675709507931,32.84627247751849,-16.00644096270223,41.80343287042229,5,S01
6260,0.8440637758289243,-0.08425597371962648,10.877443717829191,30.307972946788258,56.96068441385704,4.482512119013114,31.419345802359928,-15.02948405289731,41.13920728360609,5,S01
6280,0.634872234405726,-0.04065011255455924,11.10630555554183,26.713356604259072,57.72794871529758,-9.53734531382848,33.88416797841465,-12.321711738987183,41.38517561159001,5,S01
6300,0.8489772347433306,-0.03541626191015699,11.260298751095483,26.464628272162496,47.53517891255514,-3.417165490542582,33.08956403892502,-15.067812305383086,39.332554655127964,5,S01
6320,0.673606301573416,-0.1802699413898334,11.390428362016918,16.937741214092867,46.119997851791176,-16.084166743303097,31.260836026225178,-14.448194049729373,39.29895209376665,5,S01
6340,0.5017270669294155,-0.027740528828766264,11.35960924718815,16.376123576643895,33.13805118213954,-9.707587254671578,33.01605990618622,-15.346248150312979,39.941023350718446,5,S01
6360,0.30334364167320027,-0.03506939582111073,11.283896353071745,5.770929565530884,26.175261656420307,-15.253139886444778,31.891417603371575,-15.626962379236376,39.97820059969526,5,S01
6380,0.16711202985440632,-0.13141059355802023,11.17113142706033,2.959606600306424,16.063946486747227,-15.54755095773905,31.525078237929865,-15.078131491874744,37.07974766231134,5,S01
6400,0.13640219494272426,-0.4685305443884062,11.04796670857565,3.583813282489145,9.411699343004745,-15.442048488177933,32.94317828224409,-15.263415806149938,36.70785332742908,5,S01
6420,0.13748935029461462,-0.6754849523542585,10.971335382745748,-6.229134315602154,9.290641267274456,-12.599959669375755,33.55189540390866,-18.06021718744761,36.85802412810459,5,S01
6440,0.048303599937470555,-0.6843777535771924,10.753145349240485,-4.799067837688374,3.451818523087697,-14.093068596613671,32.341397160171354,-17.23138029331667,35.72008791127526,5,S01
6460,0.17475901857253312,-1.1271927494860574,10.61955126918293,-3.3474305383492657,-0.4539130238988559,-7.013209564653717,30.63529678968225,-18.144493314315376,35.08072834929152,5,S01
6480,-0.08452690728904078,-1.3998606994316876,10.497198429978956,-8.366232067566138,-3.2482673120367815,-10.411128254739875,32.48382374492816,-18.151306510407196,32.91651973331268,5,S01
6500,0.153155705867774,-1.4298642608940877,10.16339855363577,-6.857834078395371,-9.262257596883368,-15.772745015489567,34.77797544655962,-18.16110119063518,34.598653690415034,5,S01
6520,-0.05356706239041087,-1.6891706386664775,10.066672835660802,-11.628996340145761,-9.924210514244606,-8.231907801799462,33.891344882922795,-18.275417346415782,34.44704724506332,5,S01
6540,-0.11759356044946462,-1.7207540139981192,9.996785446557327,-14.094871455677382,-12.174984675718324,-2.0925045504075923,33.08557912273573,-19.918347179171054,33.58658316790038,5,S01
6560,-0.11738419084477095,-1.9706722049136953,9.673237459040958,-16.56605434981336,-19.982336330100996,-7.733527530452273,31.61822280816675,-18.170718845074916,34.580714797072794,5,S01
6580,-0.3254072937045315,-2.0845916748759747,9.605040699613205,-19.499736651237097,-35.261216068639904,4.094727343288698,33.97383163998089,-19.444450962095893,33.44335277955551,5,S01
6600,-0.428601921170067,-2.022140054624261,9.563879150923643,-23.957596397270684,-45.1635888594571,6.788569795287007,32.81247892892473,-20.642408872631417,34.00950540003033,5,S01
6620,-0.6497201913745575,-2.265625897942268,9.399796086909085,-31.93996944447271,-50.717455361597374,9.910975513342011,31.1576484114153,-18.108845534959674,32.75854623953298,5,S01
6640,-0.5228954203331319,-2.068767924896504,9.393714780961094,-45.40357772272548,-57.98551839738401,18.367291963223746,33.19627659698973,-19.958508979870196,34.09609169124525,5,S01
6660,-0.7139228861414609,-1.9512120571076792,9.618572703946462,-39.60564047666007,-60.34018064324579,15.229340194646806,31.708107250330226,-21.442492943662586,34.52693492003907,5,S01
6680,-0.617389604198182,-1.9983245480024106,9.528620380760257,-40.722658628366716,-52.509237203449175,12.348672895731765,31.123690779680118,-21.97745214741603,35.938286648991195,5,S01
6700,-0.4288719883961405,-1.7216765120696578,9.456538059456085,-27.168939658960934,-49.425070257463,21.749028634571925,31.299007360070284,-23.353886515634564,36.66014438089097,5,S01
6720,-0.35801763141759746,-1.5342262741166035,9.245463283941163,-27.33875938628526,-39.91541015583937,16.022572840051307,32.21021137212301,-23.245234350997855,36.3921050328127,5,S01
6740,-0.15321736203638522,-1.4940205482539775,9.773803609644379,-24.8276611318712,-31.358467666067053,16.59976945902457,31.54789225427684,-21.622645763051967,38.435917333234876,5,S01
6760,-0.0697597616478188,-0.9526726157954861,9.893386971663677,-5.099310580029307,-8.285243321586398,18.533794998738596,32.478663564804464,-22.335987714371797,39.364924465846386,5,S01
6780,0.26432442998953376,-1.0243078236598253,10.142989582257925,5.431431559741449,1.5808729172865885,15.655911554238033,29.429403233162237,-19.86892261229442,38.08173021894739,5,S01
6800,0.394806957762627,-0.5759719938595123,10.321298834693257,16.435540752260824,20.653454540151515,22.52529176727982,31.020266540883934,-21.826043387038755,39.528236760979794,5,S01
6820,0.49344405732167484,-0.7109545765868464,10.581611134386232,16.35065328270146,32.90500329010352,6.364628931549563,31.354119710052316,-22.897581361003645,42.12170414454161,5,S01
6840,0.6635166098858426,-0.42931977094949025,10.718512371214047,26.647079545269975,48.81190069574522,4.483250015203768,30.23190326826998,-22.96847893661488,41.22754650407689,5,S01
6860,0.6921471865115401,-0.12186977965995086,10.903928426510536,31.365399969503397,54.85167157172514,0.30294365589590366,29.477545928908803,-23.16381923262825,42.43639513452204,5,S01
6880,0.894181476856687,0.06743817913998942,11.08639689582089,31.08625788963658,57.08371010965995,0.10090983199078774,30.019666967488753,-24.44363360508542,41.31982323722422,5,S01
6900,0.8394457801949646,-0.023201090404198058,11.067170400255296,30.00903618352206,54.98417955089841,-7.397919367818822,30.547312276810576,-24.18835921672114,40.057786079292335,5,S01
6920,0.6903811526695451,-0.03612282219495757,11.310558898890665,21.057213594161205,42.612427587042404,-6.145676795617788,30.318275245852625,-24.271099814114343,40.36628955507434,5,S01
6940,0.5388915543740508,0.08501016413998874,11.46927123480065,15.04588624662961,41.28231267654637,-6.160400916663194,29.92766606693262,-22.369948268662476,40.80918392302865,5,S01
6960,0.6407193529855111,-0.19903107489552563,11.402449158687332,14.532215581401932,28.360900025763524,-11.123930444832382,30.622780017098943,-22.40898172493997,40.26681073070776,5,S01
6980,0.634703546940137,-0.20871314131621388,11.467404121486005,14.302450753647623,21.056789996620896,-15.667044802816713,28.01956810087367,-24.481811250488402,38.35252303770326,5,S01
7000,0.39167207945268034,-0.20932343084542868,11.354990673371177,3.9054477166380535,12.473212449051832,-23.022843724088997,29.731056637304405,-25.811181375938833,37.84908069172827,5,S01
7020,0.20317522639716593,-0.2518279379689244,11.151506924645481,6.513157552643112,9.522780494375088,-21.357960182656402,28.76721033134601,-24.89540412647802,37.18766863417037,5,S01
7040,0.0612808763052058,-0.6657007357825986,10.883664427466433,-1.2501433016035133,7.896909186513443,-14.11850020509825,27.458999569331358,-24.305269191088712,35.542958078205515,5,S01
7060,0.15197423745835448,-0.8294950016519396,10.77320651905521,-2.8389197475008445,1.7639562877917012,-18.142757765071092,28.002703184582604,-23.85141102558419,35.23272013265675,5,S01
7080,-0.005501244218258677,-1.1120630916878202,10.557077578665446,-8.786552328109117,-2.9440567874627,-11.932714527585874,27.21110773349454,-23.90882428629683,37.44369436488261,5,S01
7100,-0.10000836413866804,-1.442161607860393,10.539094925369552,-9.336553608678848,-8.653789650162755,-15.33544132048209,28.219735740989627,-24.0835880392129,35.06378767831502,5,S01
7120,0.029336899146432185,-1.5772546140413806,10.414892476068022,-8.555007227788197,-9.186110421219789,-11.173231146149606,30.200548685625087,-22.978175661185077,33.44377567707748,5,S01
7140,-0.10885502982273315,-1.9783962159351367,9.934302549421949,-14.388104882877787,-12.796495044999027,-4.16673497873667,27.433811229875527,-22.876108528606494,34.309116481225765,5,S01
7160,-0.12812602211646854,-1.956203825619347,9.928388434241167,-7.1422151263802816,-17.637105441150755,-4.747741841836438,28.067161206073596,-25.186634146051208,34.38045105094892,5,S01
7180,-0.1822244820799527,-1.9749823556009793,9.741478286044286,-17.405850862940387,-25.32761338032555,-5.886997737701025,27.239954980208356,-22.31246499872794,32.628427925015714,5,S01
7200,-0.41412984873175285,-1.9419969285492116,9.640625298301083,-21.193661341543077,-37.432815556399234,3.8596505765060507,27.27246343230891,-22.585439214889544,33.96147792213519,5,S01
7220,-0.45895272521480357,-2.0722276617086606,9.338745867444045,-25.92491345901733,-41.39867469559478,3.671579982464572,25.529058249388157,-21.91595233811269,34.97436676308412,5,S01
7240,-0.4752796087880886,-1.9903667619462038,9.508633413855609,-31.848817630838074,-51.07409970617665,14.306609645907972,28.166569175805428,-21.23881407241707,33.56701885604839,5,S01
7260,-0.7671402499209057,-2.0891923940126014,9.492717453512181,-32.455861778064005,-58.03329228760167,11.430162424213652,25.516904642933113,-21.948747557558,35.19353461335682,5,S01
7280,-0.5968722619067106,-2.03627022131567,9.296012574305529,-31.1673880527407,-63.53691276355536,17.03583805211325,24.456773423084705,-21.121758605436092,35.16887488492418,5,S01
7300,-0.4362715870571149,-1.921642381414522,9.528446724394271,-32.54252252167114,-52.637373150703944,23.508796609580465,25.183702582675586,-19.32765308069193,34.97935802962594,5,S01
7320,-0.5158031267995894,-1.598892296799679,9.466595700031716,-30.651681165742886,-48.9931318727454,15.318404488833862,26.31986660752922,-21.83669096415762,37.50638184559906,5,S01
7340,-0.36553864712181916,-1.4895869775950406,9.599749796902005,-22.350913165702682,-33.17562067288078,17.24578396481387,25.317754972854793,-20.43402084621887,36.92950796584872,5,S01
7360,-0.16403345372377556,-1.248785800266627,9.86250014941973,-15.575036348043788,-27.623773687687443,16.971147642626583,24.606998768769266,-20.288077547232803,38.28834045536813,5,S01
7380,0.01468789176348069,-1.0781460495731134,9.677922894112307,-6.923195584401341,-6.890646236084503,21.562822632183497,25.924970469980714,-19.002225093299568,38.89247400286707,5,S01
7400,0.09689920582054688,-0.9774635926458786,10.031369563830475,5.9448544265119905,10.69812652920256,16.171288837673057,25.122492170949943,-17.905312562544793,39.97349226563401,5,S01
7420,0.5712539950015588,-0.6193587375888627,10.424226011742553,15.282402414339689,29.979085985595106,6.501425623280005,25.141051065656296,-18.842405515005872,41.71123593701686,5,S01
7440,0.5708899141762039,-0.37881091506180176,10.489893071595631,20.734946501558554,39.89808159789046,10.861121393222756,26.516425300282467,-17.733228088711904,40.20881976843516,5,S01
7460,0.5622612975269906,-0.1761514177709327,10.65542108353814,20.96199959901598,48.10077972124692,6.738254924727066,25.78540733128144,-17.727401726016293,40.34201420246301,5,S01
7480,0.7500218592903886,-0.18132716455201775,11.082284291296501,31.688533476868056,49.73222145490963,2.1133310099773426,27.24052391586861,-17.954814219778726,41.816519230239486,5,S01
7500,0.8798113352123812,-0.07912692460597082,11.258008056081744,28.755217653232673,60.40767839179232,-3.1418205338818583,24.78774277649441,-18.937153673752398,39.88064079229841,5,S01
7520,0.8064286092757357,-0.042928256191248806,11.14536571846172,26.170355685947236,47.51357261226106,-8.841493875541994,24.644711141747436,-16.483574864999614,40.73722354568619,5,S01
7540,0.7663765746565139,0.2303543574527241,11.10045253701625,24.3766556670685,50.15838281361023,-4.346793119387306,25.969781557834047,-15.915091780525607,41.558257611685406,5,S01
7560,0.6354415284542232,0.23901707434113373,11.445976786853253,18.568314456241207,34.150798449008086,-12.830811903081601,23.865796440186895,-15.278762633563266,38.21150939930104,5,S01
7580,0.4578624739929428,-0.13238692605589378,11.316236260504544,18.54030109100701,24.751330087327364,-13.60517215655878,25.5167298728028,-15.75060726904958,39.825801762413185,5,S01
7600,0.29002460835401545,-0.07316904435755066,11.266729702894525,0.45224503621789847,21.581609002011195,-15.981180758968405,25.62679642285699,-14.931197801128938,40.74073233234548,5,S01
7620,0.18739942621835354,-0.2581955567439304,11.031392761775143,0.1033764812696214,10.962410134479,-19.05311736667644,24.926081948851188,-16.77832099886055,37.615064118699394,5,S01
7640,0.2811034011504676,-0.49960931894918764,11.125963024169346,-5.75150198943577,7.491424553316313,-14.830464180144265,24.234079417747967,-14.038658391988259,36.01424702015335,5,S01
7660,0.23109501452290176,-0.7677003830699196,10.967163229103676,-4.231688923288445,1.9992238137775449,-15.689530065254262,26.361332608888862,-15.88899824587203,37.47623091290903,5,S01
7680,0.14683811870431124,-1.1184433493516501,10.729082804370433,-2.631228974960382,1.3724273166068361,-17.02013648104858,26.395970799111527,-15.716506591450736,37.97245803967691,5,S01
7700,-0.019557497249802158,-1.2694229597193047,10.601074263630368,-8.389067836935057,-4.783818894387732,-16.32355669741836,24.57913456174894,-14.570088570615244,33.3477073844565,5,S01
7720,0.12992588143012873,-1.4885857156957463,10.515343942223979,-5.983198204395385,-3.802582369049759,-13.224775054283787,25.948056221826853,-13.327215676368816,34.31646648712888,5,S01
7740,0.013100302716478537,-1.5471669741110468,10.379668438640028,-6.217325226676856,-7.745186793155173,-6.668302883152072,25.743611247297338,-13.16779599550158,33.45121134246156,5,S01
7760,-0.09047211810901354,-1.727488324775345,9.947668952452378,-7.4400843003540755,-10.064574916878009,-2.55214123024429,27.273810641647103,-13.122744895284447,34.930755969040305,5,S01
7780,-0.07097256494874854,-1.8305132710612324,9.683965384045182,-11.385395678218472,-14.21546371263545,-1.1942631931450518,25.467255189519356,-13.28870171244892,33.03871741001989,5,S01
7800,-0.3212601190110703,-1.9611321823488477,9.65267062160319,-15.08189294726828,-30.873174004674393,4.556759968826354,26.284864500740614,-11.38264845638145,33.36583976254009,5,S01
7820,-0.4248144601202851,-1.9622572233198827,9.626324591835866,-27.26300888732049,-43.21789144233473,7.412965152161904,24.989872749480316,-11.168926676724514,32.252423160452565,5,S01
7840,-0.44834627875589406,-2.115209089371464,9.488891541120744,-24.224517009674724,-47.949749604910664,7.9515788427372724,26.075260683417845,-10.094750213087634,35.484348239087645,5,S01
7860,-0.5363620121299356,-2.230970065855582,9.405975675754515,-32.113637346613324,-53.18147287256666,18.526191726647546,27.264533377155786,-13.588569301577209,32.616244997067184,5,S01
7880,-0.6781784300250896,-1.9807860211804178,9.50668211327626,-40.262817235646054,-63.084806436772766,11.631820767642992,27.358647493901696,-9.729526259630513,35.974291261391,5,S01
7900,-0.5108048919111897,-1.794473818493101,9.58727448634797,-39.29220631967489,-60.162836865558724,17.762649116222168,27.330557667842374,-10.07592733955947,35.95482454045976,5,S01
7920,-0.6509227540961682,-1.6856725039155094,9.677615748593327,-34.51650080432609,-55.890625851273484,22.878599441550683,27.472251151564638,-10.176653545593325,37.2853447993803,5,S01
7940,-0.36142156703427364,-1.5912221007561915,9.521247714646858,-26.711018372374493,-48.30836339887491,23.552251499201034,28.003249333961662,-11.663925866411102,37.45181406493485,5,S01
7960,-0.23374233188696855,-1.4537253716959044,9.618927669516697,-26.147934391186613,-31.661620851314144,21.744370797104146,27.60527855953075,-9.706287118358485,39.31073337546987,5,S01
7980,-0.12214095908338599,-1.142156036547588,9.816488470837779,-8.748548614635606,-24.170771500276732,21.489873601585803,28.459220781038262,-10.994112354909792,37.91609590433626,5,S01
8000,-0.030345482227833925,-1.0896008471237175,9.988352928699083,3.156839011803142,-1.25821392247776,17.54182035191025,29.07231684188482,-11.218950576269826,39.204132299977005,5,S01
8020,0.3012948210632608,-0.8865100836438424,10.311798080126662,8.825846684467876,16.88433447912431,14.634350430732477,29.007813011803506,-12.545857883048122,40.228300372945604,5,S01
8040,0.5179094153772015,-0.5126124724703294,10.345782624349985,18.457135460813724,32.08025575507204,13.213569262982265,30.782054790868802,-12.235507254817023,39.06952386505301,5,S01
8060,0.7038167436521473,-0.46075571549415023,10.640453362491048,23.769291490922214,42.50283743701494,10.986704124767865,29.475590614095523,-11.155081623767298,38.6377015574937,5,S01
8080,0.7661806665114531,-0.37185307282747626,10.859658530880134,29.514141998238575,48.91679625802252,4.272633321701243,30.2498787546306,-11.324656613474934,40.32332521759562,5,S01
8100,0.7681662667627586,-0.18812472220570997,10.941890791657004,30.545081286018007,54.403550937997615,3.9888551605827494,27.5671735509624,-11.881389645662825,42.391279838986534,5,S01
8120,0.5658696145146227,-0.07739269636267816,11.234152346935034,29.182168682209404,49.11960398763873,0.6407065532165656,28.425991002230255,-11.030790676185251,42.08572205863942,5,S01
8140,0.7942665952332282,0.014264911395312732,11.10011516365897,29.39415975308029,48.80653977762499,-6.556103916308507,30.077420401219257,-11.715900572357784,42.11420053935914,5,S01
8160,0.6817478214403042,0.0022196768042101467,11.325821253525648,29.494666727120578,38.32626264210722,-8.55313614076123,30.884972084773405,-13.811270981185663,40.182140880912854,5,S01
8180,0.5726539024244341,0.06993114554740287,11.358541111065941,10.491417634819143,41.39198158406958,-12.103651199241442,29.862998060155864,-12.105006007355865,39.7878598001396,5,S01
8200,0.5300963886502925,-0.10995538919698637,11.30421163106451,14.485565461892524,20.609910126586854,-8.179820093799755,30.743942715953885,-11.32031853020265,39.57367197741748,5,S01
8220,0.5078473097346476,-0.29819675883698443,11.288242565452212,8.946373258512992,15.750953867862563,-18.35313714188952,29.92200950664966,-12.441627806560385,39.25706628098545,5,S01
8240,0.25242839324510824,-0.15332510893954326,10.931395781378898,0.588542303753294,10.659275758403645,-22.197186341641277,32.49449837865656,-9.54747768485612,38.251902684169096,5,S01
8260,0.0659584416417617,-0.46110918783460964,11.002381125531818,2.0646473015951825,11.869649105960693,-16.924452914471054,30.111803221796997,-15.037101876625197,37.8981970894287,5,S01
8280,0.20706416171915265,-0.6843012748813599,10.933145235161144,-1.305348572009355,6.553784551375412,-20.92118845655709,32.33043548242917,-12.701057669872588,37.100616645387916,5,S01
8300,-0.009151993984366544,-0.8318611017547599,10.72923807323119,-1.2147725127501565,2.8856968975565076,-12.521411357913749,31.832531084584303,-13.521075676634744,35.16721455628406,5,S01
8320,0.14270945112595332,-1.1350951154975266,10.645213066384338,-10.106309581384448,-4.711697417650822,-19.74195112009594,33.968536586289794,-12.358272505482464,34.48351854251474,5,S01
8340,0.060191475484744864,-1.3010866939111738,10.374387914883043,-2.202773145315947,-6.212551369959433,-10.56234728880095,33.795078445996865,-15.316629664137906,32.59739607487836,5,S01
8360,0.05700522189654695,-1.566318250685309,10.194268162295632,-7.9544740698214005,-8.916211338163482,-10.732783870097075,31.02724075935287,-14.447057150940406,33.0087085794527,5,S01
8380,-0.12507644773203946,-1.627313029450695,10.08525372580167,-15.954958174408038,-19.58466173771252,-6.130086504786082,33.843858059365814,-15.789067304409473,33.62402824549344,5,S01
8400,-0.280743054693828,-2.0961679436177927,9.90692580714064,-17.493940910501696,-18.23129061390582,2.2021482035031856,31.46494443178135,-13.820720234463119,35.1930754585754,5,S01
8420,-0.3562819760804693,-2.2445881984317757,9.696197343754076,-15.092748409891936,-29.958294389571986,-0.914808909664964,31.86294918814137,-14.158037519998526,32.68889391650772,5,S01
8440,-0.32994491813677873,-2.213716581521675,9.572888364987719,-29.897836272958134,-38.66664635070653,7.380041133435384,31.307388431258392,-15.161361932522496,34.11727147583346,5,S01
8460,-0.5636546999103629,-2.1010370675928662,9.504186506835737,-37.11132704898115,-49.84492283068497,6.940143589119129,30.31015394503673,-17.408868654447204,34.367863788158346,5,S01
8480,-0.6898977440427763,-2.3080199298184305,9.359332144996628,-44.802311060961024,-62.57100257330022,13.790259632944538,33.3133401791748,-15.652871967680147,35.37596633333058,5,S01
8500,-0.5354055761364362,-1.957324841455479,9.485455835610638,-39.10758962673842,-63.46970337006474,17.443607013507375,32.85972399105644,-15.642506360545081,34.108567562110935,5,S01
8520,-0.6121690690801354,-1.8558832785264305,9.340849233743187,-41.82771032873303,-57.49315166719286,13.715489541213234,33.054920815372505,-15.218795979913818,34.92508712722719,5,S01
8540,-0.4903889872976708,-1.8665598496572215,9.434124782837573,-34.91143098651785,-51.997305173163255,18.8640677001504,33.548556045388004,-17.143603129646472,36.32870865421769,5,S01
8560,-0.30083811404074146,-1.6317564427791982,9.46484385827432,-29.82648182897786,-45.2255595471362,16.77125288005629,33.47220513454826,-18.80386251001999,36.88956922643412,5,S01
8580,-0.26419393917818845,-1.4566889233321705,9.722082020811708,-27.620762306306126,-28.834086496521632,23.072545314493023,33.29585395021414,-18.82773463649532,37.00104595799666,5,S01
8600,-0.047383788984662,-1.0861532022041214,9.836981464914965,-14.739115848844005,-13.200314391576226,20.42460367581033,33.23985846754653,-17.56774118397385,38.714854844386615,5,S01
8620,0.11865491207680082,-0.9550445180031404,10.06172890790777,0.5669555155196191,-0.34104837510410335,13.471664353584343,32.590350803131784,-19.30300166559615,38.387957382532704,5,S01
8640,0.23635107263995092,-0.7883422371775559,10.187663030697795,3.1679164086823324,23.596401512449777,11.390403992262419,31.469841812520876,-17.903119017367597,39.13208145470398,5,S01
8660,0.45836424060605085,-0.5308468202814486,10.460636083394556,20.773999898239325,34.010798836683364,9.483821508748564,34.30494979992751,-19.86030724913031,40.31002534183094,5,S01
8680,0.6899918489952321,-0.5162838086379671,10.719544621610591,21.55346932481539,45.97570117240541,5.512293317946922,33.503526841206636,-19.41813094570624,41.969286333510375,5,S01
8700,0.6675493014255813,-0.23925737065174552,10.842323505475832,27.351898259008447,52.902127371905024,-0.3477977163162099,32.1670493855713,-21.790496585774832,40.664695545133675,5,S01
8720,0.8812022207142673,0.08293804463276958,10.97328668543889,31.75177963877554,57.31506387132923,3.0579393337476275,31.39536274415623,-21.336775805435735,40.320988904487216,5,S01
8740,0.6864132567310334,0.02678129093275125,11.107290691831757,19.50213429200366,54.142253504586634,-1.7571619010881832,30.51720769255262,-21.94845639912868,40.69946343411927,5,S01
8760,0.909418930530989,0.02631229048387143,11.335776652748214,24.644487323625484,52.51100524275905,-7.411446690386972,30.30747301049714,-22.76477297533652,43.00313743069105,5,S01
8780,0.6582483805512382,0.13452665692823387,11.195709604654786,28.624953879468098,43.78694635971979,-4.747952071141326,30.00610993706507,-20.733636339548625,40.491141959224855,5,S01
8800,0.568636576829988,-0.056889331296592925,11.371579592581881,17.182220356125516,34.15711590000467,-13.256814591883355,30.850885828349025,-19.468123828874486,39.85789868303954,5,S01
8820,0.468528344392392,0.07016464432454428,11.31875991041828,13.43824977070166,25.832524468323246,-14.89225957899591,30.722506442841514,-22.604638178169914,39.052897221887605,5,S01
8840,0.3119546587015911,-0.11147168911034525,11.370743420128038,6.606025596824877,18.89035416842773,-18.67587061444754,31.194691958937394,-21.487505588779232,37.543256313438796,5,S01
8860,0.21226590600155443,-0.5142135806514547,11.163355943529021,-1.0466695993049373,14.86797308980345,-16.877006949123235,29.32580973246965,-21.61293619743923,37.115318510954474,5,S01
8880,0.3106920994023567,-0.4574699814300261,10.960077851837731,-7.512462469385465,3.5036992938924714,-18.012571394967576,32.28335908474536,-23.82970209336312,37.810502288736494,5,S01
8900,0.3191584510282069,-0.7140090612838006,10.843325778457752,-2.328191006911526,-2.876994396105646,-17.37013422852279,31.61931782471591,-24.656077927328973,35.53304246830145,5,S01
8920,0.22405761141580616,-0.9928244213585842,10.81439984337732,-8.30560220866736,7.340507185603548,-15.825642009580326,31.1016401972666,-23.836247825286872,36.316732439363065,5,S01
8940,0.06421951105424736,-1.3807068937694331,10.433839051682861,-0.9244229301215414,-6.49227019806091,-14.918661145217818,30.25434485054194,-22.2280214643728,33.51367859405588,5,S01
8960,-0.07978318317883029,-1.4863153039269668,10.315487633239632,-2.461262628299735,-14.51858955911133,-11.469873434736215,29.402730495119023,-24.17260414833027,32.68424663278573,5,S01
8980,-0.017563622317418703,-1.6357513547271854,10.203810431462047,-1.7909498369954449,-7.747222033488282,-1.666251932140939,29.662412462595746,-23.94240146326474,33.72079328772302,5,S01
9000,-0.10583954371030255,-1.7193034201629713,9.9856496963897,-9.311172194938246,-13.557321223152268,-2.692501513531634,28.46772821862757,-22.593702583960763,34.59489134397931,5,S01
9020,-0.01720999812118909,-1.9764751911146634,9.821080604066799,-19.436868598747065,-23.681805978985835,-1.6580665855450891,28.653841459902726,-24.43060369791855,32.284262536155865,5,S01
9040,-0.3449974048152282,-2.168147370226633,9.66927860779403,-18.98806596915335,-35.77919880132354,-2.79261329076565,28.725473162874266,-24.12079774082078,34.24252858685915,5,S01
9060,-0.38118373239247305,-2.0407833598727327,9.591116942723465,-31.49552210563255,-44.34480772754317,5.509548720613274,30.28136583354285,-21.61342184557985,33.780024181823265,5,S01
9080,-0.3918958089712786,-2.0069332082274545,9.533709918791331,-37.16184529830305,-52.490494318515424,9.806182787195812,28.02171349425263,-24.697522812475906,32.260722136536735,5,S01
9100,-0.6387579085335693,-2.036547267878676,9.375069323659792,-34.750668882361744,-54.64346173443471,11.502531838982588,27.74617450094657,-23.760702580397545,33.28549509631865,5,S01
9120,-0.5562518324280676,-2.0768835681161892,9.351376147140558,-38.29051702729404,-59.69528170139763,25.569898651691858,28.384797032249445,-23.02618411010778,35.25752558473041,5,S01
9140,-0.6429113883498149,-1.828071372282061,9.439751424856972,-35.57088199067152,-54.000933564714806,20.120532658930582,28.873305283735867,-22.54987196133547,36.13984263467003,5,S01
9160,-0.5426113911295101,-1.7434046705308652,9.48843294088469,-37.607052377596,-48.33038620269843,17.745198861823265,27.957864317316073,-22.47146388976992,37.669977695949605,5,S01
9180,-0.29879621902124576,-1.5188962120748488,9.485179465933749,-28.509732109818433,-34.46747552728059,22.204231965185745,25.75769827577271,-23.228700545050323,37.56140100861745,5,S01
9200,-0.18436233492084383,-1.275036305282962,9.867189241321864,-16.779197664116797,-21.88611322771313,16.44275490123224,27.28246404461349,-21.059193832823322,37.67447605790367,5,S01
9220,0.05564847769522022,-1.04503925566188,9.944958873751483,-10.83995676505225,-8.125465605787442,17.16233751028287,26.833383588096044,-23.45775765275634,38.238013255150896,5,S01
9240,0.1748327320871393,-0.994073264638327,10.01791256223105,5.164148953864525,6.79092878359487,18.55251722560409,26.45179086332276,-22.79633890127791,39.964705902985145,5,S01
9260,0.3382302808446207,-0.7784450878034472,10.21785006260355,13.395144186282703,19.252697047011463,16.974649286168138,25.886053153072172,-22.643708931177656,40.39967434912203,5,S01
9280,0.7028488453009659,-0.35789336417622813,10.635960129040278,22.011214973427048,38.51007362195725,11.963135252222763,25.9914040415997,-22.716225917468705,41.23740152159103,5,S01
9300,0.6963086160929698,-0.35365769373832223,10.809257665553927,22.53067737936959,43.7484671612811,12.899935365797457,26.743628874931826,-23.127679684648196,40.17114891924533,5,S01
9320,0.8871939020831385,-0.34536968329203316,11.00854712556175,28.53012685996173,54.24422064590975,8.525103213081051,28.29573382368843,-20.899445657696685,40.748767780673845,5,S01
9340,0.8251537845666844,-0.00537704694983826,11.001951402437617,23.78205864100782,58.25259381514284,3.8972159779424476,25.95710389460311,-22.000315274260764,39.900037870397576,5,S01
9360,0.8974735900462613,-0.07966831429934834,11.051335764780385,33.94405410122805,56.272891002973616,-6.196898342695838,26.436779023451614,-19.639333537752513,39.19910212652026,5,S01
9380,0.54128106111253,0.11246513651092283,11.17095258812331,21.843679647150594,45.455433574644644,-7.925763728542673,27.07733896462518,-19.983144621786387,40.850886523131294,5,S01
9400,0.6059357077381275,0.08053539871483603,11.350534394635988,25.584816381100925,41.038999537059176,-18.429015720774203,23.943928504002496,-20.233453654474125,41.0771613120869,5,S01
9420,0.3087859555867357,-0.03946196580737911,11.416392021348525,15.2529307979934,34.88711857260307,-15.010081531469273,23.344987901084274,-20.62970655762896,39.33003642098025,5,S01
9440,0.5057089911400608,-0.23380437944264154,11.3324722627924,3.6441369401346675,28.656878312372225,-13.195475779586566,25.403874664901366,-19.910312908526304,37.98821956253843,5,S01
9460,0.2495590914909002,-0.38787495236406455,11.159484654530438,5.3390768502089285,19.45182739490486,-18.07888459448234,25.93788970652171,-18.3595860903796,37.32077319082833,5,S01
9480,0.3234864719056882,-0.5932429282895906,11.202356897486919,2.523956308462159,14.351296018145973,-16.40382449600987,23.840972077994067,-19.395416415821668,39.17185190479735,5,S01
9500,0.018970224225691043,-0.5258142572046816,10.883540305487928,-2.3759201267069687,7.496086930747514,-21.781230945286516,26.17243944485683,-19.03869601104401,37.98635561873643,5,S01
9520,0.12380756150188381,-0.8576896732116768,10.89658354062198,0.6937165419918196,1.9041435256342656,-16.300989000654752,23.478270707597986,-18.248142108939867,35.6389178319923,5,S01
9540,0.02933040555904147,-1.096965629276332,10.572411589073234,3.164399019076348,-2.0706048086575555,-9.494181317809021,24.779918828572892,-17.794525328157313,34.964356957662986,5,S01
9560,0.13997754161440099,-1.2591440910318321,10.260473394752273,-5.223855590439652,-5.234164233103159,-10.789298112856994,25.783753369148705,-18.487515637762446,33.788555523510425,5,S01
9580,-0.0503718436672454,-1.6209106967259628,10.327944180216166,-4.807079084015085,-13.133292624512244,-6.353726096428241,23.223838034856666,-15.284164317029951,36.18433036222432,5,S01
9600,-0.12004366809386399,-1.5381629366787042,10.156480667034003,-12.581325324487192,-8.2795805189139,-3.2776620725239263,26.27312275704966,-17.78497100072278,32.63838985446621,5,S01
9620,-0.09214343011248344,-1.8012423307933865,9.945578063099436,-12.548379241002177,-25.173866947469126,3.2103528921650777,23.05600360498056,-16.41106901432739,32.74940843485887,5,S01
9640,-0.4409148205421217,-1.9200796284339272,9.65385499645729,-14.807177768698999,-25.042706219579944,-5.374851756381541,24.965094547332832,-16.72963999041508,34.16081536478198,5,S01
9660,-0.3472207649311686,-2.148744832837474,9.604844730998103,-30.41070283202505,-29.872090904143256,2.8229583282629274,25.900139318475837,-16.80249706291729,32.90805381364803,5,S01
9680,-0.4101480364282616,-2.2193855972123444,9.459911697750469,-26.084495534248152,-37.718641988617314,7.589938381120827,24.4208873534764,-14.22674271586818,35.116362319337625,5,S01
9700,-0.4171940419313793,-2.216789828437596,9.428119878353208,-34.23509609362847,-47.180904195720316,10.41120270196284,25.91044469125982,-15.086599663975326,32.64465719834489,5,S01
9720,-0.7261142019468265,-2.2404285196219575,9.334618206411404,-38.536662705658564,-59.491672520089644,16.832478073949332,26.057193907875423,-12.869977282901601,34.23318760850861,5,S01
9740,-0.47960264712863543,-1.9100464689677688,9.404381067068915,-33.84175482276125,-57.26722300947375,16.16099583343983,26.612738305642743,-14.465883221578457,35.76137672375139,5,S01
9760,-0.6378063211412943,-1.9641114731567906,9.495609278679213,-34.947962055174685,-53.94761917951115,17.563920801476907,26.30366567002474,-14.32768667742719,36.51647500928824,5,S01
9780,-0.5908863456363791,-1.8512276779686216,9.433159761792682,-32.42166906316753,-45.86718157315814,13.645698478828512,27.633140534292266,-13.195722108843382,37.251260207167405,5,S01
9800,-0.3387818593474361,-1.4203013342062263,9.582532045433314,-26.187628556015117,-38.20607364097434,18.03462089760051,25.418413523882755,-13.285111045438342,37.21737342695436,5,S01
9820,-0.20523101937232283,-1.3842915448445743,9.83372671241994,-20.646792681831858,-20.68234792570073,16.366663637467457,25.98115080624146,-14.070937390951231,38.804685691356404,5,S01
9840,0.07926364457451546,-1.1076121622894737,10.077471713484533,-12.83586250410854,-8.596034477636913,18.681801407506843,25.61642958773742,-11.839929056741656,39.22977306674135,5,S01
9860,0.22066906845672246,-0.9124996280486368,10.208186608098082,1.3360299399943711,4.967683980967098,22.967451088094098,27.26826429007669,-11.745697461040606,39.415463309657255,5,S01
9880,0.4133477947707094,-0.685257277659596,10.28500217260578,17.207400965051754,24.602331031509948,6.623688684155342,26.17875735605507,-12.66791979692364,40.09414816535037,5,S01
9900,0.6164565667119842,-0.403868962073323,10.43632469080975,18.495570868720154,36.94136257314028,11.898126011310087,26.461743012537685,-11.997639457652525,40.37017974309291,5,S01
9920,0.6417171720486231,-0.1401317749948,10.651953607775695,23.133244075145548,52.459214806197885,7.536706527337221,24.6110440096015,-10.906058628937513,40.86610716057607,5,S01
9940,0.7387582353573303,0.054020133612736096,10.910130765383094,31.39968870084739,51.897452053435686,2.316462187826214,29.274294008136803,-11.894075490412353,41.27913132336069,5,S01
9960,0.822483539601388,-0.10476158874526219,10.982396996424887,31.047975802469022,58.98128268297201,-0.28847193434767027,28.876808194737674,-10.715443228041131,39.94182608361981,5,S01
9980,0.7421524421963301,0.07630672223575849,11.218634485951792,28.605427042891865,52.110560929143766,-10.852952762782595,28.00806244336754,-11.724378374479747,41.542857280754035,5,S01
10000,0.6753608795320513,-0.16252818120421075,11.198152086955865,24.756360381042064,36.2567839127863,-11.721632395939075,28.976652267106406,-11.565190212617726,40.30743580557623,5,S01
10020,0.774471060097972,0.0807680879152442,11.21742640091643,19.812501512571092,37.9527187055194,-11.808887436645948,27.521200843511682,-10.69070625698782,41.118264936948925,5,S01
10040,0.4617252919025929,-0.1584421006063781,11.483877366439986,12.960859810939727,30.727742501768265,-21.53623739797075,28.48098744213835,-10.916965462124042,38.865046567350596,5,S01
10060,0.3320634956198528,-0.26604958158842323,11.235623604373378,10.652752288066587,26.396884308214734,-15.43722358578964,27.566896138863612,-10.965299530131112,39.0697943469338,5,S01
10080,0.461377100602934,-0.3533970939302379,11.307937792413094,6.142662768264834,24.78307286424072,-21.17738515561132,28.146883432629988,-10.276352234776857,37.76257898749311,5,S01
10100,0.1038681177566212,-0.5216235464559406,11.231440488831456,5.381668548188894,8.746429124254615,-17.510185005454858,28.363099148850118,-11.7679390417054,37.09448063980029,5,S01
10120,0.1150713515309694,-0.7435122389855233,11.048554901562673,-3.260480701376911,2.837252303327875,-19.9797104134948,28.968452056128182,-10.332323281175654,34.32428771724298,5,S01
10140,0.005383642578302969,-0.864424139164689,10.807844928744135,0.9371218859472448,-1.4049727086426802,-12.417926357764285,28.8460718142574,-11.70476389458968,35.3245079453525,5,S01
10160,0.17445731088767846,-1.1579120166939412,10.626904111991388,-12.425093492029223,1.3043257937573494,-14.578432117128779,28.609128332823875,-10.318905811241326,34.51335222838212,5,S01
10180,0.03368727506380377,-1.3376764908250711,10.527758484535948,-6.766474348493305,-0.22763013724453862,-7.289910723401538,29.51853459711037,-10.177366002704183,35.35243073684825,5,S01
10200,0.04914737884879536,-1.6448523673121402,10.30333734337449,-4.930249832278477,-13.921073725830134,-10.937288226507698,31.06483736513828,-11.644386415729135,32.592340256930356,5,S01
10220,-0.03724366549653696,-1.6783561647399114,10.071124261717102,-10.277838449031332,-19.432799031049488,-3.835445970027608,31.666367019664257,-12.964105873907336,34.0338602293855,5,S01
10240,-0.2546535774729374,-1.977909605753316,9.853447447431558,-15.162610033629143,-19.999128708495345,-2.3862270465124977,30.45142133666808,-12.042183516111766,33.86150176695486,5,S01
10260,-0.2060552891366966,-2.1143720491256612,9.819643403469458,-16.58451245167032,-26.1657192525853,4.397633970762554,30.33440785332759,-11.877971283603728,34.019523741576606,5,S01
10280,-0.33792620140385854,-2.0570728115974877,9.592962756569003,-25.859844456918175,-38.65820810042113,9.127541948918367,30.673132917971373,-14.021107332738378,32.18596406251879,5,S01
10300,-0.4713744501409892,-2.1748220591217335,9.422959423450672,-35.06507066691165,-40.35993871421831,9.506894605734326,29.47234332875909,-12.764422312116933,33.89804142372435,5,S01
10320,-0.4484025879826403,-2.208039828903867,9.359087424414598,-29.208713308960398,-49.47504561163948,13.689516441272582,30.401846232523134,-12.630179649272606,34.58401393978376,5,S01
10340,-0.6740333311465913,-2.1128242619619177,9.404016798870092,-39.4526005442476,-64.26169054033738,16.490198043124852,32.07798736425123,-12.166657512603994,36.56495558131867,5,S01
10360,-0.8315190653301988,-1.9060271612785218,9.31052893504287,-42.17590163628386,-60.80937295090337,23.65855688947945,31.949747987129264,-14.900320346921305,36.671483357149526,5,S01
10380,-0.6045911131254263,-1.7933537483561277,9.316795087889084,-35.02977055379548,-50.29833147567571,22.83308850672229,31.013624067134593,-14.141703773028238,36.40124011207809,5,S01
10400,-0.44310998403137725,-1.5386073608333781,9.485729052208887,-34.10704308985716,-47.046389212175015,12.209260862875132,30.07969026268531,-13.781883398959263,37.96045045672928,5,S01
10420,-0.1913707162650993,-1.5007190559431312,9.63615193944713,-21.841643166456286,-38.65939173729395,19.080990787491807,31.362110457658922,-14.355108757503737,37.103984528006634,5,S01
10440,-0.16849293898928655,-1.220386066658478,9.638874667331038,-13.057624312021826,-24.32895799794261,17.839683741840183,32.59747217765084,-13.40186199172841,40.30390940005975,5,S01
10460,0.15586222965390997,-1.0638409247671732,9.940617340740776,1.9156971710846449,-2.114793460299193,15.483136728980035,33.01431624737282,-13.525501191262734,40.10681207984171,5,S01
10480,0.37639230729159334,-0.7186088278137142,10.129652458350705,1.626953151861053,11.419669415193786,18.46411824367307,32.054776336374935,-15.851006709988527,40.911513087386595,5,S01
10500,0.5192231565879474,-0.6426606921848281,10.389814942713354,7.716076480251007,35.74121471900926,11.628022656387099,32.3808139345814,-17.43532370972308,39.563826604754425,5,S01
10520,0.6223467681893101,-0.2887569893892009,10.543918175405436,27.26390950519558,40.708992984532514,11.777056045514657,30.551735329056292,-17.105587827011195,40.58340859612502,5,S01
10540,0.6538252236017804,-0.4177736642959653,10.803028206951618,29.560649281805258,51.91768132699384,3.448289556439525,33.32272069732066,-15.619906912113162,41.07946349359428,5,S01
10560,0.8105324515385084,-0.17006006531582388,10.993929582611699,36.06221203232634,55.91715841528771,-1.2110751554167578,31.19962366208046,-18.148711996244685,40.17733248844035,5,S01
10580,0.5806607060366161,-0.08959896813639745,11.12802228463059,33.36445174876521,59.25752967143862,2.403476973141626,32.57154806880316,-20.052710161893273,39.936927476306145,5,S01
10600,0.634880444798901,0.0651088376489185,11.2256229963343,24.18378144168255,51.92656790955238,-1.9577169242940258,32.224416033501726,-18.565144340222165,40.645999920714175,5,S01
10620,0.5882354506480064,-0.08398037631732855,11.249516853147323,19.5186382956639,54.4091679475241,-6.402528099882684,32.70825729051431,-19.51649158332611,40.50654962558013,5,S01
10640,0.4472416223487744,0.03464415686625527,11.511427699559531,15.112480224548214,42.039841667686794,-12.11023346107788,32.88527511023981,-18.779744884229974,40.44472638394627,5,S01
10660,0.4869765457699883,-0.029313342401037737,11.249845159155456,7.596690012864902,26.826708509321705,-9.750298390402227,32.39134821558488,-17.4338160905886,38.33035781735228,5,S01
10680,0.3345959795596337,-0.3464890340604683,11.03347967657601,7.66392403988229,19.250995501017314,-19.104541606277753,34.24346813804054,-20.316283059156056,38.91173078063488,5,S01
10700,0.437775640411189,-0.40883638921215026,11.261186142565295,1.6961872724312341,12.187881010163329,-14.928742984133674,31.931219187757897,-19.034758897691454,35.613937773831466,5,S01
10720,0.26759173579244355,-0.5087784676208821,11.265100473501658,-6.484856219730685,8.753460752254162,-16.491463447708696,33.571515741413,-21.573061427659844,36.85284147749699,5,S01
10740,0.08075464287410819,-0.7842834277554811,10.6716961410189,0.7246452063021769,-0.012727958617796409,-15.84512844373466,30.995594610473848,-21.13114995010717,36.66215902056084,5,S01
10760,0.28797524221585963,-1.0729741048162436,10.860398821969497,-7.193309562784495,4.475397818476994,-15.034969482045403,32.79571043209869,-20.183083303950422,36.00543429868899,5,S01
10780,0.056740098426754385,-1.185027374633412,10.554188110680608,-4.334907189257415,0.26039844327056794,-18.22311441420601,32.76139421398274,-21.04811752583233,35.03695084850739,5,S01
10800,-0.03593703357495823,-1.242689410170817,10.347203688815023,-0.11379749977661291,-10.553001957742207,-11.69070295217317,32.25894167871335,-20.58270900846156,33.558608836481625,5,S01
10820,0.1872040364923169,-1.4015504404665422,10.100391034639022,-8.053302992406014,-10.32900449290628,-15.070601726062643,30.834021574056035,-22.90696992871868,32.88446569207247,5,S01
10840,-0.023030213847083675,-1.5481333602316798,9.959195436628054,-14.330986867604054,-21.781235963611305,-8.080373022345126,31.96827418143829,-20.67994738223779,35.437630173975094,5,S01
10860,-0.2530548959099116,-1.7925787585383393,9.792102960109533,-9.044937563356125,-25.93832191534356,-4.230416780742731,31.1903328475827,-20.547643810069584,32.59936323460094,5,S01
10880,-0.12569979268133388,-1.9630398597355396,9.82343500217848,-19.048336920376762,-29.444334516028224,3.916972947774614,31.176628060307852,-24.386636928173708,32.77541103931039,5,S01
10900,-0.40989446776015936,-2.193237526815662,9.686671557095254,-26.048371956772293,-36.83220495869126,9.119590867793113,31.62783360414561,-21.87489114873479,34.12694316723503,5,S01
10920,-0.6930914381303338,-2.0618458446405237,9.348441889580565,-33.95826246356949,-48.19571699009976,6.266316443112833,31.181909918228467,-22.341824992551842,33.26391101620314,5,S01
10940,-0.5701925486342677,-2.1432668816617735,9.527730700118749,-30.73721443225428,-58.420544502833785,13.690564406670601,31.13714142711022,-25.057550247824558,34.43810735067081,5,S01
10960,-0.5052389978979572,-2.0858742157686683,9.49875724590205,-36.86513622721423,-63.60277890824363,17.460459969260935,32.62527944430174,-23.157258978816916,34.98303405983081,5,S01
10980,-0.7150805760516321,-1.933397448287829,9.4761657694073,-38.678050190428415,-60.191637708309464,20.18766780700656,30.890278406264876,-23.972579108018074,36.08260813923066,5,S01
11000,-0.622678103898352,-1.8340549786357974,9.477447668413367,-40.28095051270897,-54.36071213355769,10.213091009220916,28.22756316632975,-25.644373904709248,35.92415050180822,5,S01
11020,-0.49760350935926645,-1.601201325171698,9.739961314587811,-31.720468261776592,-44.449374026005685,16.78160709217744,29.014661851186702,-22.78306275063801,35.405879352763904,5,S01
11040,-0.33066399960162685,-1.3428575050978688,9.580974267624626,-19.52058003123035,-28.17130824668446,23.62359607431161,30.197859579866055,-24.399189436051945,37.72439184813801,5,S01
11060,-0.10175221288569886,-1.1431541448366673,9.855395743811966,-3.531683900437293,-12.8436689920538,22.713836918538412,30.99112445004921,-22.505899921714885,38.53737121034707,5,S01
11080,0.10185556240225403,-0.9360174195773248,10.073646304667145,6.010890233605136,-5.520158545379461,19.596222498210807,28.722504224816404,-26.528416110740235,40.44685823180638,5,S01
11100,0.2830767686209136,-0.9049629779538069,10.404966277850763,-0.763210758670092,23.2487635525582,16.047698644117226,29.80893601241586,-22.39084163632768,39.271142688792935,5,S01
11120,0.5010690565574186,-0.6843056382807235,10.343231760274904,12.8350261151108,35.333461963058,10.541484342446093,29.769795462899218,-23.992214361861823,39.79858970460554,5,S01
11140,0.7156246929527543,-0.4414476300104898,10.81753768687498,23.185180988436052,43.79505436049638,7.147681442674456,28.863886309754637,-23.986034967832854,39.15786469400261,5,S01
11160,0.8773464030939626,-0.16526501224772577,10.87416906840676,29.43238936586221,50.71925023646302,-2.595403963500614,27.94319222098105,-23.05764649675029,41.52439008769333,5,S01
11180,0.6448555386784245,-0.03455398065446322,10.81801570497911,29.845939204653252,61.78624175545375,8.93630842046075,28.200075429554765,-22.70679564209575,40.450194426149544,5,S01
11200,0.6968963546712323,0.05339882551872778,10.9513917878311,33.70465594211739,52.84127908567413,-2.844094689663037,28.521605325390084,-22.717459282814552,41.03291821536511,5,S01
11220,0.7901198870935211,0.030577066664085245,11.388781583789592,29.90354790360259,55.02072246866287,-9.625202781274211,28.22433864492962,-21.71005448292413,40.045285672940146,5,S01
11240,0.6587750732523521,0.022436815350696207,11.366585869690251,25.77558106345595,45.62914957750931,-7.419266020243237,27.465056590997417,-23.097432040020433,39.318034883817816,5,S01
11260,0.7007020675860054,-0.019423139076417566,11.357809542855733,21.37884050046316,34.01750382217348,-6.106964085895296,26.65208753441846,-25.06895084872726,40.45003721929491,5,S01
11280,0.4216378831358272,-0.08221578270654338,11.372828068180356,10.51775052956911,25.427182822776615,-11.607847692904274,27.27996070007131,-23.215638251031056,39.818874744321086,5,S01
11300,0.34055636621402374,-0.1777397396438538,11.273477886604827,7.435083323507047,18.591632386334254,-14.676396061372207,28.47244431642816,-24.179181391735625,39.450030307194545,5,S01
11320,0.13109888326854388,-0.32283005941178033,11.125464555839033,-1.4781198864688494,16.98475510738081,-14.471506608973902,25.949581520539198,-21.141627346098907,36.90682122667198,5,S01
11340,0.04497117272937325,-0.26041230311104235,10.958806322052785,-2.669362712991948,-0.9362787324290476,-18.473596006478278,27.318687308336084,-22.477433472539687,37.88895430858843,5,S01
11360,0.21538543900841345,-0.7105461487135645,10.868575885272776,-3.671625713617359,3.3281189136395612,-17.799138212317928,25.45884893183821,-24.11502196045554,37.56086637750193,5,S01
11380,-0.023210903420575676,-0.8947720896549711,10.631967861066556,-2.4561578313723054,0.05250071918987831,-18.647166152836718,26.684833124384365,-23.83540219995494,35.84455642257102,5,S01
11400,-0.1196608486171249,-1.1595780087302954,10.498211250482965,1.0187382272222871,-5.788385417713702,-2.1923383840696746,23.995311188226257,-21.764725624479055,35.534089268971286,5,S01
11420,0.03525351357824538,-1.5124641155972556,10.40417879207286,-3.1276945763735635,-3.4571547627240697,-18.85544682686848,26.334639034075444,-20.604008324532785,34.909899040709135,5,S01
11440,-0.045467135913114604,-1.6186003001637679,10.127149113180085,-2.179984464805983,-5.849923999245598,-3.7805447282086537,23.47530148984601,-21.77186895941298,32.88707741336408,5,S01
11460,-0.15124485572095384,-1.9172620448384998,10.183533977510976,-13.962800237028873,-18.692630646899623,-6.247692159611406,25.507989937369672,-19.06498071341062,33.46115802979097,5,S01
11480,-0.37015470580338716,-2.045881129469384,9.663672422874269,-15.079301917548364,-26.41634828561344,2.5074220662764044,26.00948811426942,-19.221956342336956,34.20284034511986,5,S01
11500,-0.2307231348713675,-1.890010459796547,9.65213688253151,-17.220226087068703,-33.62148648606956,5.95344986154927,24.795166017933955,-19.6628554148352,32.3969035075551,5,S01
11520,-0.6066869622908446,-2.0420325095452747,9.59623407908551,-25.680313598296078,-38.32417182347105,12.14507731267056,25.322140593524026,-20.274643395479387,34.69139300674364,5,S01
11540,-0.646048824690883,-2.083221312146572,9.594483471381016,-33.774254066161426,-52.866918105506315,12.888322282130538,24.301966043449074,-16.598527500688363,34.49069416561642,5,S01
11560,-0.6515214528538832,-2.3205521481389915,9.31260621783051,-37.218257082179754,-59.91553406224262,9.845170946072168,25.934979852659538,-18.61976373896474,33.85351632799054,5,S01
11580,-0.5277941177710108,-1.981109194139607,9.346626755646321,-33.14323379662424,-63.248096773834284,19.98736112733379,25.54725395351717,-21.4376932023266,36.59142510990179,5,S01
11600,-0.6460565845656056,-1.8089122013828258,9.508533791495347,-36.28938343317349,-55.90783773570362,11.023259347809878,26.22643704912846,-17.8041405314532,34.706009388963395,5,S01
11620,-0.4142243026580751,-1.981625336203465,9.576145099138678,-34.705594011543106,-55.051602230166,20.138119842110882,24.137537998042973,-18.013116078418147,36.19056394304833,5,S01
11640,-0.3742568920686542,-1.6861330313129796,9.547665032848471,-30.316029526872914,-35.90282454115722,14.1801458778617,26.615413042497984,-16.470945904396807,37.29097849194687,5,S01
11660,-0.131905514778552,-1.3318906439332585,9.741428286237687,-16.053614668058497,-33.025691449186276,17.081263294257017,25.405133681003043,-15.17908680629429,38.50791719048709,5,S01
11680,-0.17204534415703945,-1.2513338189285275,9.833117531476063,-14.266039920575071,-8.626440986407946,19.11195884024385,26.035461394255453,-16.229982985401364,37.93822122541304,5,S01
11700,0.23559111020559115,-0.9892887164314939,9.86009390818406,-1.5627225358635402,2.8346747292664682,16.92627084172484,26.286154350111236,-17.756552121647875,38.50384232822779,5,S01
11720,0.19922687536795614,-0.6451156342031104,10.244281090968492,8.323218810219736,19.918889218543484,11.06702920481615,24.76404132033403,-15.320893752246844,39.731686981044874,5,S01
11740,0.4739766698707012,-0.556036636192466,10.239713516353323,16.721090507695724,35.039688488746904,16.357614682592015,25.779494768906396,-16.53825785788205,40.763577457086235,5,S01
11760,0.7092080986697806,-0.382203289887173,10.74012464867052,24.029442768423397,43.8158107421113,6.286506056079419,24.485373151560452,-16.220594654263152,40.227447228609584,5,S01
11780,0.8919063247602128,0.010094763589618333,10.921697543010985,30.401913457817326,57.13490799385098,5.295800841552467,25.71706358316748,-15.072327260051976,41.25065369094965,5,S01
11800,0.7965465867858066,-0.015582638276297876,10.982423079856664,25.685904108422573,53.02648544295547,-2.5005613544509933,24.851869384520015,-14.027236936680758,40.801086154984375,5,S01
11820,0.9339806982349314,0.09038721629557656,11.14299209448015,26.02019728068397,54.06043878464527,-1.817516572037,26.11754945361229,-13.357187796553362,41.70390897600907,5,S01
11840,0.8444696781916833,-0.002756046713186175,11.404700076429483,19.45530228381735,48.06501455591536,-12.326733904738338,25.907807482600102,-13.621234261087519,40.795213174964914,5,S01
11860,0.5628459750309566,0.07803937210269554,11.473050873504278,22.85577253888039,38.995883282104096,-9.212527581460218,25.09160979810422,-13.756692952783773,40.02501233085319,5,S01
11880,0.5025781740900591,0.10467580639739618,11.429011032992065,15.361707141517574,31.484989678812813,-14.59422595861817,27.348884438360166,-11.915297260812887,39.584770156403685,5,S01
11900,0.2926132401400954,-0.20618583744336805,11.253376473388597,9.424891702503164,23.144523058530446,-11.745682721204824,26.022707465798153,-11.538691897910155,39.07540102845732,5,S01
11920,0.45057894825007583,-0.3849586676225201,11.194009597741825,4.866043052180802,15.85259925689678,-16.89296784575311,26.443825772393335,-13.188905754401352,36.80914301679386,5,S01
11940,0.16273101137723553,-0.5734224093067715,11.07422121277663,-6.730004949906536,10.472392879988679,-14.10412353792503,27.25230307044432,-11.214631815251426,38.34860203443214,5,S01
11960,0.352869078833815,-0.555635568292689,11.101331664068114,-6.393455680922579,5.137877537702228,-19.53251371372064,27.136921349476445,-11.60926202958727,36.05492917991724,5,S01
11980,0.1399649306060009,-0.8652712038170891,10.961182270008516,-0.5183976177671168,-5.070161268226949,-16.237978920812967,28.742837090585603,-11.999094625869638,34.95009084578273,5,S01
12000,0.04170066428987237,-1.0591687686385456,10.57193886122938,-1.259575862492604,-0.30040247307548196,-18.99702010383109,26.90893364616589,-12.920140053576842,35.5827273526988,5,S01
12020,0.06036891193150576,-1.1937875263395727,10.700544984476094,-5.103406227943372,-6.88608114335891,-17.165476162596264,28.059939122966767,-11.220890847564135,34.188906075291904,5,S01
12040,-0.14785690240257385,-1.5916884103061975,10.274127211261684,-5.393259838368154,-5.344634505988266,-15.810591719767908,29.07391808625796,-11.327711689573043,36.13606264328321,5,S01
12060,-0.10402498824780002,-1.5446278331640193,9.999081744501469,-4.979039399617231,-10.365591851930667,-7.296061646670754,27.835358974606454,-11.911827085422738,34.595815202939434,5,S01
12080,-0.03529779092310645,-1.9163133769727025,9.91041848936729,-11.71549834088342,-14.912282684652732,-6.901692678746965,28.374261952491576,-9.328360021563746,35.71272338008571,5,S01
12100,-0.3321115830002115,-2.075339610189572,9.689909668964125,-12.867879894423371,-25.75159455291018,0.9239985262644477,27.958185235567907,-10.692018523658456,32.255442111372865,5,S01
12120,-0.4547719488169999,-2.109572930840187,9.84232443926116,-21.603576052224522,-31.197164006776642,7.239064495210648,29.573518102254923,-13.231688414172186,34.70564006804646,5,S01
12140,-0.5644018967349425,-2.095964188119312,9.796090436332547,-34.45851027266357,-41.5870294743739,7.302478411065161,28.915996345095508,-12.520308077261504,33.12619437242117,5,S01
12160,-0.5081657013839208,-2.2119372580676133,9.50059328705445,-36.07411517515246,-53.90023572440011,10.411807999429444,29.276841212267428,-9.601511988595897,33.63026145772474,5,S01
12180,-0.4778192361630784,-1.9578649684780431,9.649955264441166,-37.95755123794926,-56.094318432640016,16.98537938482903,29.283918990149235,-10.113298012939321,34.61411447348418,5,S01
12200,-0.7049035313301899,-2.142578715929054,9.440091930506776,-40.872166197547244,-56.781884939322985,14.800917452741194,29.551826172828722,-10.43658116907667,36.06634395880567,5,S01
12220,-0.5988577514569426,-1.9574073875825762,9.338694546724598,-36.27310277171173,-57.97014181493046,22.337120432529503,29.110240920141912,-11.975942027553177,36.95418134328686,5,S01
12240,-0.40678466041988026,-1.7148602092163139,9.60688714990665,-36.76382400061806,-46.4653991168102,14.451709617162003,29.348308098048904,-11.450006757076512,38.66259761706276,5,S01
12260,-0.21933974120716357,-1.4878660871446105,9.504820018256963,-28.386222368359835,-38.705182517992476,12.80793006073509,29.014259066260646,-11.225619083836248,38.55650698211198,5,S01
12280,-0.33621137040805593,-1.3456895505246833,9.74696438610622,-22.418806037688096,-26.336757397597278,20.424535980102448,31.296685078694907,-12.31638969407351,38.23486056974567,5,S01
12300,-0.022304263856757114,-1.0661826254237587,9.88852216962763,-6.115339266467679,-11.442464190427472,14.200668844050083,32.27002275579128,-9.32727107488472,40.75561101298815,5,S01
12320,0.35030420510236693,-0.9802494091943321,10.053701304869126,0.4098120960474452,6.5946439836709,13.63104306164066,30.279666855118446,-12.554940898797826,38.73151640757208,5,S01
12340,0.34801457458404594,-0.6842706450438414,10.251599797128991,6.1459901486193536,22.462667531333654,18.122193948631057,31.82156056945165,-14.065150752583502,39.857036538192354,5,S01
12360,0.8636486075864948,-0.48733300821664977,10.425184255018415,15.34317409714398,40.36851364414053,9.559468567759858,30.030767804259757,-13.256434002645626,40.46576444475578,5,S01
12380,0.7585421450253359,-0.3256295036379062,10.719073569599486,24.821180675399624,46.67674394119743,4.401461655826882,32.15977796114351,-10.474116432786186,41.89161505063405,5,S01
12400,0.7919614306579755,-0.36803540838216037,10.964397979401445,24.864457528868993,55.20788856278427,1.3574034256723433,31.092150862342468,-11.798110896084761,40.40961355672736,5,S01
12420,0.6478704038459683,-0.09496304738837553,11.081038922033525,24.911812206432366,54.22192799622305,-1.3138983784500113,31.968885295633,-13.16847983914906,40.16531861940118,5,S01
12440,0.9472143152584603,0.05624794946860351,11.11010474237264,20.838134747300902,61.50878609973827,-7.06620188072721,31.640982825218813,-14.29686690558821,40.62042257858723,5,S01
12460,0.7032145396428567,0.07872941626544874,11.284153959228268,25.509974983389196,51.60926657560889,-5.144861747592445,30.591413339782463,-14.614963710721273,42.98632564189512,5,S01
12480,0.7294184794258933,0.10847207759273311,11.201391618308152,27.958794002209455,38.99102694394196,-5.920632603056844,31.161265083937238,-15.288173735456706,40.58913064606541,5,S01
12500,0.697535543594453,-0.14479746518324738,11.300686755325257,14.168523451894295,33.98430896424625,-16.154072044347004,33.58565680069524,-16.46664899019489,39.74881980161919,5,S01
12520,0.582450367994272,-0.12039668166261996,11.312892995753334,13.148167204622634,25.522565088660055,-15.011881340520215,32.081424130088415,-15.897507738753347,40.33889586509501,5,S01
12540,0.525726821573756,-0.05750749777136148,11.188280516754624,-0.5021787628052392,10.001264714666934,-16.20008616215837,32.33986485772615,-16.293643588945177,39.40228807948519,5,S01
12560,0.32749890077603355,-0.4135639654297071,11.0984666305839,3.0180998755488018,11.015236509701076,-22.29467870517594,32.236090066779695,-18.11856908020367,37.002094721298334,5,S01
12580,0.23528843318481396,-0.5842885827801083,10.938508429440319,6.585219152560966,1.1848830684755562,-21.44991244582814,33.98631361237775,-16.050079133387396,35.24946870943184,5,S01
12600,0.19271606889674447,-0.8607675226629048,10.687405398854843,-0.6731345093802537,-1.238220714268714,-21.212256453429948,33.372873527543106,-18.018596904519043,35.44312662704804,5,S01
12620,-0.028667226348923824,-1.1252786619388282,10.60330365118146,-3.9340519230417024,-2.5656487928838008,-10.596418140002966,32.90271577621432,-17.366022416337778,34.05863175771766,5,S01
12640,0.041695527462140204,-1.3615194638730457,10.370464829226295,-6.649936117853917,-6.927741978782302,-10.652423977598051,32.88692908519819,-15.776916532049762,35.3949450465734,5,S01
12660,-0.002252790955186587,-1.4218964047220928,10.176843276975719,-1.624863612219193,-7.925261603620186,-7.282802877468313,33.98143381431477,-18.531606605140944,33.2632291313976,5,S01
12680,-0.18756148871176612,-1.6652882459482454,10.165892952140132,-10.838172769132973,-12.586798529017369,-7.936550560789835,31.75369789457809,-16.639740634965854,34.24561731460312,5,S01
12700,-0.36790426481746774,-1.885072726476855,9.931031316256888,-10.313779494209331,-24.974282395257354,-4.386557552666014,31.966151634683058,-19.617090116678774,32.99464497904334,5,S01
12720,-0.3456494872624919,-1.8812513927977736,9.559171506279647,-15.45157422872548,-26.316256090058364,4.526597161919219,35.139411968535136,-18.224763066579573,30.85621643853989,5,S01
12740,-0.326703958044277,-2.186306573565021,9.702680814502619,-19.345660655232535,-34.71502198380171,6.716652983987679,32.855057332077465,-19.189201719801176,34.44539359220073,5,S01
12760,-0.4545288947922914,-2.1916677851154245,9.42223051551162,-29.078088701762827,-44.65457366540613,5.58425336413654,32.44667315809979,-21.20823252918528,34.98228170427426,5,S01
12780,-0.4327089315752456,-2.1239933353519147,9.474015565755384,-36.1716312875929,-54.74965044030858,11.714665450184185,31.13979680359183,-20.90726021604953,33.94244007665225,5,S01
12800,-0.7365641487585511,-2.233894602704029,9.463173011832367,-33.21029573865177,-61.2984670425968,13.970965063778486,33.85267398607769,-20.4631676642272,33.487209047032756,5,S01
12820,-0.5866543123570066,-2.0046054656552297,9.36699219926353,-41.255289145189074,-60.71734607846654,16.847113303350348,31.833617638406615,-20.373074109966588,35.13600647615761,5,S01
12840,-0.46209035513288554,-1.8021270651699781,9.426195918069409,-42.422442648414965,-53.34770624316844,20.094050991651272,32.01300866147147,-20.550401589311626,36.47967319305654,5,S01
12860,-0.5175645472798681,-1.8496660985594062,9.574777648898538,-29.73672531392231,-47.734759338922224,12.789098535238956,32.88458178589369,-22.633982832862284,38.247982318619364,5,S01
12880,-0.34149697863207173,-1.3874208337387224,9.71675011901949,-24.07447433707827,-38.38313688295277,19.81667428292532,31.41447244433917,-21.79879430450948,37.47623365068877,5,S01
12900,-0.20893177540405342,-1.2136546018782406,9.735855807422013,-16.489200465755864,-20.444547005510756,19.491035832085952,30.827078699436534,-21.24455951253693,38.562758230512905,5,S01
12920,0.17124058960428495,-1.0329894500840315,10.142526336989674,-9.004644222928011,0.41558877049132525,14.623058491817643,31.809506220870208,-22.285867754281647,38.795313222962726,5,S01
12940,0.1997533262665825,-0.8525204923480298,10.139643500573081,1.5117778851947605,12.050925192013192,21.21701683703861,30.387899358518247,-21.202377748005,40.384633281158514,5,S01
12960,0.6294629577277912,-0.7233748169043845,10.20345484781157,11.99125152783624,28.480376928548115,6.990032351660447,31.50373929615403,-23.370763276939496,40.554421268475096,5,S01
12980,0.6474284668853724,-0.503593066588621,10.501620906386616,28.00107456103969,45.26858597730962,8.755812288528787,31.016156810740444,-21.195013821303913,40.730207236739496,5,S01
13000,0.6646266681399408,-0.35286202236474457,10.855664657914566,24.67336673106785,47.21685052216941,9.70869850023337,33.56648933426887,-23.75564362672339,40.9828543242837,5,S01
13020,0.7556771833864658,-0.1141133180067804,10.918343570167323,30.954941388094223,60.91857639715574,3.8613095206225467,29.544182644400866,-23.86982239502954,39.55365354134065,5,S01
13040,0.7870235142389712,-0.012713077361271176,11.179637509697939,31.00467168956563,61.12993201524231,-5.49175033737065,30.481532691923356,-23.21632397751876,41.209837613928634,5,S01
13060,0.7291942407512653,0.06078083491775138,11.023753755418227,26.429851138679297,52.581457098289235,-9.870127950911968,29.569401756515852,-23.178646229136458,40.66842316528087,5,S01
13080,0.6654868144912159,0.12213466024034453,11.223769286743059,24.80600115112137,45.351652497205365,-2.096826457060456,30.677537186085562,-24.254311803253138,39.872781758685456,5,S01
13100,0.7917574577622911,0.05778183266872722,11.437290329407306,19.86295082280187,39.30675425044697,-11.999144342579582,28.404444289084793,-25.117206442267825,38.400654841132074,5,S01
