timestamp,ax,ay,az,gx,gy,gz,mx,my,mz,label,subject_id
0,0.10044340102306107,-0.06964806516773708,10.144795289875503,-4.017839882722991,-0.7527294358691781,0.5710301392510432,28.83739254135817,-17.676963568595298,38.0931441646397,0,S01
20,0.10232310451362499,-0.07609890129877693,10.140308963858134,-4.088589035299611,-1.4884333868543727,0.7305621240627552,29.42831728479366,-16.289561029033408,37.68729506468334,0,S01
40,0.09207196987753449,-0.05887638858385883,10.139452269522376,-4.02217010805143,-1.0985893299950784,0.5318131104105952,29.0465205734718,-16.101839797688328,37.765374257816156,0,S01
60,0.09668778426088284,-0.0630827169702186,10.149027825932839,-3.7487023144364646,-1.178146622323385,0.2567342722958633,28.98505671682626,-16.795136421497673,37.177786870584384,0,S01
80,0.10296178889675008,-0.06658853127406901,10.142200093509977,-4.175913768824542,-1.0563952398089334,0.4497515974871826,29.617853326359555,-16.468356364048383,37.95920950355743,0,S01
100,0.10089192634077428,-0.07028114387972174,10.142058210942718,-3.623977390915572,-1.3580217727391066,0.3497269661983758,29.69468868639359,-17.251306734034067,37.856009984820496,0,S01
120,0.09895843763549782,-0.05493370531327598,10.149867204516879,-3.740076811691803,-0.9637480680372212,0.40953143362238265,29.8373347517685,-17.19407403920497,37.286650536930814,0,S01
140,0.10074217794734727,-0.057614466495301,10.151026019275182,-3.8500167092174458,-1.225585386323675,0.6234525578276725,29.676861452459395,-16.469151943067132,37.48548783482198,0,S01
160,0.10384955745797222,-0.06312286481013932,10.149120275316028,-4.4328594367291,-1.258471127491597,0.6139240615432517,29.49066561583931,-16.40965386510741,37.42848643566346,0,S01
180,0.098512694136948,-0.05914970298420949,10.14048274292519,-3.691037741017174,-1.418555995226127,0.34322642670310577,29.16827009424195,-17.263678866070798,38.0968291285676,0,S01
200,0.10155762757260861,-0.061377629486121695,10.14763762618407,-4.469841202317415,-1.0756734095363836,0.7105824862469979,28.963016121899987,-16.393063548852183,38.05798375028723,0,S01
220,0.09693105037970583,-0.0628870881071365,10.142185577305103,-4.487091917209783,-0.744382507939916,0.7451706116159819,29.534078070266975,-16.475037910911013,37.613606544329755,0,S01
240,0.09620713560004275,-0.051411455901711985,10.1422486214548,-3.785526461841241,-1.1875315827573216,0.6965997396632156,29.095777401464222,-15.561038862428157,37.922946676145905,0,S01
260,0.1008852003343769,-0.05273933309723515,10.1422888494287,-4.298962176474578,-1.3048345187193764,0.4799634165597182,29.02111868672985,-16.156274455768536,37.88239907542741,0,S01
280,0.09768808853386689,-0.06257974360441489,10.141792728581466,-3.947659257982955,-1.1282788717279204,0.7110478115829647,29.237887807980645,-16.65390068380432,38.090120662620734,0,S01
300,0.0911929477087149,-0.051801335910283325,10.146249385532387,-3.4904795271091373,-1.502693135303918,0.6284695776439505,29.462153736233073,-16.75555838459222,38.34904151620775,0,S01
320,0.10934797506538087,-0.06040666249327582,10.143022968361262,-4.436065282375247,-1.0557750136388584,0.6341294099117101,29.540341797230752,-16.77400882310811,37.57341646281561,0,S01
340,0.09559535547063804,-0.05552946147831666,10.144992439891267,-4.198361990615008,-1.1015990720435558,0.9406027049801923,29.42105956432892,-15.91910450582262,37.94436324498262,0,S01
360,0.09779470381315032,-0.05927388117927607,10.154904473931506,-4.297104945161408,-1.2306672610579656,0.38776957967578196,29.955780170409035,-16.66666882211249,38.72113827928312,0,S01
380,0.09911808699984108,-0.054427753708257726,10.143328111925383,-4.337316774426829,-0.8565128533974294,1.090286237649226,29.16677832776189,-16.310808222168742,38.02069538980117,0,S01
400,0.10050983229470782,-0.0501363390065886,10.139039168024228,-4.072924222333365,-0.7760996346190486,0.6278605923823458,28.611605407955423,-17.472249854037244,37.63377898836401,0,S01
420,0.09535936673482484,-0.0654418743987871,10.147216556016756,-4.806413626480401,-1.0878349133906262,0.7244249351190668,29.496119729063143,-16.479060589756845,37.632314329995296,0,S01
440,0.10420029713562302,-0.042831327620508924,10.144051960414815,-4.637916229940977,-1.136435970115194,0.7741336331530937,29.416258755650663,-16.583005060343595,37.821175671147635,0,S01
460,0.1006640391472357,-0.05610978487358015,10.140938831097325,-4.287916723959465,-1.3992749815480112,0.626131213100418,29.902196810393644,-16.842959468159336,37.91349240918646,0,S01
480,0.09970931518554932,-0.05042751461327968,10.138768405075782,-3.4196671983299978,-0.7923814540498195,0.26763094930117226,29.758637427464482,-16.5125704514983,38.14011145146828,0,S01
500,0.11282155178623018,-0.04770205504644681,10.151972201774699,-4.421212078119909,-1.4509347535064412,0.8041685129326748,29.108659838243163,-16.938151028176907,37.97244709298551,0,S01
520,0.10338897681241163,-0.04991242409012665,10.14237136691917,-4.203491915046054,-1.0345492370185327,0.34594722158409896,29.259514936262235,-16.02008349851213,38.066133483184565,0,S01
540,0.10245861540018544,-0.04678780908894441,10.139578914619394,-4.595577794323716,-1.0243995248334807,0.9950107909204905,29.238051652267583,-15.989973201321249,38.0521088499646,0,S01
560,0.0960623706284891,-0.04565110142368868,10.134905923087688,-3.893842733934192,-0.7530000621770656,0.6804328604121085,29.099458185733518,-16.832101495833037,38.162119876023795,0,S01
580,0.09329472661222896,-0.049927071924588895,10.150515463575125,-4.275191087493066,-1.0723724448594685,0.6651771572899066,29.421275478877387,-16.174923762663546,38.586127682727465,0,S01
600,0.09328129218579073,-0.05514050477480238,10.153701511107311,-4.266869575541219,-0.8957361121860719,0.36656962498189904,28.844255641597144,-16.52321253108399,37.95156584009478,0,S01
620,0.11181059848844954,-0.059105845996889304,10.147418537755732,-4.351453164460638,-1.3041432883240978,0.5112329142344403,29.05444711107214,-17.27744749768336,37.86180858859885,0,S01
640,0.09973060044899305,-0.04902198425926291,10.146787927461881,-4.321484986605347,-0.8467126175286694,0.9440761998102937,29.918488293359154,-16.01827594117599,37.391649994731914,0,S01
660,0.09812200959749819,-0.04166764627180698,10.15001170740077,-4.441527986181924,-0.8990216827722655,0.5755502568815192,28.980085476933745,-17.205316490846734,38.475260761050926,0,S01
680,0.10588753599541378,-0.05145970160393169,10.149359597702377,-4.791151153754328,-1.1779311278189695,0.7590771201111278,29.7403843242305,-16.318321579098004,38.317666738817984,0,S01
700,0.09661189058635221,-0.04433784963815635,10.133833564864831,-4.322290845026666,-1.0941159608624607,0.7007369562318245,28.858439505028677,-16.974429460946183,38.36271309348241,0,S01
720,0.10718700523952293,-0.04646308972751229,10.136799897258893,-4.084377954131341,-0.8285515409872785,0.7504263462760968,29.66295978326216,-16.717267642924277,37.62884399216749,0,S01
740,0.10546499056523928,-0.04851872235287988,10.144227336880585,-4.678155771659016,-1.4869398128580595,0.0268462229198142,29.22322428799703,-17.29208942734082,38.392728533573546,0,S01
760,0.09607632397000106,-0.05360812260271079,10.155050277457333,-4.390070428421355,-1.3529683814212885,0.7388089252872567,28.46608626445998,-16.487531168203766,37.84737993439058,0,S01
780,0.09840711569543996,-0.05925794670246632,10.150602878299976,-4.035121562680043,-1.201431051116826,0.28237198945913483,29.771034784318886,-16.761833692645315,37.71111315031938,0,S01
800,0.09033501431771396,-0.04227563352887721,10.148397104313315,-4.491370753152934,-1.2651685463338658,0.799037347349415,29.114318484713486,-16.153938319801547,37.74430499212748,0,S01
820,0.10598486466604701,-0.042546796290310746,10.143067059544318,-4.391571321274699,-1.3162582386302875,0.913841490960507,28.75975228450469,-16.866515435204445,37.840081973151705,0,S01
840,0.10169294611352556,-0.05833247924186992,10.151696173485378,-3.860643461287509,-0.8835187803786778,0.6147572115994967,28.86460243067491,-16.193272800663884,37.84841817582791,0,S01
860,0.09642593969885925,-0.04941256006187125,10.143057949943033,-3.6311884246429367,-1.2352758751450625,0.8491249790486206,28.990118198093644,-15.958600680549118,38.4861100137162,0,S01
880,0.08698009782371723,-0.04790091229545959,10.142961749237202,-3.828677819894196,-0.8110840287380168,1.158456564980338,28.635496949916735,-16.398414875316522,38.64921054641335,0,S01
900,0.09861840131386229,-0.051432129016762605,10.147227187827538,-4.098500039099086,-0.7548542169482643,0.706494346838399,29.540428405184514,-17.060978548790334,37.431375104924044,0,S01
920,0.09162352818206591,-0.04810403848552945,10.14870640448926,-4.412284519479594,-1.3843771638933449,0.3454373914319924,29.63485501586848,-16.522270284892336,38.506611691078355,0,S01
940,0.10135687199045942,-0.04863687178023224,10.141517624501564,-4.436959083082447,-1.4445396406434337,0.4596625048793503,28.733674811530005,-16.050138133060877,38.050707996364984,0,S01
960,0.0968139696058045,-0.05492827044340411,10.146210826177201,-3.6873032673253494,-1.5633008240614414,0.684509905030687,28.580198923317763,-15.981942889513576,37.67407686240273,0,S01
980,0.09580435059386877,-0.049843292312452186,10.139556444778343,-4.70930255014575,-0.5219403063038085,1.1143393671108557,29.22766040663615,-15.872545722393058,37.97894306924837,0,S01
1000,0.10459435262145488,-0.04777453549590034,10.151416705572617,-4.387535253873654,-0.8366614759207407,0.6009749582112602,29.80423954105455,-16.849097237231398,37.62411618398768,0,S01
1020,0.10517683242180212,-0.04453556719033294,10.154371174035528,-3.71588836286267,-1.045978474852013,0.6240023906406512,29.38948136019396,-16.776405976854484,38.42045851386995,0,S01
1040,0.09866355748987927,-0.05173715682104514,10.150652591212634,-4.6043504415873935,-1.1292674354308616,0.6728688850190918,29.256310188654126,-17.21270687647417,37.63795531255418,0,S01
1060,0.09792532530079319,-0.05351752264211572,10.134582583419538,-4.434378656520149,-0.9156068942399245,0.8219402590960174,29.34492555012904,-16.463876801863222,37.83111671770876,0,S01
1080,0.10214964309098899,-0.06084223410608751,10.140688853747047,-4.85081177656819,-1.3142703001755656,0.8256139250434611,28.773817677498528,-16.185204954349643,38.02051623841992,0,S01
1100,0.09056552675619058,-0.0584520092901678,10.151900980555949,-4.004326258569757,-1.118017644261168,0.9294980578384127,29.76069275726447,-16.637052921794464,37.932960279318486,0,S01
1120,0.10286317233381433,-0.04228299581331433,10.145326541545518,-4.119876182495283,-1.2571630044682474,0.602658719453386,28.581932067768456,-16.255007720681636,38.116217398422414,0,S01
1140,0.09130626255967804,-0.05261386503744549,10.145895183805886,-3.71859784066863,-1.4837869616596837,1.0562251840661698,29.123918579895946,-16.887176569693693,37.51464475763604,0,S01
1160,0.10002586990527595,-0.057648213658395855,10.15383659154285,-4.221880514236398,-1.5076296052639813,0.37432975784755923,29.674906188114925,-17.466773064318495,37.36829345846936,0,S01
1180,0.10514953410111982,-0.04938813870877247,10.134442783796333,-4.91027729373013,-0.7739904583603682,0.6813731786425867,29.038469726201086,-17.09405142926969,38.050405878968455,0,S01
1200,0.1007894320496769,-0.05207144291568043,10.144653378225161,-3.6284427117920215,-1.4176905090992644,0.4015671175990607,29.713545645595023,-16.42446951295644,38.235754741341694,0,S01
1220,0.10339711450042145,-0.05693155398841019,10.146884280335934,-4.255492999022131,-1.2013871504172486,0.21422584837070313,29.04028526850691,-16.05232056212969,37.65213571406419,0,S01
1240,0.1071263229201513,-0.052428376375433974,10.1312644022127,-3.8681113880532636,-1.5097325069842715,0.5815907388226405,29.797024405417037,-16.41620167440809,37.400800918536795,0,S01
1260,0.09968217997389434,-0.06075990610647818,10.140884446846234,-3.7841532060006906,-1.5836549640029496,0.9528968988335371,29.417450405021818,-16.633043189773772,37.69880040487064,0,S01
1280,0.1010764328200201,-0.05597117253996846,10.146707943016853,-3.872372266463133,-1.014844976100727,0.8109725010702891,29.402115086511373,-17.011397046341255,38.135323351981455,0,S01
1300,0.11055137149414834,-0.052610349582661795,10.145343845898475,-4.180226872948467,-0.9903033725378297,0.6960393898203214,29.18100721436081,-16.350031581221565,37.315504365297805,0,S01
1320,0.09456878186369212,-0.06096472162717782,10.141447597927398,-4.255301110506389,-0.801761936486203,0.6455922039931812,29.39054109130389,-17.129836337116593,37.83329901259231,0,S01
1340,0.10339282109716404,-0.05827491323950834,10.14304066402362,-4.168697317880652,-1.3892183694267768,0.10446202543951083,29.12708708367412,-16.749204329648343,38.06424061229076,0,S01
1360,0.09692492125516089,-0.0593442506903572,10.149418180403869,-4.147293074363788,-1.6890640324294184,1.1281421356213066,30.014279327205504,-16.703495201550133,36.90692230581991,0,S01
1380,0.10262757795192053,-0.06474158886995382,10.145043023745401,-4.103959900413635,-1.802732360165395,0.4074503188765067,29.50700051947555,-17.409103644244688,37.86497822505285,0,S01
1400,0.09786261320026375,-0.06188686620778497,10.145133793924032,-3.8523439873099625,-0.7972994351833069,0.6419756181154551,29.129845082835836,-15.31673794085594,38.48045944286228,0,S01
1420,0.10020024845087128,-0.06511968176028982,10.14855058049726,-4.273728127489153,-1.3153987314467344,0.7101925154624966,28.919641841625047,-17.323111147774927,37.68233994954872,0,S01
1440,0.09396098688929097,-0.07233739096974295,10.145205162459929,-4.385849591004375,-1.0532737243139527,0.9924457218979879,28.97939764728569,-16.98253220575762,37.82818319154138,0,S01
1460,0.10437460811713663,-0.06893550101380437,10.138324584232114,-4.681191298407135,-1.4486413953316615,0.4773392841038561,29.180085857173417,-16.178627955333646,37.972370411238,0,S01
1480,0.09587080427666926,-0.06929970821919137,10.151296064264853,-4.701287211051869,-0.7116633378381774,0.6369556417639926,29.589983919571193,-16.85255061198,38.11406707687605,0,S01
1500,0.09804958986745718,-0.07091224540341225,10.139481460919107,-4.0580571812846475,-0.8796942196833222,0.4024369407444396,29.4807396784857,-15.525195897384164,37.595376475896146,0,S01
1520,0.10340722870873229,-0.0629093919318335,10.147140595638772,-4.101443507696659,-1.9363509503075198,0.8826553126202987,29.030373463420297,-16.80704712421889,38.339550654239886,0,S01
1540,0.09621725088289654,-0.07247271978919884,10.140915517793937,-3.7811841254544416,-1.5389829278967104,0.549902246699656,29.21110132823306,-16.375096505972344,38.01062901864428,0,S01
1560,0.10000013726996122,-0.06724568412095774,10.14354540701541,-3.9951994028038094,-1.0624134438588608,0.3540940920190253,30.23579233043731,-16.79113683983947,37.897686940963816,0,S01
1580,0.09707682887262462,-0.06640111860626305,10.144258661100816,-4.645540821569049,-1.0742486537337488,0.29142100461752596,29.082753084779295,-16.61759125429488,37.5782856430623,0,S01
1600,0.10436239184904407,-0.06850380520027148,10.143439671616417,-4.684595459841306,-1.2252773975031992,0.07809835028315737,28.753096544821258,-16.666437470451307,38.1410272675317,0,S01
1620,0.0980157834426299,-0.07261435833382517,10.15404675820661,-3.9252027463774666,-0.8963928676571653,0.962185772248384,29.118669229239284,-15.73613061283314,37.66401946942847,0,S01
1640,0.11092314225246194,-0.07056683704764063,10.14433236602078,-3.8190844407789823,-1.1645833867781863,0.6231530472240278,29.708011255287197,-16.28382143588087,37.15051715613651,0,S01
1660,0.0998130325902451,-0.07178305414417187,10.148805333585678,-4.277432634667765,-1.3113948395471204,0.31611057416293287,28.866586072050715,-17.353774719081144,37.77840319520688,0,S01
1680,0.09617858901299473,-0.08034434078232203,10.141813428815297,-3.6809415352880523,-1.478445847740969,0.5887440344192173,29.325662296111897,-17.07765737748384,37.891379411966035,0,S01
1700,0.10677989132623317,-0.07556775967310977,10.140529395248471,-4.1504177094912,-1.1289617477841378,0.7117007097597629,28.804463393663195,-15.311103130867272,38.15942735862289,0,S01
1720,0.09608352963341889,-0.08548396269191036,10.148917960307532,-3.4728348136851928,-1.4795956479755286,0.19306039101434458,30.06250723657213,-17.267568995612997,37.85735926536047,0,S01
1740,0.08733066554434138,-0.0832897268462442,10.141467135923612,-4.061866150261792,-1.422103228867888,0.32663547003210913,29.696533139082163,-16.884352018587876,38.021483151091296,0,S01
1760,0.0984874499030922,-0.07587833861343583,10.143740945190647,-3.9974625417162426,-1.5655924020964052,1.1034450166474423,29.343405179797077,-15.177691455984661,38.08051718954757,0,S01
1780,0.10685066067621969,-0.07650938973295254,10.156390476001393,-4.29996843685743,-0.716694340097139,0.43103562103396276,29.49769451714609,-16.33964249784721,37.308793509304984,0,S01
1800,0.10289372295533666,-0.08156290988051801,10.146415009183961,-4.378911047979483,-1.176805201488706,0.029565909460595785,28.744840978038,-16.570244481780225,38.38148205718204,0,S01
1820,0.10243608480256101,-0.07452160019843565,10.14011888535295,-4.507674835107626,-1.8098605624621102,0.3579807735402321,29.607754964136234,-16.72675260060032,38.03307670619454,0,S01
1840,0.10654165269191147,-0.07861337051517556,10.143927831054091,-3.7304188469398185,-1.0278881190582698,0.7357419582765248,29.251122838982788,-16.274114872117387,37.51496754248849,0,S01
1860,0.09157336271192178,-0.08109076762851603,10.13988934837927,-4.241169019096766,-1.2366867828283004,1.115879313595958,29.2108702816468,-16.252951515863273,38.77870614433256,0,S01
1880,0.098973184536974,-0.08137560972967435,10.14307401842956,-4.227674689315954,-1.239744587268217,0.8471499698310744,29.295906391349217,-16.04604565879346,37.895342902360696,0,S01
1900,0.095682212107437,-0.08572343063197305,10.14721584017754,-4.0281901628900165,-1.5911105635452891,0.45083139017960083,29.585738712219605,-16.608305674488115,38.21035058506233,0,S01
1920,0.10035864531897012,-0.07665212554030842,10.14761444081884,-4.3164242742174315,-1.1004113810774263,0.2947521140066461,29.216893501508693,-17.365378041796184,37.843685408956226,0,S01
1940,0.1082175890564259,-0.08126261638739121,10.147506289687987,-3.807119024090426,-0.9289166571194476,0.7542844971067025,29.00591384906206,-17.215302367195658,38.60278274052532,0,S01
1960,0.09805606490596395,-0.07422388421666228,10.154645259705974,-3.858980603936899,-1.4944169675693801,0.9164141507850737,29.465322138496276,-15.764152430571828,37.75873790909313,0,S01
1980,0.11018502655584489,-0.07919284379079271,10.140825321299392,-3.982163049242765,-0.9941490242247525,0.7426456225583727,29.321916108582595,-16.89222981953579,37.29099496840059,0,S01
2000,0.10090673753115782,-0.08359851862919358,10.140120324969951,-4.389450579151498,-1.365944623564793,0.7649396732911251,29.14043171438713,-16.271821566636223,37.929638156594535,0,S01
2020,0.0871264796769523,-0.08913701913458116,10.145925775556696,-4.092552575467541,-1.517107813891632,0.4864246863299123,28.802247427027893,-16.36989493497607,38.15409626070767,0,S01
2040,0.10222173349159847,-0.08761654699900799,10.149695948585517,-4.0971281402020585,-1.1742001158839224,0.46149172645702574,29.38731144092164,-16.311782395685654,37.26681993891453,0,S01
2060,0.1019765871600193,-0.08603872232662957,10.146017869683458,-4.3414713601713535,-0.9761219038453297,0.6413940294899984,30.012828095047322,-17.54445346263694,37.87432161275792,0,S01
2080,0.09121425334571923,-0.07999248183499655,10.146275959421935,-4.003772017172545,-0.7722421132668946,0.03573878218296245,29.865578695269033,-16.26779910599982,38.40126324889441,0,S01
2100,0.10433890216821784,-0.08666397439487405,10.143549035427855,-4.125658408671053,-1.3053127430854607,0.7447927512503978,29.26801778400149,-16.228001805405217,36.81607245921869,0,S01
2120,0.09535318577273572,-0.08778411374565073,10.136552291395391,-4.269368016741354,-0.6966456936428802,0.43740435067333366,29.462958078276593,-16.828408699228,38.0879203809525,0,S01
2140,0.09360806320375217,-0.08009535750094363,10.138754625116704,-4.195469502471334,-1.1122923388267811,0.5777019143302978,29.61060149924545,-15.957395511625956,37.843724348384214,0,S01
2160,0.09491832696019224,-0.08749984399537365,10.146230864254889,-4.081626689698925,-1.007830132401994,1.0867086205867988,29.091797477684224,-16.637229489573357,38.03958171292577,0,S01
2180,0.10593154035681956,-0.08934170523301048,10.142795111137055,-3.7873718680837465,-1.3590857573859694,1.1955215426690033,29.629057865170783,-16.729486518935826,37.676808801394245,0,S01
2200,0.10742537268331648,-0.09573373458426226,10.144014222719916,-4.471096908095818,-1.2691670703303473,0.2585741404989446,29.428881338305146,-16.934078021354352,37.42663563175133,0,S01
2220,0.10414265295120814,-0.08475295587649227,10.143597909894849,-3.955352666410038,-1.1753121206120447,0.751064406030092,29.624241895417704,-17.048581274947324,37.5309329598581,0,S01
2240,0.10617477931107115,-0.08881941942591506,10.15045330909839,-4.052293615443241,-0.9850363320733408,0.5656271814357722,29.424417112920263,-17.37068395322882,37.90202271025854,0,S01
2260,0.09365134777850469,-0.09481519717902798,10.138613069136815,-4.106328455419809,-1.8155243488091277,0.39547927183562837,30.28313697997575,-15.482991628691934,37.86647493355112,0,S01
2280,0.10386935643231823,-0.09076070748539083,10.14375316074071,-4.31850677020062,-1.3652188999343988,-0.07437492791016675,29.272186760605116,-16.480688837352805,37.35656076587767,0,S01
2300,0.09941645304874883,-0.08811554646894842,10.140250059219602,-4.4906321499187625,-1.336632808828599,0.37593041795896764,29.645309118423597,-15.478274255351899,37.400920259335,0,S01
2320,0.08951420694520282,-0.08717994106642377,10.150534472992607,-4.030059108564196,-0.9381737349311271,0.5767578185656864,28.67904446989687,-16.60428498535175,38.3699549254639,0,S01
2340,0.09312906537966403,-0.08704031106125817,10.147222080740548,-4.3899612070945375,-1.2436132189647753,0.6501917099590474,29.062283058769363,-16.638922160545405,38.07494072089272,0,S01
2360,0.09607905520671739,-0.08358389115384517,10.149309052290997,-4.1120681682982765,-1.315497081966573,1.0374427757527673,29.490548180372603,-16.064663836281245,37.86417715236778,0,S01
2380,0.09162126717881869,-0.08808560645489849,10.144554732092931,-3.858322406067373,-1.4254380338507868,0.6539290708970008,29.210356803386492,-15.965111305036745,37.18839783311875,0,S01
2400,0.10112696599065787,-0.08278488084532433,10.142846979564617,-4.117084922819091,-0.6648898926248679,0.9436674966399881,29.102952878629637,-17.24347528332434,38.50626715525703,0,S01
2420,0.10118719782938843,-0.09920224634450685,10.146844198026242,-4.089799110914268,-1.0452015849148313,0.3379977699970847,29.064387253960543,-16.190237016897953,37.43864363482116,0,S01
2440,0.10260695069394382,-0.09296505529312199,10.140509934226323,-3.9584076579901644,-1.2763844187345197,1.0654799741175587,30.042992778543127,-17.09743726567726,37.94052691415951,0,S01
2460,0.09490821694458018,-0.07639817716836833,10.141477698117836,-4.461717946156969,-1.3542837764513982,0.8560643879048995,29.765969577759815,-15.875955431891363,37.6843957648578,0,S01
2480,0.10007713625894764,-0.09463246565789142,10.140192960477723,-4.26109495897552,-1.3905309445637328,0.7662990330055384,29.70547050931063,-16.74709486103413,38.07151574934687,0,S01
2500,0.09535974117647233,-0.09074660257937062,10.144182390250316,-4.316749024049158,-1.3040618197246483,1.1611276876298644,29.280514988004242,-16.714190531530342,37.96179954208684,0,S01
2520,0.09393448520137386,-0.0853783586542612,10.14982177808081,-4.166279666288357,-1.4097290851799056,0.694726924340288,29.6308423433183,-16.967494236157506,38.14137998029135,0,S01
2540,0.10399328650199424,-0.08995756857864619,10.137452336378095,-4.4467803984600955,-0.9306834007566205,0.6824834433843476,30.4062172948955,-17.04031517765176,37.52511241080984,0,S01
2560,0.10445278347383134,-0.08618171904932466,10.146686193051686,-3.763205241526923,-1.0563578138617944,0.7428521704369073,29.319380088719342,-17.05672591194451,37.80725179562852,0,S01
2580,0.10009977245971066,-0.092304392199691,10.149700621267272,-4.17133794494205,-1.006650972596764,0.500689129091554,30.282942184858733,-17.19342462311174,37.63707620914297,0,S01
2600,0.09836167584099967,-0.09470275056007632,10.145412077342517,-4.4363721943848065,-0.732341032468272,0.8149318444743601,29.203073345525162,-15.987615408748097,38.03412809738944,0,S01
2620,0.09506784141724191,-0.08023272253346128,10.147928731548372,-4.2275888833421105,-1.3032489759611776,1.0089274019695222,29.066200621303928,-16.00930458147961,37.776756719164446,0,S01
2640,0.10764807312724047,-0.08641135949249587,10.152118732323336,-4.359990322316424,-1.2686640981072326,0.4773548241113542,29.447967870269448,-16.366424705555254,37.377268809727695,0,S01
2660,0.10694662174168262,-0.08856363879526173,10.152548418519665,-4.2132004595792525,-1.071736231435812,0.5684429538767376,29.780916839212267,-16.315130043517527,37.635773800132995,0,S01
2680,0.09358036153324101,-0.09298816478245464,10.151147899057115,-4.293001518958149,-1.1964250787196085,0.8309519119155411,28.876343584292965,-15.473219390857816,38.09980511349216,0,S01
2700,0.09059160463524486,-0.08589173632779834,10.14735382382297,-4.312549986283804,-1.721541092334235,0.7751939012653457,29.502184712422796,-16.064017080591395,37.97542609637788,0,S01
2720,0.09742353781633378,-0.07867004609134678,10.14207480526697,-4.149579419459231,-0.7164538040343454,0.5122103353239843,29.817551820455368,-16.980260602201636,38.322240125059956,0,S01
2740,0.11161437215410487,-0.09094196078336396,10.142629736647432,-4.2700783995702984,-0.6462324541698178,0.7509697832853424,29.75077283546369,-17.114423377235205,38.4240525680545,0,S01
2760,0.10187471831050318,-0.09371968237888148,10.144083388951339,-4.083954177512328,-1.4271473387014455,0.6546496380329272,29.059507645819608,-17.18807066398645,38.18319084333736,0,S01
2780,0.1007846221941271,-0.08683928816103238,10.147041972587017,-3.849418135446581,-1.3007413781402601,1.0661883726126111,29.28252287868504,-14.874979053945722,37.88300803642308,0,S01
2800,0.0997786717742527,-0.08791933565278748,10.15075194610179,-4.213742570743329,-1.69898238702037,0.7083572813341551,29.593398288288828,-16.69752166174769,37.87760713063724,0,S01
2820,0.10546349025158598,-0.08857323992940336,10.155796894039577,-4.242754090366868,-0.8644878308996975,0.7689606706529666,29.8897982031986,-16.028457954633332,37.308567750116076,0,S01
2840,0.09523467891386554,-0.08401030935727995,10.136853753493341,-4.634225104239436,-0.991603147240766,0.1810849828661527,29.92593919979121,-15.965908190652984,37.738118240330564,0,S01
2860,0.10234189508463314,-0.07565181370022886,10.147756655752602,-4.2627839841799675,-1.3329267594857124,0.46642285995686317,28.885647321636732,-16.964703648246562,38.065643431245306,0,S01
2880,0.09244721474402406,-0.0782354901030002,10.151064735418922,-3.957078316044185,-1.9011065216093654,0.7906877909763923,29.191736983816913,-16.127527547088846,37.64785390362055,0,S01
2900,0.09725659348822341,-0.0773683766134728,10.151904148602611,-4.295560811726604,-1.5268164286228685,0.7922850082639427,29.62844447726568,-16.8044279444221,37.52630913449695,0,S01
2920,0.10214832920254098,-0.08458539448196857,10.149355142045504,-4.149112542916555,-1.3841544128851804,0.4900077420853415,29.53413730069004,-16.467007839939587,37.92961163320972,0,S01
2940,0.10674185207624137,-0.08835964276304545,10.161195816774782,-3.804576706450751,-1.099565640994732,0.5956201221695127,28.802894397237644,-16.225643263757522,36.50146824799289,0,S01
2960,0.10525562462771619,-0.07824518838050944,10.149113754714692,-4.298947577842465,-0.5907078856609843,0.3015966918728096,29.230858287296353,-16.123924207942835,37.58736568390605,0,S01
2980,0.10623568162502744,-0.08492532767554313,10.147945107584325,-4.287583486376629,-1.0357275038846308,0.5327598625812979,29.120189599188794,-15.85733508580112,38.11492475795075,0,S01
3000,0.09393738871225404,-0.08704826190638408,10.14574658585923,-4.122314797958576,-1.4082159574201716,1.5159021332557514,29.680391823238782,-17.182112779660333,38.62310381364183,0,S01
3020,0.09694859967285703,-0.0766264890616184,10.145718148695753,-4.600177077648523,-0.8540922081991745,0.9829553790060104,29.521039024158295,-16.788984704111552,37.85543695044643,0,S01
3040,0.09922392887855848,-0.08084310044289508,10.142575662695226,-4.469631865750493,-1.0712880100739004,0.8399340462887557,29.465665589029264,-16.6594958463845,37.47572193810703,0,S01
3060,0.10403501521657749,-0.07436760993335717,10.138103429509746,-4.511040485796462,-1.3599004194508508,0.4470243898583707,29.533216577709236,-16.104950482107462,37.418203903596,0,S01
3080,0.09771422767437242,-0.07211294955139357,10.143853766304964,-4.176040288283677,-1.889377746250378,1.197766548751775,29.548344366518347,-16.86194564596103,37.651093547429696,0,S01
3100,0.11223757006717276,-0.07226411118146359,10.152442982208347,-4.065190256042462,-1.0580440840089946,0.4773774273865282,28.786944268341664,-16.46291319453161,37.71733675799048,0,S01
3120,0.09295822052128047,-0.07515176954744913,10.143170895390696,-4.218020431046398,-1.0272037288178284,0.9345171578397323,29.091434949966448,-16.44257984590508,37.84676331788562,0,S01
3140,0.10595174050005435,-0.07085778225019622,10.150722202766888,-3.892022221164802,-1.3883288987746862,0.7053848456877834,29.785435263193605,-16.81968379059783,38.25645140567177,0,S01
3160,0.10659647539913208,-0.06658974596653716,10.144429822596745,-3.5911659991536498,-0.7812287229684252,0.5640843181740488,29.17441852782986,-16.98614762009647,38.021442580927435,0,S01
3180,0.09374221062720947,-0.06682851377237321,10.144824044534326,-3.690239210885386,-1.068334594327273,0.695450466186744,30.032860831078583,-16.396797225736226,37.67312211574461,0,S01
3200,0.09681001591851222,-0.07893018532162893,10.144131110181942,-4.372376669737651,-1.126021353256508,0.957968321206458,29.016784776799213,-16.48644348658419,37.88957884819034,0,S01
3220,0.09707991552954753,-0.06838311493457838,10.146931287888206,-3.928252608644838,-0.6281300936999488,0.12588441602285527,29.23655207048527,-16.584658131720282,37.714157047088925,0,S01
3240,0.10448798638192672,-0.070595302509885,10.147904739582577,-4.557843364124163,-1.2509422492253335,0.21315061282263875,28.89039476798426,-17.423645476506948,37.91906194408139,0,S01
3260,0.09879159633994405,-0.06621541421189064,10.13696035477561,-4.406695804540659,-0.8236967385194549,0.48660986062937733,28.910017195441892,-16.772672375127556,37.59886818605922,0,S01
3280,0.10009070791855598,-0.08060215438450472,10.146801567536928,-4.669524917291488,-0.7136787588760385,0.26357310718748195,28.970473509614784,-15.729575770207129,38.24890629914768,0,S01
3300,0.10016542150641934,-0.06783756796720712,10.15211621006469,-4.061593632264494,-0.8458891905090441,0.22403048952488153,29.353914790577967,-16.36614583395425,38.152773137207156,0,S01
3320,0.09875536332555788,-0.06759739660297892,10.144351800375892,-4.381291858820009,-1.1263420371164672,0.6823237760367946,29.251621621510456,-16.412471648251802,37.665793648399365,0,S01
3340,0.10003430317137878,-0.06435975420471719,10.140246858910363,-4.126912007429075,-1.0436541711160099,0.557438756927257,29.553887277101673,-17.388317239543735,38.129126289751724,0,S01
3360,0.10150035490613016,-0.0659387424131738,10.146921370680115,-4.161548446876458,-1.1516740257272136,0.24568662000545416,29.062076316439214,-17.41543781725133,38.000793087991866,0,S01
3380,0.09776973374945808,-0.06492562332339812,10.154487241423528,-3.9155085768771327,-1.1836662274059508,0.704937353580254,29.50792202683509,-16.724199905769794,37.276592545557754,0,S01
3400,0.11001935096446692,-0.07652935000461386,10.158808075421986,-3.7612556590668005,-1.1915897289068555,0.6143708830542665,28.98997697511028,-16.07843875609675,37.403048080348455,0,S01
3420,0.10478218462489639,-0.061084821250358745,10.15190930366316,-4.747113546133504,-1.4846501614036802,0.975446646286662,29.46148453522834,-16.89209753119151,38.549573394543806,0,S01
3440,0.108179031502926,-0.05903462000137499,10.141525171424902,-4.439055685607661,-1.3449548613509215,0.6412760654930538,29.826667613789198,-15.700800463642638,38.469131697405544,0,S01
3460,0.11122035879849855,-0.06509923764901092,10.142997384518546,-4.226066581189381,-1.6187846268740589,0.5432884385406058,29.526055536405327,-16.39622182762592,37.83267141457224,0,S01
3480,0.100992984055196,-0.06116225778235762,10.153341969527794,-4.315087532237725,-0.9110168094704276,0.21550427340156725,29.36385773427524,-16.145284125775326,38.045703543524425,0,S01
3500,0.10736042182461754,-0.06255760036345594,10.137338341019387,-4.364228526469543,-1.1451686915437564,0.5765171728496983,29.824051384047713,-17.212721978842502,37.300448501306555,0,S01
3520,0.09846599846418153,-0.06173557991783176,10.142817912139058,-4.124909123627299,-1.4244175967721209,0.17991411235270394,28.7875578635836,-16.522713346381853,38.48541118034245,0,S01
3540,0.09975255551691457,-0.059090214752498066,10.158576989233662,-3.916798502443532,-0.9460847344359744,0.40296210608329036,28.423868908517523,-15.225054356054768,38.10257358633176,0,S01
3560,0.10365141644599321,-0.058279227646160406,10.150310943791332,-4.28809291100918,-1.3802289280880282,1.1105532900014756,28.972509711338628,-16.44513439421202,37.835138533034296,0,S01
3580,0.09943430120155096,-0.06329921783489235,10.140353470125765,-4.23418545034209,-1.3354338853190073,-0.007161754316484803,28.899035318091858,-16.99141832432651,36.54330650027706,0,S01
3600,0.10402465952371703,-0.06124066773977682,10.145853218896711,-4.350826699156813,-1.3923547662218219,0.7099582318848296,29.190953250020083,-16.718072464340494,37.2343045701777,0,S01
3620,0.10238606146334388,-0.060882071663143675,10.14657916238526,-4.119162207928057,-1.0217344424777213,0.804868793074258,29.5749585261501,-16.038191922492775,37.65930320421611,0,S01
3640,0.09480170776005648,-0.061938182637811784,10.147556927700506,-4.2531366664045,-1.7213538075103192,0.2782044584702229,29.02425241434472,-16.796588975362653,37.673226787328886,0,S01
3660,0.10211087051985518,-0.05412977790856374,10.151504583526693,-4.566886470549852,-1.0917740809697936,0.2817096011741068,29.849989978309495,-17.159301252046035,37.24538643611001,0,S01
3680,0.09777074001980905,-0.04921367274504358,10.15293730190563,-3.8490491534226363,-0.6007942230609743,0.8889118203458907,29.253281996598176,-15.66815945004286,37.16560358719105,0,S01
3700,0.09910280684218502,-0.05794708398397175,10.144769148418746,-4.046172005836978,-1.3111923858447152,0.35748089932266885,29.241143714641417,-16.587732233411934,37.81452501329601,0,S01
3720,0.0987054775973695,-0.04962970766261218,10.155684714382394,-4.664722947525308,-1.7761551237054287,0.3239689606654709,29.272556043286837,-16.170126414809946,38.10843960376516,0,S01
3740,0.09435116376941168,-0.05298344881058628,10.155722109463367,-4.588938601626634,-1.4634498637089457,0.7649576789604995,29.622206800903292,-16.03576816561423,37.642996677352436,0,S01
3760,0.09484873097902953,-0.0579328808154611,10.147203493900719,-3.85033033989793,-1.261166258518658,0.363820750904735,29.130776989684247,-17.04015217217955,37.56979211124975,0,S01
3780,0.10489949163621162,-0.05531983034063836,10.141724091234641,-4.284193372702981,-1.032989030423484,0.4194314258990578,29.834641996730774,-15.724841281381536,38.22489223149244,0,S01
3800,0.0989355670337848,-0.056071889787623806,10.149808179128403,-3.9911041736614767,-1.1993292287722104,0.7410616656935799,29.43197933460553,-15.870303261569752,37.541594160534544,0,S01
3820,0.10971107398045284,-0.05936804598317747,10.14411192773397,-4.262333476041158,-0.6162677251405418,0.6437215822690696,30.07309368057102,-17.197054774680264,37.83159766890046,0,S01
3840,0.10668872906518483,-0.05874012693354852,10.155478621570156,-3.956802464531285,-1.511277939905037,0.2558868842056071,28.53343113312558,-17.42416902676952,37.30219279441335,0,S01
3860,0.09689790203720826,-0.0506858027227088,10.156326824737704,-4.398467575887017,-1.2474951014622762,0.3269381932282711,29.59911206427061,-16.2283223370515,37.20260692201087,0,S01
3880,0.10002720526485989,-0.04923509568906499,10.143687306483512,-4.646586618185957,-1.4049498955032924,0.4150683048681138,29.280455073088152,-16.21411354685244,38.83998750255977,0,S01
3900,0.10045182011812978,-0.04631841756584512,10.145249119578722,-4.57779845680473,-1.089411258444298,0.48906588415951424,29.480733765010424,-15.93653127127968,37.69343729484049,0,S01
3920,0.09272065488598419,-0.04414045377740693,10.142552190133092,-3.9184411884629524,-1.2758633528431393,0.6134329755224529,29.74965422819542,-17.26937130600823,37.10526547456821,0,S01
3940,0.10808903050325729,-0.03677246939482384,10.142893654350553,-4.431868726763204,-0.6776088843965647,0.4923191538399326,29.385058701877078,-17.093420590386007,37.48807376923526,0,S01
3960,0.09635437765167106,-0.05042089757143585,10.14315048136694,-4.399546913006821,-1.2851850337701005,0.5272302503099966,29.372109942479888,-16.76062139210448,37.405907847748516,0,S01
3980,0.09696009866693381,-0.05610738938774042,10.145178437050822,-4.275666393137244,-1.0469272491514705,1.0095642061438013,28.992512041451313,-16.92430913499407,37.461014772994005,0,S01
4000,0.09618843012817083,-0.04618934521466825,10.136749846635034,-4.303279204093683,-1.1471237610092682,0.8180531219917474,29.081025612092514,-16.671632626799475,37.39456726505958,0,S01
4020,0.1012504508615571,-0.0486709948260548,10.146984477026969,-4.356486226738909,-1.1162274128072178,0.5385243896656671,29.306688954267393,-17.50755721112798,38.01604916526394,0,S01
4040,0.09907293724656037,-0.05136111443664082,10.152178938078242,-4.309496074921212,-1.1320702484169645,0.5786888280737943,29.151975519841898,-16.324875686276584,38.50685488166401,0,S01
4060,0.09326008625622105,-0.05372998392742245,10.145843861560424,-4.109931625058046,-1.0159499768826927,0.49286208490502426,29.11704896336484,-16.645240323690874,37.683137939821584,0,S01
4080,0.09759507612396917,-0.054155742810740586,10.134635617182614,-4.169614144199597,-1.0436143174298202,0.6200948396079846,29.624757220175923,-16.415776987732055,38.032456036702186,0,S01
4100,0.09636978409539257,-0.048967519964110966,10.149708702371248,-4.556307568223733,-1.1085816846423158,0.5424981071164309,29.75535672344584,-16.234793800862207,38.38915955932393,0,S01
4120,0.1024453796538656,-0.057831552593327715,10.144832851513975,-4.68775237833048,-1.0825168432190158,0.4401227965113979,29.583004191074828,-16.318673605576034,38.68392835022348,0,S01
4140,0.1008048988180552,-0.04898904721410607,10.14188817153274,-4.333298254424252,-0.593293185672021,0.5173643426921296,29.60148092524992,-16.691698617615106,37.933350749034,0,S01
4160,0.10452013049996355,-0.05075375030672894,10.148318121436919,-4.664759355213495,-1.0076827648666198,0.7411671292286618,29.649091279559066,-16.846675911137055,37.91671220638308,0,S01
4180,0.1107977961229889,-0.05517926819371236,10.147120584745947,-4.014928373715934,-0.7562159139453488,0.662113587219222,29.554678097563922,-16.29150112165832,38.53387574689798,0,S01
4200,0.10144890773284665,-0.054247135494466386,10.152692969574412,-4.242749391685014,-0.9435621645747407,0.6731156073367754,29.66670865447505,-16.63398679639794,38.90605064869181,0,S01
4220,0.10746863855221482,-0.04791928088155825,10.147317061622749,-4.098153143639219,-1.170528975300631,0.36492739956948206,28.93647629228172,-16.043166169489407,38.13721551128562,0,S01
4240,0.10159125471565303,-0.04738988917656685,10.14127178027409,-4.884126754473109,-1.173041617928178,0.8477930314469198,29.49337932938055,-16.70385695486949,37.70153460150684,0,S01
4260,0.10591587904828502,-0.05214768705905914,10.152524357645133,-4.529156282313748,-0.8939779341402498,0.5408891398044132,29.94436524616283,-16.420825386815284,37.95243060131098,0,S01
4280,0.08977018804357527,-0.052603456540459434,10.14295503963404,-4.132439199355157,-1.0563424346729382,0.5733539340076135,30.03136466276979,-15.761846302785036,37.26985803730692,0,S01
4300,0.0965495608674185,-0.051128117244024426,10.15146186800781,-4.342544052223459,-0.7724626227282383,0.518109301395915,29.081419589329652,-16.26438976410647,37.99922844773286,0,S01
4320,0.0927683828343701,-0.049159630902211864,10.140693541378074,-3.7544417156820407,-0.978567966934722,0.44567086005642154,29.39183669077019,-16.712682914566344,37.398448271201325,0,S01
4340,0.09569968258313905,-0.0522604442301833,10.147712166387695,-4.216373582652144,-1.4324769744922439,1.3287581335454985,29.18388091435125,-15.856235628899396,37.800109624236114,0,S01
4360,0.10061526390511763,-0.05798110405996421,10.144902050368035,-3.9215585684795946,-1.283367976423965,0.8627325268236986,29.735654473955453,-16.093114188318374,37.903454054091625,0,S01
4380,0.09011578793387093,-0.046252787619798626,10.14675126657581,-4.139364512225986,-0.9971153697785241,0.7532876602733117,29.29109182616428,-16.300586516915086,37.91206685922178,0,S01
4400,0.10932023064292748,-0.05528889999878471,10.14804901795136,-3.780717070018481,-1.0908338020246986,0.326015713099015,29.624175507539462,-16.782185819893247,38.4766552439338,0,S01
4420,0.10827586838290142,-0.055875345253719615,10.155876879907526,-4.158549957821343,-0.3443358514983331,0.6576330487785804,29.15135619324426,-16.983287014724013,38.131175430367435,0,S01
4440,0.09991381272781702,-0.05472089788458641,10.135665073335666,-3.54008953086642,-1.2787718523217646,0.21958162853513186,28.691841624219883,-15.736562228446697,37.37339784799891,0,S01
4460,0.1034928881117438,-0.05201685350049748,10.145908596454564,-4.327975133896096,-1.2467672418436613,1.03208829791628,29.57962291190867,-16.972080356164728,38.53090277098334,0,S01
4480,0.0934611998676951,-0.05762595956590844,10.141496780675523,-4.25191498869812,-1.2344781619977903,0.12221794299164213,29.549228979063464,-16.735034566655365,37.674191164632035,0,S01
4500,0.10377823312035409,-0.05884168071901877,10.150030071199925,-4.343317043907886,-1.1086114687516215,0.5659223146807892,29.605127240619858,-16.480403816127136,36.78547193693252,0,S01
4520,0.10665513602293994,-0.056044710771939135,10.14665197010437,-4.527760202202002,-1.2986623572708664,0.44385027338399485,29.27906015810653,-16.87940644390186,37.74556877641317,0,S01
4540,0.10850092641261294,-0.05448581893322698,10.142960814746232,-3.7191179595954016,-0.7964501561987037,0.30527210194758087,29.226779509723787,-16.456467043290758,37.54612726711945,0,S01
4560,0.09936868507776153,-0.062427752670752894,10.14046240659587,-4.656899954995068,-0.5680806105390976,1.1566064314277067,29.334185321282874,-16.595121530184112,37.79992889553541,0,S01
4580,0.1007932205088627,-0.05832736513933243,10.147545411325844,-3.9297186504504382,-1.200003975561899,0.26032706901922953,29.285533236679,-16.193227315906086,37.821061025358375,0,S01
4600,0.09863059528395811,-0.06571513981791662,10.148307125445072,-4.3473344149383015,-1.1050606776076017,0.7730314654664674,29.308563032456643,-16.314863385393664,37.185873597027204,0,S01
4620,0.09193063108116344,-0.07105591826860168,10.1461156299357,-3.848020413740872,-1.4575582633077149,0.8471091288919448,29.242514913129675,-16.788567460262612,37.017560797087135,0,S01
4640,0.10675230842330402,-0.06565462718236348,10.14397058715822,-4.222067190687598,-0.9180631848193985,0.5352380655089211,29.80633437601638,-16.2434876175407,37.76295018288535,0,S01
4660,0.10697390124192874,-0.05954489959573486,10.153310546681501,-4.277860214059197,-1.2943762742679203,0.7160128243803998,29.045171748212283,-16.35538760328622,38.7869190406201,0,S01
4680,0.0989308553392913,-0.0609045374416298,10.153048235685663,-4.246233940894708,-1.2219087770223909,0.11406258747006187,30.06318755174541,-16.154561175243668,38.19402031086969,0,S01
4700,0.0989065431582578,-0.06872515607932032,10.146136784587897,-3.924535052357601,-1.1284944085841566,1.0071367783465766,29.14539852882104,-16.5819864005648,37.99968613130161,0,S01
4720,0.09685927040080217,-0.06870038743139556,10.142654069377148,-4.019021505807234,-1.6614182203197032,0.6064783453766419,30.101648056708882,-17.59633509771934,37.33699245845189,0,S01
4740,0.101669827488168,-0.06951603263326041,10.142367031770483,-4.484417271576718,-1.2439244108392096,0.6828138103914665,29.293755112400813,-16.01894542261381,37.390759155131164,0,S01
4760,0.09393032249587416,-0.05939732824565082,10.15081167898617,-4.272137562168929,-0.9319425035024569,0.7184035156191592,29.84404763090782,-16.313594225390823,38.51953420172669,0,S01
4780,0.09637735743081455,-0.058732966728409865,10.140094890200192,-4.354652132863398,-1.5044635344031987,0.1233853777218823,29.72199757016798,-16.589931124611965,37.98319636605471,0,S01
4800,0.10169326449712335,-0.0642202878939795,10.155951239829868,-4.022094659366807,-1.0351922671610223,0.3700990950773218,29.121229919733086,-15.489598770153389,38.4721796307588,0,S01
4820,0.10655019397724765,-0.06697160557123444,10.152558640384909,-4.133414207099733,-0.7443416015917939,0.19095830556129667,29.63334225870275,-16.322756822563043,38.07678637633342,0,S01
4840,0.09265119779106186,-0.07081988755953302,10.151408891379997,-4.09781009763723,-1.3708296873673047,0.7923553442142748,29.34106622594345,-16.613270856494523,37.21925901679907,0,S01
4860,0.09711069865124852,-0.0696840166275378,10.156357763940829,-4.533310084354023,-1.1972334860581506,1.0003207012649604,29.58999249485162,-16.944843545620948,37.17515412520403,0,S01
4880,0.1022380522151523,-0.06741398936799797,10.14058999034938,-4.084047667623219,-0.5804521784581893,0.4564709658125403,29.3104660104851,-16.79551691223363,37.52898704425904,0,S01
4900,0.09333486900955754,-0.06800983463656737,10.150563878915714,-4.010559313346831,-1.5108599345937705,0.26515807982771605,30.28889545995705,-16.30223858254123,37.02404578505656,0,S01
4920,0.10452428819539286,-0.06642850610342774,10.142205641497647,-4.487173427959208,-1.4387067403109317,0.7849704482674592,30.074491152477222,-16.568835691466067,38.0783630335345,0,S01
4940,0.10047132857263955,-0.06484655302573389,10.141511691591088,-4.355433046800781,-1.2465761143133378,0.48255896193285824,29.47789430497697,-17.237827111375346,37.27226479019876,0,S01
4960,0.1003020121337135,-0.06863403857066232,10.15073295793965,-3.984922360053151,-0.7995846181328916,0.33934176048457915,29.81648976052635,-16.0005474507853,38.46956102123132,0,S01
4980,0.10712194568627498,-0.06803850976002014,10.143959010638717,-3.600028915588626,-1.472563157233558,1.2953225407476432,29.034757769648092,-16.753776562607918,37.83272771349584,0,S01
5000,0.10865360869639291,-0.07659235981896884,10.145432283194992,-4.44171621854802,-0.5729629476116349,0.168533527839836,29.377144079943772,-17.547594578532397,38.04231838164766,0,S01
5020,0.10051434384674232,-0.0755846066118486,10.148970540269454,-4.295108272342558,-0.9223198388960261,0.651147286918721,29.986785135984178,-16.458452956110577,37.254123457570785,0,S01
5040,0.09785299199991283,-0.07239348246419296,10.15017094924964,-4.003073485183359,-1.1068275118529838,0.9719867513584314,29.342362976457295,-16.388903424114126,38.465799105725964,0,S01
5060,0.1013970536588243,-0.07970695317885744,10.14431199221839,-3.9720776158222586,-1.1415324883249478,0.3543974819970801,29.595145636341826,-16.30819985587127,38.01227753812498,0,S01
5080,0.10185385776218643,-0.07307665724015588,10.148936732235056,-4.7690194110439545,-1.2779496858662347,0.260483369599123,29.23838903258431,-16.419204597921905,37.953979527726695,0,S01
5100,0.0993967659524759,-0.07061101357784029,10.155127754915403,-4.403513903189797,-0.6116482606882577,0.7511089467864078,29.46279591581253,-16.788812193922233,38.3319421245907,0,S01
5120,0.10739249981528813,-0.07969658874380207,10.137084009552483,-4.515758593788336,-1.3428142441693187,0.6839347920892929,29.217588759465727,-16.51820578166018,38.12876268753378,0,S01
5140,0.10438195766374157,-0.06464720053391888,10.136138057840784,-4.534790783143656,-0.9950951019539473,0.6220987443854624,29.587722592523324,-16.420631680511832,37.62838814721107,0,S01
5160,0.10021349576861355,-0.08002774918487571,10.14532973232604,-4.748607363245677,-1.0820320412631184,1.228393793920437,29.244189408700848,-16.294590998462382,37.993923720946995,0,S01
5180,0.09727340003162327,-0.0744971859612303,10.14695509811179,-4.543454703090554,-1.7168985401441623,1.039154660575436,29.957132337733682,-15.69868206384261,37.555846713872825,0,S01
5200,0.1011997638274023,-0.08308657751452439,10.150503747452158,-3.304519245808833,-1.0764147400171098,0.4964138543040116,29.082741946509817,-16.407651811988323,37.99824201512337,0,S01
5220,0.09588760356118925,-0.07878275895714663,10.14329870283008,-4.021965432828002,-1.3873473281663573,0.5722219267071423,29.717605172354013,-16.457135385211725,37.301181794766215,0,S01
5240,0.1008266687012512,-0.08886106679038794,10.154805476329354,-3.9555882753411775,-1.2931826824109223,0.6104883135793011,29.156016757206825,-16.66768449705396,37.80759868373005,0,S01
5260,0.10211252957891884,-0.08518547102752641,10.146416682384512,-3.8715066578619863,-1.1711128910925221,0.6352624960259751,29.564119597141126,-16.108138135231528,38.75749345688451,0,S01
5280,0.09631082671207708,-0.08631578237362358,10.150546331947634,-4.214826520001724,-1.2806080262778547,0.17980308643161574,28.968964862534705,-16.970241845672174,37.49411552613949,0,S01
5300,0.1014319317593776,-0.08741286183836368,10.135469438321204,-4.324193887089754,-0.8495725563661409,0.5844896033675608,29.508689410194137,-15.961320051938998,37.59998603563729,0,S01
5320,0.10698109609605157,-0.07923134037394525,10.144969979017516,-3.8893096431312655,-1.0380526103384229,0.7503410058697974,29.115061126818755,-15.883884712030225,38.01603259429408,0,S01
5340,0.09871426253396591,-0.08113798584985125,10.153807132554919,-3.7734099853503693,-0.8952660185708905,0.9404891368046551,29.91230932583956,-17.270055280192572,38.02299069178051,0,S01
5360,0.09550122303142781,-0.08866115135528521,10.143988407702764,-4.260183532035962,-1.122571792573793,0.9986243599061275,29.076564821930763,-16.377136937665803,37.744839669104586,0,S01
5380,0.09853926659080278,-0.08114499862622956,10.141693490696802,-4.164955876626832,-0.8421400968189523,0.22395262573421482,29.811642688684838,-16.280338640611852,38.218767541547535,0,S01
5400,0.09517205071349795,-0.08793633516711177,10.147716328778644,-4.27706646384041,-1.3132096773873543,0.5087441180932997,29.81305983170003,-17.29689492179844,37.662555778296415,0,S01
5420,0.0968368231881276,-0.08312594569559259,10.14669437380287,-3.650859507187088,-1.1913709302555109,0.9685595279809283,30.035524584192704,-17.427398009798466,37.87872761859967,0,S01
5440,0.09492997799497539,-0.08721800614048804,10.145043406161369,-3.952344452244402,-1.4290370708925155,1.153189441210432,28.856510440796285,-17.222691419405464,38.14056749585478,0,S01
5460,0.09339456419774589,-0.089714816684952,10.153262564070511,-4.888577704215458,-1.680182669137979,0.5601814131684617,29.987561025252575,-16.460128611641245,37.6371647605501,0,S01
5480,0.10023799691900433,-0.07090917338834382,10.137833243945211,-4.235315009603876,-1.5254381166989486,0.44963392290748483,28.901256511823455,-16.809101469879508,38.118722501561095,0,S01
5500,0.10146348255199349,-0.08900795210078331,10.148606151797534,-4.075373637405744,-1.2518938799739057,0.3127725908541439,29.416198155560686,-15.814809287166206,38.09382455946578,0,S01
5520,0.10625121320457943,-0.07557411889572108,10.155318787934068,-4.296580081348394,-1.1434174092069498,0.17398715192175185,29.57788065951136,-16.191975545993937,37.354253778520544,0,S01
5540,0.09405162179040322,-0.0874627036015613,10.138131568865328,-3.872366825134396,-0.9417992785672729,0.6970764215233861,30.189114407297037,-16.25275090155349,37.41420789549432,0,S01
5560,0.11246210088663176,-0.08755521970440325,10.147333478234636,-4.2534178396596865,-1.3081582283028543,0.4139051655262749,29.32648186092153,-16.602601283176927,37.49189570967285,0,S01
5580,0.10116178475436285,-0.09684789319695582,10.145942004013731,-4.627171807497268,-1.3765562443101755,0.7392721213991563,29.707398704455386,-16.165162650348275,37.614004342053036,0,S01
5600,0.1013859045868789,-0.09025801440691451,10.149210469406151,-4.8912596003967606,-1.5379132482310223,0.5528497586155787,29.868876237812167,-16.67589790295037,37.966596181146144,0,S01
5620,0.09929942884378187,-0.09136562091439385,10.151118067631407,-4.241174938965098,-1.264136224646653,0.9435615849815951,29.04962661495694,-17.440360416204317,37.257043030993835,0,S01
5640,0.09795457807681363,-0.08529617678078227,10.144876776028266,-4.272830768655158,-1.3142642337528656,0.27766541525883254,29.645596965994592,-17.142478711219496,37.72441062450753,0,S01
5660,0.09552144554701875,-0.09506170163188268,10.146740428932574,-4.343306730695032,-1.808843614951746,0.06668777002276416,30.195172967167654,-16.825244894659743,37.6310620688931,0,S01
5680,0.10279640817751148,-0.08289454297861856,10.153802802945814,-3.9493797385559164,-0.9367872331853591,0.8530903951596087,29.257186343116373,-16.45936189887982,38.13037159176433,0,S01
5700,0.0996394136001867,-0.0937966526015938,10.144400537350545,-4.458282133726861,-1.8886082785121534,0.8808597821212107,30.302715840377115,-16.641871426526937,37.73990595586662,0,S01
5720,0.09964909688596217,-0.08282407430004397,10.153585555984252,-4.036503853084682,-1.2039720452369231,0.33009385766807064,28.58626809884714,-16.076274020094267,38.19633904109919,0,S01
5740,0.10085653634304337,-0.0938275465044422,10.135513232849112,-4.674933556717502,-1.495604705030243,0.79205085228115,29.09040387354504,-16.368107439636404,37.53168774897106,0,S01
5760,0.10661903537147313,-0.09259795906186491,10.141544304865095,-4.176921210407858,-1.2381871381043927,0.8969609872160372,29.348245058663448,-15.541928142667004,37.96315970350086,0,S01
5780,0.09550698095859537,-0.08833598998857622,10.153153640338417,-4.1350277653412135,-1.0554909360341782,0.1957168304845074,29.781676784139552,-16.93493893292851,38.153583217943336,0,S01
5800,0.10299843231679467,-0.0891358543016472,10.143673952865342,-4.278214725768823,-1.5529449214537365,0.9823652898941857,30.141092657878524,-16.27317299613878,37.676094994716955,0,S01
5820,0.10492488372629961,-0.08121528800036142,10.147750258218629,-3.9668314918739664,-0.7562827933882759,0.6131648866534903,29.3877076893309,-17.399740663379408,37.621834958237095,0,S01
5840,0.09263520399747763,-0.08297232718822027,10.14367046203044,-4.065956281808833,-1.349295532619915,0.5096241383655545,29.472878058744826,-16.845812269760728,37.65889523466595,0,S01
5860,0.10089121910057024,-0.08989024012592522,10.139704856356486,-3.9804795225178293,-1.4226878310601572,0.23488938126962577,28.977808084726153,-17.097193872562396,37.935808295350284,0,S01
5880,0.1050332316996317,-0.08600217858664325,10.13778132423242,-4.038884277441134,-1.3283676933224355,0.6483014807156163,29.103304958569044,-15.97280210344893,37.779938734082705,0,S01
5900,0.09476878751447139,-0.08539114173258706,10.140783164393985,-4.1696414472084715,-0.4215544306545681,-0.09393765090022055,29.078726417595078,-17.12231416439454,37.68961683030571,0,S01
5920,0.09983544251427733,-0.0845613729369303,10.141614470946786,-4.419240180452892,-0.890559801857724,0.5827928214021906,29.841302671685142,-16.682984094361018,37.887947620260206,0,S01
5940,0.10339738523399265,-0.08295799694530068,10.15510319061417,-4.27239110716618,-0.9804595104215054,0.627197227890961,29.547685021688103,-16.385967851532477,37.81284215814009,0,S01
5960,0.09039095010362208,-0.09190155206305174,10.144431478436184,-3.986514961774881,-0.9755229904081788,0.9941000761083978,28.721099814750026,-16.197032875306924,38.15459651296784,0,S01
5980,0.09827257839915712,-0.09111076176101489,10.157578451874954,-4.375851072757198,-0.9942242196508393,0.8137625509578991,28.962668619529644,-16.66481527513982,37.8587288459911,0,S01
6000,0.09741245021652378,-0.08435835521314317,10.146180768878784,-3.7914785347227657,-1.3218685101722378,0.7860200042900399,29.381701544247495,-17.463433070684808,37.83370238674636,0,S01
6020,0.0994230076340954,-0.08859352680443247,10.139359699205345,-3.8591677096506922,-0.8554653647050126,0.6088701073183828,29.974041842520943,-17.119869770553812,38.4867723320476,0,S01
6040,0.1036766100600021,-0.08048514690627251,10.146047951550422,-4.544679583533674,-1.1833325562689754,1.081101080118465,29.356250664292325,-17.336265556140443,37.9785888078028,0,S01
6060,0.0969907893001402,-0.09332223413883228,10.151070073063241,-4.347757149048815,-1.305123618282894,0.9862473281303796,29.739337058764416,-17.21284287143395,37.77458819338512,0,S01
6080,0.09881703818844516,-0.07999210831743703,10.143813539927411,-4.49519836329835,-0.7228565223520936,0.5770621406225134,29.048186437730134,-16.663061935863606,38.21060324352361,0,S01
6100,0.09482003331622246,-0.07818944529136332,10.151261535814257,-4.194217237200652,-1.0910271445009125,0.1960841779980787,29.284617653085537,-16.720221934180948,37.74136182734129,0,S01
6120,0.10574693766977593,-0.09136896047512275,10.141350624655978,-4.367280199307293,-1.1401658594457762,0.3167942227827375,29.364993459453142,-16.27040353575512,37.838409669935714,0,S01
6140,0.10273676106766885,-0.07534460730681698,10.145575445438249,-4.397984644845434,-0.9774781348996113,0.7122448499337608,29.138066086073568,-16.72915186462733,37.545880379618936,0,S01
6160,0.09922545434803616,-0.08623371384606407,10.145261834409038,-4.373014448599146,-0.4008698950746983,0.4656073003769863,29.927169083802774,-16.201559961048304,37.76968653006465,0,S01
6180,0.10537382212509115,-0.09409061674462525,10.141155987610759,-3.9551238986692105,-0.8221059511411825,0.4628439332430548,30.102490239291786,-16.712649993037935,38.601945416821444,0,S01
6200,0.10183704220079871,-0.08215104678300197,10.142716936983144,-4.303104418438182,-1.0210674515032723,0.4560341343407181,29.65436727247463,-16.691350709283107,37.6606866211951,0,S01
6220,0.09811867094248239,-0.08583019808111006,10.14500772380305,-4.288792998771501,-1.2486630643934866,0.3746960952812136,29.054926688272808,-16.662733576887813,37.77786972262772,0,S01
6240,0.10290254606810147,-0.08716593346046556,10.143922092842171,-3.7809250550326237,-0.4163246140109995,0.31432441491563434,29.175012153641255,-16.345376440374512,38.55618053962556,0,S01
6260,0.1020430926117624,-0.08278391451399525,10.139534756770432,-4.376404151231895,-1.5590316160854156,-0.06359103366429297,29.25680049986225,-16.178135419108415,37.988339566256165,0,S01
6280,0.09639091724305947,-0.08358100907784188,10.148367624041008,-4.185875781305641,-1.3956296372981247,0.42125697098102505,29.688069458733587,-16.833255796640003,37.860577906906066,0,S01
6300,0.09869782905907883,-0.08324398701281296,10.14321222477313,-4.468747366446215,-1.1809977436747225,0.7199684411963834,29.12739377448019,-17.515039573306005,37.96081654756642,0,S01
6320,0.11114329425338763,-0.06928312701584592,10.153600843673587,-4.139127653067606,-1.3564238239144248,0.5762481830103678,29.433171587615057,-16.4101913147965,38.08442569561457,0,S01
6340,0.10043204150669512,-0.07600397122668447,10.136657031555545,-3.8244729840626004,-1.509470815916237,0.19237897147551863,29.155795497534317,-16.882261929369772,37.86483962168463,0,S01
6360,0.09204081976520767,-0.07456060528541843,10.144193023002698,-4.305710540513683,-2.1196238581665936,0.07548919511106211,29.16774351979628,-16.265789146524185,37.7271912419531,0,S01
6380,0.09926959863870621,-0.07368485266166433,10.130299135077909,-3.890159587509827,-0.30515930511616085,1.017768624707253,28.852457096938533,-16.541677918060323,37.45416964244361,0,S01
6400,0.1013922894061945,-0.0850235993925984,10.141757875335767,-4.2400694387610125,-0.9081321302343291,0.3437975884189223,29.780304815196107,-16.80444803150233,37.72923584105869,0,S01
6420,0.10601753643774553,-0.07317193157099862,10.143928129712418,-4.38176826310808,-0.8446064407339258,0.5889148048310693,29.460106798488802,-17.430764790491878,37.90599993760023,0,S01
6440,0.0981615233980403,-0.08023443900698428,10.147298558544623,-4.040086689570853,-1.4646169392016948,0.4306128659773418,29.27574129100284,-16.974417582748554,38.301294908073054,0,S01
6460,0.09726091018270303,-0.08232026500959676,10.14072209086116,-4.102443765657117,-1.4135827085730122,0.4577734778151813,29.113267264020315,-16.315083165969494,38.1672314459665,0,S01
6480,0.10117209519182224,-0.07030501073201602,10.146129479369579,-4.312722499298269,-1.2321748015038614,0.5876697703314782,29.571903759150675,-16.48385141251083,38.43223787076832,0,S01
6500,0.10678999366537956,-0.07508556231167803,10.153416399687652,-4.339947143097235,-1.1124219090518128,0.4849787347074145,29.50882086847462,-16.441800932196156,37.17053165365152,0,S01
6520,0.10156352469860405,-0.06490823723569503,10.14123925432461,-4.7053955201627735,-1.1082714064539423,0.6383756204532839,29.930938676979,-17.736316459160655,37.68176396313427,0,S01
6540,0.10068416169063624,-0.07643623089302878,10.145421054763004,-4.476003613189585,-0.8010914053303902,-0.03321238329011211,29.41175600422015,-16.971537866784704,38.01503906634288,0,S01
6560,0.10166381658890974,-0.07611752027569364,10.149538842052806,-4.113079746859936,-1.0159693208279865,0.5943376896522333,28.841444657398373,-16.502339187584283,37.923358779104504,0,S01
6580,0.1038058405998546,-0.07049051711997523,10.148404596343047,-4.6919183570061564,-1.1920443073486686,0.5884216022534653,30.179996459715706,-16.701648717170677,38.10951226122492,0,S01
6600,0.10074589695282522,-0.060264354291521424,10.14267012437339,-4.477222176526507,-1.0691643646479192,0.9397500589520028,29.248992707783838,-16.10073526467641,37.996885814660665,0,S01
6620,0.09674431752420447,-0.06506334500621765,10.145291123679083,-4.272814745626028,-1.6141258126256577,0.6905739202835571,29.330030950176717,-16.10240966034518,37.659011454773875,0,S01
6640,0.09188875588119327,-0.06932593774955144,10.14638040314206,-4.202485070100322,-1.046474432277772,0.4819187256960365,28.996301620829296,-16.021759889844397,37.809187820476794,0,S01
6660,0.1023062878788042,-0.06559404503071076,10.144362761172133,-4.170492139778788,-1.6941379740107259,0.5280825960295018,29.152633734667592,-16.388895502507886,37.40931669244266,0,S01
6680,0.09007606253593753,-0.06265567083272605,10.146433731493936,-3.7324594970328673,-1.1045699462496128,0.6892277459718585,29.014378057256945,-16.055925093255766,37.93133355688177,0,S01
6700,0.09000359046814255,-0.07307194789655318,10.146487857200102,-3.956792388553197,-1.3066504638727605,0.5140406836912585,29.526343988027314,-16.411392936489925,37.897313055799025,0,S01
6720,0.09809770512715668,-0.06940189579737593,10.148336690033753,-4.300981253544875,-0.792401764382872,0.762586757582891,29.310676410866677,-16.048705144085645,37.98390580245575,0,S01
6740,0.09771833812887082,-0.07391606520501308,10.14937857353485,-4.221268523756395,-1.3779634989590575,0.2907448880875454,29.41971316761428,-15.589101536157127,37.70271965823214,0,S01
6760,0.10167733986361115,-0.06650610664162271,10.148567700389972,-4.151757174577876,-0.846747875768365,1.0329583562929114,29.41614756112811,-16.88785065523836,37.875934507855995,0,S01
6780,0.09608604447650121,-0.05601800466991656,10.154577323762458,-4.458557376321373,-0.8925779059562353,1.238542705212876,29.765579328130716,-16.628647220415672,37.67486226252887,0,S01
6800,0.09585092736506214,-0.05724407774125308,10.141434253002938,-4.4770610484919615,-0.9831649653633534,0.7597290007474501,28.748867958130838,-16.44238531207765,38.24055946231824,0,S01
6820,0.10728050336819181,-0.06266646618322895,10.148470989957346,-4.017960746170814,-1.0889939158129625,0.7682822089609249,29.465564286433814,-16.49782230763585,37.64539558966317,0,S01
6840,0.10421446127843294,-0.05872366167214777,10.141740367797775,-4.144903889101198,-1.4627783725118948,0.6975025640141117,29.522423795079842,-16.502223321523488,37.25032042258096,0,S01
6860,0.10524176218376353,-0.06298785513862518,10.142473014492342,-3.8068570071627774,-1.2750405281575568,0.6757440985210926,28.793542805703222,-16.077481489431495,37.71943713282168,0,S01
6880,0.09626312515009079,-0.061676491207510696,10.152753633546869,-4.261899808600916,-1.3637755886836125,0.8439341994959703,29.31323563451482,-16.673255082223235,38.26817232144594,0,S01
6900,0.0947491592654374,-0.06286212466061436,10.155276170752082,-4.6942988096523806,-1.515016381117547,0.7796574772260004,29.854867426799952,-16.45595690362599,37.927859237133944,0,S01
6920,0.10076860139024496,-0.06079348231589144,10.146229781602148,-3.942880067796427,-0.990434693516765,0.5187301223365658,29.581500807066092,-17.402499680930838,38.37996107580789,0,S01
6940,0.10215760126033237,-0.059075554151152475,10.145707741723754,-4.323981661014956,-1.3710170185779222,0.3884545538750399,29.646356640697967,-16.01772741093979,37.509702788892284,0,S01
6960,0.106941641649205,-0.0603079345038433,10.145208138474272,-4.284188432229947,-1.2747655915809095,0.8818570334647222,29.50333259720358,-16.731730596447186,38.16694827242398,0,S01
6980,0.09929773443085575,-0.04834167920212015,10.1513229024451,-4.909337456563253,-1.348423470816423,0.6724246497373816,29.16556155250736,-16.79218875187432,38.04940500514615,0,S01
7000,0.10087515106358902,-0.05851148048367784,10.141931617472677,-3.9417400027756697,-0.9194340854618773,0.6817122716976217,29.082085666731473,-16.814859482882547,37.87880435031718,0,S01
7020,0.10276584722996104,-0.04883437978951863,10.141530408159024,-4.066812351157542,-1.6514768243848637,0.4751894327628391,29.29055658550237,-16.510858349341163,37.57687535707061,0,S01
7040,0.10277330113171672,-0.05632541065480131,10.14528155807201,-4.407595050870218,-1.3504901558467974,0.49143243153096705,29.248073475939655,-16.109443843067297,36.98678100053024,0,S01
7060,0.09795718550272196,-0.0627897578012231,10.147898614634574,-4.720682371048066,-1.15615796756342,0.6647952490021746,29.268621976075714,-16.531515170207772,38.07368806249999,0,S01
7080,0.10554926726069268,-0.05569118304075426,10.152458843580604,-4.554395899932583,-0.7144369333756642,0.7106200185815277,29.444933791123187,-16.922297860353208,37.44963835897159,0,S01
7100,0.09935348756797759,-0.05835240276592313,10.150466748761088,-3.684606658372532,-1.3523361388329092,0.41344404478002694,29.557234096766518,-16.704584467909175,38.48320223663373,0,S01
7120,0.10479326292230959,-0.05453765628059778,10.143692428730313,-3.6385724520262333,-0.4691506109512563,0.4159302606950077,29.28534751066803,-16.25764340993699,37.51811716439103,0,S01
7140,0.09574552243972481,-0.05876862641217073,10.14590063213,-4.078229568432139,-1.478203362594825,0.5624426074474164,29.30061623964754,-16.05383036823411,38.27622534585752,0,S01
7160,0.08909222940701458,-0.05135598636640579,10.143984610323853,-4.668820037030205,-1.8788267001742747,0.593644879622343,29.39269189314904,-16.693749998235543,38.59903687070633,0,S01
7180,0.09376326874372924,-0.06391349274509761,10.141589946018508,-3.8603230278454346,-0.8657921297171909,0.4118094453419805,28.837521297542093,-15.849497535251654,38.226439108560534,0,S01
7200,0.09773439525614035,-0.05049762625802197,10.148579897036107,-4.381341721236792,-1.3518748098055169,0.3838911118482714,29.80825901929629,-16.12476368629079,37.84954946361669,0,S01
7220,0.09733485334600644,-0.05402862849843333,10.138110239041627,-4.2006232587732875,-1.5086548891141947,1.0129758305696845,29.415853441510496,-16.260544157793735,37.84094053884706,0,S01
7240,0.09904735337868951,-0.06203952659569083,10.144675710340792,-3.976172924051307,-1.1376582195934184,0.6903066327302054,29.54255532504572,-15.791370591788084,38.01226546161676,0,S01
7260,0.0939944865680983,-0.05026293254143688,10.15089142736188,-4.152686436234664,-1.506252063596519,0.5720183794593938,29.11431485914527,-16.396525911300515,37.62957702373504,0,S01
7280,0.10525092203532495,-0.05200914805472641,10.148391371694512,-4.292911125893136,-1.3113601172994351,0.45619192429466837,29.090680343065138,-17.247449726119413,38.367197834413616,0,S01
7300,0.10377759758315201,-0.053119794957791226,10.14225227518474,-4.498668273226768,-1.0318612449201006,0.8670372455517898,29.107561970298025,-16.34953049803923,37.679939095347784,0,S01
7320,0.10315141356655269,-0.0614393900130936,10.150194814481361,-4.372614150943374,-0.9608688115225517,1.042539172814596,28.623017374318504,-15.711928686878249,38.179973892484284,0,S01
7340,0.10329909109237374,-0.04966358876514947,10.143794479712794,-4.539203415661703,-1.6059198048175252,0.5951471835809132,28.702141233273725,-16.55253787107559,37.604008448635525,0,S01
7360,0.08933832357796243,-0.04576837212098617,10.149344991367107,-3.9756532144799612,-0.9875374092913971,0.7229756784394791,29.40823180014042,-16.19394961597301,37.52540901240195,0,S01
7380,0.09637641442370223,-0.04973532072298327,10.14892518107592,-4.07090282162899,-0.9279289410940205,0.19843626355657956,29.3159653800787,-16.392027563832265,38.35321921555946,0,S01
7400,0.10460156997252082,-0.05252252609893867,10.15137974632766,-3.632103834752561,-0.8361548298653658,1.4937126310664715,28.622957989380573,-16.653525378888304,38.037271447881565,0,S01
7420,0.10094080069227894,-0.04958739981225531,10.149989353215586,-4.480789867436122,-1.265389738291178,0.921723878260664,29.260111670528445,-16.78238308369002,37.70955323770508,0,S01
7440,0.09929750907934932,-0.052881306873087196,10.147094102920697,-3.6506013549531593,-1.493988550473605,0.7129368935175187,29.46166502730292,-16.61395576737321,37.92055097088702,0,S01
7460,0.09581026987559291,-0.056030739001858704,10.145338993998434,-4.282898894550448,-1.1846125914638679,0.6155833138429361,29.188091460939187,-16.901357702758748,38.13262804466768,0,S01
7480,0.09774842677750488,-0.04738319187315147,10.151044991653734,-3.916659260994666,-1.3329999482314219,1.0240340825515826,28.745188362021647,-15.981724659065595,38.45692029920028,0,S01
7500,0.09599223760600957,-0.05020280809482151,10.138536940806334,-4.324857295972945,-1.202338343636966,1.0855998093550052,28.937039220182818,-17.464583820727412,38.330494588723596,0,S01
7520,0.1044875214523413,-0.04544139395401681,10.150687480141878,-4.433375364636482,-1.6559824664867633,0.4136269215246946,28.775257736098137,-15.918182443882733,37.400533971720094,0,S01
7540,0.10088826308535785,-0.04842584685939373,10.156430065031326,-4.222419959438284,-1.14734948832217,0.21586302918343087,29.435592797018614,-16.645740470764352,38.19394337405971,0,S01
7560,0.0958465804296784,-0.051595833959818066,10.13986581525831,-4.815508745012931,-0.7360720714081659,0.6522331995383591,29.594648759685096,-16.051846969975507,37.933902741158604,0,S01
7580,0.09421417126641103,-0.05636600880076906,10.143947441599114,-4.190676136879275,-1.6702032862039233,0.455498265140281,28.852163758957587,-15.36714530062695,37.987233619918804,0,S01
7600,0.09866136751495556,-0.052112280578417325,10.147504691763613,-4.165234124287659,-1.7190950796669253,0.8121638977377875,28.983079242282344,-16.605989892787058,38.14769442479106,0,S01
7620,0.1047687424103778,-0.06095099375126051,10.144449600303275,-4.198857438245746,-0.985834484577244,0.2955254216436972,29.620667132767966,-16.42071650725404,37.45821425709528,0,S01
7640,0.1004154736937047,-0.05911229552067577,10.144973000441825,-4.364676210777139,-1.985659993137685,0.577021801927292,29.206712835604858,-15.702946461390265,38.21819168757958,0,S01
7660,0.10810807084105352,-0.047216234068200594,10.140347474943427,-4.248306919113142,-1.2566421655337658,0.8289432109868381,29.463069809429363,-16.59849685763031,38.1515414808347,0,S01
7680,0.1040390501956524,-0.047551215259563975,10.15638256745318,-4.1316362880552955,-1.39253851248795,0.0765185424498187,29.061956587770524,-16.36893947636687,38.17934535863291,0,S01
7700,0.09746624825264429,-0.049966258044034345,10.147572478903726,-4.366928515138108,-0.7348545074270163,0.6741978212317745,29.450823757633387,-16.778046553396365,38.069101363258035,0,S01
7720,0.10190327884875845,-0.048472133662345915,10.147646157581468,-4.678495641231627,-1.0941700281268556,0.29469276185783483,28.924465200449802,-16.292753997280307,37.920330514209034,0,S01
7740,0.10170937289365355,-0.05321850705684464,10.14944962873585,-4.198974545918714,-1.540881362255279,0.5348791925030272,29.384802873025134,-17.602385911406138,38.4570444259852,0,S01
7760,0.10299340039850312,-0.0502038245833157,10.136453269349833,-4.215496712073156,-1.6460269885041994,0.3638501789080577,29.62551827680404,-16.9644090008032,38.222585329852045,0,S01
7780,0.09802399363318144,-0.04787508690288837,10.142591015098796,-4.352715614574068,-1.1546279196887033,0.5453935092815838,29.70350057690843,-16.667523193747236,37.54712312625491,0,S01
7800,0.09902244979987862,-0.05482413734380784,10.140219589804799,-4.271467669432477,-0.9855605445628952,1.232937550979159,29.07926863080961,-16.03944501691559,37.84906274719326,0,S01
7820,0.08750104861118527,-0.05373516379095833,10.142761982553898,-3.520412282164987,-0.9323018936482598,0.9874391079123025,29.63934034044253,-17.349822837628572,38.28975377917785,0,S01
7840,0.09702606680564602,-0.0588796858613889,10.146342992897146,-4.450284210696796,-0.6382509185544084,0.3241874894533663,29.2135139764699,-17.439676026234352,38.02323024721298,0,S01
7860,0.09301428442155839,-0.06644710906345341,10.143906538221284,-3.9855027666140366,-0.7066706126785854,0.9163823015790227,29.360691224276746,-16.536804076390855,37.542295955113495,0,S01
7880,0.09802377531125071,-0.06125734268316499,10.149349926828236,-4.0397872063090245,-1.0925299207151686,1.009551146417588,29.688694500608932,-16.094533024030625,37.79400761786842,0,S01
7900,0.10132985645538141,-0.0551621606520065,10.14636501748931,-3.8246517803829363,-0.9342498032468065,0.5174283346028707,29.264152769676976,-17.103169871371456,37.888211471676996,0,S01
7920,0.10158378546985071,-0.05978262627227221,10.150838054768288,-5.417261949096186,-1.0323780676676142,0.6103137919089264,29.848994357381095,-16.28471522283956,38.28214396619279,0,S01
7940,0.09816266907607406,-0.06260952778885648,10.1460662799158,-4.618082408327493,-1.0762935120910542,0.4024969824052801,29.404671745908125,-16.66064789398336,37.52990908634926,0,S01
7960,0.10270469649047341,-0.05303952369322095,10.146690550623848,-3.786147232185885,-1.242402406923478,0.8375327051282898,29.867540148729688,-16.362785821980825,38.05246519482558,0,S01
7980,0.08997199533136849,-0.056803255990003965,10.141699804052996,-4.207447602702312,-1.066487320636122,0.6429423061310712,30.530581844657643,-17.132010679837215,37.54666415956226,0,S01
8000,0.09849895821511787,-0.06398346722540728,10.143551422484402,-4.701531378307214,-1.6132198983045034,0.5355224533426023,29.57856102532028,-16.381245918340245,38.01886735722492,0,S01
8020,0.1052336230125885,-0.06115639521995703,10.149852491778082,-4.383347841096963,-1.248060594116336,1.0949090274376516,28.775629870175578,-16.87059933026775,38.12451787077228,0,S01
8040,0.10143143857611454,-0.06743234298614399,10.143007835269387,-3.724865566403906,-1.3552002466673694,0.30466418868243994,29.804232817781333,-15.58950930085596,38.04446446109251,0,S01
8060,0.10319601117853314,-0.06210026572743453,10.141502308049278,-4.665824509322704,-0.921608626150236,0.1331491686603205,29.365399701182174,-16.966062014652895,37.69687772829635,0,S01
8080,0.10300884220479374,-0.058625103380535816,10.140354151622216,-4.760245981662462,-1.5506577632336631,0.3803028830670577,29.06584240707902,-17.00650974230592,38.00430253650527,0,S01
8100,0.09857358127340252,-0.06934620793010034,10.146965072726992,-3.8482523987101094,-1.8612589157994874,0.3986753594487884,29.371325697851717,-15.946879731445039,37.94558288128815,0,S01
8120,0.10232489609297118,-0.06958944805354081,10.142388118154463,-4.78123952168893,-1.2101054773865445,0.623263042411274,29.437105571546244,-16.293951792478815,38.78661067498201,0,S01
8140,0.09514214466460823,-0.0634239324090186,10.138896364846074,-4.461245511872892,-1.21090837731463,0.5362210053766743,29.283766472478813,-16.092754345034912,38.198295067639954,0,S01
8160,0.09862679205041168,-0.06782571581712539,10.147054670006757,-4.267304181940693,-1.1734559112878375,0.6431254388435388,29.536863919680698,-17.439391073206668,37.767795275787996,0,S01
8180,0.09791317096821088,-0.06821895880870964,10.142089102659712,-3.864866995605768,-1.4226997407398332,0.0029819163296170847,29.750164635228774,-16.81782981721951,37.48880218048398,0,S01
8200,0.10179235110524504,-0.07121756441978427,10.144950499150019,-3.7607965581595484,-1.2613175372818084,0.2345414744416386,29.755112381797403,-15.886283778345259,37.568940256603945,0,S01
8220,0.10681147182623622,-0.07126030220603224,10.139149283867269,-4.103852908897908,-1.192341429294922,0.20583911139011846,29.961914434410957,-16.528468194167132,37.5814751833399,0,S01
8240,0.1007877831936288,-0.06787373163320376,10.149920610614009,-4.276901492973216,-1.4023785311534784,0.3487655327342265,28.91789173135975,-17.15570151649115,38.60222466399134,0,S01
8260,0.09326014943210631,-0.06761546819935209,10.151061535721949,-4.213419628543972,-1.02507841196402,0.20327570122754934,29.09993330169324,-16.989390794405416,37.886585313658216,0,S01
8280,0.10754285802220293,-0.06948462381198363,10.151526503084407,-4.579693177836392,-1.164355740625183,1.0971330203315786,29.2515612143274,-16.403730354379228,37.53180413806074,0,S01
8300,0.10209096569433584,-0.07368840331274895,10.150247072248629,-4.062250258692074,-0.870453405252212,0.5748264253966062,29.29196348471012,-15.573088039141096,38.27097002891397,0,S01
8320,0.10762624333732634,-0.0730382958111454,10.148638678718514,-4.139735970916952,-1.208410387671678,0.46611234196338924,30.188303752544343,-16.615035479638014,37.90191911221295,0,S01
8340,0.09417403090244233,-0.07762053696150446,10.146315627173975,-4.212283530967073,-1.2500580017940088,0.5707570608460577,29.441450475251514,-16.697168503961535,37.07785170037625,0,S01
8360,0.11018032457480595,-0.07834925351976495,10.145407619453906,-4.002548654488665,-0.950569949218772,0.605340182467655,29.56739609176004,-16.411913531631292,37.76458212271659,0,S01
8380,0.10215837075947286,-0.07661846387491955,10.151373624752983,-4.378600880524177,-1.6343416933398474,0.8043893735793519,28.96535656083854,-16.713559744956317,37.39735693735998,0,S01
8400,0.10077418256880295,-0.0679232190041219,10.143324213973106,-4.568123442303799,-1.1083370633992506,0.5701551671021595,29.20950253330167,-16.50317865008433,38.05050684172561,0,S01
8420,0.09848260603008109,-0.08814164547042934,10.14849401118451,-3.37306357702157,-0.9861092663645459,1.0372525919240574,28.97993022520303,-16.812846624923147,38.14721979006911,0,S01
8440,0.09582803881625174,-0.07318228151933052,10.153513438348945,-3.9177881839804147,-0.5777555632965663,0.8310740529011669,29.68123786452127,-16.505620609158626,38.60186331158358,0,S01
8460,0.10047724203865052,-0.07521734844274344,10.141402788423475,-4.871766797909714,-1.4080250015762208,0.4574123001190767,29.536255655527146,-15.909127313398484,37.79725829699105,0,S01
8480,0.09178996761396595,-0.08143429421680953,10.147140158280367,-4.646710218929561,-0.6469682381371579,0.32956018412043064,29.326474575540743,-16.352023102763802,38.20951921252119,0,S01
8500,0.0968543336605035,-0.07706011328409003,10.152243035621158,-3.7868500285239275,-1.2289862304703738,0.7588322746002377,29.541251828161045,-15.515838935793255,37.01274749239875,0,S01
8520,0.09618920623186109,-0.07944611201394358,10.144288917971375,-4.036285759940347,-0.6552503761268065,0.795539111868188,28.698959472497997,-16.748604767874046,37.841216535701854,0,S01
8540,0.1038033235176016,-0.08098538331259028,10.154368997279445,-4.749225792885874,-1.0273779435082526,0.8389132435671208,29.290269347314435,-16.172114217501885,38.446712211801355,0,S01
8560,0.10350534166932542,-0.07900086857356534,10.14596458261146,-4.356416077158201,-1.0338397410421964,0.26513852044779906,30.04936698249871,-17.187180591622887,38.163266694686065,0,S01
8580,0.10407131948185913,-0.07369337579991432,10.148187113973165,-4.830346737590009,-0.9520463890985065,0.3891788779646127,28.420149031507297,-17.28920933267483,37.68424255798237,0,S01
8600,0.10771485421589758,-0.07612631587156753,10.149087581971926,-4.602385194710352,-1.143100970344928,0.3082784006598973,29.919336639499868,-17.448677439990643,37.5565854787999,0,S01
8620,0.11141525662821813,-0.0889692773499441,10.136947149652466,-3.7426739175044816,-1.0964502637738447,0.339396934963821,29.165054096237128,-16.086516010640686,38.05894435069597,0,S01
8640,0.09543542443710726,-0.08847160182733961,10.150211057436563,-3.767537269209196,-1.5726380575604413,1.036265999006159,29.57839408730458,-16.603232602818025,37.75589718164285,0,S01
8660,0.1049013364804296,-0.08853958589262256,10.145614991394295,-4.03843736191924,-0.9289421959576827,0.5484447057025988,29.30106412525492,-15.843856746381547,37.21171529666343,0,S01
8680,0.10019277461045219,-0.0837001883554904,10.145477495831532,-4.145870723643153,-1.0746224926421233,0.8590744294752461,29.494874132424197,-16.284062049673523,37.73165805854677,0,S01
8700,0.10520527743075861,-0.07961215172866558,10.1506397083274,-3.707040643550054,-1.0774702372151672,0.8208860544216166,29.16830747490643,-16.500025620097453,37.872467100099016,0,S01
8720,0.09799437670029706,-0.08634792336895783,10.152974777107492,-4.170614749428564,-1.0554971399328648,1.0323199731233943,29.399023856404494,-16.778965567523763,37.243920324237905,0,S01
8740,0.10044809700171314,-0.08187803369586541,10.14483657177661,-4.77414403914545,-1.3644156958994478,1.001782685594455,29.29921715156818,-16.059786544998005,38.065494477917824,0,S01
8760,0.10093312710781224,-0.08515020457592877,10.150167815768803,-3.7548143621566963,-1.42802259580861,0.48886607174528385,30.288276447586394,-16.39239397365452,38.09943049788205,0,S01
8780,0.09975923815656594,-0.0849151680920231,10.158049903681594,-4.363855924719484,-1.671738065854392,0.34885784392459984,29.394257449867542,-17.47802210470659,37.626289464100694,0,S01
8800,0.09413065428440359,-0.09314280096918312,10.145304235338005,-3.8329744804017274,-0.9105842095260908,0.21739084203637743,28.994502558190202,-17.32597087529753,38.252549615283655,0,S01
8820,0.10628702713628074,-0.09708068803755057,10.143987646429737,-3.6992072427983356,-0.96029361485032,0.9755584307287783,29.672136677870633,-17.045909546216066,38.40901799189077,0,S01
8840,0.09630381541633615,-0.08773221168319383,10.146596596340995,-4.7629772367296175,-1.2192719459423595,1.1282606012334053,28.959935172035657,-16.190264420366653,38.06634546952115,0,S01
8860,0.1067414763654497,-0.08283090036126864,10.144886893654748,-4.4692441827718365,-1.2190097351365723,0.19223813918715976,29.285766980211296,-16.868095597058627,38.14772220505562,0,S01
8880,0.096643874009153,-0.08993727823036393,10.15035522490596,-3.8715507655475316,-1.4045725185938767,0.16003812441600362,28.940803507526038,-16.23787651849644,38.18153395246966,0,S01
8900,0.10206649993435486,-0.08579376187792916,10.135545009961376,-4.314843660037351,-1.3444972453297495,0.3444796266806331,29.339680503225175,-16.34409810053072,38.03944150418462,0,S01
8920,0.09741327431673565,-0.08342142929228293,10.142908871466672,-3.6932289765697215,-1.1554612664247432,0.09355979066980902,28.74786615080914,-16.703693550537082,38.3744751507573,0,S01
8940,0.10583736240462444,-0.08094151185884543,10.151208750876762,-4.02892687311645,-1.095451055874845,1.0037707519984749,28.416236625027384,-16.59495960852913,37.12426803913904,0,S01
8960,0.10131412817664949,-0.09011613447769894,10.155127211711557,-4.063663293216278,-0.8823907019752325,1.137938658418531,28.961328794088388,-16.417756752179518,37.38672386533752,0,S01
8980,0.10460012239959086,-0.08514087515279609,10.142991965454938,-4.12120815382554,-1.030325767355601,1.3628196976330504,29.7972610172625,-15.86890880255317,36.98984747604939,0,S01
9000,0.11242914859025796,-0.07847744857108305,10.149237006962702,-4.392493468132357,-0.5608724982172153,0.7577728997277908,29.576176064540174,-16.734436196175995,37.73181426280321,0,S01
9020,0.09556531938180662,-0.08423797062891974,10.152457121579632,-4.180138100741357,-1.4984986864027094,0.26715623800867216,28.779138053810293,-16.269638277477043,37.92673205663274,0,S01
9040,0.09743675309081781,-0.08986026235263062,10.147678826792623,-3.7693770065582477,-1.69290009050134,1.1914545247787984,29.682600047549037,-15.74750787768514,38.13203028457807,0,S01
9060,0.10212488263301375,-0.08457886025879766,10.158279593765286,-4.8484263837577775,-1.3814396184675266,1.1534703643157689,28.91941310230056,-16.669663660458603,37.447063869513094,0,S01
9080,0.10457936700632281,-0.08943521666655557,10.153653137740907,-4.347409464974238,-1.2540798016885883,0.2821318600941069,28.96583151390264,-16.298708549011703,37.352490960750245,0,S01
9100,0.10160926234146625,-0.08635608302412245,10.141133551298438,-4.413170864344667,-2.149467924540986,0.8755537302894778,29.40229231442411,-17.04996623470644,38.58215564116227,0,S01
9120,0.10315107727972514,-0.08744060772132156,10.138508923729598,-4.332415774696356,-0.9461673573917766,1.104281987969565,29.0531429973016,-16.278626680058423,38.572568425846185,0,S01
9140,0.1002923127923942,-0.09141502768555504,10.14414868660245,-4.03699242958253,-0.9965778280708487,0.6939735441005561,29.067182868411376,-16.183181996314183,38.3089451969659,0,S01
9160,0.09419895376520522,-0.08096909622393945,10.151696736674799,-4.193034209398848,-0.5139626487148159,1.374295987849148,28.73763111898123,-16.302525342106087,37.857798014273705,0,S01
9180,0.09846446060951121,-0.09337253726867613,10.144029797559469,-4.511124428741763,-1.0749436265452739,0.5406742049113249,29.12017254168798,-17.01644110281636,37.60423832293871,0,S01
9200,0.0998989098421401,-0.09053538229264432,10.140409759354856,-4.91214304936273,-0.5915941810654022,0.8487717422368035,29.35275215387502,-16.96733810746426,37.682587656900395,0,S01
9220,0.10217967176203802,-0.09284088451539443,10.13850289608806,-3.885413371381698,-0.969772811954509,0.39259139637725526,30.041139858361237,-16.804868520159665,38.49308531437352,0,S01
9240,0.09632677588448375,-0.09121078131489048,10.153378643842133,-3.552196469122133,-1.0114488538201103,0.8790582721719757,29.235473805895605,-16.241635639776767,38.51836209233739,0,S01
9260,0.10180363267025277,-0.09048964950287255,10.141203728379912,-3.9606721182628917,-0.7222639131112545,0.5575103436840741,28.882967447312588,-16.82512778824107,38.07383922200786,0,S01
9280,0.10206580550350398,-0.08234192655277629,10.15607706899375,-4.471145080415617,-0.9127274075450065,0.5992366072712894,29.033715748295677,-16.993516741901665,37.89124905727431,0,S01
9300,0.10340339028084086,-0.093316000944819,10.146117687206045,-3.9460978557101303,-1.1874550867173848,0.9356488328248616,29.61364789964783,-15.909852605831475,38.4503037525917,0,S01
9320,0.10523562092517982,-0.08053038668294198,10.147595976604343,-4.843401201655923,-1.1570225150956106,0.7466871326639237,29.393440729454365,-16.44399359281571,38.21802010010221,0,S01
9340,0.10810672116317577,-0.08247892651639496,10.151764561383668,-4.655165930642052,-1.366620273262971,0.2805989177476953,29.73167585118986,-17.50121345558592,37.92217562644715,0,S01
9360,0.09688788506079735,-0.08327478769157155,10.153446662928133,-4.539428796092379,-1.2816655171971894,0.9962181751489287,29.557126183392423,-16.602656470248558,37.71497270140019,0,S01
9380,0.09360355712636333,-0.07818217679094039,10.143021460358245,-4.317687649686125,-0.9265393090640361,0.5981739960094785,29.145755509800274,-16.42754496931399,37.264461630605375,0,S01
9400,0.09590922045839309,-0.08755801862677287,10.135061574996975,-4.073413374826771,-1.2042428135366898,0.4986024983361056,29.403993714723935,-16.160303016785363,37.85648552411776,0,S01
9420,0.10499832199763429,-0.07827118953804385,10.149823065166474,-3.379661803013637,-1.687391208554374,1.0048212917234949,29.36035847313931,-16.62960023380785,37.57942976800628,0,S01
9440,0.10110652362910609,-0.08477976359855198,10.14238057577037,-3.968846107894518,-1.3496190841704836,0.5804087183629273,29.132105725460278,-16.854987273927925,37.90710135336863,0,S01
9460,0.09055003606098444,-0.08967509179444147,10.153625595681318,-3.633892632238811,-0.8277531892254328,0.5041103145972564,29.726750588281654,-16.327142216668598,38.242196107529196,0,S01
9480,0.09845017482205438,-0.08127414738278475,10.143928774323955,-4.194911833598005,-1.3585789317086836,0.46930804975979123,29.677212378412143,-16.916457110840213,38.03801964492421,0,S01
9500,0.09141061396342398,-0.09473305436473697,10.150380838038219,-3.5576866518924364,-1.2994780596755071,0.3269844185565878,28.79310440700915,-16.34416485585852,38.7033245776415,0,S01
9520,0.09916921905197047,-0.07934769172651408,10.142547486476325,-4.320082125308186,-0.9314988851508152,0.8564045644334509,30.0523235915287,-16.651533763513243,37.66222332117572,0,S01
9540,0.09690728842873922,-0.08413397192420766,10.146689395846701,-4.131989138016153,-0.9343423475214448,0.5972658512687101,28.43288602670855,-16.303756289720646,37.68769568084998,0,S01
9560,0.1040608436091768,-0.08390666747515742,10.147006101404534,-4.729934425653129,-0.8881066586865614,0.47405416158621716,29.06248935508033,-16.479170487311904,38.59028353212204,0,S01
9580,0.10594795463155547,-0.08387570380258877,10.145495722224561,-4.215053531006869,-1.687795753060229,1.2740730965647011,29.359545609999753,-16.443012812893507,38.02190674131075,0,S01
9600,0.0998108601922881,-0.08150457870753278,10.142084795983148,-4.509699542692911,-0.5463892917335209,0.5877511684667992,29.790143193246337,-16.17872146624792,37.674089840227424,0,S01
9620,0.10565240918697429,-0.07781101922663258,10.146004712959892,-3.600150843007174,-1.2038804102898302,0.6218947151206983,29.702960246792216,-15.944127741363598,37.36979775347273,0,S01
9640,0.09820472400866134,-0.07201135805380468,10.147928571142717,-3.6866994171315746,-1.8877795221994176,0.29961179934701576,29.203845999586715,-16.459500287032238,37.8431185639932,0,S01
9660,0.10189455026799613,-0.08267895497053125,10.149054469135336,-3.8935848945221623,-0.9667551307879905,0.619423451022472,30.478984125280046,-16.076104832972362,37.86803237794897,0,S01
9680,0.10244644893048949,-0.08918393127722055,10.136240781090297,-4.312245879031505,-1.6315626302623798,0.42630095867522166,29.284696505652864,-16.236762897536273,38.30645741210795,0,S01
9700,0.10437285723600676,-0.07279702834295536,10.156321934952583,-4.2900164656451745,-1.4543589972394897,0.47467274916203644,29.751768817766408,-17.210405233148222,37.98116138465781,0,S01
9720,0.09823985662273957,-0.06943796129709252,10.139916243953753,-4.182978364710169,-1.1465466313045634,0.23005770663778602,29.66196010289106,-15.842467694563904,37.9164923718978,0,S01
9740,0.10953382749667218,-0.06969466086439055,10.158334060787556,-4.269063025176804,-1.4151492661113378,0.6965554817172889,29.6320927936007,-16.73910226367297,37.80963233358514,0,S01
9760,0.10937300420131324,-0.07348916789073112,10.143182588996435,-4.427356388615117,-1.6282956864619749,0.3535388306774986,29.054855213510393,-15.96317872210284,38.21579236705042,0,S01
9780,0.09930711478308597,-0.07408614667025538,10.13755961168381,-3.929653758961541,-1.0276255018488336,1.3434001790396723,29.850372041408175,-16.371910244840194,38.12898987699453,0,S01
9800,0.10861271626867605,-0.07799156844937537,10.149879950588168,-4.835619131522206,-1.0960705951751986,1.0919916072989215,28.899018891335572,-16.877855286003438,38.24432398418318,0,S01
9820,0.10149483648671245,-0.06959340190541694,10.14205094787923,-4.422915622676295,-1.4059918083737206,0.6199218478239379,28.845012759003474,-16.468964447752967,37.963028335454894,0,S01
9840,0.09270769332570312,-0.07224924646580803,10.144704609702556,-4.236424539035062,-1.3746804497595917,0.2746852494875273,29.159540274842062,-17.52035173626733,38.41399244272232,0,S01
9860,0.0907010368126468,-0.0756869259015124,10.140326160994084,-4.051161951894102,-1.2658757993207859,0.761211378043881,29.282323922386702,-16.028092243517865,37.98843774509106,0,S01
9880,0.09735448117395257,-0.0662473038058805,10.143702693743826,-4.622700557388501,-1.416614031022837,0.9249349347466921,29.353380201099665,-16.77252440074463,37.77954184097571,0,S01
9900,0.08965422824412676,-0.0625417228360437,10.142147093198652,-4.165399128337652,-1.5014352343849082,0.2587409454106523,29.649574740619535,-17.2598702426479,37.62396475735346,0,S01
9920,0.09685859156714581,-0.07265517154915084,10.154429116347703,-3.987438162219691,-1.295263620445882,0.5829523258216861,28.65821882217471,-16.558743459277053,38.16966581138651,0,S01
9940,0.10578936017112615,-0.06918113420013544,10.15373900965962,-4.005043881878588,-1.3416332096156558,0.17247233239290732,30.458472762646107,-16.990765373484507,37.247703321505654,0,S01
9960,0.10036763842605134,-0.06781556908373633,10.15131273795711,-4.626731538117071,-0.7897266130647018,0.11415164797131477,29.58108451273736,-16.206125379390908,37.78634413733512,0,S01
9980,0.09512934250076761,-0.07720601153459172,10.135221653609316,-4.167676321795161,-1.2944325378707666,-0.07183977814125508,29.483270209410357,-16.789846763546215,37.70755181052013,0,S01
10000,0.08992879453463391,-0.06779569233686568,10.14272924318008,-4.141995405318893,-0.6707568011864555,0.3073164232698823,29.166585082729874,-16.05971423745376,37.83003476781355,0,S01
10020,0.10273066307165835,-0.06111612341998811,10.148345000502264,-4.1406731539339106,-0.45680140465054053,0.6201311557178419,29.352845808876594,-16.677080570272118,38.077901049652894,0,S01
10040,0.10480865926806988,-0.062415326681152246,10.150838210480638,-4.258685949970497,-0.9346974402708584,0.3776683389985031,29.981321677920814,-15.574055254343563,38.121200471046244,0,S01
10060,0.10427806667347053,-0.05653517777040815,10.143552926614896,-4.072687461980772,-0.8534290861547558,0.7031571765341893,29.68607236067249,-16.98228672011281,37.71349753565454,0,S01
10080,0.09713677144512195,-0.07247028998852834,10.141130012497278,-4.418328089818502,-1.7362477809704724,0.6382618869401022,29.12120191628553,-16.78732378151114,37.91663662606408,0,S01
10100,0.10427338579242727,-0.07001047601963485,10.14573842830585,-3.7681832268838016,-1.3443626273340357,0.775731601690064,29.220825790982563,-15.996010089581267,38.066589863486726,0,S01
10120,0.10007744871357731,-0.0567525539210887,10.143887802952856,-4.392640924473784,-1.3298456194515087,0.2731735924173735,29.17063044303233,-16.732093333677795,38.31878685479742,0,S01
10140,0.08958147226876667,-0.05530301432252508,10.14856740162922,-4.284663692126976,-1.0201808716166283,0.7297773968468386,28.72584868330985,-16.565768957487386,36.85851473438331,0,S01
10160,0.09983351516554718,-0.06733730788355233,10.144280203513045,-4.414683123864178,-0.6843977281152078,0.6739203465332644,29.173744392333564,-16.655343372978905,37.79195965880719,0,S01
10180,0.09431843498411707,-0.05152800507754726,10.146663309791146,-4.1710209286494875,-1.596330992733208,0.15889980757320693,29.02385279321535,-16.623539219580934,37.75726537449615,0,S01
10200,0.09555156205837993,-0.06353779030678224,10.141727712686793,-4.05256726395845,-1.3865218397447565,1.162979104244327,29.92453502752304,-16.310745155017898,37.9392731890249,0,S01
10220,0.0949659234811299,-0.058698367378330056,10.140280601360551,-4.527543335035077,-1.1613883676070895,0.27401876983478574,29.46133603844989,-16.303186630333876,37.76629919741728,0,S01
10240,0.0969329750939051,-0.05994285105292536,10.142257960086072,-4.021994531879011,-1.2719197703617173,0.7907986854463251,28.978859299617934,-16.830839725545943,39.027284802315684,0,S01
10260,0.09455306790439558,-0.06028039383031931,10.137366044119782,-3.666956109903139,-1.508314834133715,0.09966519223358539,29.693105752593095,-16.37823508701028,38.592870806160775,0,S01
10280,0.09997503415777109,-0.05530981802232757,10.144929246987125,-4.244922468737414,-1.647118643253432,0.47772125274378663,29.349150023596994,-16.93646192502013,37.8599574413104,0,S01
10300,0.10608355407545018,-0.05298513695720919,10.149830210743511,-4.477637403275493,-1.140588865402348,0.8348046738444672,30.398068430893577,-16.262882608275763,37.44301545942317,0,S01
10320,0.09947664305680884,-0.06252575196197543,10.147428793236298,-3.9705825572361815,-1.1485484169639444,1.0872149938207825,29.536269303328655,-16.51585168297852,38.092702087563325,0,S01
10340,0.10401393251249261,-0.056086368187779685,10.149055259928591,-4.434058305114417,-1.117329035076597,0.7975941807349065,29.61299294419139,-17.33885219887265,37.61133631017234,0,S01
10360,0.10841568960184385,-0.06022204513329769,10.139336433005138,-4.052964932516045,-0.6779517496984357,0.7244716273923122,29.436172037300103,-16.383998009010043,37.784523853960565,0,S01
10380,0.10566388816953193,-0.05355323937267431,10.141632936207403,-3.6363889298227843,-1.1950767627930208,0.5815049932933085,29.435453490089618,-15.912837765003754,37.99637833934532,0,S01
10400,0.10145296608937769,-0.044486113905395364,10.152449052354994,-3.857507311167267,-0.5957085134613662,0.3592658443591985,29.655460394709955,-16.068458702573125,38.26077197962174,0,S01
10420,0.10120441004678252,-0.045983446798304205,10.14726931527398,-4.284626934941658,-0.9506753600042197,0.8369083108370191,30.45944343838391,-17.31855577185253,38.10339484016147,0,S01
10440,0.0920457845103284,-0.053232966324649564,10.153751997163647,-4.51611696093311,-1.0464881390910785,1.0915950303349182,29.678085734589985,-17.027157187066763,38.494893947215836,0,S01
10460,0.09520426017335015,-0.060504682163276896,10.145691091652278,-4.259579232186691,-1.3009321169747525,0.1925950711782244,28.970605781747373,-16.126059897253164,37.881857025331676,0,S01
10480,0.10601320597579306,-0.04913165696154399,10.14508794007502,-3.76954566447784,-1.0881728308225878,-0.0021392073937600564,29.059881490534416,-17.449287436882837,37.555898412820056,0,S01
10500,0.09658444864977613,-0.04800576475362857,10.14019484043184,-3.9167116303870655,-1.2196271896989255,0.540490108085303,30.147480848675485,-16.668312121049063,36.99112605701815,0,S01
10520,0.09418396413560222,-0.04683637731700238,10.141948523723245,-4.470313890562182,-1.1662925073058519,0.6499675777099487,29.19327761408836,-16.398110210117473,37.727818824910294,0,S01
10540,0.09930381449999123,-0.055218719050133425,10.152359024773087,-3.9960709292358416,-1.2577321604343032,0.489739891827513,30.022622355048295,-16.93096338525136,37.25424072577779,0,S01
10560,0.09460686731028532,-0.05369156474460662,10.145789498854636,-4.002059877818491,-1.5638203660962464,0.2808117543838843,29.314970323483784,-16.423314875920816,38.02745809432199,0,S01
10580,0.09592381925469198,-0.04993188494668763,10.142261941284398,-3.9010190655977532,-1.2057669170539573,1.0994199156704196,29.668246913263964,-15.90484626851754,37.901315464232304,0,S01
10600,0.0980397559023828,-0.05085803348646825,10.143131659189164,-3.8702380316731917,-1.3633808258072522,1.0872837427125273,29.4525199903711,-15.638889987924191,38.36671601462016,0,S01
10620,0.10869654815536715,-0.04962576612351419,10.137142245571962,-3.8810760748303306,-1.4502589544367475,0.46274476969602507,29.65496477839201,-16.760799743927276,38.279822781269516,0,S01
10640,0.0933398068094214,-0.05650300772803199,10.140409312302396,-4.073728778583761,-1.0497094994980223,0.46409301591962315,29.413744075599976,-16.895689831742963,38.586580258110786,0,S01
10660,0.09245166746583199,-0.05158913083508884,10.153377325342204,-3.5873390376115477,-1.3423906422958267,0.9165189993837112,30.414106550332814,-16.03751019844116,37.48695065036586,0,S01
10680,0.09620110609907809,-0.04923662079548606,10.14213629200507,-4.1786409782724165,-1.481233790303603,0.2886999083853714,29.874236286689474,-16.984330111684123,38.091740531029956,0,S01
10700,0.09838277178095865,-0.04858837581550386,10.147970325901627,-4.271555190113346,-0.4873639740632736,0.7673072196050794,29.277618878727587,-15.980950747586078,37.946262936546624,0,S01
10720,0.09881423024496101,-0.05093331933631662,10.1331501244025,-3.9174156608545,-1.0146052098016287,0.40253357495098396,28.71328113771683,-16.600785693077192,37.5283305038234,0,S01
10740,0.11423200333726634,-0.048789562353892126,10.15058119084179,-4.074247326687825,-1.1294698220751582,0.5932796629235244,29.26464568063549,-16.578168196768285,38.25362756223307,0,S01
10760,0.10057815170171769,-0.04520972527850005,10.144834835033242,-3.7876133340609495,-1.371162980595496,1.1176993441507819,29.499013909219673,-16.2308573576054,38.36980777335099,0,S01
10780,0.0953877674454558,-0.04907349330714496,10.156338213162519,-3.515462059192434,-1.4327707906259024,0.6437245110844999,29.351837038690384,-16.936194966667706,37.70854436723077,0,S01
10800,0.10156463097793121,-0.048470461556010924,10.14108559309005,-4.696983413348662,-1.1129774288842977,0.8448473495204307,30.366428255372266,-16.25723997661054,38.41796798724069,0,S01
10820,0.08911329542127125,-0.05475110407040245,10.144000179818248,-4.08780677377689,-1.331534987025738,0.11388562673361291,30.0737288864705,-16.35070482594961,37.463137745173285,0,S01
10840,0.10471990024076762,-0.052333572669032526,10.149087428192733,-4.018593898761786,-1.4656234843122486,0.522469525916649,29.840796856246367,-16.65575698944084,38.50416756430604,0,S01
10860,0.10182631715184565,-0.037936395930068555,10.145005910444329,-3.9882140170792115,-0.8917457284307374,0.6690836501767483,28.951509935972176,-16.137756469361204,38.339741773441276,0,S01
10880,0.09615254749163585,-0.04650930910163871,10.147338317230103,-4.262357152677008,-0.9489965223362429,0.19019397055448295,28.825576798892573,-16.64929983135235,38.03161317655052,0,S01
10900,0.08859146887287447,-0.04622572434423075,10.137445204387245,-4.523224222152474,-0.830336427933003,1.305867255635958,29.451109633682513,-16.28718799726181,38.05930777284778,0,S01
10920,0.10054018472215548,-0.051016674616300293,10.147892400331791,-3.908364772659854,-1.5123580332799733,0.7719027287952414,29.483858945363888,-16.444235885938795,38.23781024154667,0,S01
10940,0.10480483102580998,-0.04956978977111916,10.14837536381056,-3.870609176877547,-1.2178174573214233,0.667771405566102,29.989568758708593,-16.96736898142438,37.69706098043388,0,S01
10960,0.09928475204088044,-0.053581926583731426,10.145557050993613,-3.803983886377769,-1.3366900059249673,0.5957577205357576,29.777847073642526,-16.199173528394297,38.315669731055415,0,S01
10980,0.10671572781054749,-0.049797952746778285,10.150562960970564,-4.421168393977083,-0.5550980433055649,0.6192643061734442,29.182577605023248,-16.815868555922954,37.59253519428963,0,S01
11000,0.0970102946596469,-0.054129001619769176,10.14490498843993,-4.526991113275991,-1.6279126098331111,0.3959023500837857,29.186148541997454,-16.724276027009225,37.06871094576815,0,S01
11020,0.09533928043710321,-0.045232539629478694,10.14381803657788,-4.4210894416846775,-1.1247728154483254,0.11512440933323076,29.698806704819948,-16.548865177647198,37.801346277410346,0,S01
11040,0.09583154275017237,-0.04357109029231114,10.142445506514454,-4.008732039102717,-1.3691379241790937,0.6937401685782139,29.352449758649236,-16.472867307662383,38.1524856350695,0,S01
11060,0.10760553343792663,-0.05226149413782149,10.143726816833379,-4.539104364775216,-0.5788963713516655,0.5686829691097386,28.867827698166032,-16.845217205502706,37.64207664841029,0,S01
11080,0.09686433689752741,-0.06113321952565752,10.15169133094687,-4.399081688668166,-1.5363939021319257,0.6476389512863172,28.7731394152856,-16.02371142901689,37.80486094000857,0,S01
11100,0.09778943278583124,-0.05449929100670032,10.138575705485868,-4.093131125211621,-1.4734334433584626,1.179053327813275,29.181940155369237,-15.92658633462604,38.547891085469395,0,S01
11120,0.09318809337595978,-0.05706674678971611,10.147823516131972,-4.399641142529589,-1.705232208328848,0.31182161522831897,29.32880909291859,-16.376979637469596,37.83653806943671,0,S01
11140,0.09936343311253935,-0.04290316020892583,10.137697161038014,-4.262251118582851,-1.321381230537449,0.6268461910573154,28.647269366640504,-16.65560603844183,37.851361960926255,0,S01
11160,0.09040566144971754,-0.05064874235468155,10.140058224826669,-3.8638457599694482,-1.5965516423868729,0.6718849611254606,29.34421773595511,-16.10289666229088,37.71280064877729,0,S01
11180,0.11005912181793566,-0.05394565627005861,10.143176780293949,-4.7429820283778374,-1.2556283533897423,0.6172169659876797,29.75197647170831,-16.35980605017504,38.24545244497888,0,S01
11200,0.09486415305011413,-0.050884829490671135,10.14721760761264,-4.423211697639759,-1.498510655154343,0.8683706496044594,30.112941829570268,-16.171816334541553,38.02871505810018,0,S01
11220,0.10745807227297541,-0.06379231146129294,10.139657944737245,-4.042106694934264,-1.4574036625497708,0.8880892748248452,29.61200910611836,-17.059348719512304,38.18768522807704,0,S01
11240,0.09759556229473129,-0.06773290345581384,10.15154958034381,-4.019978898708491,-1.7575728880717567,1.0636210361665976,29.337022766127593,-15.742220715711213,38.06825921430413,0,S01
11260,0.09462022038989346,-0.06026975278581833,10.146485075569803,-4.277419281980672,-1.1026517063778667,1.0133868486367477,28.740065376611675,-15.772455397474648,37.89582601256794,0,S01
11280,0.10674663493878307,-0.05708471061083255,10.141003951905951,-4.219367824776003,-1.3489174712959853,0.47086773435392226,29.006434670585392,-15.903377671457031,38.370187881387274,0,S01
11300,0.09798042478620378,-0.04884924249762275,10.142836909750995,-3.723032383318868,-1.4837397078283778,0.7591794448175206,29.68057426604541,-15.764010030551082,38.95827874924299,0,S01
11320,0.10707950623189301,-0.06881668169996367,10.141006174286021,-4.540511374306292,-0.6327179019069235,0.5694571544066404,29.247049520750625,-16.769081903202352,38.2252295523313,0,S01
11340,0.10484475403488572,-0.06993547267752269,10.14314971554286,-3.580918254228026,-0.9604601077159343,0.11728023223770995,29.135694826221442,-16.740418711529692,38.19790719648448,0,S01
11360,0.09919422763598738,-0.06786622456563694,10.152976480172587,-3.8459678631445433,-1.2307165131019902,0.9519482953340694,30.51477776765454,-17.00494995572814,38.02898685305488,0,S01
11380,0.10091916503935165,-0.06754298487576638,10.156091875582044,-3.9018544403508737,-1.1407858326685902,0.47363299188084856,29.050604592602753,-16.69085848836532,37.79697785419672,0,S01
11400,0.09299614156474692,-0.06708583216226374,10.14968449619631,-4.021099308554494,-0.9107009485733731,0.4557038704083088,29.329363784593497,-17.060591399359875,38.31222246000878,0,S01
11420,0.09831278671035788,-0.06188450726663172,10.1443660856629,-4.112981775352114,-1.2356742034477364,0.6769269534505267,29.99089195582031,-16.16982551251897,38.09560920254833,0,S01
11440,0.09307717814876564,-0.07405058667632702,10.146722257187543,-3.8127945694512206,-1.178161746629395,0.8324280190613269,29.050104708203374,-16.669389186206253,38.16035096038103,0,S01
11460,0.09964274262010017,-0.062136476274111854,10.139985346659255,-3.847225397829866,-1.1798443614952754,0.31012734992006824,29.427648775959298,-16.732364129182212,37.94403349372581,0,S01
11480,0.09995750001604597,-0.06440149206984702,10.138610746966892,-3.8584219060211247,-0.8321218223496598,0.8987211434318548,29.893615598219597,-17.054564387955104,38.316063616193055,0,S01
11500,0.10060714383331112,-0.06696465235629075,10.134708318525522,-4.127149963948147,-0.9120843417703077,0.5525721746902381,29.218261145942392,-15.903457350856135,38.37791112744665,0,S01
11520,0.10425334268755342,-0.06905535931416588,10.13991330877082,-4.194560923949486,-1.109747527820223,0.6469781551174739,29.7836559678921,-15.969104688471289,37.929830570412314,0,S01
11540,0.10686102374382032,-0.0668144683573495,10.148431526492878,-3.522955982164965,-1.4740402179145868,0.34815958622828125,29.802597592913497,-16.524901791415964,38.14395196177579,0,S01
11560,0.09999866962073753,-0.07004908736710144,10.15002256680455,-4.025466819540891,-1.306086167348184,0.5277653791091119,29.645037314400337,-15.736699629792444,37.51314899217643,0,S01
11580,0.10601586943046074,-0.06529791346852104,10.155018022649083,-4.21324371154681,-1.0748317434215324,0.47772417043318754,29.5515302255891,-15.959356798597677,37.99335770971092,0,S01
11600,0.1017563910581373,-0.0670671524845687,10.146944028971909,-4.591310232999257,-1.5836166828310418,0.4861268228375404,30.25989917570719,-16.900425581164555,38.04741596355102,0,S01
11620,0.10520638325449226,-0.07266551802228981,10.137879033451666,-4.427063426513716,-1.3053301157636106,0.6275354502746893,29.55100876758157,-16.68874497025163,37.17716397422713,0,S01
11640,0.09782464254669276,-0.07002005864904447,10.151713512276784,-4.431381425779433,-1.2096343631680264,0.43193714921802234,29.180784004462808,-16.205847700554877,37.63080386868828,0,S01
11660,0.11005673624405929,-0.07108292303574357,10.149436167007428,-3.6510114446013784,-0.9228770467940295,0.6753522625771805,29.933159720652245,-16.350976209568213,37.42707032149684,0,S01
11680,0.1042977841182419,-0.07211818128554864,10.141605253810665,-3.935426937771427,-1.2761706795626642,0.4994284259393129,29.56138256919517,-16.726674175470645,37.54263829066542,0,S01
11700,0.09538061346221074,-0.07261093642057109,10.154053470073936,-4.514725707172791,-1.6430125333489012,0.7531578928919433,29.127888538853757,-16.092122023529164,38.0725753709717,0,S01
11720,0.09047028608165783,-0.07309837979896847,10.14630010634156,-4.210648920521301,-1.107475216200699,1.3003678311354439,29.106413256550987,-16.08199630955359,38.16930191255783,0,S01
11740,0.09277220430789897,-0.08585788149161143,10.149192181568763,-4.227314782708238,-1.1983172610457078,0.7662292809976848,29.364412717950618,-16.655869472402816,37.56278033075697,0,S01
11760,0.1059084883377125,-0.07747046269414165,10.145539735016724,-3.918591742370914,-1.0574059166445018,0.08875774913418866,29.231099217319162,-16.588480074015056,38.50238132317163,0,S01
11780,0.09727070583093614,-0.07540772185906917,10.145533306767746,-4.113585597265463,-1.5285804148798374,0.129722550042788,29.086292975699802,-16.817487776497238,37.74727543940813,0,S01
11800,0.10627828265988722,-0.07480994829096849,10.15139949983264,-4.412164321503054,-1.2781389511874295,-0.06666708753142736,29.27750568089424,-17.11514104933639,38.20050634277742,0,S01
11820,0.09021105347178462,-0.07439100174693633,10.147398613973733,-4.292850942788335,-1.0153958796378564,0.3360946078817192,29.56737922441976,-16.335145605063623,38.42854417792097,0,S01
11840,0.09792057155598488,-0.09052714506932838,10.137131786323,-4.411340520925954,-0.929106381481211,0.5338629211333186,30.050524322336628,-17.261557715820295,37.82416159442106,0,S01
11860,0.09895138766854682,-0.08088241492820684,10.14767096687699,-4.154722012349848,-1.4754161178928626,0.4776951297145242,29.90496990816716,-16.4311498142609,37.65927311700181,0,S01
11880,0.09523610451642933,-0.07797093048961826,10.136106918566098,-4.217976477748618,-1.3434266930006842,0.4437841204172312,28.78593307536432,-16.746182081368012,37.64582465604556,0,S01
11900,0.1074409384663085,-0.08547959042239266,10.150869371816357,-4.418479468879165,-0.7240811560084812,0.690513352830319,29.2825381035792,-16.122892180471553,37.18949637783626,0,S01
11920,0.10492326465863919,-0.08456607529429362,10.143743290884474,-4.5793519048806255,-0.684867320022827,0.40551016502167103,30.4040621457787,-16.772573988550633,38.54086664176395,0,S01
11940,0.1016097130141001,-0.08769882905731968,10.139225733133534,-4.098267435927307,-0.8562163294719858,0.5968054639062327,28.45853839737249,-16.34511069870141,37.76538932669752,0,S01
11960,0.10538275519483371,-0.09102739994064135,10.150610593071844,-4.581981663737582,-1.8112852446731185,0.6279329953117594,29.735544815802623,-16.325100351627402,37.34070591036659,0,S01
11980,0.09616331994599285,-0.07611585037342426,10.151088621560783,-4.77522013258703,-0.8305823044453167,0.5751025338039021,29.658731591747962,-16.4003167552031,37.59668010048619,0,S01
12000,0.1099276578080631,-0.0822117298570638,10.143775766528526,-4.241826617352072,-1.2409588082171,1.0738431945237457,29.60735439587311,-16.03991163918234,37.80541937931087,0,S01
12020,0.09631881536613841,-0.09357848638157407,10.147636578483587,-4.112683824649354,-1.4402635769968386,-0.4007828760813811,29.300944674412495,-16.75389282200198,37.97695210394731,0,S01
12040,0.10206662357801564,-0.07889219780614544,10.144753746358155,-3.8522538998869424,-0.9386323056349831,1.2070032363845788,29.019135674957003,-16.171149068414955,37.55006308627096,0,S01
12060,0.10635330988584575,-0.09310685345792967,10.145129036683027,-4.4396033633516065,-1.2605992118663811,0.4797128355744652,29.122903887141018,-17.09256105011685,37.94876918458347,0,S01
12080,0.1055230900306215,-0.09356699078413287,10.147641776395341,-4.26669298527048,-1.4012152094176942,0.8084267549195964,28.969620064630245,-16.415317041229372,38.50523816044479,0,S01
12100,0.09849279374078268,-0.08184461103807292,10.14451264632126,-3.9029178870378276,-1.2228264813847143,0.9003289515221273,29.33967498080355,-16.181123605821078,37.37772772973969,0,S01
12120,0.0952789314059165,-0.08702555524297478,10.145054970502288,-4.051365789327133,-1.7765126594600043,0.30206172735969716,29.05487277757556,-15.713732853930539,37.86901158193733,0,S01
12140,0.10204321815646904,-0.09248015120321597,10.1403207280846,-4.300450847726579,-1.4907366617424667,0.3812937270399966,29.105618469482025,-17.79182871895856,37.5592010509537,0,S01
12160,0.09535814426631609,-0.0867199999476004,10.14318055361953,-4.598450249420536,-1.153982204318672,0.8325621125186188,29.408403377804838,-16.76766845477953,37.94900239274786,0,S01
12180,0.09690741865636165,-0.09391297463845101,10.146728922149054,-4.545552182487124,-1.123627167147494,0.6039414596785431,28.724890951982925,-16.36941102258935,37.707611723363186,0,S01
12200,0.10281289822398094,-0.08168747455230826,10.14557197363405,-4.005924868622035,-1.0399968101724641,0.43228418998365586,29.77245272353818,-16.672622940913143,37.91063647827204,0,S01
12220,0.09994444606526878,-0.08233269781690061,10.150728730557852,-3.5092353839628894,-0.9165998945237419,0.9304906195456364,28.801682053512298,-16.422852352544595,38.47605610396649,0,S01
12240,0.10406107658355061,-0.08924023598131368,10.146111977063363,-3.8071495133335875,-1.3210035136752991,0.8486426241664324,28.916796274261664,-16.18989352481307,37.665255586051124,0,S01
12260,0.1055307579281944,-0.09755929259981419,10.151079450523934,-3.5229214182230937,-0.8397752655271075,0.3997756559793636,29.71381331717375,-15.886161036637732,37.63375177202932,0,S01
12280,0.10071572015872554,-0.08902865603996712,10.15107559925007,-4.094908064404444,-0.9819827457893596,0.37073689943772403,28.466500835697875,-16.410012999865877,37.74073205471315,0,S01
12300,0.09905282588138731,-0.08460533213394147,10.146482719094296,-4.821355312786406,-1.0005596045402787,0.6205881079687912,29.211441320393106,-16.526326796861312,37.744141055038206,0,S01
12320,0.10054845263077089,-0.08927449523871898,10.145087571343378,-3.6886147749777134,-1.2670236463865276,0.787387991757529,29.740347298778147,-17.32750075325511,37.768665356390414,0,S01
12340,0.10211581991088753,-0.08283074182304158,10.140630509822023,-3.884558071253807,-1.2475139013153058,0.7398434892034351,29.49541500783054,-16.16170457079987,37.936447004404855,0,S01
12360,0.0964209109564176,-0.08922239822084983,10.143321588246938,-4.225769890549644,-0.40206558452171803,0.20354326008235835,29.3924443692327,-17.319557038105284,38.354024169143884,0,S01
12380,0.09881761277796194,-0.09347126719372145,10.145304770362364,-3.9227753272505117,-1.0690500382307315,0.9307843631696576,29.76293437452595,-16.628391653707716,37.75161061918477,0,S01
12400,0.09616510869181943,-0.0888136299634102,10.14234529735579,-4.180904578436546,-1.5953801333644209,0.456189915627235,29.588740979351194,-16.878240370932332,37.21363246590128,0,S01
12420,0.10182883524286869,-0.07906293516930168,10.144140164924755,-4.118232200410668,-1.1980347464088603,0.30678051624293023,29.775843272833548,-15.812600030885504,37.546822400817526,0,S01
12440,0.09495649130252154,-0.08847549332350556,10.153228078438934,-4.11591042799621,-1.4205422307861535,-0.21827243138821062,30.288641920543082,-16.41339149630565,38.362561027972106,0,S01
12460,0.10152845583835635,-0.10040398903149919,10.14078736228448,-4.173219987509999,-1.0281406421772072,0.7771492561622271,29.215717453554785,-16.379027323210984,37.732464807406934,0,S01
12480,0.10213365482009767,-0.08623329777166479,10.155620544260323,-3.7545854893301738,-1.7096973395177446,1.1849371129356427,28.422060507285995,-15.903112619678625,37.04179634436186,0,S01
12500,0.10000347626385223,-0.08114331374781154,10.14842727392823,-4.075131040989608,-1.287275507272114,0.8252156012199784,29.29086191640455,-16.004787019479398,38.10872880661178,0,S01
12520,0.10781118492191322,-0.0887823998940367,10.142672669461476,-3.962456901852172,-0.6736221627730117,0.8167388895113936,29.443332573637242,-16.211368626623255,37.54092379921122,0,S01
12540,0.09096891680662385,-0.08906236927120517,10.148492888822798,-4.166509988471555,-1.2888482130990815,0.7727480882498317,29.14497208889127,-15.779550849677156,38.41017583158582,0,S01
12560,0.1024448090931078,-0.09497957744955554,10.148079608955568,-4.153449402087015,-1.0331519806722225,1.037358528840731,29.67414943007358,-16.957782597322122,38.52474500857448,0,S01
12580,0.10699010232405913,-0.08336010771190949,10.139830575473127,-3.9786873867892623,-1.439355377816402,0.5732676410224613,29.40004694779823,-16.858802128089412,38.02430012073578,0,S01
12600,0.0946024677827833,-0.08791116774692995,10.146064595643619,-3.965672202671578,-0.7527117172903636,0.44144936087778597,29.127437309757745,-15.697209542630397,38.72660915620581,0,S01
12620,0.10456694646298337,-0.08723111970005526,10.150462553260262,-4.1761218774896784,-1.4167732150876136,0.8577564182908876,29.521845888021737,-16.548509610198728,38.740876026670676,0,S01
12640,0.10665726092652879,-0.08036830650121901,10.147090060206494,-4.189927241372426,-1.4501518464292908,0.48402380766063696,29.269087537444648,-15.847531091553982,37.9035997068562,0,S01
12660,0.09956545177806864,-0.09485687926919163,10.1437274446554,-4.5711365956707795,-1.5633977641650314,0.3999805603738149,28.88607792818162,-16.783653412839897,38.52654530996924,0,S01
12680,0.09191101851815406,-0.08647698593180098,10.146800515220429,-4.168821295590033,-0.8808135947983033,1.0429592830318686,29.644119321865883,-17.221002758907613,38.02839747937253,0,S01
12700,0.09429239429503238,-0.08299967292225607,10.150208842847736,-4.276760862621993,-1.343252966382522,0.6379111286085564,29.60452582278925,-16.606327125191648,37.367159707289865,0,S01
12720,0.0940548873173901,-0.07738229053925298,10.144316314027682,-3.879473432678721,-1.3314340807503793,0.4504249195428473,29.58035049378158,-15.968025473398939,37.64052102634348,0,S01
12740,0.09928730192932364,-0.08945141823611756,10.149179086333806,-4.69246107869481,-0.9284514889205033,0.32098943324581797,29.03369843335439,-15.818720421053591,37.32325757328479,0,S01
12760,0.09766597950297125,-0.0836735460574314,10.149837827528746,-3.789017127376094,-1.2214823047031154,0.6709945557639788,29.44218602563963,-16.961656726061953,38.054582431226066,0,S01
12780,0.1054958172790251,-0.08242798181303279,10.150240684749322,-4.243556031317698,-1.3541079194016763,0.8191557463101964,28.778833298535027,-16.419058745600182,38.05137310059666,0,S01
12800,0.0961073509329369,-0.08364010348458323,10.135281430157312,-4.066801509036204,-1.2326077336314525,0.7344231037869458,28.121068298444573,-15.839065399023102,37.52875948268343,0,S01
12820,0.09758787197134276,-0.07821868161754975,10.142590614590572,-3.941006124905207,-1.6139407655286637,0.5748825593094493,29.465559899510865,-15.747533505809937,37.92022890548552,0,S01
12840,0.09549847743625502,-0.0870052129303681,10.143060025113352,-4.047399841163351,-0.688129371908409,1.1006876467820672,29.668430194475633,-16.069772401537442,37.82953028558407,0,S01
12860,0.10951056754279082,-0.0777525270473775,10.148709543830778,-4.466740576660074,-0.69053651820029,0.5371909865589071,29.85414013853825,-16.447205436189037,38.10490515638121,0,S01
12880,0.10405275029320885,-0.07598400540817589,10.13901905675679,-4.238371270037771,-1.3241031408283723,0.45019011142064924,29.910501304947516,-16.904991665019892,37.532069143767636,0,S01
12900,0.10565386455643871,-0.0756323947140191,10.149014194960836,-4.115364027327344,-1.4721619634670389,0.4083999176439089,28.456890721462152,-16.985511809894078,37.525655109641505,0,S01
12920,0.09948332610754847,-0.08580985074035007,10.14756686922687,-4.773608468824486,-1.3986842250493452,0.3254398947059565,29.24076149807993,-16.00394134692477,37.09072994553442,0,S01
