timestamp,ax,ay,az,gx,gy,gz,mx,my,mz,label,subject_id
0,0.19051026645430857,-0.132467206688147,10.175572022976906,-4.379137116682084,-1.14396717878882,14.27592904075947,28.247807764410872,-8.426599028262986,38.05582141236731,2,S01
20,0.4281090408007239,0.4502569374299937,10.49180068312789,6.191224082452977,17.52113553958937,16.145919177036124,30.711055422776088,-9.35100818833951,39.711942301416045,2,S01
40,0.5308418141914856,0.9845047089577554,10.865715606590559,18.155428858126836,33.54966707777248,14.005365153203757,29.40156970240697,-10.849867596858754,38.738609077341295,2,S01
60,0.6971472592925063,1.3515557829643756,10.925316921948662,28.534611106056897,44.98136216259876,9.946860498193876,30.84621707439133,-8.813683960324225,37.92455109558391,2,S01
80,0.8728656780950895,1.4377060401624526,11.238248689811366,26.053922574593425,53.606933110096264,4.9209843813075755,31.666863969502288,-8.833385715741173,38.99127995508802,2,S01
100,0.8510904226745211,1.6759259818578316,11.38919939840533,36.425558797439976,57.29924583269951,-4.915386722164335,32.051581515952456,-9.505440327534725,39.083909163869976,2,S01
120,0.8108541543209807,1.6089557151528031,11.19006973984473,30.886858488826686,52.16716823259735,-11.654055314798603,31.442800945696373,-9.252151557086421,39.5569193140348,2,S01
140,0.5648339290643608,1.3534925116111716,11.192336087686598,30.656654193679916,48.00957276021077,-11.556868014585698,31.349985697976035,-12.079032592890648,41.685567105702916,2,S01
160,0.5787401776997305,1.0590061133688287,10.64449931800219,17.160665233069263,40.66697536111418,-16.613473479973226,30.43662532702193,-10.830060248134744,40.31776364091487,2,S01
180,0.3667383836098854,0.8014115451887074,10.590514268093338,12.331111538375158,28.226456417651818,-15.835819047158894,31.402793691597903,-13.696675556916254,39.67972575561081,2,S01
200,0.3826548041476254,0.5036567339833158,10.561154116073304,11.783988425297167,25.39691226421067,-15.338794070007063,31.995136646179724,-10.959270364686477,37.907314297686995,2,S01
220,0.2259660987174249,0.3610515719182445,10.357886190535973,-1.915087417696311,12.800212475338833,-24.367670873560762,32.01133898637018,-14.248804640810672,39.410310223954845,2,S01
240,0.17061093239703656,0.17320082323564162,10.2549349864016,4.354144398756238,2.510413202594987,-15.816338382473463,31.487854706594035,-12.105260710542922,39.064131911947285,2,S01
260,0.10913582246448068,0.1974245830865602,10.233418565790457,-0.6309711537542486,3.4238714359138216,-19.994646489659633,33.33001524158337,-13.43516589876836,37.232936298656746,2,S01
280,-0.060992796285706835,-0.10884635365518616,10.052731052740453,-0.908387244585064,2.020557979560473,-11.215749688450009,32.55903465639922,-15.346493324868089,33.56852032924036,2,S01
300,-0.02971033751410046,-0.35559950688392145,10.015738492511476,-7.142652469640309,-11.288952722254162,-13.616590813680157,33.33214284812199,-15.034803619496357,36.935512203719384,2,S01
320,0.19254207450169303,-0.571318497261178,9.982171535939635,-11.137932969986235,-11.840103528865924,-7.695480098134501,32.81686568311184,-13.314725485004823,37.26982371387787,2,S01
340,-0.018725247263971234,-0.5779270203415277,9.845551134261918,-17.326840720709193,-20.673179596032504,-4.957167452953998,32.68985045103021,-16.3329478510177,35.468292314464655,2,S01
360,-0.23371392092521323,-0.7666947002482141,9.587369544927778,-21.085199569346283,-26.90833846501005,-1.3253704595521634,33.79465574782449,-16.96276894854936,36.09810959336347,2,S01
380,-0.13361143218601873,-1.1896008447675477,9.515294212926179,-24.709820813370108,-36.58378488389601,7.648159978388191,31.763300017824484,-18.1650229145116,36.291067463111894,2,S01
400,-0.515563048723071,-1.5278521792188107,9.368785400558325,-32.6914288995517,-41.585370641166065,9.794311934320087,35.43620323205264,-17.21909017972282,37.19461020436378,2,S01
420,-0.5579117611883885,-1.5175342927473505,9.188903321126775,-31.694603049840804,-59.16455684201914,16.286565067250706,32.55963227039297,-18.96695583608057,35.31300488095646,2,S01
440,-0.8339970549914544,-1.71227329344577,9.074439141485186,-36.83090985542542,-57.74762584821551,13.745411102344857,32.45599695061964,-19.5773330084256,35.27665183096592,2,S01
460,-0.6514319738980627,-1.6423953867014447,9.239900651592318,-37.53188453417052,-58.64434639837462,18.079314179788703,33.51607411619104,-20.387775702012608,37.758988301070275,2,S01
480,-0.5381014999642407,-1.4819063817010167,9.16865936344145,-41.23938810161726,-51.407474033108656,14.92656535951695,33.30722680214036,-19.02169134429375,35.68335472596877,2,S01
500,-0.49681886767642425,-1.124773713415755,9.279234081037618,-28.050657806815824,-44.08514998474826,16.84771126766138,34.71161878641075,-21.11606811271424,36.15787620720836,2,S01
520,-0.30722423447723457,-0.7592798323323247,9.589806201913097,-21.78145007020022,-24.829930702677515,21.823776564362014,32.11658077584926,-22.570809760535084,35.56198640615153,2,S01
540,-0.08231642775214215,-0.13940965894043794,9.823070551359502,-4.651006611199549,-8.664770178522012,17.541257077844765,32.51988767259058,-21.964826088351636,38.308518758018714,2,S01
560,0.20769716726535203,0.22447915961105752,10.357321604000736,-3.524678431443016,4.882435519611982,21.624879248992514,31.585678836367524,-22.563863610154154,37.59064931697802,2,S01
580,0.5955646965681907,0.7187670763639862,10.595738283036075,9.592392411236297,25.226216924340484,19.84941802527883,32.842531007109585,-21.46306750755851,39.237058322781046,2,S01
600,0.665439569766285,1.2022727517560587,10.8672537707252,20.88354707888216,37.46367682004534,13.075976406924381,31.74588846875404,-24.834806340539306,37.902695439546754,2,S01
620,0.8543762725392472,1.2781296466263594,11.02903544847525,27.16458341267976,48.132677592490865,5.480992713242886,32.2385413347635,-23.718167288491266,38.31611169356191,2,S01
640,0.8802313389532332,1.6461903387538448,11.14740981959305,28.64751738862753,55.73865855702772,-1.7601475885452218,33.30515960846846,-24.44766125670862,39.28482734269919,2,S01
660,0.9094875249169354,1.6201686716053878,11.28694532648604,34.348114543896244,54.32316793547406,-2.785423368529864,31.37292153007821,-23.66410671649204,39.042415441948485,2,S01
680,0.7965365336180795,1.4797592126217254,11.12055066355596,28.83671664618529,45.729518283083024,-8.070381849162368,31.11516075664428,-25.240530970225436,39.5004790726098,2,S01
700,0.581151548893687,1.3272188241543177,10.992110576579911,21.112455028767993,39.97938939993665,-8.897067283014431,31.84695982292234,-26.05657872095583,39.397154135403966,2,S01
720,0.5251137887122079,0.9876911954281935,10.84895265978901,23.258459667552668,34.29603805214766,-14.237340374826092,32.489739935104154,-24.724801629055868,38.855257334755926,2,S01
740,0.21395919390572404,0.8037455599896779,10.608147736200706,11.317589601692944,26.296848099617378,-20.015175638607932,30.55769936783311,-25.74456862911155,39.49021549924071,2,S01
760,0.17958804070584028,0.5156799405036643,10.46796306209519,8.753463667566429,15.2022674578418,-21.554894381710213,31.185534900673694,-26.304746420379757,38.177985650905654,2,S01
780,0.2284559020988452,0.2837901407703134,10.309607141349863,4.794346275787979,8.99056479150416,-20.397709910334328,29.40457843815174,-24.364095724087836,36.29029655501685,2,S01
800,0.005476048533610209,0.23316343531243072,10.240959985126633,1.0353969057979553,7.294329631599903,-17.581897950480123,30.058351350153174,-27.158513030017062,38.411125201287085,2,S01
820,0.04593730172603387,-0.10507196772466221,10.094571820149337,-3.7154881008630567,4.619673537435282,-16.94047406273404,30.19374584443518,-25.599389631687625,35.461358808227324,2,S01
840,0.11255039010420859,-0.14090675312686407,10.065696719463132,-4.3454373568063005,-5.756672793604144,-15.864436318859527,28.696795346727143,-26.25108955385927,36.20446517753895,2,S01
860,-0.022564623920887775,-0.33633162776881487,9.909342497869908,-7.340450890003686,-6.5536767887864205,-14.106617443164037,29.633990676688924,-25.145042583819656,34.75036314213527,2,S01
880,0.10332193536241925,-0.4083357768751524,9.90714087395247,-6.931750514725342,-18.468462129187593,-8.296831128081008,27.538229315234908,-24.184497279866697,35.668586431879206,2,S01
900,-0.0320855017531371,-0.8253544517998868,9.789105204109225,-14.751508577466076,-24.442270910076992,-0.7901950549234519,30.110386720485344,-24.912676420564758,35.646498386277884,2,S01
920,-0.20833270402914458,-1.2586872917227339,9.612254848668863,-23.921669027168605,-33.937586274160495,-2.2217896227274356,28.22262837219142,-26.318241072919317,34.16000256406453,2,S01
940,-0.4958191521637524,-1.276150364224424,9.393186649515858,-24.04215518362275,-46.3971337235746,3.306393326263667,28.222151814745153,-25.220522443526974,36.38913842618607,2,S01
960,-0.5107623534054162,-1.5299055446775642,9.141263116798136,-30.912810676037843,-47.65218238925651,10.765506127080652,28.64484351579931,-25.521355673928678,35.858428090418194,2,S01
980,-0.6135950800572046,-1.6738897851045496,9.228899427721824,-38.546023738151604,-55.57967403386024,17.243485554613894,28.07949864527213,-25.26945648906016,36.082591215493494,2,S01
1000,-0.6509954375929656,-1.590655324025786,9.06455220218791,-35.39185591202221,-61.30494488051853,13.497928010726124,26.74594536381108,-24.054274830628298,34.71896661878595,2,S01
1020,-0.7313234655782224,-1.6661129598698294,8.98872337009672,-42.242482707189225,-57.59642428768105,18.37042817010355,27.159214648679125,-26.53160018041879,36.28010731809464,2,S01
1040,-0.450828428589898,-1.4656723830815126,9.309971605234347,-31.32538843324926,-51.51991573279086,20.786268622348548,25.900643415680285,-24.19016615463865,37.09383945591242,2,S01
1060,-0.4309626240974994,-1.1065573443811534,9.473316938596223,-21.770159533621364,-37.275113994226245,18.824131222753728,24.123308076679017,-22.449613850633078,36.79256125694188,2,S01
1080,-0.22966791191089977,-0.4856507176390364,9.867864816242347,-14.677087879055733,-23.0008168065858,20.425758567631227,27.23458505379632,-23.856967027890658,39.00984762955517,2,S01
1100,-0.0005163322877167892,0.04563403788256701,10.071248673864815,-0.7661649555665146,1.3214316083619704,23.635568675586185,26.189997023504347,-22.718080176171334,37.31641494476802,2,S01
1120,0.3452410205976212,0.5260761606621107,10.634758644282547,7.405357801845834,15.763156309576875,19.0687836945639,23.927629148250197,-23.515089160324024,37.522443095858705,2,S01
1140,0.5003071739672219,0.9904191977784178,10.84217528800246,15.796869831152083,31.76865845241849,11.492399113298557,25.36816883721346,-20.990627786515432,40.76337666873418,2,S01
1160,0.8704020727210037,1.306067750875638,11.07937700131727,30.337780787686018,43.99942001418341,3.410549175400068,25.07587431523364,-23.611823040704177,39.10114659643901,2,S01
1180,0.8034802891123148,1.40072803204751,11.129083125921344,28.571457504841955,50.78654862928627,5.366800064782861,24.10204252564877,-21.366140656095588,38.57606506430304,2,S01
1200,0.9404310181534181,1.6450543859901225,11.2866904298478,29.93229973136201,56.94444156159869,-6.401237452069546,23.682345260799213,-21.279492525114307,39.914690441289714,2,S01
1220,0.688804609821601,1.6072177838968282,11.129973393978412,33.27592623837896,49.22865920363995,-1.6655880822418836,24.422840657434733,-20.50031126772624,38.61979022192186,2,S01
1240,0.8046146544278726,1.4298982921735526,11.135650896237257,20.96863054964342,44.46785401660319,-14.978776350826665,22.82343604468675,-19.235747828440513,39.66342150961557,2,S01
1260,0.38875780391198855,1.0913337871180517,10.964150133910454,15.072116688919376,35.09545804995847,-12.387667038073948,23.321118631542113,-18.17289266007161,38.86042521857843,2,S01
1280,0.37599600260422095,0.9207808636558827,10.776195615173512,12.97689890861184,32.8945381029628,-15.96721255762545,24.835315717894396,-18.483539867838857,40.30107013984951,2,S01
1300,0.23344647771089702,0.6358608791012541,10.660949854993902,7.379925051621217,22.06481822327112,-17.77697744551769,24.02105801349969,-19.14095683351392,39.32433649365606,2,S01
1320,0.14756311769240693,0.27408851671220874,10.493571950615072,1.8768023311609099,15.078115121767055,-14.323183637285817,23.256904080917018,-16.489846172225583,37.3359620006927,2,S01
1340,0.14002162506535062,0.2478426402983379,10.405272908002848,4.534309330009225,3.8434722553846123,-13.55160173206322,24.590073836856007,-15.93243648877561,37.894500198136974,2,S01
1360,0.038636169834109196,0.049495700935121886,10.13205360169297,-1.4633762135684378,2.772199102336547,-18.255653403180748,25.392517307062292,-14.536356223760091,36.24614224270699,2,S01
1380,0.10970653326733984,-0.03156442641881961,10.207866883625446,-2.408658085656587,-1.5181943887815916,-15.28171021539849,25.286126797387205,-15.849155817005158,36.511616732630955,2,S01
1400,0.10048696490968992,-0.2272300334721995,10.142220061115948,-6.564041052678147,-2.8191915051151604,-14.982482675089921,23.570925576779103,-14.000785499044314,36.3557293717597,2,S01
1420,0.11156601839362229,-0.5216360474814958,10.120493853715269,-7.8139813579600705,-16.48691724191477,-11.025676158961984,23.936650036381323,-15.678904159087125,36.695079837345965,2,S01
1440,-0.0767495642143986,-0.7731974880029575,9.985039435775176,-12.012573510360028,-18.52107920369762,-7.704309352610304,23.88860876101147,-14.910281312177307,36.156344637004786,2,S01
1460,-0.1402948256002901,-0.9522897721415471,9.565307410037091,-16.870409385702192,-30.530450316753196,-0.2418242192948803,24.48204540581107,-13.472461580779129,34.63362540179358,2,S01
1480,-0.2624586160123117,-1.1740661801239598,9.463330102439622,-18.010916626105896,-38.649711380928764,0.6014615329542633,24.542011403710617,-11.428035834303781,36.878204450262565,2,S01
1500,-0.2812948734647964,-1.456292478473552,9.255839959587506,-30.482901005821248,-52.372509615705695,7.1369552894979265,24.60739702875577,-11.776841718095346,36.00895861786056,2,S01
1520,-0.5819950430911524,-1.601608600993994,9.156760319514605,-36.4857458470285,-55.36892268241514,13.378088876571853,25.420422990885513,-11.220959677740977,35.965280828181086,2,S01
1540,-0.8211065642584668,-1.7896232599666728,9.144297222196233,-38.91895594602774,-58.27536502704797,16.057863043574184,26.273670770498523,-11.749729113021036,35.574990244129296,2,S01
1560,-0.5946985896720484,-1.7400442881546512,9.120151710810324,-36.180460210261636,-53.89418487293556,23.961459366208555,25.843747401601703,-12.015630472250553,36.8489310877149,2,S01
1580,-0.636853877387549,-1.5473674169410294,9.25687269543393,-33.08015316412565,-46.944111639254714,17.10943060528972,26.279080676682057,-8.908821074293757,35.502607800475644,2,S01
1600,-0.2998395211547835,-1.210166286762604,9.288427128816872,-31.55598052224712,-39.36532112801701,17.425416463307506,24.490676304238367,-9.081256743252174,37.29434875243682,2,S01
1620,-0.2069786449491696,-0.9118719736055416,9.824558906611625,-24.42290645069666,-25.01791835803997,22.68133191445852,27.668737552258623,-9.90256347365348,36.885726248745634,2,S01
1640,0.0042240875235604325,-0.14554059559276486,9.914431656204581,-7.283479427884058,-8.062722350383364,17.697663309421053,26.431535659167643,-9.431331941835959,38.646265931407875,2,S01
1660,0.34400281629979906,0.20606828446645808,10.398606835378098,3.2210444715076783,10.585505964344094,18.23021458541528,26.987795790518106,-7.786720624298229,38.40308204618637,2,S01
1680,0.5130437392361213,0.6904765578983578,10.708271443110844,11.291959205371626,26.537777517495815,16.097947784012153,27.740250163137098,-11.226375249445253,38.45124239151009,2,S01
1700,0.6748367064683684,1.1449864276428907,10.883481412281863,24.911881047064373,37.65630602189023,8.495079123821675,27.411701262397035,-11.850863062527903,38.242779361733334,2,S01
1720,0.8510489591732555,1.353073101483302,11.117635219478164,30.54418289611787,46.14332079922178,5.587819775540003,26.38529905589243,-8.742141717460878,40.373708558289195,2,S01
1740,0.9195596738441346,1.5979338794407396,11.081960890532718,29.44937625998119,56.000584432136506,3.6008249319358274,26.1983194802122,-8.995754380721534,39.76191835354674,2,S01
1760,0.8927140083737041,1.6120960367587978,11.094937732919812,35.24252289911616,58.25767873967636,-4.934637284797752,27.717403779257182,-8.92754427663071,40.74828094696272,2,S01
1780,0.8025574432195254,1.4178141101239636,10.921806292942907,23.197308333058007,53.06339058374992,-8.379084120023766,28.676807932302353,-8.953193677671791,39.94763339571499,2,S01
1800,0.6202244702688103,1.1377260802614237,10.911638297637253,26.386582877884937,43.913056056365335,-12.268973134188816,28.076540690199007,-9.193488666063725,39.62356419221135,2,S01
1820,0.4359526531731369,0.9505744288150018,10.829828942831803,16.77568021182213,33.29808871412068,-14.84206334776166,31.944075777015218,-9.851440899670354,37.7711170112144,2,S01
1840,0.4417430208754952,0.8540038115072917,10.542385470438523,2.5665406420752683,24.009008062272102,-18.61708183678766,28.825856018507878,-8.471043110906466,38.29760924410338,2,S01
1860,0.07464878150090795,0.42338484361638806,10.515345851431377,8.291624364950632,18.753827660777322,-18.497920015186658,29.839863175200307,-10.677118111263962,37.50853933448771,2,S01
1880,0.15805838361243735,0.22059669630292833,10.293244393013037,-3.3429220934545976,4.802041265546774,-17.432222334760542,31.49859351210734,-9.389037015634836,38.0287194396183,2,S01
1900,0.10404391127218127,0.07046037580056272,10.215514476165202,2.585849078321915,4.2157269066880465,-15.601017641378947,29.470862721035832,-9.460117929625882,37.69955135723566,2,S01
1920,-0.014175030875528072,-0.013093483274331533,10.186176896167218,-1.3021250107040334,2.3837345607410496,-11.110977648978526,32.62091748875544,-10.982887938376834,38.03414954789059,2,S01
1940,0.08658285314300922,-0.17214294283118706,10.040143677027798,-6.945033450022969,-5.495291118247054,-14.300791269928313,30.10059069314895,-9.41096214453847,36.79319482334298,2,S01
1960,0.1870837841432671,-0.4634653802267242,10.032921257796566,-1.6018820003444798,-15.177724320999367,-10.629394013161438,32.09635392830097,-12.178159556881411,35.99118629016663,2,S01
1980,0.07682334149565279,-0.48902968196873403,9.948623457303727,-13.665696892843972,-21.576042096997096,-7.60330087063724,32.43759331966386,-10.194893488316266,36.62567760137201,2,S01
2000,-0.11306937442634382,-0.8803707398455343,9.775173752185415,-19.081654866250712,-21.40076389088442,-9.6587037873906,33.505935590505246,-9.956054130836815,35.09169589233929,2,S01
2020,-0.09086257877238538,-0.9606985540229716,9.57519468762922,-26.475101706123777,-34.48143439618944,1.6254002683918625,31.76176774683227,-12.79181523525194,35.8800447107554,2,S01
2040,-0.2555807666190598,-1.3871502902768986,9.304616470907423,-30.085525583590236,-38.32482253864657,6.2925596868123215,32.641790653465115,-13.19478090515124,34.735293217682816,2,S01
2060,-0.6425381768690444,-1.5824177396952976,9.367345577547107,-32.83326582564942,-52.895736589203665,7.82377792412351,31.853337847113316,-12.128075169656801,34.64933860128732,2,S01
2080,-0.5591287243940796,-1.7490072039034545,9.11473556591225,-37.136882206008174,-54.14894663281381,10.42511607237944,33.42652553734372,-14.839014771286648,35.38648822947631,2,S01
2100,-0.6174207974891369,-1.6830440049682316,9.101542862276007,-38.66614977951174,-61.298058867451836,19.425363691734077,32.72314918396903,-14.002588854049971,35.52743615445635,2,S01
2120,-0.7491984279968296,-1.6553561078545616,9.018699745461758,-34.46217318081858,-50.33182912562219,17.16146122762321,32.21795770434396,-13.36870969294392,36.006120021002786,2,S01
2140,-0.5106806680305251,-1.360807570413175,9.284505834904138,-28.89402190668573,-47.443089933426364,17.095749493892175,33.345715029428284,-14.891884387472517,34.8834746573809,2,S01
2160,-0.3690300867884667,-0.9347999682280872,9.525234167244381,-20.655569861245606,-33.65976676765044,22.37965627662112,34.91939646410098,-17.310749014608454,35.5051956923551,2,S01
2180,-0.21296303475441988,-0.5307242035089754,9.816129899175312,-7.525170525066872,-10.88756127423645,18.25730147014407,31.35577613694948,-16.925927688183087,37.291398574980214,2,S01
2200,0.18773429004090236,-0.07172072641664917,10.24616286070113,-1.3236957937341982,3.9964635636508916,17.513440193896834,35.01096612396918,-16.494219755774516,37.45599814234816,2,S01
2220,0.42786144966405504,0.4787171810483936,10.543052949056227,8.431799821636123,12.156917572178813,11.73969459093835,32.193155125752995,-17.430947386128793,37.90187684939981,2,S01
2240,0.8843979547249744,0.9028663044405285,10.825690121408629,15.468224652116255,29.985448847839233,11.596874457221599,35.39813421899011,-17.940723315363975,38.39199284046332,2,S01
2260,0.8089836702996643,1.3483559719690086,11.121959841351202,24.75638091032343,40.40210478228809,8.063037901458882,32.82659479181364,-18.222030804187217,40.30591518598897,2,S01
2280,0.830136146553744,1.4725913092977176,11.111750607200847,30.107217577693557,54.9218915143397,-0.321707546882363,33.46385284819643,-18.894913604299767,38.4021090491108,2,S01
2300,0.909439839404204,1.6167247495299941,11.11366188930379,36.04212678039503,55.68351722591683,-2.3644759565475826,32.52540345305282,-17.64380953246559,39.32390026819538,2,S01
2320,0.7297515131487045,1.5168040751375618,11.1153912559011,36.68093267984479,53.06793383648539,-8.379238428996821,33.12460835500271,-21.243753605586832,38.049576050462115,2,S01
2340,0.7372158091039951,1.4393876750272219,10.793105062277036,24.647923225964664,40.48832972572684,-10.33300940797892,34.633321289299786,-20.496386238163133,38.52973632341032,2,S01
2360,0.5856301654904295,1.2133775024915603,10.907924053004997,21.054709095498342,31.959488675263305,-14.933751378799249,32.96971907698877,-20.151879513774126,38.676226716215595,2,S01
2380,0.40548164203500725,0.988752611521498,10.631672920951697,16.617157257075917,29.560376807393776,-19.934637988665095,32.447149723356624,-22.137315292358824,38.69539671604924,2,S01
2400,0.19053561351719808,0.7543343690534183,10.51566964706666,8.621167713262281,20.741418930101055,-14.255180073139924,33.79268763080882,-23.45608350848815,37.86848179524103,2,S01
2420,0.1679984380963018,0.4491137112694324,10.510054984727994,4.763388178370607,9.06792614740559,-22.431807960483763,33.45066870217617,-22.503364315534405,38.05943255394179,2,S01
2440,0.17110585040889448,0.20358939468110493,10.299084450399857,-0.1391340635545406,7.664670363946388,-15.360595423484027,32.7825618662815,-22.02416383800555,37.016043505867614,2,S01
2460,0.14673236936515102,0.0077717722774307,10.342463291621796,-6.764451293134086,3.543551344076584,-20.826569124333247,31.870351459177368,-23.99189274569324,37.19605386764498,2,S01
2480,0.20844603028457065,-0.10561609291197778,10.131868052520032,-6.264366866217625,-3.3445271149801856,-5.977913434311365,32.14264925337866,-23.77018896827085,37.59840230412921,2,S01
2500,0.21296916751298184,-0.3692318826650776,9.95033583011611,-9.70295031362156,-7.947880735180628,-12.012802004635333,31.58979787349866,-24.361063647485032,35.21452019522526,2,S01
2520,0.019088724476454377,-0.6623103864756368,10.001469021329983,-6.208604829653384,-17.068658470374693,-9.436829878593713,31.31079854005835,-23.73466823839501,34.72410219078503,2,S01
2540,-0.17396610069858434,-0.7232882993049079,9.678599903849406,-13.310454719320749,-24.50863012209261,-3.447527141692777,30.221360232198588,-24.11377644829051,34.46079955821445,2,S01
2560,-0.19227313499948187,-1.0393831643357307,9.690430857841024,-18.26574404370994,-33.699068006861495,-2.822696227529807,31.37320077268133,-25.176341650403764,36.59835231838048,2,S01
2580,-0.3873263259047125,-1.1567643929494764,9.435455067719898,-31.187566313903574,-39.05667639128031,1.6969246002712488,30.038033091396596,-26.796596372080895,35.53983534695844,2,S01
2600,-0.48397170424674807,-1.595389169046136,9.479011228262141,-31.79891452340221,-46.426544352387324,8.1114802382848,30.352929524274508,-23.97018256260228,35.534140437905606,2,S01
2620,-0.3250193969247893,-1.6364942634050348,9.069586856771153,-40.14270651954109,-53.975994450677725,15.87936398110603,32.170380307905496,-27.89484522848441,35.72380085128601,2,S01
2640,-0.8867077025717437,-1.6895142206501998,9.079410144369815,-39.56048073134291,-51.08082660296939,13.400623412550617,29.47307751166506,-27.317222633089525,35.49163457067127,2,S01
2660,-0.4516995522752921,-1.6958198111401703,9.195146359299308,-39.871708191994465,-56.93861792555685,14.537564488154926,31.06004376433541,-25.389709857908123,36.40756344773839,2,S01
2680,-0.5423998605707108,-1.3813755029784038,9.173890354497571,-37.42380268770584,-49.52287512104129,25.93200498706613,29.12097476135456,-26.141456574251404,34.78653380437597,2,S01
2700,-0.4679919541646266,-1.0969381804399587,9.418785586698474,-26.214289821748373,-41.32019768906463,16.87091525862298,26.790720235817886,-25.301909766632555,36.273775497373975,2,S01
2720,-0.1864698622605835,-0.8518982021606085,9.78491947577396,-11.836481107857775,-24.068344063719096,21.023485599716217,27.591339967108727,-25.612016994463538,36.954930552886495,2,S01
2740,0.0028985318537115418,-0.2959620590747384,10.055931685343086,-9.021132045244496,-10.733846843878126,20.51244545819553,29.35665307358528,-26.499888585669844,38.82636188906999,2,S01
2760,0.27012568726980485,0.36200597595886297,10.373101027813721,0.9478845407208718,9.303094019945327,16.78519039313174,28.240817696048705,-26.07186472025364,37.179849150578086,2,S01
2780,0.6099170785571625,0.6865934153131779,10.623385221446245,14.448777540142466,24.75574257487726,18.00650111782906,29.64181729321761,-25.81064232887563,37.91104834633508,2,S01
2800,0.6816786545995241,1.1625715264976375,10.898746888695573,23.545280173642798,41.95156331306751,10.744620429049988,28.139080401688833,-25.529145401992732,39.494578248218836,2,S01
2820,0.6715760382653054,1.4907081876557664,11.183110769586436,32.42812900361291,49.3166892088754,6.287516181637397,26.353381291151024,-26.20944429221672,39.23696567675514,2,S01
2840,0.8671942315800836,1.4930195024083408,11.173317530390657,29.232443633911796,53.78566127054172,-0.6741103978736293,26.04016689813512,-26.09992537624311,41.35002240959176,2,S01
2860,0.8589657112034993,1.6885484817509926,11.208969700761315,35.47730058988192,50.78541697809948,0.18619592354549563,25.71612508022207,-26.28354731106487,39.51474951195814,2,S01
2880,0.8391530682663293,1.5428601209336423,11.213920072907122,26.086150461898036,52.89085489769131,-9.964094163834572,26.783236910778523,-23.088475698920842,40.849956240771846,2,S01
2900,0.7221298591770009,1.2859894075642966,10.96757319289225,26.66856976025233,44.97397665682782,-9.853621400695511,24.086551933678408,-24.848393942568464,38.990120119768804,2,S01
2920,0.5012594702720156,1.0383030515319738,10.764370643818278,16.49782448361749,35.35099219074947,-15.576652405841804,27.612816476771094,-22.980206289194225,39.08698504271227,2,S01
2940,0.37826155907437975,0.8177662962858536,10.623187046513491,9.21021393112282,26.872069958924587,-16.108625416120464,27.66705485367594,-22.64952200446168,39.06697852752441,2,S01
2960,0.23117599108251494,0.4179529233962589,10.455295228953194,7.802746983011461,13.722103549016058,-20.113461342255114,25.78343263563508,-20.95499742682707,38.4910483191855,2,S01
2980,0.1395460076852339,0.2880528832865553,10.227818909012006,3.024693283953969,11.989840448199526,-20.512708244804543,23.571705934949378,-21.83244180454072,36.7991570778918,2,S01
3000,0.17467536285166363,0.1482324151599007,10.167809731129038,-2.998900987091218,0.7136039620904693,-14.042809937196251,26.206775372094807,-23.633152084577947,37.13513532591769,2,S01
3020,0.13846638689251778,-0.06903423241205515,10.093383382505088,-1.2782837859027323,1.6317221963591841,-18.100167444294804,23.882284702652335,-21.226540518232866,37.739332517214095,2,S01
3040,0.054415284128541276,-0.2313636450955824,10.115566323047721,-5.41219548516166,-5.714148364179039,-14.169232956176492,26.225364654211457,-20.219552015088475,37.59366361556241,2,S01
3060,0.009328368444222745,-0.40241958055501587,9.903299930158099,-10.20107223499381,-2.844441350759838,-12.009214960651702,23.57937892278145,-19.38350772258145,35.40217752795412,2,S01
3080,0.07642944862130861,-0.6691093288331342,9.760353488733713,-11.891275017150338,-19.48607797249345,-12.025591981315786,25.245405462798196,-19.873888543312127,36.083267724725616,2,S01
3100,-0.08700530130524758,-0.9355983813066173,9.720921663638906,-17.840939928450688,-26.402295723178423,-6.0227198847760395,26.332995243092842,-19.210795518555997,36.86802972880277,2,S01
3120,-0.34077962117201677,-1.0444767639945702,9.500717617871894,-20.030510304515747,-35.7402499962157,6.105868795616846,24.97464026913064,-17.719671952775894,35.3818124510431,2,S01
3140,-0.2436385992184025,-1.2467689125626262,9.40548617243901,-25.382599090712915,-44.9381711003007,8.680487753317685,24.301815310475448,-19.180128238126898,35.7382846324529,2,S01
3160,-0.46916152585098425,-1.5607158337373368,9.229183345758283,-33.80196207606198,-48.396786878595805,7.4809120376070215,23.577004898271582,-16.228046751353254,34.431961353943976,2,S01
3180,-0.6984039901014086,-1.6678068995698043,9.145075288364742,-42.35291051801746,-54.967615148282945,16.948768001125124,24.276727517688734,-17.388078308140322,37.00979245884841,2,S01
3200,-0.6846408336914281,-1.6708096130713443,8.963102175544465,-37.006200779981164,-63.49368178186478,13.658397669200129,24.360506511349783,-14.289347571621821,36.395549619968946,2,S01
3220,-0.6973532851650018,-1.61522526302943,9.19048748316938,-33.04151594676266,-50.243505523706176,15.343729965626991,23.52227179518456,-14.040188939552209,36.87793900119951,2,S01
3240,-0.5742620430588387,-1.2972140532186573,9.277925674581127,-35.08414831941153,-41.661505869996894,17.037917029023426,24.82403053731351,-14.558885276000229,35.43311315312233,2,S01
3260,-0.3304200547465648,-0.951615844129879,9.58779807132066,-24.56820984658343,-33.544622124941604,21.807591959703426,25.28617363565506,-14.686997944334161,38.024524584577684,2,S01
3280,-0.16248391757619554,-0.42759214043455596,9.996337737398385,-8.451096036107867,-19.534856652801516,14.16816913120461,22.6591830539608,-12.077791021266789,37.053661242128804,2,S01
3300,0.19066435304921778,0.11010449765440747,10.17454571330786,-4.0675268836703715,0.6595445450747006,13.161996806065916,24.996396303003735,-12.079326348791902,38.35669373112122,2,S01
3320,0.3485972255471885,0.43966321184292784,10.60452593687262,12.294649666065101,26.356412932300035,17.42355533385118,23.64531903888343,-13.751644565505309,38.88069946880502,2,S01
3340,0.6039042798519698,1.0594196999040775,10.757257573682553,11.294540641448265,35.659694474711124,10.190750666727661,24.087746783421363,-11.95380086723043,38.56805016895662,2,S01
3360,0.7942797682506217,1.3631192749680723,11.046778616272448,24.78980228549669,45.69112229402174,9.482801378512775,23.121302477866777,-11.172497422646074,39.09938213101293,2,S01
3380,0.899374699783024,1.3957032665323186,11.351311417657588,29.237173045152506,48.94571602000254,6.045806568279601,26.02484620124166,-10.664295620838498,38.54979844875798,2,S01
3400,0.9385637355867111,1.5380763516548774,11.163716281192753,29.69683681529442,53.529388538321385,-3.3294668336069786,25.703817910222526,-12.602614393756316,40.069085658294654,2,S01
3420,0.7561267715169742,1.599920250320811,11.091975070200732,23.449770771567156,49.19606938708369,-8.47676545553179,25.968723071206256,-10.682339969139605,39.431190988400765,2,S01
3440,0.6948769598301121,1.3407858544932914,11.041101884042405,23.349507617874394,42.939835361467345,-10.958613532901051,25.737274542626764,-10.213551902865241,40.350946114665845,2,S01
3460,0.42784530921474295,1.170134062954654,10.739081392124545,14.136440778967842,36.139497885422635,-19.51096043158207,27.019805547555986,-10.346124157375531,39.83500299245773,2,S01
3480,0.26324720317445993,0.8097249315668271,10.66994798983426,11.375999313631837,29.986510739918035,-19.460413559334214,26.599782917460253,-9.992399421020986,40.391784772989,2,S01
3500,0.24759426574141224,0.6184032976446985,10.499966277803436,4.619793498579239,18.438847566894022,-18.777734412995418,27.44787659065184,-11.098711409274543,39.548164147181836,2,S01
3520,0.17226591056887638,0.43895307900233954,10.2046783119068,-2.0177378260605687,7.822936362967758,-17.338656567628494,25.5554071696397,-10.083551556539597,38.21421211526332,2,S01
3540,0.22531253258212,0.1929245035791367,10.326662184133088,-0.5144534818626436,5.862419448045486,-22.857093319022027,26.52443507597996,-9.181081757196115,36.77561202279634,2,S01
3560,0.08175338959480186,0.07042817393651435,10.198908651029111,-5.885906061646601,0.034955338870720665,-11.704214420677625,27.385875597621833,-9.848658739465606,37.439209434460444,2,S01
3580,0.10622725201358395,-0.17198217578199876,10.087565348531394,-7.289399956700546,0.5236920891654735,-14.243215627191574,28.909923191086357,-8.2523350406801,37.89920576785971,2,S01
3600,0.068917522182364,-0.35982839506451764,10.041427267143689,-4.983266762548887,-6.698791171215161,-18.892173357158327,28.065536049322162,-8.112201943833407,36.777873223982816,2,S01
3620,0.005251138148476789,-0.5419189565671572,9.88034795803066,-10.441684848004762,-11.710013011584149,-12.067876452167452,31.269658726804437,-8.27853554711924,35.484639081997756,2,S01
3640,-0.14770242321279048,-0.8200584163931361,9.894857069027731,-14.927717030477261,-22.68686982978798,-5.887437285609208,28.730659467266214,-9.44847967805515,35.89023600130439,2,S01
3660,-0.0031747291790672483,-0.8962526778980469,9.670966779412202,-16.48141618729278,-31.932702465704136,2.63666132168331,28.85765155228572,-10.328214074432807,35.990804390707694,2,S01
3680,-0.4247454425389191,-1.3122398587475659,9.467945066847486,-20.576245409798215,-34.22129020646023,3.9413535645977356,29.313512580514622,-7.666944738132235,35.51160877447997,2,S01
3700,-0.3598562405247028,-1.4836451204481942,9.439264701434668,-34.16352371594119,-48.323377642743225,8.683739321531922,30.35703833550322,-10.425698057498893,36.26678022805519,2,S01
3720,-0.48717980624710167,-1.6014843998459258,9.104173421276306,-41.1053039263472,-53.9448728289169,15.420587308669829,30.175979234158216,-11.747952846266806,35.586387043682215,2,S01
3740,-0.6189012941548653,-1.6681199260313577,9.066421205723463,-38.41945969763585,-57.210800645191625,18.254181808765555,30.207554122853818,-10.3487221589768,36.591461278663665,2,S01
3760,-0.5964219884777642,-1.6167517173551071,9.1636894578057,-39.13446584390495,-48.06590214137651,15.336886361638028,31.156116943758203,-11.713052951366805,35.20824457299489,2,S01
3780,-0.5704908262404573,-1.5306248662112762,9.200790579246219,-32.00170896635492,-53.21818463825656,17.44752267768851,33.15068813722227,-11.251007474225805,36.558641141965836,2,S01
3800,-0.3818492885923819,-1.1282414338707656,9.196980101271341,-27.461223368326696,-39.62983026099263,17.344520009687518,30.916033018425377,-10.761384172637493,36.31317384024879,2,S01
3820,-0.3278908254049897,-0.5909603266095407,9.712191283204238,-19.94741923407236,-19.385828593555335,21.681970212992347,33.69875666761394,-12.865773472681239,35.70466513142746,2,S01
3840,0.08531910974718371,-0.3532122910234966,9.865794985651362,-7.994481485812772,-9.878337251036541,15.635747141481177,31.460209459935214,-12.795288229913519,36.82854149594943,2,S01
3860,0.2520813914738397,0.3387200894456918,10.48832039588551,4.838836221754113,10.31759674166329,16.24645785890794,32.405730759399034,-12.435732496694747,39.16051933864496,2,S01
3880,0.5016557547808363,0.6368260957712384,10.695408339558385,13.512599628097682,24.799735394906644,15.095004940715274,31.57070587584995,-13.314093772636252,37.14911032301364,2,S01
3900,0.841032968952425,1.1946696224009374,10.991885806713292,22.674181333817696,41.59623891821218,14.355282245848711,32.795873586518006,-13.645752893082623,38.11836235364746,2,S01
3920,0.9290167034234018,1.4515685727514904,11.199501903195836,32.30161755265472,51.79430973364483,4.8339292874158675,33.3220207511979,-13.48466677494044,38.033016429168455,2,S01
3940,0.8622486807062084,1.6187948569993762,11.158933910237428,33.89300597405367,55.68125276982013,-3.9404660109907783,34.81628688080316,-15.977675093599647,39.735441295700994,2,S01
3960,0.7620323271980708,1.569493725067404,11.181504674645563,31.787329426142005,57.923238851567454,-3.501988533392598,32.557993867989886,-14.007805937374869,39.869209488787114,2,S01
3980,0.8837189859267154,1.3887656568856566,11.051580717140233,26.62309589818658,51.209132241715274,-7.086118151763822,32.14090657005407,-15.23920898233969,38.91893924593093,2,S01
4000,0.5674575870861456,1.256351567170041,11.031793752176647,20.260820430113256,42.843812245687474,-11.730273632897331,35.32194436081106,-16.4153283583992,38.09966887452915,2,S01
4020,0.4299440260473498,1.0898210325494988,10.832983172273739,14.74581726619131,35.790163495443856,-11.266912502442167,33.07831286071068,-16.947778926635767,37.828922150585434,2,S01
4040,0.5083964776173089,0.7429821474220295,10.574750663670663,8.157793914791192,26.40650086092301,-17.449899054328615,33.14439963355574,-15.090199293982138,39.16154411067266,2,S01
4060,0.22700884082066752,0.588002353502753,10.445190036594141,3.7983354659412534,19.719890294433405,-16.679654174485513,35.15163206078644,-16.534011674937,38.33427763540101,2,S01
4080,0.17186778049788454,0.25293543498809323,10.374778281878815,-0.12014655256488194,10.658303092754082,-19.231350971764023,32.806401948025226,-15.59128155131516,37.07252967304733,2,S01
4100,0.11765876810549591,0.03249123859844755,10.185902204998811,-1.7457289243421936,6.778838970233367,-20.091948116434722,32.116983060058715,-19.947603579346463,36.29916654848581,2,S01
4120,-0.02460297637043575,-0.1621390352408359,10.160710905579217,-1.5545404987100477,-2.4563596269337644,-18.37117969355264,33.932772556616676,-19.699484807264195,36.73185392977975,2,S01
4140,0.051230117562552094,-0.18477629422364772,10.048305079752812,-4.915944715699644,-5.811010832865196,-10.216578401616728,34.33726790321276,-19.098740303861632,36.53927315154999,2,S01
4160,0.021312897935116523,-0.4024268196522825,9.887372061340788,-10.087678420937236,-13.917290706651556,-18.04466791922647,34.11586972577851,-21.28949247028372,38.127311684307436,2,S01
4180,-0.1368572465447513,-0.4962952964804663,9.84771838866316,-12.942873690481438,-16.216952198087935,-12.570928554355175,35.32305270681012,-21.151196035573548,37.08265484256804,2,S01
4200,-0.026196588879792815,-0.7874409844209107,9.815862566689415,-14.89743692554519,-25.88353787179518,-2.7634358622221207,33.60178350565386,-21.114967081658136,36.13215899754397,2,S01
4220,-0.1055548666969579,-1.090210155014061,9.502174190962446,-19.313700326447087,-37.32448432767724,1.2259340875159666,34.61922804151223,-23.350574613368572,34.86931757573107,2,S01
4240,-0.3708908005688122,-1.4234396862144283,9.431636905141378,-24.6768316829527,-43.601473904642425,8.915467114862277,33.03098518319491,-22.888409987854523,35.05584814451545,2,S01
4260,-0.5276747598607077,-1.5952444928984866,9.348638568512413,-31.232743315306653,-50.464059758674004,14.045377868555446,32.37452199057064,-23.794402003535655,35.78059720684311,2,S01
4280,-0.5832405541865596,-1.6450315688380983,9.041860293690672,-33.06347626180668,-55.9101276852767,12.532373247944374,32.27797988614202,-23.40318889224255,35.54990752147128,2,S01
4300,-0.6641332048896829,-1.5952112013406914,9.1103223840153,-37.934039422815886,-52.50952894341399,16.958577457397165,32.884079590099496,-24.901229180452514,34.74792940992243,2,S01
4320,-0.663811180294354,-1.5027681242943272,9.150295533465634,-39.58364159172058,-57.2303004380442,19.788934787464363,31.455811338010452,-25.87357666729102,33.87591977137974,2,S01
4340,-0.619892237822246,-1.3883439385520744,9.350641100816114,-31.56164529224212,-44.41221105508124,19.10078887127608,31.92787928340527,-24.91598191024979,36.89890684808171,2,S01
4360,-0.41379454159639184,-1.007034857678764,9.426382971659192,-27.85015328796163,-33.0817857991427,19.272217160019146,29.66032843843718,-24.513221116023498,36.640379381393295,2,S01
4380,0.014879904658604504,-0.7352914996626538,9.829167319821453,-13.34492714237695,-22.24924702702913,20.764154841478287,32.855060227123914,-25.9844875200787,36.679156797336624,2,S01
4400,0.0755405591144712,0.09575804958110506,10.167801934358323,0.18391418352213496,2.814340820808445,16.603922496401598,32.10670096652777,-26.02586760284673,35.3733360849147,2,S01
4420,0.4104666478077478,0.5156684440388948,10.39740788943545,9.487671689388133,23.24002398143234,20.45980994189334,31.752546703407997,-25.982573610436557,37.84463467585621,2,S01
4440,0.692219243697036,1.0021079615475714,10.802328343594063,17.850582535020678,39.13652626535597,9.562610791769627,30.378488300561962,-26.56918220437957,38.507654761168,2,S01
4460,0.881171670008565,1.5114421113264127,10.863960263540104,24.545268087743175,48.667359023318994,9.146811321576395,30.690791044924065,-24.44933362948095,39.63626887704172,2,S01
4480,0.7898843669124622,1.5370432576591424,11.2203097189897,31.36355454723758,48.707515907779154,5.987662762521142,30.610585757150695,-25.134989389138553,38.51182722595704,2,S01
4500,0.8862384701955367,1.584711156938755,11.342597929146025,32.276379747944254,54.48296038334101,-2.9401462506143865,30.85890105804689,-26.90450887798259,38.126595530298246,2,S01
4520,0.7308726948840624,1.5897170901476458,11.018352833071523,27.46345403621341,48.35632814343189,-5.319886829788963,28.70973040106803,-29.153718243442576,39.4462324634598,2,S01
4540,0.7087998265898391,1.2750545397576027,10.918471669182859,22.017701215358645,47.70231156034429,-10.978728228996706,28.301977617772916,-26.765499190317968,38.87337509099905,2,S01
4560,0.5353017222507326,1.1117907332574866,10.843674534652514,16.60141870923868,40.53076563150093,-18.609115426664573,30.316126646936656,-26.354591773978047,38.59623498759365,2,S01
4580,0.2818069798232773,0.9764956470728734,10.737666966038049,10.41507449240655,27.257665238233226,-19.858072935772327,27.948357242900503,-28.252248324451685,38.12015148782197,2,S01
4600,0.12781197896561503,0.7158999120848342,10.480993671947086,10.310999757417822,20.349861535224345,-22.864204681669342,26.223633026874136,-25.64299105246801,38.48632024553834,2,S01
4620,0.22646892631275048,0.4405189254008555,10.366949721527533,2.2305043355563257,9.49504193606378,-23.015822707375484,28.444065501932673,-26.855375983903492,37.077824144168346,2,S01
4640,0.18242640266947127,0.20882958148657538,10.263438373464501,-1.8786142807714206,9.33964677295887,-17.22129591471947,27.616041959667875,-26.458352282938737,36.62482744751608,2,S01
4660,0.20109508225827072,-0.0006951480418428135,10.303287777988066,-1.7293565729757026,-0.7670951224992313,-19.714400702303127,27.78640877495278,-25.197234769596108,36.16199701633292,2,S01
4680,0.17609238838036506,-0.10881773382406056,10.063248006578057,-7.568625849307217,-4.545232072046482,-21.18127215672901,26.546897327315143,-26.080794981514156,37.44977156203366,2,S01
4700,0.05486436380607847,-0.4286386952694646,10.069694305532542,-9.686457765833637,-7.764887864465532,-9.23647444912112,26.69174169563731,-25.721849043303866,35.99839378534014,2,S01
4720,-0.04646371547393169,-0.5525648236406038,9.808966351611243,-7.410892279796802,-14.345754836672821,-5.834054383328797,27.55969750654018,-24.572024407311655,34.72412646710159,2,S01
4740,-0.026406936067094017,-0.7791443151874224,9.808041834552132,-19.308719640589068,-20.164826390888134,-3.603197968720116,25.091839572191024,-21.865570574071015,35.580661758464224,2,S01
4760,-0.026160184222887906,-0.9666887869096794,9.65769913499001,-19.219223408446158,-32.780550870694036,-0.5786201620497008,25.511676626230937,-21.686505906040765,34.84904955116589,2,S01
4780,-0.34353964668121106,-1.3082416531039847,9.578996560015982,-25.416585143990577,-38.43133470132722,7.208253719318574,23.480749772285563,-22.366854256436046,35.37866170240275,2,S01
4800,-0.21703749721589624,-1.557245382866245,9.384623336152602,-34.65943848217339,-51.572977024134,4.001554361220048,25.85655820847305,-24.36597127104127,35.206586539262105,2,S01
4820,-0.6097893827459548,-1.759015697271569,9.207621550751911,-36.0932060551198,-54.51014419470345,9.843887432511885,24.5360825187236,-21.465230758200704,35.379077569666705,2,S01
4840,-0.819147116087091,-1.8479935366901734,9.053972257599696,-35.16460116408555,-52.52254046621311,13.80992385514191,24.542438357690045,-22.576451655315203,34.66129106233876,2,S01
4860,-0.7967133986572393,-1.6829710206314998,9.128778154940273,-36.257251440286716,-60.680529714491385,17.400605348625476,25.794771386448502,-21.154118077424272,34.531261771157205,2,S01
4880,-0.5960876398013026,-1.394630011004137,9.189444421064525,-34.718020681592655,-55.03578433179036,17.757373407338235,25.491199995175517,-20.767835747539372,35.186452694272674,2,S01
4900,-0.36740454654018007,-1.0863013296913728,9.625375420577681,-26.91245440289777,-40.56326267215435,21.878442086664922,23.29643781491633,-19.502774292157614,35.769993620147716,2,S01
4920,-0.16078314070647517,-0.7854754009053737,9.70379870706399,-18.887793155799365,-23.72809692168808,20.69488607704481,24.051010051449392,-19.705495566712553,37.16819490637538,2,S01
4940,0.029710761264721344,-0.08603234283979894,10.036851739631226,-10.473424133733747,-2.49967889509832,21.229347221614113,26.090900695693268,-17.17255207332271,36.91735703875496,2,S01
4960,0.4440978067274517,0.3774829489441847,10.393492012588496,3.278342893148923,13.53421361943029,17.593003807404457,24.269931878549784,-18.58875620508264,37.48452344638724,2,S01
4980,0.5676388145512804,0.8279950933733471,10.804554997437378,14.132695797369959,27.768778535422804,13.201256444334605,24.263473237458914,-16.69435216752988,38.516447332866164,2,S01
5000,0.6652311906707511,1.183880347987134,11.023563313748246,25.411079353748047,40.94718771017511,15.668881981514,22.305527255607444,-16.59674901989521,40.9362287475744,2,S01
5020,0.9574656421130217,1.377406999856992,11.151671578523048,27.87714533927689,49.44243766963855,2.6950449368177587,23.58500796371635,-16.97091234735074,38.32278786309611,2,S01
5040,0.9038121419025937,1.5887667128977296,11.220330775145092,30.44821413880752,58.584921960649574,6.321162987741632,24.08422389191347,-14.5668086571363,39.20644069076734,2,S01
5060,0.695803984678962,1.4146093459291758,11.229187214471116,30.40551110373536,58.517044299502274,-4.793108842845085,25.88112592339047,-14.078645800575929,40.8815902128438,2,S01
5080,0.6725334503870961,1.2924268381902766,11.04180567006563,30.814331906628883,48.10306144526198,-4.30926477150498,24.039124420879865,-16.682187983179116,39.726608913304204,2,S01
5100,0.664865518715633,1.1900404362527697,10.920495904779557,18.606234159499845,42.11876427346743,-15.77045744114974,25.226048349166547,-11.969929786496575,38.66671834891547,2,S01
5120,0.4559717256017589,0.8068164762439147,10.736043284729206,13.260317661851882,34.922894283228686,-19.74150754240479,24.31544972949517,-11.45729324481001,40.07005716780766,2,S01
5140,0.28149777420124034,0.7533463413518846,10.52583065895037,13.487751334137485,15.063372458279979,-14.332708726819819,25.66811115640351,-11.58724541177218,40.099298354896675,2,S01
5160,0.23177876221659602,0.5098561157017698,10.377869114961323,4.852150042080175,15.145200392770573,-25.305214016511623,24.128837308811384,-12.102937893855968,38.321786648902766,2,S01
5180,0.19096483435669986,0.2314102578955018,10.219150254857144,-2.114417765403102,3.4072448765370558,-18.361816290242572,25.80721521901453,-11.216820725200378,37.55011574258962,2,S01
5200,0.1009685188213727,0.09422058151684914,10.170535643618983,0.1302993723011312,4.931286759549455,-17.101185383139956,25.56025489010154,-12.97303836557559,36.328759855488336,2,S01
5220,0.2341347375564888,-0.0707032769487299,10.221621663364688,-7.4317812769931235,-1.5010910848913523,-20.70629760526478,25.273902678694295,-10.026816286822879,37.79254603883474,2,S01
5240,0.27002349181271257,-0.21034532068630604,10.100490800443756,-1.324923016026367,-7.877665367791153,-18.663230461429034,23.7143697032218,-10.810340376221573,36.86868858697822,2,S01
5260,0.0634170629586797,-0.38435187145168603,10.090911385878282,-6.228349973585678,-12.750190155201338,-13.953269908032594,26.542573791910286,-10.506834581684416,36.40493184837505,2,S01
5280,0.024729510747187655,-0.6635418406489064,9.777928108898061,-16.75089641657788,-17.543806172486576,-4.933964545997831,26.509241426124817,-9.846264558480822,36.538401903261665,2,S01
5300,-0.23403035321871632,-0.9204826982730088,9.69763762774275,-14.176857225348808,-21.581892533577825,3.205674489352171,26.75773147126474,-8.980376980289009,36.38453760054602,2,S01
5320,-0.20717541192205488,-1.0106819619902552,9.566097682598832,-24.481038350031604,-34.99440549188115,1.1615499891926873,27.21908382355805,-10.631293476757783,37.064365440629615,2,S01
5340,-0.4261449038484857,-1.3485499061200288,9.473730104569501,-28.041553916745833,-43.41405106844227,12.006656370386814,25.79912076702881,-11.253543518517027,36.246055348379926,2,S01
5360,-0.5509647839091893,-1.4861098340188612,9.176465350331089,-40.654914423027606,-52.36864163852148,7.978367595433254,27.692301092064245,-8.076036942998124,35.07686396718566,2,S01
5380,-0.6944887118589822,-1.818535768281931,8.986086599776293,-43.54125615054338,-56.601541154153864,14.816042581241316,28.812996261666363,-10.106279905150426,36.286723049877615,2,S01
5400,-0.5660606203132627,-1.7195097977039313,9.074492543815314,-41.238518581996374,-54.56975998437026,18.38188481609327,26.717678669894827,-8.647026272152681,37.36885871112496,2,S01
5420,-0.6596076447358482,-1.6160343683700054,9.17667667699571,-37.491601798744696,-52.352574394850336,21.013853067544943,28.558208013880897,-10.880098716722006,35.905078973839025,2,S01
5440,-0.5816582590211383,-1.3075879379051354,9.430120326040823,-31.81025966217131,-45.101517232915704,17.792283541544634,28.395712739124352,-7.424436900711302,35.13769136847485,2,S01
5460,-0.4312633157040763,-0.9868111398529702,9.675949709328505,-24.054525788448345,-36.28128342791258,22.849254601166262,28.00266778308567,-8.613300471053922,34.877056979298565,2,S01
5480,-0.08015502321169848,-0.6010896244921329,10.012730648796547,-2.996053458590816,-23.023813916267994,21.050129981262273,29.77766546546738,-10.000994580291357,37.24559196404759,2,S01
5500,0.16257653695013774,0.17614198211363416,10.205799622136979,0.8192920541878896,8.952509336685587,18.109330912740113,30.295869646488057,-7.69869014186015,37.1607780830848,2,S01
5520,0.39221567972336113,0.5517259238992795,10.571673569375928,7.552684826510155,17.567682333681635,8.085306603376255,30.399048934404618,-8.985619511947487,39.60804014747363,2,S01
5540,0.6155663556098977,1.0533830982842909,10.74797527842119,18.42452802046162,32.36412354897357,16.546189714302844,31.16261986136547,-6.69501203396805,40.055024807291396,2,S01
5560,0.8399579428103187,1.315070324902084,11.072180043585892,27.686194054713404,49.22803084506727,1.4440539280056925,29.76850063828076,-11.253789781881746,39.03301605702899,2,S01
5580,0.7801001390208103,1.6998684302526152,11.192929015406987,30.306683606230987,50.20958281294812,-3.0744017416326552,30.4930808982126,-9.370384771072413,39.59910674522225,2,S01
5600,0.8440863044232567,1.5640508664970265,11.114382976155532,35.124074535477206,60.578039997679184,-1.475969598971469,31.822290093279364,-11.555733022325393,39.21856983367281,2,S01
5620,0.7005854741840616,1.6189123491812865,11.063682267909726,24.509709355433678,53.00825291173673,-5.304195039461,30.637359967022235,-11.592642931305566,39.917442163245354,2,S01
5640,0.649540444006199,1.3599797841126122,11.176285038884693,18.180779475434775,45.62709796590556,-14.16628212448141,30.364249689648357,-13.113747154455366,38.28307983636554,2,S01
5660,0.5621406776076344,1.1678341369603404,10.855714198200747,18.68742177395814,33.86461956174395,-11.918374523124953,33.339016183620565,-10.674502630256868,39.1349343757796,2,S01
5680,0.23141381523803065,0.8551554663090166,10.713538791848428,14.420621576890092,29.334306301209676,-19.523236127793943,33.31192557179291,-10.441556376500621,38.83726928642571,2,S01
5700,0.08323311300002774,0.5094792803563415,10.40538493218892,11.999578188694624,19.748389876526165,-20.628554484285424,32.673911001420734,-12.34374931865286,38.57983650722845,2,S01
5720,0.16117985876457272,0.3686959021348033,10.29571586032665,-0.5208216964508097,12.377684197714794,-23.457435559079773,32.35487910901456,-14.040302442939835,38.62900862312239,2,S01
5740,0.10911806177832925,0.14666034126769256,10.391222498797683,-4.333462000207025,4.376961307424519,-13.290144901841318,32.12806872888094,-13.441439212147753,36.436108856184134,2,S01
5760,0.08386001133641696,-0.11407943552450979,10.025738995010228,-2.6322061551458193,3.170609642363753,-12.965328703094945,33.07788146988814,-13.491025345051948,36.81364929153477,2,S01
5780,0.13471869876723622,-0.17035427235333966,10.156033183738474,-4.5723391852300335,1.8545959055753969,-14.273815564681835,34.361741209837646,-13.300456614919993,36.58431589871002,2,S01
5800,0.03512535214222606,-0.40341479833271254,10.071707754211333,-3.2366840322261083,-8.077319515001818,-14.82513691462251,33.91829966704218,-14.627079270454766,36.81249063303938,2,S01
5820,0.07095854275317588,-0.4808014108717423,9.848851432467114,-11.726318848482824,-9.501575519757301,-9.046570045003133,32.99689191305079,-14.204734396794308,35.10141181855215,2,S01
5840,0.06304002500851211,-0.6427886566407202,9.748463903067604,-10.920211576233527,-22.754491540829374,-4.734040611706701,34.4487910078878,-15.311329538008009,36.32186963717699,2,S01
5860,-0.10552900626884495,-0.9609285924291997,9.682379180915861,-23.144830259887826,-30.6624853578299,-5.472608575705713,34.43680853067063,-15.749420795858748,34.61974392611266,2,S01
5880,-0.09967168975747237,-1.270696307898656,9.460181070785168,-31.487293059513522,-46.974197360000865,-0.9922511722386554,33.78198801389776,-17.74359701687144,35.27612280239353,2,S01
5900,-0.3982916191080118,-1.5429984922726148,9.196408869996333,-31.174219398446123,-50.5559555256245,10.495084079135228,34.031585764822374,-18.194336983762078,36.83941205827366,2,S01
5920,-0.5118463799171754,-1.7300641522107172,9.155603595855254,-34.61239147671003,-53.49124250517875,16.701440929489223,31.695255429130825,-18.72606514722929,34.91192171052348,2,S01
5940,-0.7794169619505326,-1.6501225219897089,9.076883204657223,-41.46096681393974,-60.771692243069005,12.284929173902997,30.121208061681003,-18.809952693838774,35.867192353654346,2,S01
5960,-0.7518506656198128,-1.7040357205310763,9.078928129458065,-35.46925848348362,-53.251293599107434,17.411244226505488,33.226760414197166,-19.319436369433376,37.078429491919884,2,S01
5980,-0.7608333551265121,-1.4823804798037694,9.214224429233427,-35.69726192298524,-49.632558822416776,18.55339084149543,34.78227789155059,-20.218805543787415,37.03769876457364,2,S01
6000,-0.307803498071772,-0.9777226773755208,9.398970007439452,-32.625606888711275,-38.04742327219661,21.984858008731447,34.805139819001546,-21.004403280332525,37.751412958863455,2,S01
6020,-0.34087531597463727,-0.6854778898180829,9.62948357191664,-18.47766907243767,-26.82420293002072,16.54457913362808,32.56059851396455,-20.118737249861685,38.52287128445367,2,S01
6040,0.06461517271945141,-0.17048647242838777,10.081829238035883,-8.061193360124802,-5.257990536328337,16.91670382031687,34.360940511751224,-23.491989698136862,37.4408717547584,2,S01
6060,0.399144934994495,0.17873638594600658,10.469705741781635,4.108898113898767,13.03841881861735,17.667749971084813,34.418477550925914,-23.59688295127192,37.23862437663141,2,S01
6080,0.5869201682476693,0.7795918948281104,10.636988321853163,18.869894118775296,25.159182289645056,14.299798697593273,32.480669081762976,-21.94588279540108,40.15543655139348,2,S01
6100,0.7062991771411817,1.2749868527082946,11.00326322328387,23.118299857060553,44.28229847405735,7.949693347198763,31.13842458642879,-23.883093201593432,38.67687316909324,2,S01
6120,0.7920582385705853,1.3724821726617775,11.1324095165113,23.444020529705103,48.46319159472363,8.98311254768556,31.546123285447848,-23.612098933712478,37.46156086802761,2,S01
6140,0.9245826718514417,1.4958304023529212,11.091816704872707,25.76807461518333,55.04310041713595,-0.16947681919757007,31.25405781053,-23.00290006156856,40.89870169983322,2,S01
6160,0.9036628835167803,1.533090002517392,11.14514499041403,31.446784722639325,50.49014498854022,-3.815813596739122,31.342554969873156,-26.20810045561573,40.022221183796056,2,S01
6180,0.6996353564622954,1.3672691267851882,11.1207456730706,22.591484452665142,45.2385717751451,-6.973298917740598,31.08455018809381,-25.356153290222426,39.91292533815117,2,S01
6200,0.5694384534925486,1.36635119341591,11.027798153711347,27.00996969341879,41.02144771527509,-16.68896737255821,31.676930108631076,-24.800668389050006,39.15372556813593,2,S01
6220,0.4649592919961072,0.9588765904180099,10.725373072421528,10.839265869351948,30.839745214281603,-16.09066329394385,30.313385191957252,-25.102968787035515,39.11476336482372,2,S01
6240,0.3684605024410894,0.6944675868136712,10.711366208882387,10.879212986727822,24.120358568561816,-20.967534467399478,31.87439651941498,-26.87377194827564,40.35424417385475,2,S01
6260,0.3213796166779911,0.4690675364575518,10.292774390593685,4.4264435194988225,13.826195427965567,-17.0511174972621,30.957697308769063,-25.509705369387255,38.04133968790606,2,S01
6280,0.1320872697829308,0.29038417923802856,10.369609959459408,2.763422114693763,9.901001011059936,-23.377773552365166,29.61353666713891,-24.24531803771907,36.60533216574578,2,S01
6300,0.00445767810706682,0.07953918389786813,10.310381586783347,-4.1578109857250425,-2.838660770159774,-15.198137558476427,29.244495324169876,-26.161204477439313,37.39617856745379,2,S01
6320,0.04585748369677568,-0.2180442530842958,10.161857307377552,-1.0563465440964297,-4.146720476335652,-22.561496779023212,29.30487977733276,-28.825187594738733,35.42587850967212,2,S01
6340,0.1431798082258785,-0.29891813725271904,9.978618825758687,-6.6689939637173925,-3.830881693788135,-10.03947843372483,31.006541133142743,-25.813338147562177,37.37772874510305,2,S01
6360,-0.039620324200699275,-0.5657454514608908,9.999530900101378,-11.470643161872491,-9.773491991605738,-12.897991316998793,30.208989965706245,-24.378914405568597,36.30058008971645,2,S01
6380,0.028806011812064963,-0.7108086267588034,9.843386339332804,-16.102350963816566,-20.65586468482249,-5.802537459157922,29.923935989700592,-26.462649637950516,35.84666120048411,2,S01
6400,-0.1678768282848839,-0.9579462012520248,9.839620007590701,-16.82841161820583,-30.700627644724417,0.7329233321270111,28.957672400662567,-27.430824891448243,36.9461837783617,2,S01
6420,-0.30619615478470086,-1.249621317199105,9.631075095551774,-24.25659068323125,-35.73088677409193,2.797544187230754,26.780629599744167,-27.16070276963161,34.4330831466824,2,S01
6440,-0.4460453733976689,-1.4553635931769162,9.266277749298096,-34.30919130777115,-42.93726633069887,6.440006898721849,27.579080890827512,-25.577163079387088,36.188563630357315,2,S01
6460,-0.3764521749179023,-1.5998932775566785,9.33425388734785,-31.869118924371893,-54.34839113353425,11.862650993195798,28.4021948283959,-25.151109012838077,34.52815174224264,2,S01
6480,-0.7087206621575677,-1.7701899369352283,8.99620085110711,-39.89925067557987,-54.11608089081625,11.872206824579054,27.406906477434568,-25.450170704160854,34.08657206083022,2,S01
6500,-0.7937002938594003,-1.7675507705236018,9.002248983605734,-36.235219889995506,-61.707759962662145,23.989418089707065,26.71454905171358,-26.271880335573645,35.747538207213395,2,S01
6520,-0.7280348453846153,-1.6460082008593744,9.254031593456153,-39.52956281325792,-47.65582228007244,25.82225096956607,26.244509440713376,-25.21581256700746,35.3657875952823,2,S01
6540,-0.6199511845059581,-1.2050702239029605,9.34295069712732,-25.15755286285992,-45.740425286551606,22.947090369739072,26.584449922276207,-23.43981502484944,38.24859088863979,2,S01
6560,-0.5375261546671157,-0.9309524716640989,9.622016752741711,-20.635254097289014,-28.175360347246947,23.479532139954735,27.835044858911704,-24.05711489058582,36.11364112663158,2,S01
6580,-0.07519158835890677,-0.5280275877847085,10.045872690037985,-14.098142148811508,-11.280405121590405,22.078235000830436,25.88958629784505,-22.614088057337078,38.066199464343164,2,S01
6600,0.13953833848213992,0.16990915024431588,10.208430903349072,-0.677971964820022,1.7712839452887048,18.679975090080937,26.526662115226337,-22.390722559475197,37.95043755693761,2,S01
6620,0.42780872376631673,0.5984605610733977,10.67875813570714,5.556591690027315,21.804477985121924,17.54255185410362,26.80055582790157,-23.274377310983198,36.06436814753326,2,S01
6640,0.6920361362731983,0.9437181264110956,10.828358537881295,13.872806277865347,37.30398917648703,11.976372127546233,23.752590048287324,-22.08839823666063,36.697739977721476,2,S01
6660,0.7915304556521215,1.2644887377077572,11.076877007771442,32.38438438178604,48.174645117084765,9.446785213775756,24.067971393549755,-20.82623912959098,36.62295598482438,2,S01
6680,0.7730657734785198,1.5163044291902594,11.091185919306458,27.537381063514356,58.45154748157474,4.06035002715753,24.964652831669174,-19.916600998727763,40.210436015708304,2,S01
6700,0.8287455507390773,1.5478162747577389,11.065404731256386,31.945628804938213,54.81092655504533,-2.1568063061075797,24.2621212742959,-19.53620650656425,39.01836030957429,2,S01
6720,0.8221547951570849,1.609164394805304,10.957572248846091,26.434759506167882,52.50609632372416,-11.77365271107781,24.66131407995684,-19.05743501575178,38.37422278845036,2,S01
6740,0.5890778084405771,1.3408071329980282,10.862129350329369,14.154824868954979,44.844837499128694,-9.645346863282933,25.514846513908132,-19.761505408025574,39.93157733134102,2,S01
6760,0.4171647295885488,0.9649827825571118,10.725133108985913,15.59440611691825,38.29670494902725,-11.938020944210619,25.248055136647977,-20.278476408591686,40.355941006560364,2,S01
6780,0.21423699418499265,0.8160847431375677,10.652539315301787,9.460694321816284,31.898900365809137,-15.865593838041493,24.065749713286017,-17.889469917931315,40.38309305554977,2,S01
6800,0.21707547796321858,0.7008076863392663,10.430114720237196,5.079639183390499,23.317130957664,-17.338592580502894,24.383385850807386,-17.674633997753766,37.790260639290025,2,S01
6820,0.12982007193388775,0.380302450715968,10.370663944187056,-0.5413220762879134,9.31560576684744,-19.172413850203068,23.162807382766346,-17.589708381033482,38.85251373143116,2,S01
6840,-0.012579775821515912,0.18805873371766624,10.261560862816575,0.08663066557047738,10.227119024096208,-19.883253171578065,24.246968912439762,-15.762364810204412,36.46233660257726,2,S01
6860,0.17307607953097598,-0.02839104648369571,10.128776426237224,-2.501381172173439,3.861399748944124,-16.21463462635017,24.498171556089847,-15.30194753528623,36.80384722164549,2,S01
6880,0.08164167945069806,-0.22509696029022136,10.045950169863769,-4.492526613115646,-9.233555110885973,-14.600559427580661,23.20258005018154,-14.031963589936527,36.57407465604232,2,S01
6900,-0.02497085002060845,-0.17282359840688044,10.063585116230652,-9.391328662857871,-4.126967257932498,-14.05565502762906,23.772553007118645,-13.350228227930348,35.29571061945043,2,S01
6920,0.08814948133037842,-0.4913256681103197,9.888843846677563,-6.314723807386255,-11.801262452984503,-9.706479990903173,25.934892725295708,-14.609979513567914,35.61734401426726,2,S01
6940,0.07820294830436873,-0.8314693300129157,9.843443645477874,-12.280562132545843,-23.49512568056578,-8.01426122328843,24.54760332501333,-13.598152697372011,35.63570404270342,2,S01
6960,-0.029080808361468757,-1.0542451049367427,9.703405626869738,-19.377754262832024,-36.80889308473516,-2.0160084926010886,24.863055347417966,-11.975413346003538,35.553801702162104,2,S01
6980,-0.28671719267827245,-1.4024793441740535,9.63337886992863,-23.48611814362022,-39.53977539218364,6.280772859344674,25.67931977275688,-11.746231680084547,33.86682589299009,2,S01
7000,-0.4276763454013711,-1.5350466127923668,9.208683281367714,-29.331194403924016,-47.85047932669035,1.9886100617960731,27.18026943702574,-13.948358823824693,34.77566761460149,2,S01
7020,-0.6878078405836756,-1.7668355540636618,9.201459330948891,-35.98716874028888,-56.26036897454756,10.753461533764865,23.895601523429626,-11.376996549966325,36.46778184000552,2,S01
7040,-0.6486595740264343,-1.7928755126223521,9.051174216347068,-35.55542944826063,-58.253384541270925,14.089730232616661,26.127075865456625,-11.517859305218742,36.09304588052668,2,S01
7060,-0.6950022364042118,-1.613213710964153,9.084519913772828,-37.426289542023284,-57.41850427600977,14.835430356247873,24.04927669325844,-9.825324249170464,35.88128414002816,2,S01
7080,-0.5742801824592209,-1.4362553149171509,9.088458972579714,-35.23645167156666,-44.98927759275418,19.700726159801295,26.346011453250718,-11.354262607066486,36.392475157268535,2,S01
7100,-0.3652145908783835,-1.1578160935213653,9.491071554002371,-28.30635642855677,-40.93676099789519,22.329476663009473,26.885456702383326,-10.381941628161439,33.857206001264224,2,S01
7120,-0.30549443787083685,-0.7003818379154279,9.800758500733279,-14.873908960629024,-20.067824773074694,20.98153069854046,26.934326794931618,-8.284460530221905,37.92195988660879,2,S01
7140,0.028990933292751625,-0.20284544593152168,10.084745455961288,-6.217498961783987,-6.756181413198191,14.1844548677192,26.512312283664976,-9.766670754539597,38.45019948919289,2,S01
7160,0.20497539616742327,0.3609796363335175,10.416488502134559,5.726193524583384,18.337047474512833,20.95613799428389,24.386810496214853,-8.5894398569087,39.081528348082834,2,S01
7180,0.4501439203698424,0.8393664074053797,10.84234019993772,15.234004076015498,33.42137558120455,17.288331765188207,27.00661652000562,-9.751528339130644,37.3501733190403,2,S01
7200,0.7175782413304013,1.0975790981016333,11.030445670522328,24.069801313020324,44.1643957347242,3.844241920630433,27.377489149619816,-8.900540195816037,39.067931577494406,2,S01
7220,0.8236163375471144,1.3715927258678695,11.17216365773044,32.61453863695433,54.18048255140969,5.062002201862796,26.039167186917297,-10.170777121954519,39.52687326043976,2,S01
7240,0.9035665485758669,1.6209096332928556,11.169612353791951,32.04518150890804,60.14726116916269,4.5236169496552225,28.151079617594405,-9.450798244406073,39.71673414616336,2,S01
7260,0.8589763549265563,1.6151276917903827,11.13344522507173,29.516679265272035,50.774908055602154,-0.34666734422587064,27.22663793430518,-8.890703021152005,39.0669283804177,2,S01
7280,0.7641806714042707,1.3784819999944817,11.160631528644512,25.433337636963003,50.03370347245896,-7.832462240183025,29.57991975781937,-11.11020294774087,40.557835047917074,2,S01
7300,0.6527171391465264,1.2077967447044378,11.054219533906533,21.082556236345546,37.5848977090293,-12.491445039809584,29.72146085665156,-9.507923198634218,39.47946488167199,2,S01
7320,0.4275793990038508,0.9050626541703799,10.776563387803057,15.473677370849455,30.637661513862096,-13.274728070701599,30.873414587167144,-7.337405099187822,38.50835390058424,2,S01
7340,0.1373634064479461,0.7272668618770841,10.47695456562855,6.747260593747483,25.179003312487,-18.952488260353576,28.732471944169074,-9.072831671945067,38.775287462761284,2,S01
7360,0.11981149810201286,0.4897437246847894,10.501579341475045,3.1967214064722214,14.104476847346767,-23.51801088816768,29.098043276161015,-9.730145547130057,37.93562855236454,2,S01
7380,0.17890014487832062,0.14406805831134695,10.35006693432371,-2.62137040214442,12.739711435335783,-21.178983748868944,31.19591638912136,-12.435310742708808,36.395858683647624,2,S01
7400,0.007239660369155881,0.12762553971708246,10.188887268401812,-1.2117152302899514,-1.789512243237972,-19.292437907931166,30.62530938244742,-10.116058558428405,36.07464305744377,2,S01
7420,0.2647696026926732,-0.08626266015916809,10.139901017416813,-5.260246216663593,4.212706568655528,-16.71703939565369,31.92829791545129,-10.469834862420019,36.62708391980884,2,S01
7440,0.21480475725318204,-0.15649002185381045,10.22391571274086,-5.0001207892302775,-3.013152693538519,-19.68102781257062,31.677287280596456,-9.467395172941131,36.481292961359216,2,S01
7460,-0.041309497240354265,-0.5197126115120132,10.078410344189088,-7.857325571262809,-16.140992930219138,-4.335085191497605,31.58470682545128,-10.096036822983379,35.66016250920214,2,S01
7480,0.097170121927086,-0.5699042925220321,9.846991577472648,-12.90724954505821,-18.49182964446548,-5.5716231389271424,30.998760888365318,-9.767180379805495,35.93253662646917,2,S01
7500,-0.04574012705050018,-0.922372596665264,9.785933014506584,-19.94672121327753,-26.78597000845707,-1.0724439930308498,33.25584124336062,-12.018251454030686,36.213201737097116,2,S01
7520,-0.4092133724992568,-1.1968403384476345,9.49647266507988,-23.876654742506776,-36.003187497495084,8.38836172352274,32.094073721053384,-12.598304055201712,35.54622832872834,2,S01
7540,-0.30076152001078804,-1.3677060857941308,9.353406739986648,-26.503638081900842,-40.2869082728372,8.969860215540665,33.59313914169779,-12.505062305825216,37.552411334194126,2,S01
7560,-0.5591640324246417,-1.621974100414187,9.099936624825018,-36.63447120421542,-57.21437319468517,15.176482348953778,33.877094926031475,-15.83053870888433,35.62242990008447,2,S01
7580,-0.6241372616462195,-1.7787667778485732,9.020986298931504,-39.71702145823985,-54.045070530819345,13.381739779981434,32.57630118433634,-13.88606755158484,36.835587814735966,2,S01
7600,-0.6703719227206524,-1.5911543478539052,9.074666290264904,-37.577499572377434,-56.1384426864184,17.020098242133578,32.44362289130845,-15.19050762193029,36.21439878474036,2,S01
7620,-0.7210608474482252,-1.6174461443811898,9.228701192245978,-37.944806781583424,-58.10995065276998,19.453999679905802,32.07910909394256,-15.011874363785196,36.187903334736625,2,S01
7640,-0.5387233174379095,-1.4234936698473404,9.463442220982278,-26.22449167594019,-41.117272061759586,18.528838085686893,32.21763168187015,-15.244298958953014,36.702112923455736,2,S01
7660,-0.4079716375938126,-1.0097550366816528,9.544214699888796,-22.098023082164794,-31.66520839525331,18.752375610681675,34.20571031886432,-15.443031656779038,36.459268456589314,2,S01
7680,-0.13545574639372393,-0.2415367604593576,9.874254822548505,-12.972093067258104,-15.239076308710871,19.774978027030294,33.00246826873723,-15.145111473696879,36.76560484586962,2,S01
7700,0.14930999445987195,0.08217662473496945,10.177250547267931,-1.1594001914488778,3.154806401327402,15.729877619803277,32.92952324872937,-15.39308229164367,37.520601596303145,2,S01
7720,0.5966539409810228,0.5621845117399233,10.744257019378844,12.426438931139103,23.08600598132875,12.253542276531062,32.62817227311739,-14.119108621593526,38.91746534771179,2,S01
7740,0.7651171907708589,1.0961473905597123,10.801848201157306,21.08266274807633,41.17553480035047,6.861757017535101,32.298306162636536,-19.313148713308138,40.646457999379734,2,S01
7760,0.8802716190135148,1.3276811181877057,11.114386719377592,22.90850454907471,46.265573792525416,1.844864186951812,33.82687087610908,-19.635213122273726,38.737731019183805,2,S01
7780,0.8501454655234986,1.4913742184103065,11.246849394380277,34.26146353898491,52.76892644914413,1.7472137132597085,33.17846986273429,-20.15647702533809,38.98770268959927,2,S01
7800,0.7396965352641914,1.566078381454005,11.199375565674048,33.48937935848259,53.76354532082556,2.3611768986341986,33.09030846700797,-19.889933156748704,38.286604949184884,2,S01
7820,0.7109664598560823,1.311359704351154,11.27061668324944,30.032283449950622,55.49633795976544,-2.9386256507800517,33.23534767757584,-21.798699966330744,39.09891521532057,2,S01
7840,0.6687527823440647,1.3625531052160529,10.952432132611374,24.679830376738966,43.12025154652948,-12.452907743800312,33.41225272393618,-18.60557415749097,40.03793885332413,2,S01
7860,0.32394873310707195,1.1219685788335014,10.812812591509989,16.291797927045963,35.531393088944576,-14.06686074517164,33.75712986964484,-22.300522197352223,38.788913403717764,2,S01
7880,0.35009250458644847,0.6691363922997413,10.578817824356278,15.2351375056916,30.279465037903712,-19.890119650837526,31.75968852224527,-21.4336389211414,38.33176788644216,2,S01
7900,0.1851337667694248,0.4506161293572242,10.398832983423267,9.622787567464435,21.779346228682627,-18.98613448496897,33.48576088868489,-23.708964327231325,39.609772356637144,2,S01
7920,0.12445709476289986,0.3304991331894595,10.313811438233595,2.535234992883537,13.9916063090675,-19.771371407039865,32.34274661871887,-22.4607542806355,38.31570403514836,2,S01
7940,0.10357460252753699,0.18870885998984738,10.379375640931494,2.160939429896634,6.982401340057417,-26.4705553649474,32.18262706945084,-22.55794050952761,38.89891814813955,2,S01
7960,0.12254586313683224,-0.015036479761974135,10.222601766285289,-0.3429378014732065,-3.9541551562595263,-19.37603784078067,33.258496036311584,-22.10785922128052,38.18709147967423,2,S01
7980,0.0869712292003838,-0.2637342478049073,10.106805695577501,-6.242158457024525,-3.659872154403982,-17.577991350012304,31.55313506406703,-24.410520970403507,36.0607648028609,2,S01
8000,0.0875201864607148,-0.24403554403909933,9.952796072427246,-3.6996311380403997,-9.635904990600395,-9.192328125766332,32.313030281473964,-25.484930095430595,34.11772825115082,2,S01
8020,0.1465232179045342,-0.5756287234016786,9.86996416961241,-12.446455099778085,-16.935419685654452,-9.72418223076359,32.82501872166917,-25.110050745394748,35.50720125398883,2,S01
8040,-0.12756451319131554,-0.828762077526402,9.721492867923967,-13.782495751297102,-24.512418578264487,-1.6316098046541603,31.533379642780705,-24.903685166453332,35.05319107790673,2,S01
8060,-0.1614859103733837,-1.0047700803815296,9.516743714967285,-16.597562068412053,-34.385521008685295,-2.3132142992318867,31.007410776245692,-25.756872117225413,34.59201401518896,2,S01
8080,-0.34036120010461535,-1.327106816115117,9.55724883439878,-24.949923281792277,-43.84402400877551,8.54877207218265,31.235898975378063,-22.227614419198268,37.89391654816142,2,S01
8100,-0.3706610057801477,-1.3775615267458798,9.205175705667408,-32.45010001086664,-48.28440407645026,10.36283777080799,30.890637097719516,-24.254333239361287,36.53687040421843,2,S01
8120,-0.6681795383111879,-1.7212823152273573,9.099159569788911,-35.62804755532136,-56.635211435491975,13.086555603033945,30.354659754993037,-27.81235286752473,34.3842906511143,2,S01
8140,-0.5945287441838859,-1.9019016820445114,8.988165262363045,-42.35583758858562,-58.58059159139063,14.486370362820384,29.630129907585957,-24.984985617972754,36.238960711588945,2,S01
8160,-0.5657446386257576,-1.6066392344153044,9.17642446269052,-41.63050317425625,-52.56688325987012,16.166194520474242,29.32326813461107,-28.264479681137903,35.04200947143801,2,S01
8180,-0.4365701479823254,-1.35473246879937,9.24388618598021,-32.58070169247297,-46.00726257642179,22.53050013513839,28.608307638229807,-26.254191565532544,34.59503045940666,2,S01
8200,-0.4690473134342784,-1.083457291234358,9.506480662531647,-23.069562689796765,-34.98855123738117,24.170446204280786,27.661387776505485,-25.147614452520298,37.079175244370425,2,S01
8220,-0.20179289710494316,-0.6413738168625038,9.674377014082488,-20.112328543715787,-19.953635107171596,20.78707257498198,28.66480927234137,-27.054997848107902,36.33943584215804,2,S01
8240,0.28624916075904755,0.002086280954957276,10.19031826224356,-12.264083692417387,-3.8251109603648734,20.496006356511536,27.941747201893612,-27.70935671848913,38.18101378426555,2,S01
8260,0.37963425845560184,0.48667228006337576,10.637117732824054,4.244463941828795,14.39932314922941,17.271430387684248,27.632484505331185,-23.93738705224049,37.967563107373756,2,S01
8280,0.6220173276703531,1.0242753680070573,10.926389575338057,18.167963129899025,35.818347284111105,11.530731913499762,29.44695859765999,-25.09840137965873,37.95497841401314,2,S01
8300,0.7260596978107405,1.305653686994229,11.02701418552099,17.48519791179218,41.01598891716125,7.012620970262664,27.633598993038213,-26.158224448819343,38.4736760646273,2,S01
8320,0.8729746739006949,1.5230341629099033,11.083234081352556,27.81768967535133,47.63176747901802,10.959454063412453,26.389758262671553,-24.570831439093652,39.19639117131254,2,S01
8340,0.8315710410167992,1.598259146596593,11.28043269595077,35.01813846630396,51.080776155487285,-0.005948350242426903,26.185384093990404,-25.334770071095097,40.109097151996295,2,S01
8360,0.8678038130023042,1.589101257064117,11.169026634060714,23.232892769496065,52.762439619016924,0.6127798676635358,26.059843329199307,-23.859442138564724,39.11933237561466,2,S01
8380,0.702799181027184,1.3975370571091135,11.06428200583801,26.02647534014704,49.568443318540716,-10.919861929913594,24.932653073853828,-22.53081123742338,38.265880300813656,2,S01
8400,0.5231125413210724,1.1110683940734054,10.768774272441041,21.005492755226495,42.13113570626201,-17.149184032409867,27.23632202752295,-25.258214857770493,38.877051298161426,2,S01
8420,0.3610741798231346,0.7892694947563672,10.737729709174747,15.511751189708665,29.770989609152128,-18.26664628684588,26.806340487000053,-22.48205336826341,40.47014302352509,2,S01
8440,0.1612360798526509,0.818119920168614,10.464568230893718,9.159076565775216,26.044649562304816,-16.267441808180934,24.66334482842082,-23.307886400174763,37.87877975957629,2,S01
8460,0.22345455347667137,0.38512804603697215,10.52070988033261,7.2575408905238925,17.42007923034062,-20.460141962830548,24.940312418628878,-23.317527712012183,39.11408451728974,2,S01
8480,0.1898206149223653,0.24139094002524264,10.25892745973458,-2.5641986727328487,10.948367165152302,-13.862328975283656,25.135190907454678,-21.021020238508427,38.284815816649626,2,S01
8500,-0.0014847644739618276,0.10030822713028606,10.244283646515314,-0.9944585275362976,1.3583096052021297,-25.15878982875279,25.70196268506308,-21.798506549872734,36.42275699492503,2,S01
8520,0.12592314952095332,-0.19085451440657594,10.237565874657257,-6.290133384418236,-2.2449292532629226,-21.97235908087575,25.420407868329104,-21.379055868603047,37.600804055877404,2,S01
8540,0.0926912865036042,-0.4473492880720497,10.09136540625211,-8.54694445555278,-7.7016671254749145,-14.419438413482048,24.194265987645085,-18.828876584933163,37.76126780151445,2,S01
8560,0.17061793066973702,-0.4036862460726784,10.186453829484714,-14.421694811671188,-13.725944140790823,-13.451662176007583,24.296780232632084,-22.47451228372111,35.63941684112501,2,S01
8580,0.10581445165547823,-0.668800351738299,9.921798261713917,-9.465869312643353,-21.788963374848013,-5.437876672881485,22.99474545391348,-18.502302547898022,35.13351957945232,2,S01
8600,-0.19824284206630235,-0.940352640778533,9.684916625010974,-19.270147414248868,-30.761237964325147,-4.239784082089567,21.711400025424577,-17.592149413830427,36.07966938950829,2,S01
8620,-0.31225160929136675,-1.2095702243642659,9.430855361909867,-27.23499602917133,-37.114079613186384,1.7076510814744452,25.15299219863659,-17.10906777259512,35.420356401312574,2,S01
8640,-0.5493398649870908,-1.4816807861389492,9.336961042975265,-28.89942781885693,-48.48779170560511,4.539056435848354,23.574306718741095,-17.681211489119153,35.123751542259086,2,S01
8660,-0.5483847358075378,-1.5726492097032096,9.166294229876973,-38.306220209835146,-54.768174732693986,13.134871475179535,25.72663492598406,-16.607417950095737,36.16382074318334,2,S01
8680,-0.5391877343466808,-1.6923413165827064,9.08603929669615,-36.44148102086497,-56.27374121162667,18.014584509381933,25.627710423794618,-17.163613852972574,36.6227679783742,2,S01
8700,-0.6427807192921797,-1.694862940051685,9.181974937434207,-43.03902507609952,-52.06805702785982,18.893724229540663,25.670885973382354,-13.81878016697298,36.20429988245528,2,S01
8720,-0.8269626621513116,-1.5093793617509748,9.259964661189587,-37.692440063496015,-48.2819191226388,19.43494735736028,24.020420412022364,-13.958192788792918,37.0587087303198,2,S01
8740,-0.5688696732661356,-1.2305945068821371,9.369926453479206,-29.85365286787498,-42.18421653196524,21.428320970881575,24.59768914949078,-13.759263649857964,37.784657482773504,2,S01
8760,-0.2890988855712998,-0.8883592269795393,9.682431748199914,-20.56827870399185,-27.214585608659846,21.47931449084284,25.356124282413276,-14.397361845137207,38.50485073924691,2,S01
8780,-0.08105788085167531,-0.27931812318748794,9.77313506098476,-12.749331433152033,-16.19144245415933,19.825320058642337,23.11189632681907,-14.171949767672155,38.48405633947049,2,S01
8800,0.2776322692808648,0.174568319489208,10.337946948270316,4.148124840133213,5.066525588835467,12.590575230939079,25.694933219224964,-11.869023462015125,38.12167379237368,2,S01
8820,0.4631211848502059,0.6357765510697064,10.698469780957048,14.528026109582814,19.765009130971986,16.012560849031278,25.175085477944478,-13.693695719043907,39.90347061121819,2,S01
8840,0.7475442826072732,1.0705041043563202,10.901670857016526,24.524856341610516,36.6645529206248,13.67203630395165,23.137320897665777,-11.421992510657219,39.244715096519045,2,S01
8860,0.8791686216251243,1.3353072485697668,10.93252541748561,30.09521315791898,48.82556550121136,6.065940352801442,25.756338701785005,-11.034955611894397,38.92216779982915,2,S01
8880,0.9219957679534991,1.6977332022269047,11.280848912922991,29.394429776627465,51.22768607809874,-0.9778701294596436,26.83203740197699,-8.903656180178043,39.53408155330348,2,S01
8900,0.8727294166244202,1.4754144932678877,11.065486798624468,30.59077076540923,54.765574230399736,0.3925962035670162,25.429283297395834,-11.96151460650331,41.369289252656706,2,S01
8920,0.7494179763132875,1.4117666880514286,11.1536222891353,27.005087481436608,55.48525142100777,-4.159831947406879,24.396614450354683,-9.313384733917719,38.320149929092544,2,S01
8940,0.6464359849760485,1.358128343819638,11.066559366547366,27.55513865010578,40.3337323117731,-11.988736009391452,26.47559709550081,-10.55971622430626,37.69539168296073,2,S01
8960,0.534379758217604,1.0124739873404163,10.714905318636616,15.134574829021151,38.973562885796944,-18.478582098017075,26.142542544766627,-7.100902357244502,39.20336630410361,2,S01
8980,0.2815815122041689,0.8914687232702065,10.837403127702514,9.276469814074048,22.66811965341677,-16.598650792031542,28.29067039589852,-9.203935710029803,38.08508371347521,2,S01
9000,0.25746803485562963,0.672480197862704,10.432531155229562,9.217963359029707,12.405375171561342,-20.776728303315405,27.7755527906276,-10.46574804223846,36.9225647687788,2,S01
9020,0.1966342075255894,0.2583040546082526,10.336542854389254,-1.1879894311683126,11.33636185753602,-18.045953527954463,26.230564241356838,-10.235899303736915,37.06534068784778,2,S01
9040,0.17502829873558062,0.18437856213659676,10.098835182809694,-1.9491431968267188,12.162906337779852,-20.193718640806974,27.865470877498765,-9.236268048816322,38.5541906708886,2,S01
9060,0.150922084543297,-0.03812082686556451,10.201179449395447,-4.589760656741873,-3.023831569399573,-19.136602295420232,28.924281048354707,-8.328735339497179,35.9787679171362,2,S01
9080,0.13306214852207893,-0.1330404318090777,10.017687187773639,-5.587160125113571,-5.110866428605037,-20.501112650826215,29.97319049097689,-9.372456540402935,36.787534781796694,2,S01
9100,0.05330741145643833,-0.3431455683897795,10.078681267031616,-1.6573999635176406,-10.456073255956856,-8.29598928361037,28.730166452510964,-8.116087411135844,36.47688950053971,2,S01
9120,0.0517161641636883,-0.533261466068987,9.99813596957644,-11.287593933272003,-17.03805544844442,-10.10023261814384,30.31746824640125,-8.73853280682692,37.3572169394954,2,S01
9140,-0.16861808958376076,-0.792052237381375,9.70260704177401,-15.615906486794643,-21.403329800169505,-1.9190859805308578,29.6900475974037,-9.905397615212038,37.31977283061231,2,S01
9160,-0.24360466368172765,-1.019017950064168,9.479038394979476,-20.079841721324016,-29.47078869312325,0.593676653503798,28.282028121563307,-8.70676835466956,36.273287829370645,2,S01
9180,-0.3792101783303272,-1.4808923336390407,9.3614846465965,-29.539697821524427,-43.48898032673268,4.896646275840034,30.756304608628646,-10.781375197328718,35.04433867188352,2,S01
9200,-0.4293484531311844,-1.6171176381846415,9.169299851553186,-34.948318295554266,-51.73375228680708,11.34347609886259,31.78345230193357,-9.320346393699673,36.23173129937052,2,S01
9220,-0.6754987187667989,-1.7689628040456886,9.266458789689857,-38.49171492667987,-52.48896557710003,13.796904209924211,31.36946735917852,-9.695130417365991,34.52071776649176,2,S01
9240,-0.6967222324159471,-1.7597061400610312,9.136731130581435,-38.644722043622515,-55.24638487807958,21.246606394058666,31.456537363368565,-10.971924517004275,34.55787063476919,2,S01
9260,-0.7958967714345268,-1.6615126044589819,9.04788546165482,-38.06920944223281,-53.98017955692928,19.625114863193524,32.73511533753354,-9.230415335650264,37.15161904815555,2,S01
9280,-0.43271378339367383,-1.44237317032716,9.411160979285166,-31.74102922856796,-48.29382030980796,25.311175801051725,30.818767959485605,-11.304506987104652,36.80834761831236,2,S01
9300,-0.5022199133785583,-0.9398797972948705,9.488174501098245,-27.34476073090002,-32.96063826943153,22.633231730069852,30.466848198944422,-9.661060181590113,36.39448595954783,2,S01
9320,-0.16435202799386975,-0.6078362947907312,9.914936905155653,-15.596495628689588,-17.20169161802792,24.486949137294268,31.27695870147531,-10.512419956629309,36.82087967908135,2,S01
9340,0.14325946592248423,0.027973803365155606,10.196638954459775,-5.824167007510757,0.8798460472296112,18.63337297091523,30.659243610647845,-11.170465863534432,38.56086952870651,2,S01
9360,0.2914590095912405,0.4433673411852022,10.392710196815779,3.7597699873645913,15.54387011726056,16.2182405150851,31.16930504193681,-12.375692202799932,37.67481018809844,2,S01
9380,0.5287033057812519,0.8941204545632568,10.684011235310287,13.964929352303965,32.8550764034394,9.64098892797844,31.393644694018057,-12.888500480285455,36.45325100930448,2,S01
9400,0.803929078277671,1.3370265665545107,10.994272546043888,18.430454657235874,45.41920637865021,7.716682554647156,31.653109566102888,-15.140842797184291,39.332149764550216,2,S01
9420,0.9846190398209357,1.5105795337371406,11.140402533356447,29.039025588141012,46.779054064983924,2.0326291230571343,33.2244834798002,-12.866605606079336,37.81342104336665,2,S01
9440,0.8368457422842427,1.476474283055491,11.096724628565218,27.01760207677898,56.905853658840414,-2.249494482092285,33.62260286249408,-15.683211686550726,38.51607345328587,2,S01
9460,0.7763823323711999,1.6248965443377463,11.133947582979749,30.337822091760312,55.79618632435692,-6.343410909851949,32.81285900520804,-12.859196872217023,39.9157243796592,2,S01
9480,0.6756985345852494,1.3567236915810295,11.141167887508185,26.473479374901093,50.42822821442007,-5.566867537041917,33.692449245402244,-16.588203902647173,38.05407164824006,2,S01
9500,0.4286767836769444,1.2292877517072645,10.756265576830245,21.939024549579777,37.77315250590982,-11.45959762870367,32.84497833665634,-14.857999539043266,39.57495421851566,2,S01
9520,0.34870634239843135,0.8975347351851031,10.739596111329076,13.833830164635874,29.221963293928972,-11.45398824342888,32.92268361338007,-17.64082447108113,39.530869430845684,2,S01
9540,0.20602965450301142,0.6396779090914886,10.59855920323173,6.691935877167681,26.756769795796153,-22.88077616705643,34.35065620095688,-17.468530621603428,37.0795945058718,2,S01
9560,0.0948867108566667,0.5200104736066526,10.4444980263583,6.656065200480497,9.687101826234912,-16.73411112137334,33.05473653139096,-16.475957904218404,37.511453296588144,2,S01
9580,0.09558974625113445,0.2931343730269716,10.422049460628365,-1.4351247250653647,11.258627397812463,-19.241170158924042,33.93996246504474,-18.95659276853312,37.63347849933123,2,S01
9600,-0.028855945033199465,0.0926571619601472,10.248429746350224,-2.656651418916929,-1.3281123217652995,-19.68414718326129,32.5932715812271,-18.142358363223913,36.758935204061856,2,S01
9620,-0.006103840911404132,-0.09242195342976688,10.115640927439289,-8.389714029843642,-6.019883489593465,-15.818740094854816,33.41751985812519,-21.09540976615665,37.23161717906674,2,S01
9640,0.1353036666106445,-0.2609560396172589,10.009252620442103,-3.557306004760852,-5.635883315169545,-11.07260477307154,34.9665762691297,-19.898995492649824,36.2663949358972,2,S01
9660,0.05378796997313862,-0.43083705821846063,9.85198390171062,-9.654886000007451,-16.31280803122284,-4.021528517622805,32.61194627123816,-20.387521513100225,35.97907551603724,2,S01
9680,0.060935702120016824,-0.5197544689979365,9.757875741132226,-14.940123399233645,-20.431269957831237,-5.638786180193422,33.400500444852916,-21.692943220824258,36.05166794976597,2,S01
9700,-0.09659942868789201,-0.9006351633426231,9.708470441822083,-22.55576013403944,-29.36776078753443,-5.153154319087526,31.620453772966762,-20.267322731566207,36.723605826328836,2,S01
9720,-0.31278132335501274,-1.319431544462574,9.504303443573507,-22.8661689453617,-34.603521122921144,3.3538638183792395,33.719204762428106,-21.530781002439582,36.13531416503335,2,S01
9740,-0.4813180719082175,-1.361998397327525,9.295612601386186,-29.09716783982835,-43.45692127364562,7.170841126069737,31.680770378991642,-24.715717588927433,35.8489210347643,2,S01
9760,-0.6071480402899485,-1.7575296519011046,9.182075729856397,-35.498252571443494,-56.65222592187197,12.964802189887905,31.261661712366347,-24.054090032299523,38.48681035340278,2,S01
9780,-0.7239769793790404,-1.6885245341752046,9.065115084471321,-34.314319400428566,-56.77015690294126,14.689097659614507,33.68565789098099,-24.084120686119526,36.21670716686493,2,S01
9800,-0.6181227033603729,-1.8145381205927458,9.075527594517347,-36.38992903816731,-52.83334864323149,19.32455112791617,32.71106679557825,-24.646721556553906,34.54727881578853,2,S01
9820,-0.5538326036336657,-1.330511415877122,9.149309130582186,-41.492757132528126,-54.115340882871564,15.751009858873354,31.87266905405339,-25.908601399124557,34.71104479014335,2,S01
9840,-0.4793260254998891,-1.2376916787283743,9.420448651493137,-28.76359580144999,-40.45743163631051,24.263883087743963,30.758184995714977,-24.92337990878327,35.76397444997529,2,S01
9860,-0.20002465144880346,-0.9286887750372426,9.718400617443448,-18.691263558742595,-26.600129792286747,22.40463070408942,31.30452633429889,-24.388716503066682,36.88688498535432,2,S01
9880,-0.1394938613894108,-0.4210307868166228,10.003482461716215,-11.276562528510585,-10.89706954380824,17.236333469281377,31.720914568769448,-25.33466980074437,37.531046125105725,2,S01
9900,0.26039702534452647,0.11783789028764091,10.425748747306674,2.47476183856367,7.558230960119112,11.12129897293411,32.724946447781555,-27.680455119122506,36.50236955807296,2,S01
9920,0.48234258340231106,0.567711101430417,10.735400008313547,13.527929385624965,24.891762955447028,13.549950885295747,31.445252760370455,-26.540741380289397,37.219234616634424,2,S01
9940,0.6053030093270078,1.1900810395275567,10.991430080646342,24.133287120403697,36.4852816518921,9.573899363091952,30.548794243511878,-22.939600556526365,39.04064116037711,2,S01
9960,0.869171642608813,1.4333780971958303,11.030023415874004,31.59681165610475,49.414020635636774,5.918635108155766,30.90441724975293,-26.234806990547938,39.66383561773932,2,S01
9980,0.8764086476809203,1.6966244331336484,11.283354082404328,32.83776960776663,53.21643800800878,1.7176326339510513,27.267177972940733,-25.31024847216957,38.68538605289253,2,S01
10000,0.8611531558661709,1.64083631777625,11.26360364011255,28.11421070775496,54.53839946968213,-4.927048983623711,28.37782761567582,-27.01691869447791,39.760220708403054,2,S01
10020,0.6740446682813083,1.3218123977987943,11.243392116926762,28.178803238374048,52.96322632266779,-10.330629637509551,29.120798522163188,-25.92193086283896,40.40972908369062,2,S01
10040,0.7905005130854437,1.2645881397951984,10.996451224333557,20.957903735471483,48.876844461552864,-4.847231666311879,27.010022987969855,-24.21944627925455,39.39099860260636,2,S01
10060,0.4971746434892439,0.9881890274406344,10.73779913989371,12.956054332538745,35.28159774928581,-10.467598605769675,27.951072540989305,-25.794225908032264,40.74034950894179,2,S01
10080,0.22891214199948895,0.7325459953759261,10.67401462701011,10.778100796584376,23.803921096205496,-13.710749587477387,28.155193985493483,-25.38119223637754,37.08914195169756,2,S01
10100,0.24769667901545406,0.5869896643238097,10.346725950404105,7.219375911330256,14.997589209422504,-18.070442306737025,26.608491771525397,-23.962599644019708,36.88478901941981,2,S01
10120,0.11917435034501138,0.43890824001450773,10.22418111921844,0.3477827236668718,13.162575862056482,-15.245647560953492,27.796648251011376,-25.241707969034913,36.58742497885949,2,S01
10140,0.13505509986670805,0.11193982680224174,10.314705587897853,-6.567064835786116,0.8095267544045963,-18.66831262656913,28.7987884995417,-25.64434429982727,38.467912774701894,2,S01
10160,0.11043495989046906,-0.10283727498992191,10.210677618297797,-10.65406467821736,-0.10964875353051551,-17.696691704104886,25.850944821310193,-25.80554391199973,36.90697951554274,2,S01
10180,0.09500174559351955,-0.2108416581538011,10.085477014484034,-7.99686725944086,-0.9672845740988876,-16.219561936998325,26.799395389395954,-23.25064485026454,36.68461117894673,2,S01
10200,0.05818433387707091,-0.3667389765879698,9.881566943153741,-8.698886667811962,-12.359031940651242,-11.847882652251357,26.951146248029413,-23.30093761937506,36.26270190146874,2,S01
10220,0.12092468058155287,-0.5717223091598589,9.811334798246689,-13.78217008557608,-16.05206293381814,-10.18195700812934,26.49619182264129,-24.474135102768827,36.10900341980714,2,S01
10240,-0.04685469080878066,-1.035665187608683,9.874347719827847,-22.76436976320419,-20.75225462262414,-9.390774719220468,25.21454433010011,-24.176799507901105,37.06415486068015,2,S01
10260,-0.2262484305698961,-1.038943751595388,9.69220456086005,-21.794845585573082,-35.63506026074587,2.667662890127736,25.501391809247544,-23.486902441652518,35.460130599062666,2,S01
10280,-0.48844785250014067,-1.439395999862595,9.381445111668182,-29.70534819907316,-45.62740438459372,6.879140487967956,27.416239031769294,-20.071517860191072,35.29280313110378,2,S01
10300,-0.5106022322002759,-1.5408336740101083,9.179543215363266,-36.36575043469938,-46.1496853349701,10.806246452802954,26.1404269763411,-22.447326240540818,35.06779326938995,2,S01
10320,-0.5926500368837533,-1.7015068527174282,9.275081619665448,-38.21593141820363,-57.227003296004476,12.105012349971148,23.753903047285657,-19.099216134749504,35.96107668790975,2,S01
10340,-0.7754872548461589,-1.8610879993858727,9.022801624881277,-39.024844650455336,-58.9185739977611,13.195546312697221,25.02475740573882,-19.97446208620104,37.21004857098912,2,S01
10360,-0.7347208627263501,-1.7157449412906685,9.054197183021305,-43.56756366575997,-58.964792705599415,20.001469433317773,25.084532099411586,-21.000609864822938,36.85729275421109,2,S01
10380,-0.6803151179442786,-1.382949372556448,9.311335999870689,-32.878807398643865,-50.084836618573284,20.1677815505474,25.334444339215246,-19.71125396971111,35.46398722612867,2,S01
10400,-0.14173425932950856,-1.0023895322754384,9.412106073873659,-24.236490433743914,-36.68313763668211,14.140279204099208,24.87364871562815,-19.22729870067856,38.03808050889571,2,S01
10420,-0.04796419856206069,-0.5339995732869323,9.783524515120865,-19.121144929890594,-23.005335433391064,21.92301220404593,24.927851920153355,-18.80106048406926,36.14505606815374,2,S01
10440,0.11204135472720289,-0.024057037355032167,10.066395435760585,-1.559237327469992,4.52626251207013,21.896617988417514,23.849194020287378,-19.661090444727378,34.98791202212978,2,S01
10460,0.22407735901951417,0.41392172148198525,10.458606989881515,9.477352617997742,15.697740497695424,16.946349316824655,24.186638657719666,-16.797925300224087,36.38451274345277,2,S01
10480,0.48981799135889836,0.7759636765755307,10.804554229884952,19.300533288331472,32.783114839803844,10.810157881729598,23.640340699624257,-18.117927391076257,37.643065269585236,2,S01
10500,0.7470068448698477,1.3071923026212295,11.038023670711654,26.729025452147454,50.75333025380162,6.605313457344192,24.248930270979738,-17.19206012257142,38.52030839805197,2,S01
10520,0.8583025761215325,1.5534679462011718,11.23201620930867,31.08426745822233,56.55889182096463,4.957457414554615,25.27703929335557,-14.76238544628086,39.3605464415905,2,S01
10540,0.8006490507122327,1.5243611547618743,11.287649447360184,29.980435941217483,57.44109849482001,-1.5841230773732904,24.58905068405422,-14.988357877348522,38.573219202766055,2,S01
10560,0.9154784616915559,1.5824083122163377,11.06264817450863,24.84015205409317,52.47307786252159,-4.795896779220028,24.118058371230266,-15.631009756941666,38.905421311025066,2,S01
10580,0.6464417163457727,1.532583412086044,11.187494193391373,24.218486760804318,47.487584444044224,-13.154787654914648,25.44210653956676,-13.382133299479696,39.78857109775939,2,S01
10600,0.4942644151125618,1.1191884140952568,10.750996153328979,20.581542083746744,36.85707017775332,-12.02773222657227,23.40517995439488,-13.199144187146473,38.79651300930476,2,S01
10620,0.45687620236919646,0.995243904406885,10.763797730853456,9.500459293519597,27.968836416058597,-20.18177089640937,24.12864883232072,-11.928867915423236,38.933753009347875,2,S01
10640,0.30106375462577917,0.7711258096271307,10.454672124851447,5.118019473828325,22.057329184393588,-16.817145575759383,25.319678755373616,-13.965967373200808,38.60503682290301,2,S01
10660,0.1482257698565001,0.5173488168415528,10.317407547356234,-0.22797891991770936,10.090327671117699,-18.231657105635616,27.09184013250867,-10.724407861288853,36.576345643944514,2,S01
10680,0.17136457940080607,0.1291000106453065,10.450508829435114,-0.22966584344009489,11.09952555142454,-16.092079840340176,25.65732368861844,-9.53452689275051,37.816525487468624,2,S01
10700,0.06511477585354258,-0.04100346680368241,10.165018556564998,-0.41532518345507574,5.7910864914478255,-16.14692002145435,24.721671680357233,-11.69993507041481,36.68797563254153,2,S01
10720,0.13057180661489218,-0.20116409800697618,10.205754193988755,-3.556387698687386,-2.887201769092717,-21.055631267730213,25.36767080217509,-13.07590302315566,35.35782275163262,2,S01
10740,0.01321766064776389,-0.2381713824317617,10.083483507307406,-12.93239128296836,-6.952184631332633,-18.805373391157875,25.41851318759241,-9.960759968585691,36.40976213342116,2,S01
10760,-0.051297595585466704,-0.5406273186921987,9.935812783153196,-13.799612416758848,-14.789370211042769,-11.162585865967703,25.64422397211262,-10.971662671420226,35.522516046849084,2,S01
10780,-0.06247414412421026,-0.6701264213940021,9.886107372812242,-11.896878489780192,-19.32224310177619,-2.159998381985708,25.205875482683794,-9.540011079601722,37.15745186055081,2,S01
10800,0.014162394350321877,-0.9962739644131722,9.67462712932096,-24.721987391357832,-32.540370163536934,2.4909323317126346,27.721337135358024,-11.534705160240987,36.14967511083272,2,S01
10820,-0.15382359825900174,-1.2300788064740424,9.577777114025,-30.68603625650459,-34.46380946700987,-1.1574663983337863,27.789282400816646,-9.228335752403998,36.2236624757821,2,S01
10840,-0.3639736129650901,-1.5698879849322012,9.364473001207502,-29.74647168480539,-46.994620274114574,8.492001864162928,26.56272487626699,-8.151976807666866,37.75499969977268,2,S01
10860,-0.5558627138373575,-1.6812426229483142,9.146207898575248,-39.61432048477446,-54.93301964470938,15.268881540267504,28.583451399092112,-9.421646894923732,34.27411536556879,2,S01
10880,-0.7232658797744828,-1.8366964508860373,9.00830759097685,-38.43629476163471,-55.850790026967736,14.45271267182295,29.104365957294675,-8.56892267646114,33.94214726903569,2,S01
10900,-0.7271477739802253,-1.5708404383716528,9.100322459055187,-40.76180464052513,-59.248984348367635,17.303090445357213,27.20111403770447,-9.100797934749956,37.37411228979554,2,S01
10920,-0.6774684192948959,-1.5627049671750115,9.090358105456081,-40.21222107697612,-50.37637766035088,16.401426965709447,27.97006150164269,-9.387291125871094,36.155967459246845,2,S01
10940,-0.5218338188152959,-1.2412870552426671,9.442719063685633,-21.94402165671103,-40.92779491343406,27.333939738682272,29.397530188520243,-10.29638335499845,35.48546161790672,2,S01
10960,-0.1710350315528222,-0.8017729665047131,9.60541037605101,-19.340394244103162,-28.296821137892113,20.115107624244594,28.89271458956397,-8.609307706191993,37.3917547964121,2,S01
10980,-0.1589907706889199,-0.31492000398488873,10.007695195764084,-7.799409175648541,-5.543919455175254,14.070380160158633,30.33375567377281,-11.862609903091437,37.92562607500382,2,S01
11000,0.1754001111217403,0.2220918036625122,10.256552561002573,1.0061783019375854,4.857125525751457,13.416210659991643,29.46586919644509,-9.609179834413215,37.33841008773618,2,S01
11020,0.45086004655168677,0.7759015007306695,10.679866301512712,13.996167392035034,28.95949406012548,16.12459947280174,31.67171120483956,-8.354698153438193,38.48701248226221,2,S01
11040,0.8188384354105837,1.1336720066259882,10.875959428824254,26.259472372156072,41.77706642550974,5.970417319817851,30.649278604202667,-9.092893207892391,38.78183414915808,2,S01
11060,0.7825796394923991,1.4910001181759547,11.189279266815491,26.19755271207328,47.58092107493594,8.68301733003098,30.393764082690172,-10.463616489874413,39.228308280655696,2,S01
11080,0.9456781805191525,1.5196083984286184,11.184574425974066,28.800322995364144,56.462659350700065,0.3976099005684387,30.242005570067867,-8.6351492923237,36.92544787560911,2,S01
11100,0.8429606256934273,1.4985648207825073,11.27649352263218,28.542439187912077,53.9031976722079,-1.2947986059627081,30.71171419078864,-10.65174538289665,39.89921002172272,2,S01
11120,0.8651033971674873,1.4800074277763395,11.156897423265695,24.459245678312737,54.23867057895386,-17.899694433004957,29.44491191326953,-9.791050353633054,38.72664762096611,2,S01
11140,0.6068102942679655,1.3215093687489827,10.93767168167,24.272995789208768,36.30156607571064,-10.217028177853996,31.76039226690565,-11.47366677959432,38.93117298220001,2,S01
11160,0.4029682301755393,1.0659815461760958,10.829099775314143,14.265162603702677,32.28723324356488,-10.107702500994522,31.616191970575812,-12.24939515288136,39.746206029285766,2,S01
11180,0.27899471412248833,0.8856434941229332,10.495897668416626,9.523098837287783,24.225709033406396,-15.270948756569945,31.750252218746116,-11.806596380412017,38.73366665542222,2,S01
11200,0.1005425841676066,0.5368225145749728,10.404148445960676,8.007542663072488,14.181005394823558,-20.85113604118252,30.750221621863503,-10.755918763081203,37.87624672983819,2,S01
11220,0.20560049885530202,0.37923175774706097,10.208105823994568,-3.2151277271725,5.09019045699571,-15.623978015064514,32.47675610535748,-13.81961503072337,36.871173348556994,2,S01
11240,0.1472146383061307,0.21064018647469301,10.18467921299911,-4.606142341593028,6.379925306642765,-17.75363543370821,32.03596994598592,-13.604165657739516,37.387486939068836,2,S01
11260,-0.012628024959570106,-0.15801666193937958,10.038441159312004,-3.084293365273384,-5.0849781243375975,-18.96559826959779,33.2177301017397,-13.169560499596688,36.951859060508696,2,S01
11280,0.27870866364743385,-0.346513833301101,10.055325926514788,-5.635951699811246,-0.44519676438099665,-16.14607329348465,34.04757253199896,-13.076978692553283,34.855885422885585,2,S01
11300,-0.07536784502570829,-0.4350726130055036,9.981814018062668,-9.6841663990717,-13.490476116722085,-13.72511485982258,32.88144600528756,-16.512536876376636,35.21669881879735,2,S01
11320,0.001458609601090774,-0.5473073695029451,9.889676446860099,-17.17568853104474,-12.802318078735379,-8.580134010829953,31.134518978253247,-17.192228747879863,36.11071191275443,2,S01
11340,-0.07545523444823926,-0.7038375643695003,9.663593344398546,-22.413320378516804,-20.018112036074083,-2.4785558444748608,32.099420301960336,-16.573435260668894,36.23607572537995,2,S01
11360,-0.129402386325089,-1.0044731132747753,9.4796999878139,-21.80499012733495,-27.95283769084592,2.4831055957104207,33.357152801801064,-17.05973580966903,35.85227937143477,2,S01
11380,-0.29118206971690896,-1.3544215385352592,9.471656930304874,-34.30333114384552,-41.714230909853036,7.940673473740144,32.36169389065063,-18.605176320781798,34.89887315935569,2,S01
11400,-0.4387695023121112,-1.5905432335601455,9.16301875999805,-34.06937642015573,-49.02626442086524,17.35943756561233,33.653079860102366,-18.18195163328695,36.00404224510006,2,S01
11420,-0.5424855336306483,-1.6728780549261806,9.21245096907064,-36.72025802713673,-56.14593765332368,10.525253023806446,33.25185392322196,-19.291844257869187,33.62685245288101,2,S01
11440,-0.740778049015398,-1.6502166171134485,9.0175731396356,-38.21425345317043,-54.96665105433015,17.807705765127107,32.973478326849175,-19.796741474503534,34.772068080220265,2,S01
11460,-0.6823669645858992,-1.6539284831243661,9.24492592137797,-31.33384192643297,-54.59692440492886,17.088208600714868,34.201118001911865,-19.72508325724901,37.03462379006248,2,S01
11480,-0.4014631859711135,-1.3404467818634116,9.177916060676232,-29.898590403258012,-47.855372210889605,23.43406025799864,32.44085088100335,-20.851662928345515,35.922077071663765,2,S01
11500,-0.25608837165761544,-0.9306511884910953,9.564812562136428,-27.633379515550605,-32.66771851531374,20.276523708515167,32.90034075811229,-19.432762445045324,36.805192571802934,2,S01
11520,-0.18402067924176366,-0.5800286848044602,9.97990003756339,-15.477953822128491,-15.574235863344668,26.1355606928746,33.78452818119129,-21.428668506635624,38.300916716266805,2,S01
11540,0.17798421995125763,-0.08088931471493459,10.030271690700976,-0.6988288575246551,0.912834982071671,21.417026178153673,32.695755425078886,-22.027759017339115,35.81460037560967,2,S01
11560,0.3889231561421954,0.5358842423284333,10.414187414701034,12.273619409673465,26.087726230867755,16.65977619412351,34.23645843354414,-22.017663519983408,35.83975748092603,2,S01
11580,0.5710064332368047,0.886747470697318,10.784177937853737,17.677491783458017,33.90136394568859,10.574736002217696,32.15566161089327,-22.16410387917536,38.223401161821954,2,S01
11600,0.7864048638043708,1.3418527681935584,11.021059230083196,24.962415512497625,45.52494894378845,7.389297627492738,32.53081359524268,-24.09058493770143,37.2085504212602,2,S01
11620,0.8901163087837105,1.4785610171896486,11.247456567700844,26.99008046479089,50.77126808659096,8.777930189944453,31.10215210394377,-23.676299298179334,39.5501570852119,2,S01
11640,0.8411513624281417,1.6104005462416247,11.258904975321649,31.973747366013338,55.344042798253085,-5.39800644651207,33.7565744394196,-23.532626760987306,39.37258297510475,2,S01
11660,0.8361279493309183,1.4980792841147315,11.213639647494537,26.00625973450781,51.40359190383734,-7.113255302775231,31.748374248539626,-24.895138899514965,40.13125378294471,2,S01
11680,0.698124377223382,1.391084125341896,10.972914280952944,26.73669488480967,44.68472260566537,-5.214504266949817,31.71975534162338,-25.749033356418575,37.23941955682505,2,S01
11700,0.6833257072072761,1.2659706229727479,10.87631033343608,19.77508292285702,41.35651899382261,-12.792818087931508,30.591757766069925,-24.35718670065584,39.253209095717516,2,S01
11720,0.40879777390955496,1.0353565117659993,10.49058720434895,15.207590027265844,25.803564925678884,-16.841797865836703,30.462368307018924,-24.66613819668371,36.65557963115063,2,S01
11740,0.23012287018101393,0.701019011950502,10.599589709085604,10.983996335427193,27.096927820734404,-17.58833891254872,33.644676890258324,-27.375592444180118,37.62845979270901,2,S01
11760,0.09065495092569588,0.3673188291452114,10.283290391116864,-0.29689781077893285,8.051923242045488,-17.750503925071726,31.253077967033907,-25.981527011351062,37.81092361559176,2,S01
11780,0.15162137797612374,0.28361699669902485,10.261161105270796,-1.6605417300173908,8.947718735479864,-18.684263150483865,31.1719908886692,-28.643427222294008,37.577716001842134,2,S01
11800,0.24284842585135524,0.037738463564619615,10.088378140302163,-1.4727975922270313,3.5597804530041364,-15.57529427186748,29.706192239187747,-26.390101754241996,37.167807570139416,2,S01
11820,0.16024776524079487,-0.03797626292971004,10.142141955987446,0.5497011895641197,2.6292268985571026,-17.643754437641967,29.55486418358062,-24.504277821881736,35.45051839917633,2,S01
11840,-0.0252620981684277,-0.29087399552951954,9.94514950550712,-7.702914122121815,-9.04601924664399,-9.971135675874912,30.216340195169867,-27.99392969092605,35.64927461409235,2,S01
11860,0.06702966421147478,-0.39270848719970175,10.039118153428712,-9.600867020504527,-13.444041396831997,-6.379890162706282,28.252300060445084,-26.62087783820369,35.7163236873997,2,S01
11880,0.01274889860697083,-0.834546457714382,9.874111525239742,-18.28722848737477,-16.72485472421472,-5.492171831366052,27.927386548373498,-27.429957099375596,37.26798302889742,2,S01
11900,0.06202706451153406,-0.9747006746913178,9.673808880608052,-17.86631222374672,-34.82360983516002,2.1067208021383186,28.757109841994485,-24.471423545889117,34.5710202377163,2,S01
11920,-0.23541409108185488,-1.1028093330101694,9.372074022448928,-25.53802852555829,-40.168255282812076,3.177967617330849,26.647135096045826,-25.529453884241168,34.84204512205501,2,S01
11940,-0.45740883768806595,-1.3598897972600297,9.109431211510874,-32.33252638292236,-49.45101187560453,8.275026368177123,27.316663156981217,-26.51045369168581,34.97166376529424,2,S01
11960,-0.48838494379316943,-1.6846423747810684,9.127795398704114,-35.28462049285659,-48.82698912066793,11.653939521670184,26.886762139322315,-24.34132468778829,34.87633091798446,2,S01
11980,-0.6468080774462146,-1.6884904120752227,9.221194263787742,-44.01456791142074,-66.09497342086438,18.978637572843624,27.941848038646018,-24.542034678898585,35.563362546222905,2,S01
12000,-0.6815205910126828,-1.622036589387496,9.181455688628755,-40.80768673507151,-63.31486353759156,18.064017107017012,27.740448066184168,-25.359611428044932,35.7198516796433,2,S01
12020,-0.5920516830014555,-1.6401506927576976,9.345238112471826,-30.75220329384578,-52.65904689141399,22.011889977462122,26.348004151020888,-24.067882975912482,35.785438834189954,2,S01
12040,-0.5111755297057349,-1.1933064447209012,9.34881773226358,-33.23935034565631,-36.32457108503913,22.8671053213617,25.297377805871143,-22.905110917348907,36.33027325694756,2,S01
12060,-0.29322414152618703,-0.7913618023650992,9.642697362359275,-19.123970587089445,-21.466007640493892,23.452852567853547,25.137273474159667,-24.66613437468573,36.31841143929423,2,S01
12080,0.17035821978503926,-0.3002418472472664,10.020748303014297,-5.2882953315411525,-7.630673286419366,19.63553510593073,26.581167910306156,-23.381491372007094,37.249436171858065,2,S01
12100,0.2628883535299207,0.28711909340756936,10.300576338589204,4.202781605494704,8.709632528104589,20.267485704706054,25.42313326283014,-23.40978504942026,37.42450927312561,2,S01
12120,0.4364346215947964,0.701744550058661,10.793172961180433,15.5377939319675,25.736184364764675,11.570607277717423,25.18584120871109,-23.044628686946886,38.105494971119136,2,S01
12140,0.7277542946480908,1.1363244773603465,10.962951338670223,21.09382760215114,40.20941820677045,8.460107237114906,25.015563288781795,-22.82113076032571,37.06116447025134,2,S01
12160,0.7920090868484785,1.4532834557963268,10.95073295713345,24.647412140350294,50.52351638627422,9.310496624160947,23.655487703831724,-22.093647211786532,39.82604118177095,2,S01
12180,1.0099277707921084,1.5742959259266058,11.078932537771504,24.96773342920792,49.9264924641343,-2.9253319022389044,25.202433475940822,-20.605460470832412,38.3323126479061,2,S01
12200,0.8685867971668015,1.5185790509875834,11.195418471123103,31.52721473282242,52.1981590439994,-8.81002394702588,24.48758412424138,-22.78148640828652,37.35708584761715,2,S01
12220,0.8377897956098198,1.4498001819374953,11.096175758379951,28.866052991171752,43.87664938578294,-2.1864681203135805,25.264030839477655,-20.3069467574768,39.580159091982566,2,S01
12240,0.5335075172067362,1.414192538123987,11.014998404521,21.317642288147102,44.56499991829684,-10.303890054862253,22.916254128562418,-17.756950121819422,40.371729856078055,2,S01
12260,0.3864967111454065,1.0961176534197654,10.723023453342519,14.256520989792332,34.92832720853686,-16.699470589825456,23.317370474120953,-20.490852534387606,40.64502081842291,2,S01
12280,0.38507661485991307,0.5852264057227492,10.568075646384887,13.676876952897143,28.215667068444308,-21.67141176848343,25.62378875891555,-17.58941789640356,37.565968578714724,2,S01
12300,0.25121499526251456,0.5404240366204567,10.560574517671581,5.071610402278519,13.028942216144863,-17.445228788551756,21.686816713335034,-17.938330733608762,38.03921511452111,2,S01
12320,0.19779770632517524,0.3580124285220999,10.44198371958515,-1.7856240694647552,6.964137162960971,-21.506430668383224,25.53589976502753,-17.874146144466597,37.340018779644296,2,S01
12340,0.11906278729914532,0.16928123623982622,10.144160006829669,1.751033047693137,-0.1003891174132272,-21.38948296634684,23.80096828293867,-16.755376482912396,38.72877053498421,2,S01
12360,0.21313858302026667,0.06167075143176934,10.175687460045532,-2.4788792253150156,3.7523148370706485,-11.479385524634294,23.039037128249014,-14.939039972267825,37.31243852465331,2,S01
12380,0.10449289445719918,-0.27284780325718927,10.053841351877685,-10.312963216356508,-7.025393549140636,-13.455948743057947,23.969681721545705,-15.623916629113316,36.67587250484021,2,S01
12400,0.14591657842356465,-0.3797348332965517,10.010251284109016,-10.951196470764614,-8.759678671672196,-8.045844103889566,23.35028871189879,-13.117053511088004,36.93868449543765,2,S01
12420,0.08213272158427602,-0.5611146976306727,9.9357877894232,-12.292774702713018,-16.570197252390027,-5.680557675350166,24.77010038086943,-16.364061813351196,35.70211839780464,2,S01
12440,-0.01650022876190288,-0.8716661163633268,9.785785848647848,-19.054616732153644,-29.337464066149376,1.5687854826008563,25.266668354558192,-13.328405429690926,34.7012839910378,2,S01
12460,-0.24838081140152804,-1.1758312929776662,9.501750625129565,-21.796923376247758,-30.64398700037154,1.0335542969666407,24.191740236556882,-10.712565318656004,35.02406932740489,2,S01
12480,-0.4554219277010567,-1.3170388765112748,9.416299953882787,-33.41937948357653,-43.77810709004995,3.1618258178894836,25.07317183543341,-11.955331618776492,36.4100922435337,2,S01
12500,-0.7042434716920212,-1.5669680295325716,9.23449218566179,-28.220999306685606,-48.82573956195882,10.574803537572995,26.14291306939399,-12.644813545816557,33.432622159303264,2,S01
12520,-0.6322559410696259,-1.6579708019716943,9.088334458944583,-32.42798959316468,-57.259463959366904,17.30185248503836,26.127362821375048,-9.466433628822841,35.60128762353274,2,S01
12540,-0.7323792512361019,-1.7929184152362014,9.132615513772242,-38.366759389511344,-60.73630441831271,21.27730081032656,25.462754128838668,-10.835997111692855,34.767955230145574,2,S01
12560,-0.7057091901730514,-1.8496639947682614,9.079958687144087,-35.376497604098994,-58.47443497519787,13.703412279842754,25.619472986083103,-12.551431758142744,37.31277927001701,2,S01
12580,-0.38898536149976126,-1.3589299512480413,9.337384865967582,-35.79788038653817,-43.14249365971409,20.556875876470425,26.91308093991933,-9.844818778397228,35.75361173690608,2,S01
12600,-0.41216855366004757,-1.0591767695428718,9.509787126950288,-27.052036977117066,-37.80152123416065,21.356364908844505,25.92489498529773,-11.784254953188633,37.325615709510714,2,S01
12620,-0.27967265292171706,-0.5960713201458483,9.814311704341138,-14.532787765754385,-18.912103336672242,14.719816027688017,25.63273835199133,-10.875077121806278,34.33183519407807,2,S01
12640,0.06539205010419429,-0.12490553706647253,10.34111266385945,-2.8862996734192388,5.247814000230641,16.865555007507304,27.342897426589534,-12.5194161428814,38.50875470242919,2,S01
12660,0.42419246635903496,0.5079064973308327,10.64561465121741,10.684837170019907,21.559663752378455,16.717655255268856,27.90639063820182,-8.681655398695584,39.299427795299465,2,S01
12680,0.5815601608158865,0.9364212999214758,10.801108024804192,16.178893636654994,33.78705669149954,14.066826335234369,26.754691733327906,-10.631208767477805,39.563241769226806,2,S01
12700,0.6857386554818342,1.3101009346999064,10.992970338389743,23.178248101901026,44.909667644241935,4.080454004178065,27.492923102825692,-10.13143639333617,39.06855935568168,2,S01
12720,0.7253498008269591,1.6116820255136417,11.153712241294658,30.536990385684543,53.637226907716034,3.9333814679752996,27.803256489479,-9.297132205102603,38.879234017784455,2,S01
12740,0.8463295678248371,1.638408629916244,11.32150987849512,27.822088648197816,61.31754670884878,-2.671134316590507,27.02326514238905,-11.25982002960378,40.05997671030657,2,S01
12760,0.7708911750614961,1.4748348898116026,11.008166334941107,27.44443343085478,55.874474109073994,-7.244478725600631,28.059994221206473,-9.003861719693544,38.8721919772026,2,S01
12780,0.7105813340792039,1.4034690599552342,11.106929334869765,29.09714507076028,43.92151678673042,-9.857476104234228,27.85663331507994,-8.653634583143626,39.58049816604631,2,S01
12800,0.7197272138025789,1.1648115012903442,10.92410790291392,19.174781033927957,40.37489516700471,-15.437890636812595,28.5288176298711,-7.097688683950418,39.329332120989456,2,S01
12820,0.39404565269276537,0.9286038340898188,10.661939207542135,14.826009165203601,30.78250924630948,-10.819875510675827,28.649107916513223,-9.46166979519821,37.96693778907272,2,S01
12840,0.2442968064488936,0.6456881694571275,10.302461692276433,6.186019704676107,24.363198635149892,-19.411954509135573,29.90030789683971,-9.588582769479231,36.88452103784226,2,S01
12860,0.05465632996833916,0.46807646656679874,10.339372949259564,1.553720164793881,12.311230587843061,-16.566229616682516,30.388103019465497,-9.310164636414635,37.45272690593947,2,S01
12880,0.12113419410861413,0.19123085101552395,10.166935155359267,-3.476522058011947,6.138188687816946,-16.166513294100735,30.854279160594253,-7.87101384281439,37.721024684434,2,S01
12900,-0.009685206786613582,-0.09291033302503951,10.30121215057891,-3.6597571295359614,3.325019401533246,-22.22009316678542,29.306318608372397,-9.454687269524333,39.063295494657524,2,S01
12920,0.18487228122043445,-0.08681735723067639,10.108050475555704,-7.155083919322003,-0.4806036628416972,-12.197747949563658,31.173303806747327,-7.911289655596092,38.406312768710976,2,S01
12940,0.037117138571239966,-0.20581370107970567,9.955429165000497,-8.998754873931233,-9.832359859146935,-12.86318635607996,29.565972161381314,-10.96790484733308,36.63247735929541,2,S01
12960,0.186982262270531,-0.4594379807974302,9.863573768977776,-7.057203249029366,-9.782327993310474,-7.376058140366802,32.62952642137947,-11.785062340094399,34.41024401952623,2,S01
12980,-0.1539296960678647,-0.7137007938034687,9.723871698018376,-17.30914979436321,-19.658657253153308,-4.490760216247861,31.889317477400414,-12.009746710476996,36.739146305945326,2,S01
13000,-0.010720809083383687,-1.1423563380748747,9.71724481491592,-20.882108462901883,-26.819335650975628,-0.5014747109374827,32.16557095482166,-12.131566980956954,35.844178423732174,2,S01
13020,-0.23603308260101982,-1.1226891495258533,9.428212123760238,-26.45230302511489,-33.104847071638694,5.361155878964084,32.16490589025429,-14.048895929036853,35.30248731010638,2,S01
13040,-0.41801425766128997,-1.3039831198397385,9.29190303578128,-33.484843250325476,-44.77556544055078,7.363100461656605,32.693152825526,-13.187364686182077,35.70788040703623,2,S01
13060,-0.5217157661553838,-1.5857931102300273,9.05515289959965,-34.1478828588731,-53.34852246704997,7.263715430498756,34.003752370163085,-12.225887305555716,35.14056015925755,2,S01
13080,-0.7506994185274637,-1.5777916953279465,9.067251044888827,-39.7630862615503,-59.42008385710339,14.239417186091968,32.96319800593207,-13.321310316207985,35.37299400395258,2,S01
13100,-0.651835419451891,-1.6411475409356346,9.214847694430501,-41.773921693584406,-56.40303195799675,19.609245397858512,33.236827055175794,-16.41659488720119,35.10352639871783,2,S01
13120,-0.7973187629321761,-1.3740379509283263,9.114204244878866,-31.26057320990528,-51.892527737808095,17.443078468277562,34.69534095254046,-14.878866321421011,37.384868308266725,2,S01
13140,-0.7060178497264291,-1.2935398037279744,9.486718378412824,-29.78083684470086,-36.81432985706492,22.640776589157305,32.65911645240942,-15.977928565538662,35.11944994617119,2,S01
