timestamp,ax,ay,az,gx,gy,gz,mx,my,mz,label,subject_id
0,0.17719258592923937,-0.12072666637209271,10.120248382966995,5.751170859402696,-3.7545692739532592,32.467519223193804,32.11487493632143,-7.9507562090738135,38.732560175140485,3,S01
20,0.8614049911038367,1.1724389439728737,11.138106454005566,27.315750923914788,59.83583199235197,15.381866545030448,34.22895944437987,-7.821924907514396,41.90400965856185,3,S01
40,1.170523248962184,2.2568126070096532,11.877043466031889,60.02827897600284,96.06582425557285,-0.8890552950915543,31.467589510673942,-7.8741511100816215,42.190667186425955,3,S01
60,1.4733701695078285,2.7390744649871808,12.919100703122647,73.27937681878268,115.51543187780017,-11.083297412186537,33.31465772377511,-4.7979532763954875,42.24645978932814,3,S01
80,1.1450782845889083,2.8211814388300227,13.19644719622614,54.80235232329179,111.16908118935979,-20.33548875207581,33.52539405545543,-9.40550375818024,39.04032987821086,3,S01
100,0.6441985259827195,1.8394233045655797,13.394184603825664,40.386083049289205,75.80565715945139,-37.14271563982236,32.54653591733242,-12.443754903398624,41.64374659659254,3,S01
120,0.5127234745791538,1.3164565108691406,13.072532532107394,17.58678880995468,47.83408922999193,-32.22245376182156,38.267327286490385,-13.074587245345139,38.92103207698977,3,S01
140,0.5507466602049463,0.3996793857622588,12.779664805512423,12.508713382682405,23.51423257288948,-40.99570100776312,34.39819722323767,-15.081255015498737,38.11707313678142,3,S01
160,-0.08315503682813222,-0.07952393026507798,11.989628284608315,-7.449354208649684,-1.4338132734667022,-34.44290310291199,35.91358519261847,-14.767560328664269,34.141820926395766,3,S01
180,-0.10520246401193162,-0.19821986195554156,11.293228891862139,-7.866066277429498,-4.055462727806366,-23.310310994789248,35.45489919185899,-14.825334023248391,33.809074236997894,3,S01
200,-0.007465688117592184,-0.9269291323660402,10.550563349515807,-9.928769939967601,-26.18787046085596,-7.470012623553183,35.775448509971895,-20.4554649094337,34.53488973909255,3,S01
220,-0.3627568129868375,-1.1801577347436392,9.669882840788954,-24.380284760351493,-54.24520502736122,5.687850233723599,37.020466937871035,-22.547342721094893,30.922531669452518,3,S01
240,-0.5745372430932231,-2.1533922356946293,9.10617400668984,-48.65186626041594,-74.89528681857583,15.137953009561794,36.07411582103765,-25.002525380751305,33.09229827609903,3,S01
260,-1.078571054479378,-2.5200220172071583,9.29397098548077,-67.22215075424104,-114.90746119206216,33.18136325574564,34.58415753448877,-25.793005447342154,33.75049997753362,3,S01
280,-1.4166464893660728,-2.911168281058845,9.115285487873928,-84.26968791574893,-114.24571073245981,42.52313395536383,35.07232988798373,-26.554307134329655,34.339813719289694,3,S01
300,-0.9944656366373795,-2.4307669708663187,9.356707682453576,-62.56001438112186,-99.0708557951861,37.796665875714666,33.31243208643622,-28.933963980277134,31.733132198116472,3,S01
320,-0.6076054747773326,-1.5928738103777467,9.67218035470771,-40.65156229333147,-49.015043804703986,33.138678300550026,31.80082347398766,-28.427888471854036,37.06382706264752,3,S01
340,0.32437215994000623,0.05919461844863955,10.374019924175897,-2.2831893090870903,12.053019680733948,22.45321052527032,31.43075718365747,-28.67493365248635,38.25850989230503,3,S01
360,1.1728708896102298,1.5903327690452154,11.319201576971691,44.85561192159408,52.70682101626519,22.20825213102355,28.465450967430264,-31.977379920258564,40.32065367992551,3,S01
380,1.5205130473719486,2.493942484074806,12.110773361457728,54.19886002546558,103.18664974323806,-3.463874490008173,27.979732993760745,-30.30236800472753,40.151211348448925,3,S01
400,1.2426710651753687,2.9077422296707933,12.661604290976573,73.72305148361976,119.76554831343698,-9.78541881632886,28.29271776879203,-32.12990329052245,40.47169078384027,3,S01
420,1.2322102496719314,2.714503036988977,13.317421535673272,58.560863076054815,106.22655654210607,-26.47526851815741,27.41969540336792,-29.63965197097265,39.36345191250311,3,S01
440,0.619459637452778,1.808850104623893,13.285273725884426,41.44479254809889,80.58433881118907,-24.990975576468898,27.413294117779127,-27.877005759618967,41.02515541769236,3,S01
460,0.501008514184793,1.107679907946683,13.028065429884442,20.81641861161114,54.20360093991387,-35.99765925929431,25.963566177200704,-30.279072233590213,43.62270297818037,3,S01
480,0.18330578482599663,0.4143969174879948,12.626080994388426,1.9685079732286193,25.87565077711037,-37.48688201734056,22.58678827752626,-28.579292305290505,37.65064488853153,3,S01
500,0.2538780665825513,0.057429898415834346,12.081055646912596,-7.594796111926035,7.717442428732148,-34.16848910091439,24.798674552362613,-23.83359549787225,34.90811071664793,3,S01
520,0.12254201399663252,-0.03163385253842925,11.226255329884598,-12.711414869393678,-6.229546099779666,-22.512394496624147,24.531469255210975,-25.494149148595252,35.67291618727954,3,S01
540,-0.21463332110750502,-0.8428432763648268,10.52015701719578,-12.375187059273532,-21.444144701784378,-15.161530507527939,22.298237306321813,-25.17056260761035,35.85816181347081,3,S01
560,-0.4186441149729062,-1.4808286110564315,9.73107323234562,-25.490089351560698,-55.84997231614413,-3.926617914700381,20.23089597031602,-22.66230154077836,31.74603897498767,3,S01
580,-0.688470259235238,-2.0550417844924356,9.39284868096927,-45.112003482158414,-87.67448367705262,25.52950765015759,21.23518641906823,-19.130562832698505,33.42098094982259,3,S01
600,-0.8079957184967579,-2.875544114575061,8.969977120496965,-77.88356686290689,-103.87763154303751,33.94744685160429,23.05427817889975,-16.699717394015835,31.392843183867722,3,S01
620,-1.1699393638797382,-3.1591743798190084,9.082033373863464,-74.47244473159269,-114.37949479118774,33.20492794258101,22.345198540071372,-16.34355001278994,35.44871911835702,3,S01
640,-0.884068281484379,-2.658072402024342,9.173484476962571,-70.6652670425143,-96.68322874356734,38.04292622626985,22.404304976434503,-12.256422076784919,34.99869766566246,3,S01
660,-0.5246543400855589,-1.3685274225010156,9.686712191928311,-36.42163171320761,-56.01904117894758,35.90630236095836,21.783321929768253,-10.520164341389766,37.22656518209176,3,S01
680,0.2568653187261048,-0.22073981405172116,10.192610812262096,2.3143323586110958,2.0809196547308,33.9069695530444,23.102990795236423,-10.893717008400088,34.91955522856623,3,S01
700,0.939502001965619,1.5235820450472017,11.471539887339913,38.2321884457646,56.066707397646624,15.928116959513387,20.93505074058705,-6.466181642488533,41.89049948968135,3,S01
720,1.299884196117866,2.299576658698378,12.11231116744168,56.85216349298145,99.11775593837983,5.4362947031449655,23.278790045939424,-5.215839371602134,43.094476315476115,3,S01
740,1.6392294273290484,2.978304141245535,12.788887131849302,73.649273535492,111.26994543775218,-6.5219650381931045,22.862858924401248,-3.9852433317883524,45.492430317292836,3,S01
760,1.169104535045812,2.5760006783157054,13.193523890736339,59.6152366335896,100.2877671251654,-21.328375997685843,23.735849107895504,-7.276775276820584,44.86138402669458,3,S01
780,0.9287784660622435,1.8651424171958053,13.448468450376922,43.71343242894287,72.46859340184776,-35.097938129787714,26.095260609952707,-5.318290246575532,43.05683328608017,3,S01
800,0.633709085341318,1.352856699838429,13.115628330824153,14.995864055698949,39.43307999324461,-33.87398954370785,29.1331835809183,-4.457762934176529,39.7929450391299,3,S01
820,-0.053216642057097474,0.4062929889193141,12.461752659996135,1.615395676033887,12.587009942110743,-37.74111653288025,29.2434561484581,-7.313968800831145,40.254165953752576,3,S01
840,0.35677109933005124,0.07581848617745887,11.892613333264078,-6.148363326913795,9.761605466129648,-29.016844927387506,30.718892090203262,-3.949229631355869,39.27696714744206,3,S01
860,0.20752955020286032,-0.532366767299993,11.255984374079372,-6.029943650376364,-6.685192013559144,-26.71960600255995,30.81620789952088,-4.2602680035054075,33.841840791962674,3,S01
880,-0.028206125424418665,-0.6190982630057722,10.594251444063655,-17.478814483501644,-27.322358983423488,-14.657774521854394,34.80522314926031,-5.862044163356497,33.0365661174454,3,S01
900,-0.3885418141535981,-1.451785331462266,9.712938745871805,-21.42613757032281,-47.71065052505289,-3.296864796531579,32.31590187270614,-8.287248891015844,34.548973756710225,3,S01
920,-0.5367626954857548,-2.1067161086312827,9.279157146674207,-53.39661935139503,-88.90682244870604,17.975298379287906,37.24415906389005,-7.189690294015404,32.15292532448467,3,S01
940,-0.816998314268847,-2.878417679567442,9.333198945719037,-70.33511046158688,-117.78873381295472,29.504685789634188,35.513992132137346,-11.13705331791326,31.445332626498207,3,S01
960,-1.420078135822534,-2.8305963108276746,9.230991684348568,-81.8690579203307,-97.09807144563877,38.58546703367737,35.28088445155692,-12.780357177659745,33.93149833551094,3,S01
980,-0.8671398866539238,-2.5616756871416695,9.448338227311055,-69.34957246554694,-84.11762377076677,38.80335661807783,36.54505446909391,-11.97905225294936,34.971053282984855,3,S01
1000,-0.38646817574650916,-1.3540329631080685,9.58726513251806,-33.65106667247452,-53.94333668685784,41.363164814241074,37.34731270529717,-13.665181400824382,35.55389029379795,3,S01
1020,0.33684957387091397,0.46126565336439557,10.189822679486312,-2.7058150891197403,12.739477111403344,28.727078708371828,33.609621081327575,-16.06431279273022,38.71488227783776,3,S01
1040,0.9739015904805155,1.8065309210680276,11.397064579223816,41.09832322621641,54.78108317020059,17.761340707550826,33.5211824405395,-18.1509544863444,38.34855354516637,3,S01
1060,1.3760669280383515,2.6665568490457745,12.303211582056264,61.03817076620133,113.40526599398595,1.570227602650716,34.77970458902762,-20.980889760630802,40.70094565386035,3,S01
1080,1.191428676115758,2.492763852347954,12.914217137884437,65.68274811771526,121.91815942905274,-4.551762662780794,36.37664960088851,-23.718638763874672,41.83630657193702,3,S01
1100,1.1331611558257184,2.1972735579474967,13.359905657144477,51.12147413001038,104.30933026140728,-20.94894057216782,35.616307833649344,-23.86855610314477,43.5479065019663,3,S01
1120,0.9019645244997635,1.755737257481393,13.447823589347987,41.91124086692353,75.57733904674382,-32.057911363858835,36.441980581360916,-27.975718713625398,41.56633253838739,3,S01
1140,0.7571213343536186,1.0759642756062406,13.13487025218407,11.472166824658899,41.902338662796495,-42.47976238793013,35.183427777434176,-26.999946191408448,39.100379957623545,3,S01
1160,0.1603385812931477,0.36833563773538625,12.424466205438282,-6.259638802065271,15.668273393728747,-41.19335926476551,31.406025937666417,-29.53131046343906,39.257672127465966,3,S01
1180,0.2890081636540556,0.21135330743304886,11.648700951218999,-11.719750038876821,11.715045119678969,-26.01914880381627,33.135481407939494,-27.80282809640901,39.49082789861111,3,S01
1200,0.1688033968025006,-0.3268657032740234,11.321552878540942,-4.075611166050541,-17.22015453189522,-23.717443466140082,30.09799802080901,-29.81128767737615,33.543776619307124,3,S01
1220,0.2131055934556882,-0.7903171379514482,10.18075458284446,-14.215615403290851,-23.940847592933988,-24.91181339211918,31.577578524218314,-26.098934909318512,35.239208446733876,3,S01
1240,-0.2343297535514081,-1.4744224267898398,9.997923418831666,-28.956049190546988,-57.89610206205738,8.455064118074665,31.093253855643045,-33.23199852215807,32.13147315545782,3,S01
1260,-0.4996474415112222,-2.1636332852089724,9.42892185481341,-49.034334087162954,-87.44456206774147,16.903030480409683,26.969502830420232,-30.09821194115436,34.658438604716736,3,S01
1280,-1.316253464169511,-2.7953942850378377,9.14119906680455,-71.98947308348008,-105.62324560847152,36.16312508643311,25.882846659375986,-29.575623286536533,32.12124892647945,3,S01
1300,-1.1971157798263834,-2.8579322748062586,9.1599334315218,-84.41694608924986,-114.16049237432664,41.4457784632337,28.0724475044278,-30.285387454093737,34.2151757511602,3,S01
1320,-0.9625701979165576,-2.266927580576419,9.366884161942885,-71.48000577200827,-96.7615670314161,38.32788065232886,24.540668777546756,-27.13696673303715,35.434719439551216,3,S01
1340,-0.7214061912684183,-1.0292558100259859,9.547622173149072,-26.926710557486185,-46.80725187825603,49.98142419752953,24.0957983804943,-26.939676129987475,40.64690686086435,3,S01
1360,0.4116531343532499,0.011288481532744324,10.26317222772206,3.0415760560424037,5.0346103446584545,31.687375723094732,21.796827937016637,-25.27279374324693,36.453778389829466,3,S01
1380,1.0170878830649537,1.2601191182762608,11.371834358477571,39.18499588462682,58.895118421859024,16.767328106696404,21.313069134196276,-22.70910000088412,39.467109364988794,3,S01
1400,1.595489624517217,2.426657929439256,12.283255734599088,72.38300592198996,100.64764558787837,7.035939225936583,19.044864395326094,-21.851553878847803,43.03353347794877,3,S01
1420,1.428281637870693,2.5814556784232368,13.035861661584144,64.33585435814145,104.79570074058034,-9.792427123691892,23.392178285991697,-22.186213959932076,42.63874801247313,3,S01
1440,1.0558693111521167,2.2489400594117024,13.165823567898363,56.57429438486411,103.09775887966188,-8.15142212923712,20.232490784739987,-20.510755985353583,40.76787489126055,3,S01
1460,0.5230413070970045,1.606046750515912,13.416082310892424,37.76819881158311,70.24328929130003,-27.729892872764296,21.356866237322897,-17.752524747103138,42.65711551393225,3,S01
1480,0.29504213958663505,0.9143636913193613,12.924613347934583,12.296185494971283,44.09073304483505,-38.3026750994799,18.76214262168169,-16.292900038198034,39.72533077418284,3,S01
1500,-0.13098000173740976,0.6845725097308262,12.486572814726932,-7.682932922742359,26.43401135795019,-35.996331814423115,24.06179184200244,-11.798136725168682,38.815894582665635,3,S01
1520,0.33219048451233685,-0.05294216297436087,12.009929843659116,-9.074188391414935,12.014608737320245,-43.97767899951579,22.777238118065,-10.71513032424763,37.06875155558174,3,S01
1540,0.22266726326891872,-0.2540172617864168,11.111287797786636,-3.420417736157477,-12.488849727063624,-20.194451246749047,22.077253704994,-13.791838385336266,36.94160464937276,3,S01
1560,-0.014718071014324208,-1.145286927980607,10.296915473829614,-19.760310548110862,-37.16604865712113,-8.855070201842821,21.696077321257125,-6.963689562881018,31.941693591166416,3,S01
1580,-0.48421079016173896,-1.6080077027884263,9.981511205553794,-30.542416274063562,-46.517356624745084,10.841121262213521,25.807779187344288,-4.613815789798629,33.514483407466784,3,S01
1600,-0.32805985269615934,-2.4564365534661388,9.411856585630135,-51.24864712384871,-90.2523334367977,18.39290863312926,26.521447005669927,-5.559372167299248,31.95228564162736,3,S01
1620,-1.0570515313040072,-2.6031170597120887,8.868417339387998,-67.37391755173994,-105.23058269762174,28.5643506135305,28.228775722363064,-8.315415716320535,31.69322297209414,3,S01
1640,-1.2325737281278621,-2.9239439150215856,9.114913478338844,-79.10736424369217,-113.69375383683884,42.79979626370803,28.718598211238216,-8.389745220906587,33.638507018331715,3,S01
1660,-0.9120988778963598,-2.385649972269459,9.311402364976885,-63.95933530496299,-94.67189656747742,38.60254283691647,28.0611326663079,-1.9691975450061188,37.319054786267614,3,S01
1680,-0.3062372844729341,-1.0978189952789408,9.968129864778057,-34.70266414207991,-48.182177568503626,37.63482066908407,29.7007373244696,-6.400083898082252,37.93534229088628,3,S01
1700,0.3714321004105553,0.4277713017883635,10.464140501066234,8.552656103145093,17.287979597834976,26.526416001108544,29.917385809342335,-2.5053928873385214,40.717546622134385,3,S01
1720,1.1383580728364395,1.492948284916581,11.37353638028203,41.397561658714004,67.75645828039524,10.166389012863428,30.806104429009352,-5.107491461402457,40.659415861109835,3,S01
1740,1.314686171691133,2.277408810698649,12.283739131887488,68.07057153327041,95.69429365625103,2.1863938418735973,31.56534199078513,-7.143505464029881,42.69668086425969,3,S01
1760,1.2082679842338606,2.6978570040691126,12.783274494672789,69.98660693838224,104.79664041995107,-7.536761863462667,33.68940640001491,-5.9754058553200355,43.56149623172581,3,S01
1780,1.0222487642773945,2.552635543689062,13.467030779544677,59.26845596448315,102.16716846011347,-20.52020812122505,32.95083003590466,-9.754325535226783,42.92105525440745,3,S01
1800,0.604933040632399,1.5068062062394372,13.015978456964163,38.79089338792543,79.08222585470585,-32.62748099705702,36.8272705887681,-11.443524698729851,41.53826967332456,3,S01
1820,0.24896380946415397,1.088157194224889,13.055106735139658,15.172107195128202,41.01659276132512,-43.675354165104935,35.42415652438702,-14.201497329962212,40.05513572844314,3,S01
1840,0.22697903399052025,0.35074559189757054,12.432034799781007,2.0505463384272327,20.820390005225743,-37.012988267747005,37.14425448560777,-12.92533033562588,37.63424390137848,3,S01
1860,-0.10762354582012368,0.02782721867653236,12.051050912631387,-5.381035178624439,8.993397003907631,-34.612911156242156,36.8895893803918,-15.866557119035011,35.721395936573,3,S01
1880,0.10802081750677142,-0.27496512613272295,10.955371646478849,-3.7754595906899526,-17.57863235799402,-21.747804367049003,35.94910872226258,-19.233399476761985,32.96047551877773,3,S01
1900,0.1690168437915448,-0.46553010217227936,10.644357816716758,-18.99241132264724,-26.279861980631594,-7.674144279404684,36.62653133060627,-22.208514198307313,33.05512370268835,3,S01
1920,-0.3222013785972637,-1.7870411675403406,9.64149889946119,-35.67883183719187,-62.68403988142481,9.082061295679596,35.76886369721039,-20.123793947513462,32.092238243525465,3,S01
1940,-0.8099831000019604,-2.552801362190361,9.170816450136355,-60.80633289145672,-84.10046768528434,20.194742131910054,36.24256962377429,-23.779553898115335,31.85662632774539,3,S01
1960,-1.4486508485255332,-2.6474788585061386,9.16361820320262,-72.5131073374807,-106.41795556357852,36.824387071066596,34.74523604828053,-24.431983679775712,32.997294485828455,3,S01
1980,-1.3901780846052632,-3.165378226418254,9.327893732839533,-75.70162912259131,-113.91826693379255,30.8180447213037,34.53061372698736,-24.93221150287671,34.074589932634865,3,S01
2000,-0.6522735723009404,-2.454307002726912,9.640968747959205,-67.0006190967423,-85.87035220663947,37.85459704413656,34.19094794860045,-24.694957148558167,35.37608225087786,3,S01
2020,-0.5761342067958827,-1.1092817569208575,9.72254165950407,-29.439828335810397,-39.127315613859594,36.19210425815734,32.412557219727596,-28.780413982119736,36.641200344591425,3,S01
2040,0.39068278855466476,0.20678777751344563,10.531135372266707,13.42537894523959,13.69238153045306,34.366847562450594,30.594219055238465,-32.11147643253925,40.548584460190455,3,S01
2060,1.1176155401712222,1.5993078085523464,11.44164936905007,37.866514121094134,65.27621306326824,12.602699530157777,31.087897620669068,-30.34586834925041,40.272305326030136,3,S01
2080,1.242634868416877,2.641063866343761,11.995136842753675,61.130692415276854,103.32426361874951,0.7955124523939882,26.97021341800066,-29.836588179709004,40.72794911528647,3,S01
2100,1.2136112134454864,2.9521478206826037,12.952170340070483,65.80267492223928,107.00073231758387,-9.309428210101705,29.267773519057542,-28.707632372323296,39.17926599190491,3,S01
2120,0.9304099849401108,2.328666035948765,13.168828272209955,58.02296101941614,95.84249804492217,-26.26531382998568,26.685471402031435,-29.122332059185744,42.92523332046321,3,S01
2140,0.4840582392810491,1.7497324234507459,13.173970046718464,35.96429054789482,69.91836323607933,-34.515552455409775,24.448990091837153,-27.945183067978316,40.78019088382234,3,S01
2160,0.1924283588541038,0.8536652095572415,12.789834482271406,11.792326129728156,41.09771487482391,-44.20427303387935,25.78644126839047,-29.101311056479307,39.18161857544232,3,S01
2180,0.1036636030085974,0.509220671460547,12.383530762845728,0.7240418027435735,17.947026517770407,-35.459890165902486,26.18376431041751,-27.39400456130218,36.666606429437174,3,S01
2200,0.12660835441147367,0.04493170401495973,11.668978204204615,-5.643366303135851,12.867793522826384,-35.62767127159272,24.686408626341386,-26.997398669924156,34.637887698086175,3,S01
2220,0.2925819985008742,-0.45547782190440134,11.347836429479491,-5.950342266265555,-15.220845872099733,-18.21117501585394,23.208024141482653,-23.59517506135824,30.989379036616317,3,S01
2240,0.0860997622600423,-0.801585772391799,10.407541367013001,-28.86480413344774,-36.968255562863106,-13.186109522021743,25.268810158374215,-26.562208755401908,32.811210237639884,3,S01
2260,-0.4461867864184528,-1.636663878500662,9.638134799696896,-34.99677840162476,-52.120889960848146,1.1087448489051055,22.09017455168444,-21.0314328881519,29.88349335091663,3,S01
2280,-0.7738084112983116,-2.4362868625693106,9.231041135522897,-55.921679437068555,-100.41145359942313,21.542609545214336,19.72252282884824,-18.550516881968676,35.39348332454635,3,S01
2300,-1.2997276771661352,-2.8221287372013624,9.013065575195299,-75.02611180707413,-110.23119262282343,32.30500729724748,18.889007516724092,-18.45181026151036,33.582511265932666,3,S01
2320,-1.275810090454937,-2.846613565162099,9.206905950805806,-84.82132942435148,-118.18385699191062,46.51619167540841,21.219535541904282,-17.804313677413628,31.886289045292905,3,S01
2340,-0.9882389439394413,-2.033075638960722,9.258702866511037,-59.903925627299515,-84.38245744306992,48.659860750877954,21.989584567173,-10.195452074836837,36.21579888477008,3,S01
2360,-0.40650960402016134,-1.0834873112392416,9.685774341184773,-29.306162812759705,-41.04687530693496,47.56175460236233,20.016956823410652,-10.337835543242674,36.07248299875382,3,S01
2380,0.522833709749284,0.5637419055537083,10.419632534357687,4.378882528116846,18.490708613999782,21.410077818055626,22.78292654721577,-10.780432744135002,41.67525980147687,3,S01
2400,1.0651592789063462,2.0211528493079483,11.292729571920011,51.30104916203185,78.4512955605194,10.872223976946158,22.412554483294862,-9.68575742897282,41.523949458898144,3,S01
2420,1.4226348553119017,2.56908958764359,12.323858665892649,65.45619109760945,109.34394956798624,-4.988617859260093,22.666432810734563,-8.05099488584954,42.12550648770359,3,S01
2440,1.4762820718780787,2.65782570677422,13.066157330908048,80.04902825766159,109.21566601674027,-9.134573439810243,26.618630668345197,-7.287901638836454,41.21784677581817,3,S01
2460,1.188022940860698,2.557959658797252,13.356795030899837,50.416912189636975,91.73881139131412,-27.762316326053323,26.18485142711799,-2.607180506389457,40.21793237544213,3,S01
2480,0.7271797876792115,1.5288330753793795,13.530517486208206,24.71054008487288,63.5997836203307,-39.41933185702239,26.790173743854805,-4.675969498882062,40.00802114679104,3,S01
2500,0.39475600826089985,0.7375512319393496,13.183968543839006,18.89545372004662,41.25970510778173,-44.90344323657505,28.48997055102723,-4.653479370362827,41.07837800997477,3,S01
2520,-0.025892250997556487,0.28564636311182817,12.589710185269128,3.5217639076610636,15.727872720839652,-30.861795391499918,28.086067444719433,-5.4885740579800375,40.69937589691245,3,S01
2540,0.0597241960585685,-0.41819611919758687,12.218415503348952,2.126904892594702,3.4071583381518336,-31.081850821806462,31.058385476462774,-6.094776814071981,35.081632570183125,3,S01
2560,0.1085309778177019,-0.21686471890950032,11.184572192510878,-9.87517742337928,-7.980050387860797,-32.97097269930472,30.707156054839526,-5.383389094236041,32.89939659944565,3,S01
2580,-0.09020178863338005,-0.8995528341169983,10.15459621243812,-11.382337128407364,-31.33350543730761,-5.863311264565647,32.75322160133172,-4.7106820115128265,34.503308684472245,3,S01
2600,-0.4614943062958101,-1.385707840095608,9.801033750445637,-36.61511044186482,-65.4030203067585,-1.610669961314057,37.25076951323049,-8.423753270779054,34.013067022210876,3,S01
2620,-0.8456673977035492,-2.5459235596373486,9.21189397174272,-56.42752720215792,-96.25703710508398,22.911501872511856,34.430952293940116,-9.154908064749707,31.88180707784952,3,S01
2640,-0.9256712346761332,-2.701545567389151,8.998735464705643,-74.44759983582685,-107.52879578346428,33.77321020655667,33.572133819409046,-11.34966252855653,33.01733236148343,3,S01
2660,-1.198976318664757,-2.7811188255862866,9.169759157699652,-81.70505455476857,-119.86085694986129,28.711862533350057,36.85414245527488,-9.92892005718071,33.270729699603116,3,S01
2680,-0.8744956841929723,-2.2249525412824296,9.398935919364002,-68.19814653319139,-90.06079779740394,39.68055574740159,36.817242537065404,-13.692377815844068,36.881495409857024,3,S01
2700,-0.31303014650235106,-0.8135210878742865,9.921597228758545,-33.73175578945362,-25.850139389830314,35.12341146695946,36.08109767234457,-17.61028423219304,36.42601340278629,3,S01
2720,0.37205171415414084,0.6368793884717541,10.606675088626018,11.360840608243969,23.029793012502438,30.20065539597792,35.8795710924399,-16.048625562679554,40.94433656791388,3,S01
2740,1.0435927776816103,1.9202578508894088,11.538412173527977,47.662574051186034,69.64100178004954,23.381012535377025,35.6033193112832,-21.208578997809504,40.18144494688645,3,S01
2760,1.232218083625557,2.4541107395044715,12.363984027434542,66.25447234471586,103.38404433241419,-5.548505348537946,37.515811729106225,-21.91524947328818,42.397596122167826,3,S01
2780,1.6548290594434525,2.921073241785223,13.318913230844597,70.93972634048268,122.56950121532402,-13.542314588805795,36.5029925428835,-22.54772317272193,42.05636282826691,3,S01
2800,1.1169131454062704,2.3730519858745858,13.21750757080704,57.88414037098944,101.87654251546638,-30.356386240457113,33.33941101665951,-25.71230601962744,42.32035750615486,3,S01
2820,0.6367096748739084,1.4099208110105093,13.132841832959002,33.96151569458421,68.37487233311319,-45.34247347136082,35.03198982559293,-26.47951005295653,43.43240495175307,3,S01
2840,0.1512216717093473,0.7725559978228953,12.931010671059353,12.778802529047397,32.32381557481038,-29.780091917090132,34.59237885843979,-29.950065819641924,40.95939476359114,3,S01
2860,0.3087914373855567,0.339142976991829,12.293303517195652,4.40632632313051,16.829566258233456,-31.783712552696805,32.903151018303305,-29.10626576257214,40.15611011757821,3,S01
2880,0.25476684294808094,-0.0882120657068358,11.770908692379978,-0.9662027271552445,5.4110384101431785,-28.151691379554116,31.320739708568393,-27.936008453496278,36.58075395751903,3,S01
2900,0.2844527384742097,-0.4099115437745091,10.948321645236774,0.2322020676694736,-17.39708254982501,-17.476233453092714,30.290270509518155,-30.734693653642044,35.409568392305815,3,S01
2920,-0.04668352349529556,-0.8302392743964144,9.875652383088271,-8.707158095507772,-30.974897835088367,-7.220625185664358,31.31793892651118,-30.94273699474128,31.873473516762893,3,S01
2940,-0.26286621937062293,-1.6959061779699056,9.935389231148651,-37.669563871629855,-72.98135442210462,14.32180774405039,31.12536560905156,-31.619212338196082,31.7086514219905,3,S01
2960,-0.8707299105146409,-2.2247023304833164,9.028668533787053,-70.9301668374556,-96.90298465574259,32.808403094538455,28.680569263078098,-29.57500715992549,31.510449768239738,3,S01
2980,-1.0375611368513136,-2.5933670850425754,9.13764107252109,-70.54840288828801,-107.5741129404092,36.113896935955594,26.875247734170134,-30.836322999367216,28.812144099092972,3,S01
3000,-1.1492471609878674,-2.4996790876904416,9.521065427513474,-77.58950235296014,-110.77014130326889,41.1191519923561,25.922477726358213,-27.779432316844098,34.17787422028702,3,S01
3020,-1.033148959264418,-1.8016762888914282,9.718000372662942,-58.61259614983248,-87.06353311935108,35.52803330980742,24.89896384556809,-27.071273283207418,35.77571787717761,3,S01
3040,-0.328834818635777,-0.8216111920377107,9.77884511643458,-21.32780425748025,-38.79161155430607,36.44622061901792,27.160575678003127,-25.369791112168993,38.37206447425669,3,S01
3060,0.5795207528778442,0.5980483635158214,10.630056174325986,11.771082476149317,29.519442685503954,25.93238020211117,25.581398913537313,-23.34658258462407,36.885776522706784,3,S01
3080,0.8687879442204992,2.1714361064420773,11.521784370095318,48.39181111949171,85.82784785702925,21.72658479472235,22.310867917978637,-20.879445541374658,41.56618031572834,3,S01
3100,1.417760490714494,2.3730979230761178,12.4069213906711,68.7834538636321,110.19433289907704,-3.628562490690151,22.522368901224333,-20.51440895263473,41.935713147848126,3,S01
3120,1.460171945239127,2.514629014694899,13.131572824987803,59.558245197533736,108.21556889038084,-15.669240498290373,21.331982278162926,-19.67638282527026,39.90404102378732,3,S01
3140,1.2344840839954943,2.2079458355848134,13.2026817420112,60.57158764409378,103.82008195562575,-27.110312207974932,18.861297789994612,-18.07061235992023,46.22574946992384,3,S01
3160,0.45401265787312206,1.3756002279979453,13.047732015798525,26.712544859278463,64.57662457832218,-30.019864717785577,19.61605871610628,-17.365464991559136,39.80905006218863,3,S01
3180,0.11562695757237301,0.9461423441655428,12.921500456025372,10.556610403109048,30.69821017083883,-41.35045264959974,19.652004823262374,-12.28799269460017,38.39800714389251,3,S01
3200,0.20030938970687295,0.2609587476388868,12.369849939046892,-3.959398124258721,7.159021109739437,-42.50924946235514,21.38654081471023,-11.537991952046111,39.2581465225392,3,S01
3220,0.10038732867295039,-0.03530856483502527,11.72060658446252,1.696200243470785,-6.79644074627036,-25.913081800437112,21.707205242586145,-10.203252188560503,37.395120262973236,3,S01
3240,0.2756872066216878,-0.37846686913600724,10.94566915149905,-12.721378909267155,-21.83734081835807,-32.26483697965977,23.17044218410007,-7.975508238800722,34.24245045468129,3,S01
3260,0.12361166438742842,-1.1378538752960998,10.109218380679003,-23.69134606276847,-45.220631993933566,-9.133144880754724,23.91189231927298,-7.88155771396611,33.38165831279356,3,S01
3280,-0.3000939486750639,-1.6069798828355262,9.798239124770348,-48.630318657499444,-63.7152812522286,2.9077263204543766,23.06205644030934,-7.847273774043983,32.044852244525714,3,S01
3300,-0.8838578167799627,-2.2432586285870726,9.488357213876537,-63.27877129897676,-96.35004793146487,21.715398362307027,26.300582311325833,-4.835678172223131,32.80584999799365,3,S01
3320,-1.145286638505711,-2.9124082557187214,8.96600049812443,-62.37718414459975,-110.41494697586644,24.957026696713733,25.594423083373922,-3.992209026813389,35.2921758527322,3,S01
3340,-1.1523319982144427,-2.864664122778291,9.425014104747497,-74.25125527220938,-107.68843116270192,43.64438911178241,28.104884194679066,-3.962192101157086,35.04388780197207,3,S01
3360,-0.8817041171595517,-1.949636478191311,9.643050143528631,-53.18357039499119,-80.24342065201355,42.67030520599956,30.497816077322256,-4.522581987890254,37.96231387030974,3,S01
3380,-0.42492278640269787,-0.7631164838798332,10.053407816147816,-22.83855009090475,-30.909894867009562,32.8508963321771,29.133256522362842,-6.577381894957592,40.286908098595305,3,S01
3400,0.4779692313466538,0.8568822636159794,10.888419071280904,18.28525767715552,22.1755014220413,27.642583033924673,32.73097652024812,-4.497963402156804,41.88582773855352,3,S01
3420,1.1580731816717484,2.0358618824839727,11.4622375758643,50.71845563504026,76.0482897871425,16.873042861704803,32.32625516375658,-7.023477271486194,43.10092877991735,3,S01
3440,1.3529891132985485,2.6797581044045584,12.228098748031186,66.52220013540175,108.04569617554797,8.490597788578429,34.32016578996728,-6.53895012958785,42.27952606060609,3,S01
3460,1.364373220305168,2.6518143849965097,12.99847853113444,69.21970869192555,118.69149258829039,-22.252737927091417,32.31909839561569,-10.49876691225916,44.34222488767256,3,S01
3480,0.9455140448218787,2.314117469003804,13.32206975391654,42.285381320649236,94.98983756627702,-21.60238229926547,33.65420425405592,-8.961631447313112,43.90372703938127,3,S01
3500,0.6824645027226265,1.7465926201941593,13.141383371457461,31.448288443459592,56.434479566806544,-36.699495206657446,36.90307716845123,-12.029545387829609,41.70692613261836,3,S01
3520,0.21053807349501757,0.7217492531986405,12.928663426059346,15.39808681341384,30.294119928115084,-39.190794382976605,34.192068299324404,-13.129837118749752,39.727842446859036,3,S01
3540,0.27874637173061156,0.392976988624573,12.240531400742979,0.022868604423616823,12.187233431868293,-47.72150529905161,36.99049949705869,-13.71464301639225,39.18519917930435,3,S01
3560,0.2405710767905401,-0.05413481037437444,11.660773410462468,1.9920598533026608,-2.244294056205395,-24.38710478556429,34.72038177397039,-17.928476340215205,35.32383532478382,3,S01
3580,0.01958820531739254,-0.36268849028399464,10.939798671342452,-6.904018783708436,-31.700822562081154,-14.345130430054859,36.07921352160027,-18.279734828989397,35.77084894794107,3,S01
3600,0.058447917014720636,-0.9191397674622597,10.103251568878646,-14.117915531146561,-35.95048105354231,-1.1204984153288375,36.02504144881499,-20.794429442757334,32.584490231316735,3,S01
3620,-0.24970879816727318,-1.7203944544932437,9.611525880849278,-36.900280256167505,-72.98831386629762,26.04801694954964,35.52507700488185,-22.823577242034787,33.03227503912349,3,S01
3640,-0.9702980414531682,-2.7153413835281595,9.342832130458484,-55.78483019037145,-107.07499510505866,24.953884971549464,35.73299363034448,-24.669621358919894,33.006929781606516,3,S01
3660,-1.1327731575564697,-2.6960362785466727,9.20181316557493,-78.00349065739401,-111.28458834491867,33.880594661455305,32.95119098253783,-25.905540041085374,33.54646061498153,3,S01
3680,-0.917300691557945,-2.8332498614742123,8.960210274901906,-77.29620801841271,-105.8259069673204,40.901283386323634,34.39200331596598,-26.097630843136795,35.634865135262785,3,S01
3700,-0.9723685334954723,-2.1811649199697483,9.520189493309843,-53.60974562653755,-83.60067766467853,36.06928811892029,31.830962165804745,-26.759318426919744,35.09344461126834,3,S01
3720,-0.5046609060319638,-0.7366729607875007,9.966675381309026,-24.818984782543023,-28.939711618123326,42.668239338459976,34.66495412724494,-28.338173366240557,37.4847248111161,3,S01
3740,0.5838508370481044,0.7723234444554976,10.969394663483413,36.65527467365102,32.30434961659922,29.111482440374008,29.748083927419575,-29.55904308983279,39.10810372566315,3,S01
3760,1.281302993881693,1.9175554675852067,11.74244805868568,52.16283618775403,80.77236977875882,17.206501425614533,29.980431794146867,-28.872388713022804,41.35399208577816,3,S01
3780,1.4805200645503411,2.724016502107585,12.246089765583674,69.24537419143509,105.36397009275285,1.8958301491663465,29.64242269283936,-28.98726738640032,40.92373037605211,3,S01
3800,1.718701430500826,2.6457329295164125,12.931814493600795,66.31693889546776,118.28285621950904,-24.406796296585664,26.373450641932024,-28.265497023423183,42.500525655381715,3,S01
3820,0.8667453034225144,2.1820017637226177,13.276483877508852,47.73491097366585,90.43282343803527,-39.462664530732106,26.49301896324468,-30.34850972521783,41.930212392941726,3,S01
3840,0.26260677423969553,1.5438722297093836,13.393853392721594,22.597630912757044,53.04022513230797,-38.30177063102681,24.46658299755979,-28.617152081853344,42.227028996336585,3,S01
3860,0.33184595771377073,0.9848261337403954,12.783497223213692,8.862270445274493,34.81610239101707,-51.33749983540898,23.173293228140217,-29.13417962398525,42.11015894991682,3,S01
3880,0.06852263184468077,0.060810464992506724,12.330168109736814,7.35979618279118,18.11901140738265,-39.895679808922836,25.081824059183937,-30.81159116592532,37.98524717774527,3,S01
3900,0.2709921627776679,0.021732920179642304,11.421781380133881,-12.498556888206814,0.6576867291395478,-32.58445540865587,24.290051867994464,-27.31354653116029,32.50865560397785,3,S01
3920,0.14276345394351708,-0.5364112401777072,11.085221019424331,-10.821236526613092,-27.633492611172564,-10.665505098493613,21.052501338213993,-23.476364960684524,33.298239059364406,3,S01
3940,0.050574171478130356,-1.1757897187668658,9.781421042564507,-24.5436823229014,-32.748872010901145,-11.499023400802232,20.209752093422622,-19.819602640668954,34.378691229300465,3,S01
3960,-0.3808683858719648,-1.7997228561564973,9.63648779721574,-36.915691728730934,-79.42057549372048,15.082302860554305,20.141816535416968,-20.512496948705248,32.36022190875531,3,S01
3980,-0.9840061485979043,-2.4061457497876853,9.313818203522436,-61.635824011392,-95.67826038215787,21.20352407147033,20.204570727227846,-17.229559318821952,31.068251992202978,3,S01
4000,-1.0967786232083758,-2.931389009422937,9.410482188722458,-81.07797258128237,-119.68275456060027,35.796478948525305,22.73439774700568,-14.717240826795846,34.24718820027738,3,S01
4020,-1.1231861582149651,-2.753163165246078,9.495697128269,-71.28030082551027,-99.94473535116843,36.318831354881794,20.394078390173497,-13.625116104906823,34.479736280386064,3,S01
4040,-0.611903056970502,-1.9627153968763162,9.172390267182276,-54.249281815883045,-69.86510017214599,42.641818557381065,18.671693931106773,-12.66157051534221,37.37519108925611,3,S01
4060,-0.1230451524609851,-0.7365992724408528,9.878338971304402,-13.190065230712644,-31.917392593098445,30.5289489892096,22.456810239959744,-11.56008009866066,37.21531035193619,3,S01
4080,0.4847799498797539,0.9144333669152844,10.803853054862206,15.54292145381796,37.72817809289685,14.808055486009485,22.938276237614122,-9.550488486207183,40.548247367764944,3,S01
4100,1.0068746362539558,1.870692283026615,11.935082857463305,58.89019444987771,79.08765367788446,10.49727934182351,23.30538093821404,-5.854379001454172,42.739133077691534,3,S01
4120,1.4236352852439411,2.8580884158073,12.410516468770759,75.8258672750657,102.66496436216211,-5.860238609289901,25.143769530287745,-4.13258789714875,41.2111985636847,3,S01
4140,1.4680729427819803,2.8827691760083867,13.02986241187004,67.97339692688382,113.65172770402549,-23.02414594668972,25.0760045904494,-4.716647569765202,43.40746192648069,3,S01
4160,0.8377000385710398,1.831500769867745,13.498318803548122,48.85690902803724,89.37634044286506,-35.702570321381536,24.050312758991485,-4.667744604826013,40.259516105409894,3,S01
4180,0.5742349239578606,1.5126624499148262,13.088496986299427,28.862532043066164,61.749170328887885,-38.211532277290715,29.66588615150657,-3.7433437508126004,42.328633612407444,3,S01
4200,0.24097971962803882,0.9266306676044096,12.78454078532041,13.7388558160787,19.99986574879179,-39.90521868089547,27.68257928416397,-4.756766418359472,38.20607710291976,3,S01
4220,0.2532452067200345,0.2726701366963098,12.258138398690784,1.8246726773931936,6.944902553527714,-37.956835136230254,28.98130555296699,-6.0381186385013645,36.21105384924402,3,S01
4240,0.0034187186092384525,-0.11031242112601392,11.555113964280036,-1.348790786552307,-3.6215307198657376,-26.130779158164437,29.66670358343944,-6.984174224063554,36.237880770356824,3,S01
4260,0.10485486713661706,-0.40268134311742576,10.50059420315476,-4.341208733289007,-28.181947873781677,-17.08266739828191,30.99049143250675,-4.954734951690854,31.776064156715478,3,S01
4280,0.0027772251605466397,-1.1359782902090245,10.233320435281565,-23.546954655003464,-44.42568527147879,-3.3350737730687023,31.489829195104853,-6.847308639066944,34.70831482983255,3,S01
4300,-0.7836909930756759,-1.8337325682885752,9.816521857528741,-37.856417673609094,-61.79573401341316,13.100592227877003,32.74393496074673,-6.97548145696237,32.48114639016018,3,S01
4320,-0.8164717081520443,-2.244290438714898,9.242039176801102,-68.61077543168722,-96.99960713823138,25.39367495834221,32.66484419830509,-11.277661290020756,31.99190951597281,3,S01
4340,-1.1593298772822573,-2.614724487212019,9.219164479107626,-74.77080274489501,-102.46299270607332,36.22261895300729,34.496237818314754,-10.547089690731836,35.13142341199408,3,S01
4360,-1.0579235557965938,-2.435863131816539,9.226465597060713,-81.0238838971246,-105.09958011038317,41.33631232315076,37.241818065046644,-14.167618289012768,35.12233867082945,3,S01
4380,-0.858623045252374,-1.7380632890674763,9.42925001325352,-60.86096261254926,-72.96277539886381,42.757899071207234,36.77936569129356,-16.30372945755278,36.67177038835828,3,S01
4400,-0.1269893594977555,-0.7030686668691892,10.166882091392395,-17.194326602525948,-22.559653332313403,25.244101339299398,37.87555755210323,-16.278938221533295,38.24014176454491,3,S01
4420,0.5053392160453323,1.0638140295593945,10.831818488950015,19.82083499139649,39.92044541020208,31.723488526062045,35.33001015820753,-17.678740497826986,41.594729314748086,3,S01
4440,1.2495217030286176,2.0122343429808986,11.859794969577417,60.451029587846406,86.22591207301167,4.5695499623640625,38.56528199252479,-20.180995454215335,43.46539753359862,3,S01
4460,1.5643741912141138,2.673749943189333,12.77334383096906,66.36265734100444,114.02906967854423,2.035950408692728,35.7310858892677,-22.861369767497933,38.11480167079926,3,S01
4480,1.3453486894139557,2.6549538915191375,13.10605164359017,69.22685873417574,109.34260877736394,-24.497268055550705,37.22525156175307,-22.91411048328284,42.236063088030534,3,S01
4500,0.9068249795537621,2.42515207690169,13.291497282467281,41.35497355350666,80.44688337823071,-21.558942997241363,35.37570786075948,-22.44353137841453,41.80568864219966,3,S01
4520,0.6156499323239969,1.4067671084940727,13.186057564642491,33.86594275400331,55.56109632411335,-44.3751849072382,36.29594688541241,-24.69389217034329,43.38178149066972,3,S01
4540,0.22537832222231935,0.3388093531156976,12.762959483541037,6.661089961033638,32.31609567498133,-42.75003774768278,36.692071139272855,-28.162191639356234,38.57976062863999,3,S01
4560,0.11804015852498825,0.24260346308041775,12.323774090878912,-8.348138879272746,1.828696857041913,-29.848703673658907,33.00319688551453,-30.80708331794864,38.249230300709435,3,S01
4580,0.08164787899267312,-0.18464809441781643,11.515837122971533,-2.8399827078735416,-8.526158566739836,-24.485644285131848,31.056887087118664,-30.169358403734456,35.785393566978144,3,S01
4600,-0.10667280452625372,-0.4361681528022202,10.88860240030223,-7.837259156193961,-18.05965574393665,-9.78728622124054,30.99580567663573,-32.42650883669598,33.57685680322014,3,S01
4620,-0.0868783053496425,-0.9375364744890633,10.070130569098222,-25.00317660669129,-47.51039756536538,-1.3358126240308041,28.145246291130043,-28.025962996346603,31.470612445678793,3,S01
4640,-0.5590783261653716,-1.733494804438905,9.63645009332002,-46.45563308522836,-68.29122664930625,15.030633501275746,26.70808410003092,-29.421511205821865,31.171755743078084,3,S01
4660,-0.8298706668417537,-2.690833125869826,9.114276943351067,-61.75636978542278,-100.30893670533558,28.624217912276848,30.129504085279695,-27.91021168831283,32.8889195821785,3,S01
4680,-1.181954353845038,-2.8527997794208995,8.911442354635088,-84.5573635036205,-121.66076327730838,42.46300241199875,23.013597449566127,-27.893945602705013,31.965932352556223,3,S01
4700,-1.037975206144716,-2.6879689827242967,9.153235082007305,-75.49279314283763,-110.51199871993843,38.57859009905056,26.18553391170247,-28.792043487181733,34.27611454692968,3,S01
4720,-0.8117161075779694,-1.8554184992528886,9.517376214640008,-49.2428304133522,-68.76924226304267,36.75509341488434,24.666445341587078,-26.208655444389347,35.32569613246734,3,S01
4740,0.03217275648396077,-0.5007470785085094,10.239002934579547,-11.73780937091663,-24.086304169959654,37.34760348282071,22.321932003378592,-23.283171010954035,38.002999725162596,3,S01
4760,0.7318344105923787,0.9134695484539135,10.546504113929025,15.635617624059389,38.590137892646865,24.206691703581452,23.715480457972095,-21.806832975497887,40.5606354152858,3,S01
4780,1.1718681731009022,2.4106324382226485,11.882398908187913,55.527892582546905,88.68518532094211,13.916079643943755,19.934651851367782,-23.973402452493346,42.29548404086127,3,S01
4800,1.3708669691468196,2.6965354677014246,12.87712261965686,70.83916798982926,101.4395886134535,-16.4569720053494,18.50806209651894,-20.958478846652376,42.06032597991139,3,S01
4820,1.2035993310993558,2.6328920670313014,13.27485756463738,60.81847776564129,100.77529841516478,-10.930261527696347,25.326880781587324,-20.256140650662935,41.73110240335735,3,S01
4840,1.152612894623082,2.0508299268226504,13.082360053747117,45.94206622577694,95.84857411093279,-41.48938717050705,19.201228313843778,-14.836639790752983,42.48503445031354,3,S01
4860,0.5447361201858455,1.378132787417063,13.013627010114766,24.978083353583518,51.41342386831061,-46.61088772869699,21.048766656424082,-15.551505692341227,40.48752007489651,3,S01
4880,-0.06503839552480475,0.8234860563824331,12.67049444463863,8.478165280719427,27.684784385142983,-40.14877901207662,22.651274837280823,-13.792027281784785,36.13782440340516,3,S01
4900,0.3356021466295219,0.15403558804805612,12.077190270724248,-3.623527881706213,8.270039875329907,-36.953480035619584,23.924023489679833,-12.66100793251534,37.186041564600195,3,S01
4920,0.1929029771807198,-0.20635273842064164,11.243960163730192,-8.042453009668062,-17.823211355037888,-30.71333706657942,21.711883917907294,-10.601826177024721,36.522528600406574,3,S01
4940,0.19153347363792234,-0.4260092482627434,10.958512634219325,-11.260838862866287,-14.057108821616076,-8.227254091944943,23.33622316676017,-11.311909917713969,34.254684029161595,3,S01
4960,-0.35104668109634496,-1.0500291234539534,10.057238654378484,-24.204452803831032,-37.841957683803784,1.0215075047630902,24.385141520768293,-7.985166878622781,33.37416888759643,3,S01
4980,-0.7731754432835546,-1.5444223735969884,9.660651019769585,-43.89961004626238,-80.7321567553752,12.63566116513618,24.8749040064031,-7.3499685200810685,31.50754254255706,3,S01
5000,-0.615656017768412,-2.3745602897186213,9.321912036897075,-65.38801926288808,-103.80235510747853,23.272939684765976,24.436238823578954,-4.505695071706414,31.816506254171568,3,S01
5020,-1.1266362576050282,-2.9750682790642,9.22725612489541,-73.16114527123558,-109.0273314120374,37.14568883846977,26.802285897479635,-4.893495358401892,32.98191739770115,3,S01
5040,-1.1032488305071206,-2.6711535078622095,9.141165184214428,-81.33073650002773,-105.8081990778176,33.83627253352582,28.94807833650548,-2.715413512678256,35.68730961560811,3,S01
5060,-0.7664285546061852,-1.9729650283035924,9.40587519673451,-50.89355316073207,-69.57559384731654,41.192169500093804,30.668577647016644,-2.659113542091891,36.49617402323689,3,S01
5080,0.1384060436378496,-0.32980494827117773,10.07711938815946,-17.01022151400708,-9.395530375345487,25.174066186474487,28.40158882283454,-5.410547893342405,34.95035224885879,3,S01
5100,0.47513780155010377,0.9846614325785528,10.819670157800442,26.863639364971444,38.43819014663644,23.4296108180695,29.966434845097144,-4.463783290796959,41.85734192706678,3,S01
5120,1.200321219903316,2.154145339044075,11.909535959674015,58.45852029043911,84.14469963712769,7.8900556992371875,30.385659955543492,-4.216890265197968,41.605695197469565,3,S01
5140,1.2946230598179105,2.7377164660459967,12.608923033751,71.37444480264391,109.95648865674356,-6.0242278668174,35.198147406025285,-8.088136392589107,41.35726790336202,3,S01
5160,1.3086979314757277,2.5902535121384322,13.08943645254877,56.89259675996316,109.09365456503687,-19.803977629510534,36.573296299030346,-8.813366075156996,44.47046731051739,3,S01
5180,0.7039193443626662,1.787544489526174,13.346039488672437,40.72325524041455,79.8567714921248,-24.679457220628613,33.293442092810615,-9.215660361672192,40.85947168994099,3,S01
5200,0.46877524903757395,1.41078142461114,13.11373671565927,21.870681698393568,60.34845412960588,-36.54446710816236,37.53220678006204,-6.95029338817108,40.254099912410354,3,S01
5220,0.29518553913497125,0.8848564494922109,12.848761641799957,7.618298696845064,35.90777026391313,-45.46036643614617,36.69032607889517,-12.468687496771738,37.97725650589653,3,S01
5240,-0.15453582158162119,-0.05298803603167329,12.13375646981719,-8.020935257200877,14.140253325270795,-29.12577706935099,35.6887637707372,-17.356406953302134,39.031745118151846,3,S01
5260,0.14750562571363962,-0.42677054974473055,11.4772285127936,-4.537685500837825,-5.866711441040838,-23.186463767441527,37.46495245362024,-20.22697765490335,35.407517716385556,3,S01
5280,0.05283533985493775,-0.4563635570457162,10.660200143039443,-14.099997044705798,-27.543479481139418,-0.3639729186692563,36.21034943354212,-19.084489484080898,32.779343072506,3,S01
5300,-0.30494750532677317,-1.1784404593160498,10.17979441538892,-22.992377019489727,-49.86413832655389,-12.170483819854628,38.5817143994846,-22.430713197544613,35.05626742446408,3,S01
5320,-0.5189738713870119,-1.9503620292743138,9.375336282292414,-38.36069043427889,-74.85120596627847,13.346214482300356,34.2889879147349,-21.00218151444372,32.62966099720497,3,S01
5340,-0.7371900788524847,-2.7398126257655293,9.009595037200766,-69.0278542796226,-103.75858883162503,31.35554092446775,35.7582244765231,-21.52866535841289,31.82275751399674,3,S01
5360,-1.2567502248613627,-3.1154947049208137,9.193630944347944,-72.8227264178425,-109.91999227747672,32.992661332376585,33.504114722517,-22.330436186750585,31.81210977523182,3,S01
5380,-1.1385665993585932,-2.6382818922100086,9.123290725925703,-71.26759758974838,-104.02181855301913,44.456193024022404,35.4459542728202,-26.789536887788856,34.566804142764354,3,S01
5400,-0.6652338965125894,-1.4921430411394179,9.727848700322104,-54.11889460205096,-72.7126817095789,41.456963268305124,35.27554715357665,-28.097197009262008,36.243902054091365,3,S01
5420,-0.08093406657408048,-0.47368452384912146,9.930441692649918,-13.630546115817182,-10.374810852599033,25.03052549098118,31.92221009811138,-30.348177706989855,38.51356168516379,3,S01
5440,0.861228398622919,1.0599963324275312,11.101166216047195,26.22236045502468,36.87157268028078,21.95700511582434,30.87817250094019,-29.94840722912035,38.949453426982274,3,S01
5460,0.9202134671242206,2.0305404009602483,12.073408335917657,68.08010326855327,94.31340114057797,8.702622200656961,28.264888142234092,-28.48514198390929,39.30384855035355,3,S01
5480,1.312060153076116,2.89189067147313,12.531607090576776,63.085843882758596,115.30204309538739,-4.69310280557049,29.86169909140467,-31.495324642715023,40.454180761419856,3,S01
5500,1.4449841654654658,2.4082075430684506,13.01821286460112,63.42540619706622,106.38719577730241,-17.39151547943181,28.152697921694486,-33.348559441181806,41.04451225248021,3,S01
5520,1.0741797913731455,1.9055106080262803,13.28145241312863,50.42794181043965,85.13190009574195,-31.51851144889587,25.624612218071334,-30.40088877019907,41.23085128422406,3,S01
5540,0.5523401650656009,1.4443177735742112,13.200088098995579,32.77353226333413,54.36893700713242,-30.445358264451304,24.695356523112295,-27.369182249993965,38.572499321342455,3,S01
5560,0.20446397771172434,0.8470183866541976,12.801890319072145,3.454715412808782,28.10309598757236,-30.731806313085798,25.395711560052817,-27.95537462556656,41.03817834016114,3,S01
5580,0.34449159309523325,0.17384352494237984,12.085759521001922,7.3198854535517865,18.57245395869499,-31.896927979748924,23.64835097339452,-23.19481262815735,37.73369081859413,3,S01
5600,0.2638335787218935,-0.22380122887325493,11.431300299866457,-1.0133107584931116,-3.935099104627805,-31.11348980640515,23.716942280201522,-26.67217508395783,35.25220934853871,3,S01
5620,-0.07081535442176529,-0.5467544123478356,10.804993080631904,-5.487487779877078,-17.300603409165365,-8.786474348026854,24.209955550275403,-24.54848918619551,34.21681949796796,3,S01
5640,-0.10516562073839614,-1.3367277110517852,9.890889356063257,-31.937830572876514,-59.82092059920568,-6.232751054160158,22.02573000601597,-21.784761545952833,32.808313081826945,3,S01
5660,-0.5822373389548348,-1.736170618448995,9.583926788545352,-40.21041449836656,-86.93459170581862,16.15552860435509,22.60968505625221,-22.58339504244773,29.582314288866545,3,S01
5680,-0.8190172472650745,-2.6401679325486245,9.361544962220199,-66.11034403020058,-104.11774988185273,20.979318459627716,24.537588226310206,-13.945302722328886,34.792769951226845,3,S01
5700,-1.1698846476007982,-3.154603548343127,9.19567819370984,-76.84152187551287,-109.64457512489597,46.16701782930103,21.410511317138642,-12.353034880526412,34.13119369566735,3,S01
5720,-0.9974365522865444,-2.489709812220093,9.204168027697353,-75.69720398045621,-102.16801427514014,38.173486630917886,20.450870879100897,-12.28515157275925,34.66063483187797,3,S01
5740,-0.3689632019807806,-1.6365470254167447,9.78965144930719,-44.92002609327546,-63.60781655745976,41.84990818442917,22.651490169101546,-14.53220178724299,34.86114523934465,3,S01
5760,-0.11496205101620882,-0.24284573415050473,10.213639033715813,-6.316196309183218,-10.273932414977795,34.133282397789856,20.71189413569802,-7.2189915543398815,40.42241594643899,3,S01
5780,0.9299548529421192,1.2220433765214616,11.234467453044807,40.51100881819497,50.686765518319426,26.628618989360184,26.357153345291405,-10.064651430458927,38.59079155531245,3,S01
5800,1.1658202093635714,2.566202520294988,12.080375037178877,57.28112533957513,93.66032717142951,11.083098652754533,24.425960339393196,-7.207474256457837,38.45767810547746,3,S01
5820,1.1703655167846934,2.4990078664248028,12.698810792909645,68.52547413485958,109.14411619965199,-7.5191784423772905,25.077668712784305,-3.2802903024366845,42.32701751322565,3,S01
5840,1.2825523385830506,2.5201138379816763,12.909138743655479,69.5477752315545,103.66334829119505,-19.179455390619168,24.3278907816016,-3.3557241115758356,42.53628450831048,3,S01
5860,0.9592341092166099,1.9187580535305397,13.410206238609652,33.35386986454907,89.19181244457003,-29.205529936435987,26.077372569834804,-5.32516370573628,40.5278946628176,3,S01
5880,0.18293381814701537,1.2252944470590776,13.176203710696628,22.943864392478346,42.78460296718973,-40.72149426159017,27.90673004639833,-5.691043211788038,39.793612370993976,3,S01
5900,0.3015172945633878,0.3412236359056956,12.58970489485223,8.225165680697941,37.02513504231541,-36.9781974638774,31.47932737561254,-4.661844776736339,40.05623200937345,3,S01
5920,0.25928834612550555,0.06243254524814276,12.163670870198008,-9.277448409707958,7.726492020948215,-40.03650588464089,30.104913448050212,-7.9601517927848535,38.63822231276508,3,S01
5940,0.19824099264648368,0.023110964411394985,11.227374473236377,-10.015676959020695,-12.157015089847011,-20.137877993785416,29.97584350211588,-4.736547253428517,35.00461998372009,3,S01
5960,0.1468107925593906,-0.6607193159806692,10.699799958243483,-13.82341862423296,-29.047768991697467,-14.730584896853445,33.97873878288352,-6.3735470419409,35.020171511126875,3,S01
5980,-0.0964663960080216,-1.1115755661538227,9.932903303745508,-24.963518522085213,-52.31592762167486,-3.450773626331834,32.8974169104045,-5.709191166197822,32.3021325474823,3,S01
6000,-0.5203934724684153,-1.7605332077019757,9.507894473269959,-50.01333496779817,-73.77641992744213,24.003841807367053,33.82071635760161,-9.147995535446054,32.09856557077713,3,S01
6020,-0.8947757845942104,-2.776652559445185,9.190022376812294,-65.92805611081266,-100.91441161512249,27.671456579928016,36.37633917561136,-10.036055986444728,33.04510789251508,3,S01
6040,-1.2980805062754672,-3.031616949630077,9.143974836103542,-76.02421403911009,-110.59985690264618,49.04807459959248,35.917430062645856,-15.806569736467234,33.69768093928475,3,S01
6060,-0.9620241623029661,-2.529187053573438,9.347864508518986,-61.63274292117113,-103.16868478718887,33.38258632476482,36.06275508362601,-12.67740737591574,34.78809889601956,3,S01
6080,-0.782648287671562,-1.5473936124724923,9.691128068909926,-41.397528110136335,-60.74652331853219,43.11887935827641,34.70051628904817,-14.482208314527558,35.79332205670673,3,S01
6100,-0.2679082042093621,-0.3121433895174902,10.1578283283983,-0.2691486409516415,-15.049459285598804,22.743827473594674,37.19659524937606,-19.48551899449705,41.072918559840744,3,S01
6120,0.7325337788113603,1.422520130919174,11.200155068781077,34.013068282137596,51.50290930627141,24.683960837924552,36.747341371418585,-17.717227808255203,39.955025269396316,3,S01
6140,1.2902809860502715,2.500496144164522,11.962081481198327,63.349673879709115,93.05354552234273,10.73741973910283,38.08275699735785,-19.49858387476575,40.51945496037617,3,S01
6160,1.4787302246001885,2.590956482923866,12.601834117336292,72.34399489439737,110.72449884341775,-9.313068906106587,36.39582811124259,-23.66468564929282,40.84125724200876,3,S01
6180,1.0932999469126738,2.345470358717546,13.193599150384332,65.76623639221724,99.00032357058879,-20.166275148589364,32.80723078930383,-25.470709220865466,44.24151155356734,3,S01
6200,0.7610538105694953,2.095383165364254,13.236561368451346,37.23359359299197,88.4565346584298,-33.44147988300468,35.80562170382763,-23.79204944550872,40.400884180932444,3,S01
6220,0.37524705020223637,1.1565735174003848,13.252477422836424,25.53672280422399,53.66809371832544,-34.49753577123095,33.79119773473843,-28.227281502815597,39.781820184983985,3,S01
6240,0.09182969502599511,0.8093396869958183,12.837792817964376,7.990004172300142,25.32308866925538,-35.506725230487916,33.35232167405083,-27.943206824645028,38.461662351087384,3,S01
6260,0.28673344247006594,-0.0005534036210276816,11.98279326694739,1.2829751470076074,7.568408796775009,-34.280560868289605,31.497838605635884,-29.06492637927957,38.09787940271052,3,S01
6280,0.02301073746694844,-0.32600523492773753,11.486316943971989,-3.1432095074709654,-15.396657211798594,-30.364174764510437,32.74621059361651,-28.24162569426761,33.24886017620699,3,S01
6300,0.2632634643629973,-0.7079642949328944,10.687950391198898,-16.13702362822126,-26.921641437888635,-22.80647116681194,29.77897843949211,-28.995069267813502,32.673158989355656,3,S01
6320,-0.3987176182184854,-1.201257226453684,9.911571535063846,-27.991801652277235,-54.78196543740846,4.229601331180335,30.777685501064592,-32.91635016384152,33.872990325542204,3,S01
6340,-0.4562691911353872,-1.9156448905910115,9.683344885473904,-43.98631897337661,-88.86333452473288,17.771663416817702,31.659204223320128,-28.69804641928709,31.543179385578693,3,S01
6360,-1.0420273295148208,-2.800225083526414,9.181877462524577,-69.12497955454211,-105.31924939004762,34.03819344540227,30.19151168048035,-29.48937341333778,30.07004923831103,3,S01
6380,-1.1925609100984236,-3.0628315017520302,9.186382715235888,-66.72055545738984,-122.0986474661789,34.21058618161978,25.051261259437176,-28.633503430983907,33.86362225130958,3,S01
6400,-1.3327822878764217,-2.6181976620038765,9.385536708883986,-72.23887829147382,-94.08499007288795,45.43170483996005,28.143632522132087,-28.656109790878453,32.18676643140145,3,S01
6420,-0.4972290058098483,-1.5695469430082691,9.650700195291044,-35.38510995648386,-50.514311851138416,36.140506577839766,27.030406501783716,-27.34535219067519,38.45164591630648,3,S01
6440,-0.03234933084299221,-0.0901349667939269,10.201744064456893,-2.2593024286767287,-3.598033119551837,36.980660113750766,22.29043688424894,-25.483987336608138,39.75536470282079,3,S01
6460,0.49408692664393206,1.1990837967389147,11.185280905398578,32.82857722784201,62.57636644573076,20.783369186050933,23.337854963944082,-23.589474136106798,37.507320239594556,3,S01
6480,1.370676977972326,2.410183821023792,12.081956315140086,68.49755140219024,91.11081032546484,2.802496289047379,22.093775324212267,-23.444901740080898,41.526831895917226,3,S01
6500,1.315163541766307,2.7676336215362274,12.75199655221633,77.87327926358786,104.82203280254497,-1.0600378223479976,23.75977187330585,-19.773456601101525,41.37946050628799,3,S01
6520,1.2452178358069468,2.614650985788354,13.216403895702062,56.94570366063171,104.36509385117708,-21.295771183837452,22.044067658620087,-20.223022693303044,41.522921867397706,3,S01
6540,0.9016074067048396,2.22240148976899,13.299438596012374,30.56846032755617,80.68764871656197,-34.37690100496512,19.57259822917117,-18.527030773098602,43.770693166439784,3,S01
6560,0.5464486285165535,1.217143423628796,13.127092753972189,17.673082342787602,51.20639479903987,-33.38754237608203,20.857388498851357,-14.519292392607076,39.302450146693786,3,S01
6580,0.11365054965906836,0.6183442923753273,12.861771239795008,5.995893615029192,28.795370561025965,-41.60627174507849,21.573122158505395,-12.239341356754487,37.238967187341444,3,S01
6600,0.14810164731134492,0.03350573213249741,11.830545439318717,-8.013377673827065,-0.8647365991141445,-33.54795192856169,18.670160847823723,-9.912895836285113,36.73987313228847,3,S01
6620,0.09781847238325492,-0.1896703262686879,11.37813353763399,-8.758946417101695,-6.651648196527167,-22.542293855342844,22.175363940076643,-9.923518118670266,36.117570656218746,3,S01
6640,-0.10307136600801625,-0.2939099427550493,10.577331030322878,-18.90192638472668,-32.542892467346945,-2.702587546029912,24.827410001204775,-7.843165179689225,34.224702294749335,3,S01
6660,-0.15581277451183664,-1.3964662771359446,9.79616455053218,-26.275589158568895,-49.37049424071848,2.727804855515163,22.458278674993537,-6.582719476361825,32.55169704600547,3,S01
6680,-0.7070874253673565,-1.936591705565204,9.430218324746223,-40.455117595025904,-86.33630809919501,15.31609116937123,25.331023077509307,-5.717433535951015,33.62633075308317,3,S01
6700,-0.8477066715931126,-2.5414424543005807,9.282729337349156,-69.84249963264325,-111.35818648764179,27.818343357644448,24.750623802356117,-4.703924056071363,30.561621471790616,3,S01
6720,-1.243928656553958,-2.8376109461537276,9.086320913411242,-71.381614031237,-107.6328109631166,42.79099741780751,26.47330341919619,-5.264914367852984,34.4611974918425,3,S01
6740,-1.3393955480598796,-2.5256621597786344,8.870190311599755,-75.29886029890942,-93.74946692718449,40.3842528495574,27.556913443305547,-2.2239899037587794,37.281227253842246,3,S01
6760,-0.44251899628626046,-1.4472060942209837,9.576885548465984,-48.764434141303205,-61.47672795743891,43.84791241645597,30.88643103622809,-3.2771142427610256,38.40804586781212,3,S01
6780,-0.03600126021778183,0.1303709482522203,10.377548021735699,1.1168937996751236,1.8619472237473549,30.996579790463283,27.367522398661865,-9.511292450002637,36.149623567614555,3,S01
6800,1.1138656009524597,1.2941484229923033,11.331513363892695,33.76966990348358,47.34264907628686,25.44855510419847,32.192285195107004,-7.220313805602468,40.42582528315786,3,S01
6820,1.3870700427033849,2.698123332270242,12.087140049830754,55.471444363721425,102.17682632151268,4.826480564551605,30.8740916117721,-6.5547693996393415,38.86364590157685,3,S01
6840,1.346565433421582,2.715643874814276,12.717311116058028,71.31754572881263,111.00376453268221,-8.588707090382695,35.356851250396744,-7.542041714392212,42.68751330453952,3,S01
6860,1.4077284799591694,2.4511720024081014,13.38853321004567,71.27032633792669,107.89611529449019,-18.747135457588726,33.16924208901422,-12.108983687849541,41.204946925501574,3,S01
6880,1.0749815767109228,2.0760333686637535,13.230301271701407,36.59051773868224,79.41099182136392,-37.161540775752876,35.537761691402395,-8.420573322293029,45.33842999534448,3,S01
6900,0.5454578906109028,1.0415045241754164,12.865512297934528,16.196594184779432,51.458939300031055,-33.827531685247116,32.88902571223808,-13.407525928518972,42.20298292376687,3,S01
6920,0.0801432747934461,0.3282445210754443,12.557276108853324,2.5251038387649265,20.898769184952805,-40.382735818185694,35.50114362159489,-11.635257789747914,38.20246946917591,3,S01
6940,0.014050565872608889,0.00953386547869195,11.562163566059901,-8.342619578794551,-2.4356970827665174,-23.376396478674568,34.953769200454744,-17.000218008637805,36.799212574303475,3,S01
6960,0.25401272617302617,-0.07653227732275976,11.470081258691737,0.23235741055240489,-9.360579847794725,-35.093318667296494,37.48714774926562,-18.321673435698656,36.4059581385883,3,S01
6980,0.01204626059624296,-0.8194035484729505,10.431951202979556,0.5981815013979555,-28.929501790614857,-14.26048087771109,35.97703120933751,-19.680918788132512,33.34363776790386,3,S01
7000,-0.058352321447907,-1.1041659008681568,9.75475705177586,-31.709226061941685,-54.473394890114974,-2.9037817200762603,36.49486085185024,-21.144801362557324,32.940686507146566,3,S01
7020,-0.8271493033142835,-2.1308630154412516,9.348772589179571,-49.318409499839525,-88.3257616628193,20.756418033828414,37.13690448253391,-27.530882142399133,32.67097163457065,3,S01
7040,-1.1397737688231147,-2.847952992007998,9.123838671721513,-67.66758646825343,-106.29845244761934,28.15266976290932,36.047199700507704,-23.40757654479948,32.5450080918687,3,S01
7060,-1.0678823427775332,-2.957769664742957,9.028447785450872,-83.31392849606767,-110.44837445620472,29.144735244972257,32.04732529182642,-25.55318505277599,33.14415226951745,3,S01
7080,-1.0562357696881621,-2.4159076118301925,9.649240369006032,-62.55592228987867,-90.11256004401284,41.61994274602413,34.81421465640303,-31.137967672005875,36.02730111492679,3,S01
7100,-0.4389346174337554,-1.435427079633204,9.751805615103352,-38.50698390819646,-55.082183097632665,26.292362136779083,32.42411560174749,-28.776438411219008,36.052914884380215,3,S01
7120,0.08354353365816135,-0.04168933792657336,10.088573644477492,1.1930194233922995,0.9001710462541703,29.328249131453152,33.727086828385595,-32.446798720274025,38.551873700890376,3,S01
7140,1.0786990541748156,1.2661292305646397,11.235993919304933,37.23533170796028,64.25851599011075,14.632302398225576,31.701045106424488,-30.70560315545099,38.52263507367828,3,S01
7160,1.258674666582691,2.476320140468157,11.927091523461918,67.27782202712206,100.26141474481405,8.323966411008389,31.48864355779248,-30.015190988498972,42.19663591676959,3,S01
7180,1.5797670845608116,2.6646386919896394,12.609523768926374,76.26100216144799,108.91495229141998,-14.114680740965236,26.294684777419505,-27.379529495856875,42.37913811030738,3,S01
7200,1.1636699773006438,2.600929456610304,13.356129807879977,66.82877134527293,112.05456010484615,-14.66259634681315,28.029156413530167,-31.247447745174384,43.23278142693105,3,S01
7220,0.7564500019186285,1.761823818153221,13.499684165779403,40.80115250888163,79.44995010190637,-34.65190996277487,24.80326852178907,-31.61217171336853,43.089375605954665,3,S01
7240,0.4756515821741052,1.1330115082874375,13.052503231592882,20.062505656078542,50.82006110425191,-34.954955306747316,27.412267564550927,-30.538585268760187,41.037243077627224,3,S01
7260,0.24884135467693996,0.5769648443167927,12.784105786587936,2.9083294077339117,22.777630623896734,-46.68289810241976,23.827904168348073,-26.757033861281258,38.94981664285292,3,S01
7280,0.501385143364282,0.2305554358823923,12.02154431007809,-5.722541399186338,3.9736332560224366,-38.85569113057596,24.833264610421573,-24.614894611632273,37.084078145902446,3,S01
7300,0.19364843371694762,-0.45654054568176733,11.383469651247932,-1.272926899643072,-9.80538109391938,-29.595042390339174,21.81078198652949,-24.31634158250929,37.5355884815325,3,S01
7320,0.1033073543051615,-0.950393192947232,10.492408959103397,-11.30232832765271,-30.638533534495775,-15.562603865822807,24.522028621967255,-21.808147391520052,35.1722076460549,3,S01
7340,0.04538308041250207,-1.3320416378702105,9.738899727702412,-26.60406436842496,-57.76648589522354,-4.5712236120260386,23.57612403261263,-22.390006582672488,33.09798749696982,3,S01
7360,-0.5327586401109389,-1.99037839620585,9.3926905740321,-51.14851667813292,-89.77290314142803,16.316969502724138,19.75501379675627,-18.462631062775912,32.150162180252536,3,S01
7380,-1.0100085557910081,-2.9187451078805795,8.807713913183772,-67.86335302374651,-104.01522725501437,26.336117669524597,23.519637848131552,-16.675284811245106,33.04657371393281,3,S01
7400,-1.103635556749389,-2.819872008195779,9.290002070130631,-71.98887238944862,-116.92536123763823,45.61607427426207,21.153485698094276,-14.571529867681384,35.238971468865415,3,S01
7420,-1.230353920426739,-2.478756768114133,9.391475714885763,-72.24625564251691,-94.21678015561176,43.47019092829302,19.231119709420177,-14.910690172289481,33.44282862285611,3,S01
7440,-0.365052056374099,-1.2439663122929843,9.99557872744096,-41.03029815667705,-51.667284276354614,46.69821071602566,19.85190544119392,-10.607573561576707,38.997130293315685,3,S01
7460,0.25653685592409214,-0.10179766637387591,10.18905058749701,-5.596634961599869,4.657226021128846,28.976011513566625,21.404970567838994,-11.1902195443325,37.61252953545962,3,S01
7480,0.8756491725404413,1.5030908939762435,11.361610772489701,46.42159583557827,61.61145826586007,27.45782475053112,19.74179883147883,-6.942872945196826,40.94786714486837,3,S01
7500,1.306741576775844,2.562017213010005,11.900488115985176,63.50248075411528,101.51339321831001,3.3908424678481914,23.917987192296337,-7.656214222614738,42.447611666303864,3,S01
7520,1.3074296922623478,2.7780551779339,12.72528255144386,66.02338580189523,118.0124929846783,2.5422493388682743,24.695379824472184,-7.937687440464834,44.15279871204653,3,S01
7540,1.1061216154451385,2.673404547675645,13.269714607729874,50.54641732715152,109.36844223460933,-25.59029510408995,23.830230931316382,-3.760504262750837,44.93320697033877,3,S01
7560,0.7289770420597662,1.6324485668472262,13.191456108443592,30.126411661220406,81.2515722554413,-42.19539739238312,26.123351435043816,-4.743788131282322,42.68941142900814,3,S01
7580,0.29627437019168823,1.1205983997752709,12.98752631992192,21.85695285642887,41.44555467366626,-37.935927768337635,28.278650706329813,-7.944787832727434,39.91817055801913,3,S01
7600,-0.11006590733167843,0.40747179666043676,12.56837874445275,7.256225239817161,25.710253877681975,-39.52434842445878,29.380500190661678,-5.063253647223824,40.141069166474736,3,S01
7620,0.35157700163730554,0.24456258053503288,11.826534374695125,0.6013931825975982,5.5976149584993875,-36.57926311666833,31.297849054050836,-3.878269142807895,35.53619395206327,3,S01
7640,-0.08407718742140802,-0.36602285874150026,10.967640545100869,-4.238547183420893,-4.925001068448344,-32.10215570850154,32.92397970947872,-6.922306516967039,35.342344624608636,3,S01
7660,0.11400891337490886,-0.7152569569566471,10.513833053465365,-18.129709929985054,-29.438405782282953,-15.120748696309997,31.22977401002861,-6.799985658630279,34.036083916021084,3,S01
7680,-0.4081697625927093,-1.4035301507033648,9.949689380562692,-26.71630950615523,-55.23606647995374,5.245414542068327,32.3106653608904,-7.618554796971209,30.92724624856514,3,S01
7700,-0.8582237001013897,-1.9749986008188163,9.118708283478297,-57.28323402657615,-83.30767311311867,24.140644935503346,34.6684200153913,-8.287997406214956,34.9791770531752,3,S01
7720,-1.5105551806434074,-2.8505992973611285,9.307664063400747,-67.74250996348351,-103.81893893911361,28.705385919482747,34.88097234455191,-6.321974795342022,34.074771772661656,3,S01
7740,-1.0649274152039827,-2.593971823385014,9.354099414790529,-76.21327627899265,-117.67191971521548,41.20206941291652,35.78068124364083,-12.797113955931437,32.510975057128775,3,S01
7760,-1.2101591259831483,-2.337044616012871,9.692313595076172,-66.0372819554988,-98.71101305220196,45.80098563765161,37.0051992443436,-18.422444634912473,35.1513529019307,3,S01
7780,-0.6959333235142237,-1.216192406757278,9.993640991651718,-42.84100398751065,-51.98800592702475,34.7278230795069,35.54630947122335,-14.51864630803145,40.6225659618098,3,S01
7800,0.3751763685008994,0.1422153178023008,10.684256098164905,0.459474517388311,5.112792463679322,31.865747983408927,36.641877761168374,-17.616777220300364,36.04877030173487,3,S01
7820,0.9238148781222352,1.5738562173057213,11.313568069562061,47.74635989193797,60.8534272859987,11.695875615738816,35.06520244019892,-18.98304233170819,39.90702876195232,3,S01
7840,1.3703556764721037,2.398287156252463,11.860868715429245,70.32611575456059,104.6997486683894,-3.894708347761586,37.865064704527796,-22.743382073037672,39.732855338931074,3,S01
7860,1.684853474620859,2.826337991659167,12.709173026531177,68.07767169958696,114.41840068787732,-9.206196329680786,37.01728119651492,-22.649450865700953,44.197867510530344,3,S01
7880,1.1965672403317988,2.3536334632484675,13.154914042869068,52.94933906755251,104.86723021445984,-27.754754133078276,33.47753208714825,-25.09728394015744,40.523761323542196,3,S01
7900,0.8778338730645624,1.8252193412795537,13.242985879567339,45.41882066145353,88.37661366772839,-41.11240485114434,33.116769577525254,-26.97219371197142,41.56655158132637,3,S01
7920,0.26694622030945014,0.8578244689578021,13.160375493963144,13.02649727840349,45.5497678317833,-34.86499303702292,33.753345053738265,-28.710962668007426,39.11973904142037,3,S01
7940,-0.13636815523217513,0.228631330535025,12.600643880186919,11.846035726661444,23.25550396009373,-37.15583895537101,36.21379181231946,-31.915420562798865,38.32870672063903,3,S01
7960,0.014977940003600448,0.16803413833129072,12.021240156759735,-7.2204806631496075,5.384324064666619,-27.916985726536378,33.62913987077032,-28.027578699342676,37.99783216774473,3,S01
7980,0.20110200830530522,-0.20523731571175538,11.025438723689536,-3.557835235856211,-16.01331142703744,-22.379607126208988,30.059688108620787,-29.844758004129513,35.09460600898262,3,S01
8000,-0.13728939600103532,-0.815581150892944,10.531396790062159,-20.0100251711992,-29.965665039443454,-7.578127757190053,31.035528256533063,-31.316533793705457,33.66038934249978,3,S01
8020,-0.30857213182464593,-1.3995693894490246,9.672118388434992,-34.05807347817891,-58.48663954985798,8.604540105066183,23.853829341374777,-28.350874349433997,32.41212665577734,3,S01
8040,-0.6638505395366313,-2.136707083458493,9.337231663256842,-62.52196191097899,-87.38059909637677,21.71780713715662,29.256470343589495,-29.26237818052457,33.549963247772205,3,S01
8060,-1.142282261319606,-2.7953359287965953,9.067026082371754,-70.40647679525394,-105.383888627016,15.751084590642826,25.826612418663707,-28.443781995110257,34.32202542728597,3,S01
8080,-1.2933937436032585,-2.7309865687944064,9.093571056876483,-76.13782287720386,-107.98614150858664,30.62103665589452,24.633950609418477,-29.389952774441547,33.8666275552757,3,S01
8100,-0.9885307864779284,-2.224400665254124,9.32160625320909,-67.15179302332939,-87.81506817267615,45.95312473670851,25.35106961991412,-29.24826700544172,35.38853296544636,3,S01
8120,-0.37465425443589817,-1.2282959393851105,9.726163467478425,-32.65429914548279,-35.28152759652764,39.609229168152396,23.38665401059119,-26.030271828569738,35.39488195755835,3,S01
8140,0.19431456635126765,0.29936307232225307,10.3599798102782,2.9430502593399686,7.095176521944189,29.46488674018548,23.064300874248612,-25.44926369209759,38.494685520425286,3,S01
8160,1.0150351635023531,1.4170742247031283,11.600355442011109,39.80579191952187,61.19313987327047,14.894802879861897,24.260650558006528,-24.688282833831316,37.19100284800983,3,S01
8180,1.4157903749383114,2.630603214242465,12.357009456664828,57.67991058721245,108.13883778923552,11.851188488649427,20.533234672800063,-21.917832480966467,41.10814144297328,3,S01
8200,1.3425788433294434,2.6383527879070936,12.765408646943705,73.82436548721388,109.2137871326766,-17.38664506511286,22.403846753268297,-16.968684543909937,44.09014860410018,3,S01
8220,1.0683489111981737,2.2774003502747124,13.051779626829752,49.52757244612287,94.77870459305603,-27.66933259160292,20.9464685023407,-17.779487174623846,42.002570407289305,3,S01
8240,0.5626614767685281,1.5633519164656398,13.437833102861147,30.265122637231098,69.85894200092619,-37.246772557140055,19.437239523540313,-19.298985464184792,42.8550295441294,3,S01
8260,0.35851937921346055,0.860496313025052,13.042568598975992,8.547312223150929,36.71736850928197,-33.143933855546706,19.966438667630726,-14.262661025320938,40.54462105583032,3,S01
8280,0.09545252895803674,0.5320360342498514,12.387598211638535,-2.130066775731218,10.8720806851383,-44.23081230404823,21.736866428498807,-10.335975657391282,38.867031168696805,3,S01
8300,0.2707964433353981,-0.13772322694445044,11.784146172685432,-4.904544070998568,-3.996885618964469,-36.53499313370522,21.172389861710535,-10.600066583780764,37.079048528730205,3,S01
8320,0.1658852054762472,-0.4261469562288844,10.893061095259998,-7.195124441423987,-9.862971617661547,-22.288510808273784,22.591100290473833,-9.672075108698378,38.34260579812826,3,S01
8340,-0.09549196121356521,-0.7826402610931882,10.378689591180907,-13.273787681496191,-33.848226682233594,-11.949349725806753,24.77620324971165,-8.329520216079773,35.32112137827509,3,S01
8360,-0.19315796632481505,-1.7199003795513077,9.573449500288953,-12.494522865931025,-58.578361784009175,10.756060019466851,24.080339573988326,-6.0923164842604045,31.005004551050273,3,S01
8380,-0.7588305345320967,-2.4298384054795874,9.557213593075994,-65.1774814236645,-91.59912283431873,17.717280515638844,25.566003178717004,-4.509855916039555,33.21380012300463,3,S01
8400,-1.3665155991492166,-2.6103320344989913,9.37413504037237,-66.61121807519174,-110.14265796951969,31.180750313642246,24.0840345386352,-5.788124575898651,33.6410258263044,3,S01
8420,-0.9005254847484857,-2.844959405805818,9.293663125857949,-76.46770416839412,-108.8323095027751,42.77877493513067,23.646447888040196,-4.344943206687976,34.376029267555296,3,S01
8440,-1.2326252876753323,-2.209649790408357,9.479270462392263,-66.42386319482024,-89.33053918938151,30.10671078475572,29.74470216951398,-4.159700412505,33.08395295025447,3,S01
8460,-0.7297038067197364,-1.3109564180184856,9.833848498262252,-34.93156980607816,-41.70423339124884,31.744253592696474,31.517062184460087,-3.991258914590109,36.42450405205844,3,S01
8480,-0.15274330274697787,0.294063052140884,10.400648939040032,10.361404391328353,13.975328646471358,34.82110477372885,29.713530125789266,-6.18312954714539,38.83431125717717,3,S01
8500,1.2000853384159358,1.4508698286419108,11.371570008554444,37.20388951672006,74.66162690917146,29.4986771297362,30.09248401887281,-7.529268538064485,38.974808096923596,3,S01
8520,1.1465610754196467,2.320683832672382,12.057002378743643,59.89207722693607,108.96775371447367,-2.8292334305753433,33.13242548091004,-4.278037320805216,39.79222858732062,3,S01
8540,1.5051040970006049,2.673839359576637,12.935134930612737,67.83755335612581,116.4214147603184,-15.617945765024425,33.70332957158342,-7.073787696550045,39.971313127104295,3,S01
8560,0.9738053483345337,2.6078939159802768,13.181168275578969,60.35214643738148,95.38805605429862,-41.83160275074976,35.34425049045299,-8.434925521638135,40.8440641993497,3,S01
8580,0.46598727545421514,1.5487557552361135,13.305636948197197,35.76724287596678,68.97104514788714,-34.14544877102181,35.42474320027968,-13.711509744164301,40.116634378680494,3,S01
8600,0.4292976220614422,0.9646624503835306,13.125173704556516,11.500631497807138,46.80458029482153,-38.01349681034044,36.616610191774114,-14.472324857295444,39.855669561726344,3,S01
8620,0.27790521156675085,0.370600405106463,12.552972310194976,-9.354494018861548,20.034184713524642,-36.77972620842938,36.086676253559574,-13.50729577644508,40.498895470173686,3,S01
8640,0.0746649439100302,0.14993650367566685,11.640190154160177,-4.433448087602578,2.0936316265882295,-37.32187877850714,37.553638409085806,-17.47948128848448,39.4072128649707,3,S01
8660,0.160734053168544,-0.6124393389194716,11.189727017775178,-9.843110707535452,-10.8811081561151,-22.31886684529352,37.60634390668562,-18.107051073561834,34.2932031793798,3,S01
8680,0.21364331607523596,-0.8401870441929558,10.327353227011002,-31.05522010379484,-29.391793662627965,-12.235055606211374,34.660569184685954,-19.17988294999828,36.052697274094385,3,S01
8700,-0.4000827825111519,-1.8799943950503892,9.574096013923372,-34.17191327041651,-63.06431718344476,2.209484063355107,34.54610714068673,-24.86555210798353,30.79313169529495,3,S01
8720,-0.6244440179815871,-2.2633635501399136,9.36713730940378,-54.03644539328089,-97.59677288946459,22.117786734259624,35.20213757923416,-21.379504004677145,35.37456859132677,3,S01
8740,-0.7877732392467369,-3.139052773465695,9.019213343955855,-67.53167914783089,-110.15123205551222,27.264404869171425,34.55657451826865,-26.00727934040109,32.74933776713938,3,S01
8760,-1.4124787562334125,-2.8396023879540433,9.254574605624905,-77.97192846318127,-107.25262516680023,36.93959818327716,30.75855848779272,-28.945392305760205,32.9817282989976,3,S01
8780,-0.8927036940849326,-2.2181313318444325,9.351621148161243,-67.11289666139133,-89.93869819671251,46.15472572550182,35.45206640071055,-27.59699992461903,35.18608579168112,3,S01
8800,-0.603404547900446,-0.9782960872400859,9.919386340288264,-29.225783159309035,-49.11615370089931,36.11954472038987,33.23463861968898,-28.847307969179003,36.45163233979836,3,S01
8820,0.2513449792326271,0.15429303408349898,10.716378447271415,10.706183902293805,21.09309195400601,32.48478099912538,30.378830311513855,-29.9228614275679,37.36459085214514,3,S01
8840,0.9191721594279074,2.057488052726003,11.708224582974815,41.6279523620091,74.49957159453602,16.379814768111512,31.284148134830726,-27.012852351010867,40.73663505198443,3,S01
8860,1.3432990237715765,2.742911924509357,12.485894012088217,68.316415088454,100.1642017038556,-1.8005251291309543,30.986225751122074,-31.429709994798966,38.24248446940617,3,S01
8880,1.2686948577617962,2.9725463209118845,12.682579453033162,66.30519511256804,108.65997274270708,-10.41485150374781,26.61967042881518,-27.850224027988013,42.73271807197732,3,S01
8900,1.0100398418784744,2.1549993488561716,13.48549471307299,54.0718320729058,96.30587376962886,-27.15231687120327,27.457355858218992,-29.70189360174371,40.508420964482596,3,S01
8920,0.5547392378130086,1.8630786621885886,13.29728598198669,32.701472760973424,70.020349536467,-38.45646011017005,28.182940061128196,-30.882801986392654,40.072460190614024,3,S01
8940,0.2943771081127728,0.6343198856313281,12.92688814076218,10.924316134176614,44.672513944091136,-41.00145658179279,24.605224169356173,-28.854990699882332,41.88795291214052,3,S01
8960,0.49279478329703275,0.3078193757339965,12.409370404001926,7.973686641994905,6.211689249676959,-38.46276977737359,24.423388951088125,-25.633226762098968,36.72279648526703,3,S01
8980,-0.05245714342182736,0.017228468165411515,11.525466215287878,0.9901404954805146,4.275015215314668,-24.403907659421847,23.213555417016664,-24.980809252184866,35.30947940430234,3,S01
9000,0.11005991035936512,-0.34314210061965017,11.101498075228086,3.3545002559193398,-13.257202034157405,-22.545515315176903,24.9589058221042,-24.62718313590132,34.81308961953641,3,S01
9020,0.12358918998957176,-1.0316053313578681,10.65252180120066,-11.130053729977806,-37.31846148611931,-11.138279183823565,21.265948394310943,-23.810772079084554,32.36704056128197,3,S01
9040,-0.07392325464581917,-1.6030244742898405,9.452035462035571,-39.45632109989584,-63.731285910945054,9.791809843315852,21.095381742789023,-18.99945446861753,32.382650285581015,3,S01
9060,-0.5426242028230707,-2.164573518040699,9.403887913543894,-54.050573823895384,-85.01757902800799,18.452734490465513,24.17555952622348,-19.543826043893922,32.21618423004588,3,S01
9080,-0.9280349339422928,-2.836160770798781,9.233938099873543,-64.73077109067788,-118.40507459154276,29.062394686177676,22.36920396608449,-15.988166261987127,33.49893160824605,3,S01
9100,-0.9766342989419113,-2.7952212176156266,9.09799353880346,-70.3622599162199,-114.18331632712716,33.45391784262076,21.080135635402684,-12.427061812527917,32.55268057447685,3,S01
9120,-0.8183797831491662,-2.2056111143167265,9.386366764880375,-62.158403364353944,-84.48509049233033,41.77084298664745,22.190318881495326,-13.915546928833113,35.132625049217665,3,S01
9140,-0.2599281490357198,-1.0433974643404622,9.89764340485442,-33.611680355702966,-25.814376305542613,41.6574538504418,22.824447898379095,-10.412201850844042,36.007838863602295,3,S01
9160,0.0927036510769981,0.37098518646668677,10.764858434192739,6.392150277776875,20.064165435793598,32.20792789896386,23.733950990343054,-10.542665017342905,41.26967672165885,3,S01
9180,0.859391714564602,1.5170380402691552,11.738349632735368,35.71085586847625,64.24507635490858,3.034428711740937,19.74980589368127,-13.492193409346278,39.86443038693014,3,S01
9200,1.4001640903431412,2.764524408866044,12.191787140652652,71.40397006382214,108.37981682897055,-0.3662723579261856,21.729403180681544,-6.279063451608255,41.88463097278574,3,S01
9220,1.4041985070233411,2.661232035076279,13.160884068331056,59.18968483067069,113.8083893044296,-12.960451080242569,26.319660627504646,-4.496782067190345,42.3591606353185,3,S01
9240,1.2518565740546408,2.63190143107719,13.212471349789135,46.954941431720876,96.50965651773636,-27.458408058664457,23.93740346881956,-6.294213794956297,43.571294580672976,3,S01
9260,0.5468812147031473,1.5544081662709845,12.96858547147099,35.20183433125777,63.52030242027004,-26.843586678223843,27.703248631977775,-3.1934050572833,39.33605679368426,3,S01
9280,0.529573928762257,0.7540928741110977,12.832972840618474,12.365183813892976,38.286691430499125,-42.62120053352275,28.079437843608886,-4.345993630292593,37.946238160642096,3,S01
9300,-0.047347841710966926,0.28764733616735855,12.238541148749665,4.620500611816422,18.913054788444448,-34.188652112069995,28.919128811021334,-6.879352323536518,40.91113219509551,3,S01
9320,0.16193360814829075,-0.18616203244983182,11.531901927058366,-9.456819222447201,-7.046715065667397,-31.574980170784876,30.98460085855229,-2.867169392873211,35.326051737819675,3,S01
9340,-0.049385991549070585,-0.38707762835959747,11.114581974143771,-10.602037624836491,-11.900524274308129,-7.647561588165043,33.95493095478372,-5.9624986416294545,35.44577495755866,3,S01
9360,-0.2703222753073685,-1.0324224390568013,10.248298653522543,-22.377203801712994,-41.86780677011396,0.4991048600534519,32.451505244264965,-6.476319307525301,34.39920882388992,3,S01
9380,-0.4382724631158036,-1.7341435501739069,9.587646597554006,-41.47195618399657,-61.43004994625952,8.12712813018507,34.78524636155222,-9.11220071192939,35.8794392381284,3,S01
9400,-0.8090676015973338,-2.1366254748121363,9.339371575199714,-68.67949817218499,-96.2511410554532,19.473815615336278,35.29472953461291,-8.490006775258513,31.201551233381764,3,S01
9420,-1.18067715858665,-2.8920571291227724,9.11702469679244,-70.29951567873275,-110.01434085362284,32.49599943390506,33.83422056082689,-10.572116183839055,33.91583755712252,3,S01
9440,-1.183048189804546,-2.958564399390437,9.218528629899492,-69.80869851280221,-106.00295029950382,45.118526484304056,36.34513320284063,-12.4342309269473,33.46163075077541,3,S01
9460,-0.6908603662540463,-2.0660890386400927,9.512271478310298,-65.96472656975136,-87.18846727731918,36.05489316860076,35.305718374317436,-15.296015098396952,36.17046223779422,3,S01
9480,-0.1936119793022236,-0.9656096120277868,9.701638761535825,-29.56431251238453,-40.90983825379504,31.080028335572724,36.366471855251326,-17.547597773342723,38.192491934759595,3,S01
9500,0.7031067868848845,0.6968998063754399,10.498533233172088,4.46097408638085,16.83717475197859,37.39883507298424,36.432622701895184,-16.549002733968916,39.69068447144224,3,S01
9520,0.9637331219299948,1.8882917156563774,11.687648893945711,42.374346596603736,68.08265557759928,19.09260705062486,35.263297659002056,-17.78511967139451,41.11349349362226,3,S01
9540,1.230004674200068,2.564029046652723,12.566550738230367,61.562838918423594,108.8775907467563,2.274953624292379,36.87297644899577,-22.95355879464273,42.39687306598795,3,S01
9560,1.0818887846876353,2.664163900820747,12.891292261499894,66.42560747784255,113.28841166483001,-25.565438880571392,35.72693344195947,-20.76305760620786,42.31696187875799,3,S01
9580,1.1613076836921576,2.419213000276444,13.228581527048714,59.02390121064493,96.41403078893293,-37.606818129566,36.84992986348787,-22.698109702071612,41.35903891161438,3,S01
9600,0.6587566639698647,1.6666155286478583,13.00804129283956,32.02265415947732,60.348720465026204,-38.1353788701934,31.41885543980351,-26.53564153586319,42.888657633180244,3,S01
9620,0.36549701112805744,0.9151953538329851,13.054600941752861,22.370845876083333,36.79467732939617,-38.491755716046775,33.817083137095,-29.657844374860378,38.75015975478457,3,S01
9640,0.06698977647307083,0.4651431009356231,12.071076302133863,-0.9288750673230881,13.023695540674506,-30.491436712394904,33.725597334721954,-27.716180949795653,39.750181583810026,3,S01
9660,0.053711952581041014,0.04656496763650721,11.733120367567455,-0.17013466366124685,-5.537831135180598,-30.17670884364109,32.10868071266036,-28.973071613770966,35.11716511384858,3,S01
9680,0.1724799616259166,-0.5998874993721106,10.93382209933626,-12.522794912641327,-13.094923822021446,-29.340687164588214,30.398536188353816,-26.433805247212067,34.17065087722335,3,S01
9700,0.0500395671650356,-0.9705802033529185,10.040803303657063,-27.598910412461436,-37.79199559674732,-10.174333808037044,31.029622983610505,-31.205338013103066,31.34360987667596,3,S01
9720,-0.43216665505733776,-1.5175878775769573,9.842258621619086,-29.812553565875323,-59.720444254387765,12.489740494176326,27.980103925195046,-32.19050479135953,34.37513863021283,3,S01
9740,-0.7734689809943265,-1.98906217215568,9.176627467957983,-57.90955941749491,-98.54853259096568,13.192663014388305,31.09235047276841,-32.280749528402865,31.875333610053143,3,S01
9760,-1.4631072695390108,-2.9008078769163514,9.09527539324625,-77.78228051252816,-117.050638092596,38.44299614993939,26.275374704714224,-28.423825218264597,32.433957536059594,3,S01
9780,-1.1759612423500814,-2.9674565942744278,9.192601421412308,-82.01384706358617,-107.70295430348695,49.63148645022886,26.90395190834647,-30.875464377971024,36.673014083820696,3,S01
9800,-0.66315140071288,-2.1325419404043244,9.401309629146054,-51.244756457738376,-82.18200305178323,36.742404358263634,24.304725096641384,-26.96592066111091,31.960774650323067,3,S01
9820,-0.11111172375862063,-0.7981916617077653,9.74456299396665,-28.55233354059692,-30.414617048311943,36.54251454140857,26.030714620413978,-26.961134227072964,36.21340700000714,3,S01
9840,0.41334819663839706,0.7829931251612992,10.612562833284867,16.598583064136825,33.592363416864174,26.19683388435681,24.48163450844205,-24.716264872331852,41.636238280196,3,S01
9860,1.12884026230111,1.7650254609972502,11.699349436500166,47.6875001506249,82.75724863099676,17.358020195745716,23.271905752270293,-21.507319176644216,41.94018560998437,3,S01
9880,1.3562805984957997,2.848967828386262,12.460144877977894,65.44745605651562,104.75925339987836,0.31550501442902956,21.224840414757622,-18.706638663588055,40.30792144186287,3,S01
9900,0.9900258048487067,2.855347540560037,12.622741636902298,57.71014648115186,121.2438573198557,-17.48956721242728,20.188536373714083,-19.79085828732319,41.47762678903516,3,S01
9920,1.045838062517047,2.504573931469659,13.17192719859891,50.61395618890291,101.48482082661096,-23.493980088632483,20.207436672699803,-16.463014982209067,41.26952275887959,3,S01
9940,0.3664393894057818,1.6207669470782273,13.395518643845138,31.19078765607154,62.38270708526238,-33.261061127294894,23.283919759987025,-13.507719399015524,40.29078161303196,3,S01
9960,0.5006419524956678,0.7169804578300567,12.85166780948005,12.312632732576088,35.634581547924824,-38.94752981946633,22.95439921855329,-13.44027822302489,41.20858907462954,3,S01
9980,-0.018443723320855324,0.16283152453440783,12.137349007221443,-3.479039782347588,14.162533683934202,-37.415215693479716,19.809970475924494,-12.862321539982572,36.29494047269962,3,S01
10000,0.009575452801858272,0.10643254258119333,11.817749027213432,-10.723474779399227,-2.368771237901917,-35.24704222031987,24.29729471709318,-9.397993055007792,37.10408895474957,3,S01
10020,0.14997723570754856,-0.4342914016466962,11.006140194007374,-11.806461300841406,-16.08678512792969,-14.427544156551145,22.734905013412288,-9.590133990518119,34.23618874536119,3,S01
10040,-0.19806795036693628,-0.7740531779051547,10.350072683671183,-18.218552347723147,-41.05323696922138,-3.7017560082550163,24.973183141410995,-10.051011288522606,31.398392927250008,3,S01
10060,-0.39655651982994666,-1.9338360603638678,9.543515847731598,-34.49640415034026,-52.308528623361454,9.864229800827435,25.819988953318482,-6.918457815033505,35.64305461150248,3,S01
10080,-0.7626626861669102,-2.251578504645714,9.246883981625114,-59.08957423874035,-101.88214454751159,27.330614065685268,22.5693321350525,-8.005725833185775,32.597424460384985,3,S01
10100,-0.9529360974034756,-2.820627559099236,9.090770931559033,-66.44506158120959,-118.45660088650287,37.631412248596305,25.17874769025928,-0.7771317524133954,34.47780856388412,3,S01
10120,-1.1560549900771246,-2.4972414886397076,9.301386552682425,-75.35924475781145,-113.66103581615018,34.426935277682084,29.986532513212317,-3.1365979605661414,33.17346054613044,3,S01
10140,-1.0488918063894512,-2.166993446840007,9.41319377887969,-61.760760230272574,-87.29453272460346,39.76632077478357,29.13988591244273,-6.652309468606051,36.23081930747064,3,S01
10160,-0.2891701927740904,-0.7364834510324205,9.96950141561163,-31.733041280588587,-24.56838870252106,33.21930866164183,29.34757780799381,-4.752496950848705,40.72233548947466,3,S01
10180,0.6175286061109018,0.8891245493065862,10.706949362757769,13.95966377689664,23.41856780464312,31.88864875010923,29.774657083670267,-2.404522639589226,41.25177343212225,3,S01
10200,1.2242348246212127,2.2113722893718233,11.453789562250877,40.71573461593994,82.36448759575556,11.312425117541867,32.683505686542986,-5.565958592252924,40.68306440656803,3,S01
10220,1.4203000705503501,2.632980815845551,12.323961859947389,61.346850389535234,103.35849264076957,-0.9694775390119553,31.215895736331973,-7.356989901280251,43.727575499707385,3,S01
10240,1.2826174535426147,2.5483376577162504,13.089453835960512,69.7397467631676,112.89173788499163,-7.363445602750637,35.43079019762105,-9.495452150395987,41.37929950187295,3,S01
10260,0.8438669318376361,1.9947859200421332,12.97802197992694,56.03202052731028,87.76859044543424,-27.93694802738871,33.19684028675337,-12.461595736730711,40.871099012005615,3,S01
10280,0.5432085108490858,1.4384032673605125,13.50061868338346,33.9268899046102,62.130679059287694,-36.89544307005464,34.45773648953728,-8.298052196463027,42.36513449844669,3,S01
10300,0.2695449212509431,1.0679731750381358,12.58232374277313,10.846872732131189,37.08165086808913,-45.63097926993127,35.69118315226778,-14.474632171936056,36.52950339164021,3,S01
10320,0.10861345208390366,0.2818627708793072,12.345077741388355,-1.52019222536831,12.003381079033627,-37.756145713942075,37.301591472171324,-14.466709809438449,39.067422581835125,3,S01
10340,0.1619640890223199,-0.09908312132279838,11.592221599641352,-3.4088255733148185,4.000525908185308,-36.643941283524406,33.467493814733814,-20.00354115329916,36.20395536940767,3,S01
10360,0.39143105918305343,-0.42171059985192016,10.628961286373121,-9.134026696572208,-21.75558265036302,-23.933006023145833,36.98024401140066,-19.885064690324448,33.29607142789665,3,S01
10380,-0.34969949000429856,-0.7416900185022346,10.073406945897766,-22.915825242949314,-40.727699062663206,6.973734065138946,36.919812747351415,-17.498334342565798,34.36226001636253,3,S01
10400,-0.46123342172253423,-1.8144405205359178,9.80446657211788,-41.52766360596996,-62.22593565591486,14.688355762086205,36.11375735850241,-22.974694331140185,36.98366118930711,3,S01
10420,-0.9644592351387099,-2.3358366586063797,9.02651320710886,-59.254443432308115,-98.73050218063234,23.10304451134788,34.02688400416995,-26.245223611729575,32.296786383156075,3,S01
10440,-1.0494741226304147,-2.8751799206762336,9.211456214141709,-75.82800322590217,-110.68978523705128,41.26854282991151,34.680303133452796,-25.666687683573514,33.795302100244996,3,S01
10460,-1.490544268769747,-2.5484869992568036,9.198800732961216,-74.13894778293731,-115.11940076286508,38.19663833151229,33.58858435233307,-27.258554749425578,32.64233360138702,3,S01
10480,-0.8007076490864121,-2.0815534623951475,9.619288407477907,-53.53376845108781,-68.89034861553795,44.00966548755566,30.370079746039416,-27.385425334569817,36.99927150661569,3,S01
10500,0.020191796033977985,-0.5472771160285804,9.776527536953386,-15.228248060659663,-34.6843528981179,24.66492737307209,31.369033795574406,-30.023945113834206,35.58298977783427,3,S01
10520,0.307477559097422,0.4812567625986108,10.817136155025906,22.093226016892913,29.06848462147048,24.267574869707474,32.92540067018082,-30.810857557629028,40.43769632916404,3,S01
10540,1.1407132893124865,1.6891435074947474,11.677657397286398,46.23750067120199,82.09196985714254,12.335701388999585,30.0027847835057,-28.942698967922606,41.45641973978373,3,S01
10560,1.3368769943066643,2.8049468317909185,12.584412788583206,67.15817110578152,106.4844553100413,1.111790307474866,31.713799318781746,-28.569622943508314,43.24787990216088,3,S01
10580,1.1760016921748773,2.719964773231859,12.59223831580021,57.81524219619245,114.05108067881764,-21.916870858285748,26.986628525755318,-29.814147372984486,42.82339491879853,3,S01
10600,0.9571717689651885,2.524234185410963,13.244992493374134,58.42739862969486,93.60298446627255,-25.22272398737517,27.003669511897442,-29.455920209493268,40.816501248419485,3,S01
10620,0.7069376939588703,1.4309079691182005,13.229496444796068,25.42479844760447,58.602933885185124,-37.255100307028584,25.62318826880899,-31.50245058673091,39.44944503769426,3,S01
10640,0.35037176393906855,0.917702005161972,12.984971752476353,6.544257662624747,31.432414550014006,-44.14642117821817,22.570065066252994,-27.439377851383977,39.16215803936282,3,S01
10660,0.2630855303841596,0.30134637847099566,12.29129313326888,6.541226727454791,15.253947610497157,-30.904176227277052,23.1156930140327,-24.832687410408568,38.50824029775481,3,S01
10680,0.12580623215420364,-0.1520090705083726,11.313153152594925,-13.43781362274024,-11.819122514662574,-26.73087431084841,22.566560144473957,-25.56661238243564,36.236847074513456,3,S01
10700,0.129081664018823,-0.6711217672148773,11.020867442330031,-7.083487568173239,-16.42136281230561,-16.882207994057435,22.835817851356467,-25.782471509388525,33.22599285105892,3,S01
10720,-0.029927031856926606,-1.0404743361054531,9.976257377346908,-18.400873702741784,-38.83056962724608,-3.755409694147404,21.41366146550635,-23.802112431908323,30.877944736950603,3,S01
10740,-0.44307466274063134,-2.0094426834563337,9.705400702326914,-45.38213894197345,-72.40363049383681,17.33629612876156,23.548434477081614,-20.76501907073889,31.374272930675776,3,S01
10760,-0.6538646777456216,-2.6352571068464363,9.152876805763416,-57.813784254023034,-89.4901014916133,29.883940530090882,22.045779803031927,-19.113595145017186,34.15251804558759,3,S01
10780,-1.1376408049772786,-2.952283756220031,8.831826931107079,-77.68591393803769,-116.2765568719935,36.12360648272495,22.877859745298903,-18.04937720169172,32.91542742083796,3,S01
10800,-1.1023137509842793,-2.8997930924800395,9.21722982015762,-78.60589008583125,-106.50091277499388,41.615110832583206,20.297342266107677,-14.738104394925223,32.75745495400315,3,S01
10820,-0.6010071449857082,-2.2589136941683643,9.187753527457618,-51.926115316231645,-74.46108619300288,45.39480397171419,19.896906770666774,-12.070138159549838,36.102879218904086,3,S01
10840,-0.2513292668481042,-0.6432373978337933,10.053568469882459,-13.763037069781554,-22.870197480623865,27.5294987754809,22.925562205434066,-11.992159268778671,38.8895145199681,3,S01
10860,0.6559342270866525,0.8246863896972358,10.940166681591345,23.293217814929754,35.36670860542507,18.837366792560438,23.830256954665867,-8.67651719576709,41.54662353426767,3,S01
10880,1.3176395341430667,2.093026801729801,11.70374693588991,45.18985042366424,81.1218237657311,-0.5222545662703318,21.93420708929093,-10.116522015329156,42.37433990139554,3,S01
10900,1.3221848504697171,2.9185140382753763,12.513970291272237,67.72121062516696,117.42081541832363,3.8404469914841024,22.544623373318863,-6.859083928409056,43.806796680993294,3,S01
10920,1.2159651173389354,2.687075649009108,12.868548734051794,70.64686942979519,104.17048677564713,-12.079059584450556,25.248412110103928,-5.7539195788602715,40.55091295050883,3,S01
10940,1.015150205440276,2.115463258031218,13.262944300336157,40.688453049037555,88.63811435108572,-25.103585882944824,24.77033254734391,-7.0991975713289435,40.73998060486271,3,S01
10960,0.195654696815429,1.3850823726033854,13.192734835535157,20.753249241777738,55.882967592790855,-35.49803452374873,24.37900322176308,-3.1057765509880033,42.51157624499705,3,S01
10980,0.17557945294872435,0.6141357185267058,13.170248741053259,10.269596506465756,34.251295532669005,-35.83467458894081,25.376495844351403,-1.6066710438438516,39.37352922619472,3,S01
11000,0.16962474204002642,0.07161215628913564,12.075691547866741,-8.545182454022974,12.378554285617975,-38.925115534111484,29.8662381736939,-7.181333109248685,36.15332173350691,3,S01
11020,-0.06337461528819988,-0.14917984786442018,11.72265987816875,-1.5221726131300684,-1.808681798885264,-25.668850283443533,30.69740498893611,-4.042204932412413,34.56080721079839,3,S01
11040,-0.37142131503072706,-0.37317903015222703,10.840763045584746,-8.694456777165243,-26.57226418720995,-18.314222739525082,29.17370078263123,-8.201119150243922,32.18149394181361,3,S01
11060,-0.09508295604473352,-1.1797331531575872,10.053933690030446,-24.933258643108953,-44.84955163954217,-2.7372897046201934,31.4007384372282,-5.018215850793779,35.104051145147174,3,S01
11080,-0.4279938487388315,-1.7951196915527727,9.444718123260605,-43.77168503201664,-76.93639874158877,19.355747165999123,33.29257316830255,-7.730754934217458,32.30239502951591,3,S01
11100,-0.80721700415606,-2.6115253103764937,9.14615465680882,-67.39877621551858,-94.15102855768619,35.13630074552686,35.405269360397526,-8.809595141699262,31.980279176310287,3,S01
11120,-1.16561940865201,-2.8107078350257195,8.969642454400928,-74.3712146702915,-112.51222207897248,42.187306524042235,34.39886751392328,-11.542645116817107,35.77072498398553,3,S01
11140,-1.3418265709694197,-2.931764197620093,9.177530213684035,-71.07239251499564,-110.55937486698022,47.473023100229824,36.800239072957446,-13.747205904176894,36.536231785201196,3,S01
11160,-0.7354464114476603,-1.8915282031256806,9.612699555982031,-57.73300740633938,-76.35327957989554,36.57252997748983,34.54234443122505,-17.42186786487907,36.12154295791032,3,S01
11180,-0.09624079018362111,-0.6958207168396391,9.948391410822733,-26.919718624611814,-12.529308821645582,32.577384888555024,37.092411614302414,-16.420231494770615,37.23053266648661,3,S01
11200,0.7743591902115414,1.1999360955001237,10.841953537464185,17.291198664480046,37.4861964843167,31.395840288618565,36.95250083778144,-20.290068430289587,38.10877556566676,3,S01
11220,1.3119696284712379,2.329590246173702,11.81395757163323,62.31200959311897,86.68542089981837,4.714912724616136,37.15150241524606,-19.92091321599292,42.09477224046229,3,S01
11240,1.2418751143022464,2.54815489947125,12.505321581500366,78.25007251904866,106.46749190318096,-2.627045958510356,36.16778100063922,-22.160292146766523,45.13756086278431,3,S01
11260,1.2236106022768836,2.692155982783488,13.012849697460814,62.78552820528701,117.4511348473513,-23.117438171632138,34.93606954160702,-25.09432085579535,42.31611800969856,3,S01
11280,0.9521986433744901,2.3190764309125176,13.523607832950256,61.66682256881663,80.23807353714352,-25.519609378374604,34.0092871588042,-22.252984063226013,40.306691150577244,3,S01
11300,0.4354278403373367,1.270800137191929,13.126295179005426,22.47161058528277,55.93128700786879,-35.26631493434232,34.06086238475176,-24.79058020061209,40.49612514533479,3,S01
11320,0.17512130759618083,0.7188934240895393,12.773241760843666,14.213524473484235,27.185094278482953,-40.83288732717974,35.531834829582614,-25.23043424038164,38.42092964961905,3,S01
11340,-0.03947838801460621,0.32131268579184613,12.283353906067308,4.273743935005466,6.411259888844365,-41.27674974935685,31.53486318319573,-28.4731714693227,36.31379763566784,3,S01
11360,-0.13522828445806173,-0.27218895862878245,11.637591317000908,-16.111418282622427,-12.072292461989658,-26.46261231864742,32.251229507464124,-31.54994781607099,35.13515885666863,3,S01
11380,0.05630217913188326,-0.41052431209350304,10.426533037368607,-3.612443088219882,-20.938010172050802,-16.527677833622715,31.076278755654066,-28.459453419926557,35.68799985878278,3,S01
11400,-0.09138121698939064,-0.9432630120580794,10.25750233243991,-26.544320442718156,-41.25522145906149,-5.201612309947654,28.92285398380932,-26.687247777683133,32.93664982632484,3,S01
11420,-0.5303834821206641,-1.9770953839304601,9.727919628500592,-48.55658949491501,-80.14224297987677,11.91919067965114,27.275205252153686,-28.232096045189497,34.596562048698374,3,S01
11440,-1.0339905234196958,-2.564932213396616,9.149122256328258,-63.08446660743668,-97.79711569305472,25.937606500962914,25.69271329066244,-31.11775148316518,33.571784420818204,3,S01
11460,-0.8686217619128475,-2.9992153017677587,9.069414145004078,-74.20196306472464,-111.48106903279336,42.65863389440913,24.799558690981776,-28.39218708620544,32.46206039748358,3,S01
11480,-1.1559298569273677,-2.6936392609795488,9.134457982142393,-75.41042517326109,-104.10380175731568,37.431485026389936,25.81002334595814,-30.079432640792366,33.18683077172855,3,S01
11500,-0.31607016505803864,-1.9096128938362609,9.341667533582783,-63.416763576841475,-66.04776616685854,46.11784366842585,23.331485058928173,-27.713050607908546,35.0754235197113,3,S01
11520,0.19481820048135395,-0.42825929928978895,10.128550154512313,-15.638029383909714,-19.641653010221507,41.83179379906225,22.55668097739258,-25.118626800764094,39.352433192129986,3,S01
11540,0.5553378158555932,1.1106922031499662,10.6990456916057,21.7213930072251,47.47843341378842,16.630282641125152,22.179224571929975,-26.199304040284105,38.90214002980914,3,S01
11560,1.139146713659044,2.0066975856065152,11.760268276549185,50.5660724732331,87.5833849040152,8.508401738416918,20.588873696916476,-23.853874252159155,42.49280513875075,3,S01
11580,1.2036183401270137,2.6047236959413467,12.330673898420434,72.24737651366308,107.47265136192117,-8.788641135605648,18.787873896603806,-22.39837861476083,42.944086541681,3,S01
11600,1.2647347469707988,2.560067103456355,12.995608417858596,60.091247088633224,112.1044325828374,-16.36568845593014,22.76155755778003,-18.148373115366514,40.53217268886706,3,S01
11620,1.1487852603380513,1.9541878488361049,13.0195666294755,47.736968266596314,91.54880278799168,-39.21410820062465,22.380725763074558,-15.482582300935169,41.58996045947808,3,S01
11640,0.40236079190353446,1.3996505013251186,13.23457277069723,24.292746590451376,60.26472747108128,-35.714627730759354,20.22385788005123,-11.071833393886209,40.8901381104003,3,S01
11660,0.23202682128117494,0.5777019551448834,12.506110375521825,4.368608401340295,31.08877755906344,-49.41617487896866,23.529901631115045,-13.144465700766997,41.37229655940814,3,S01
11680,-0.07562414067531423,0.24835699229352992,12.049632601853384,5.7587626970544585,19.400373506748277,-40.38846484405443,19.459274177280392,-13.515055599939487,36.50547285538553,3,S01
11700,0.011904263507745066,0.08277730609734132,11.530691157458405,-4.367114978394028,-8.858633501584421,-26.50034063322462,21.055160071202202,-8.795943262822968,32.56280006425647,3,S01
11720,-0.039601641825966205,-0.6665833109340462,10.579371207357449,-15.935280903851346,-21.170216418112762,-23.455819069142127,21.240553980370848,-7.177469363600948,33.94165283921799,3,S01
11740,-0.11051772370332408,-1.1979962885887319,10.309094040834191,-30.509137215319473,-50.66823966929617,0.9046148625078151,23.09973825000835,-8.057926224066584,31.60438508666058,3,S01
11760,-0.5007027071636605,-1.6106180363601477,9.551273341865773,-44.88226841072597,-68.41914760448101,9.86291533492604,24.69633652694537,-9.405145697288056,30.899097258371803,3,S01
11780,-0.8824802893601525,-2.720385339574786,8.997150417316943,-59.74619987266791,-106.00936322138274,23.849607186266407,24.046272382254543,-5.2214363914748825,34.77324940740931,3,S01
11800,-1.3552989834922,-2.6116327490398,9.031830782786384,-79.25400715584115,-111.23078687689858,34.93337719886883,30.938428401387554,-8.465473651218895,33.59295072139276,3,S01
11820,-1.0749217787268617,-2.8003000133714524,9.041694661758147,-69.54485564061258,-101.9035005273139,30.675416898203444,29.02575277557949,-4.190262336197813,36.48987108187447,3,S01
11840,-0.7520964270503525,-1.7617396746103098,9.527190966773965,-52.01570098741839,-62.892678841535876,33.43318456196827,29.310583912270822,-5.129374599588533,37.20197437514572,3,S01
11860,0.16594327388011915,-0.1988653080657407,10.167063579226122,-15.106513173100499,-13.469108063222496,35.63357609199963,33.50632534406098,-8.250073944428882,38.592369708202206,3,S01
11880,0.7041142442429916,0.8918526126383319,10.893067597077502,29.01876595776039,49.928565986703795,13.556869986521116,33.71435129353718,-7.595132091360646,38.139376385314286,3,S01
11900,1.2846020396371507,2.2522941598634465,11.989197507517046,50.02075656393789,91.50685481580604,11.197067493158274,35.399555661129206,-9.643002800989674,37.42286621475358,3,S01
11920,1.290748841555329,2.5906135321840273,12.844270935233567,83.57913446413048,105.87953870485228,-9.180497679421281,34.6095087786439,-8.04485139168333,40.04467615294394,3,S01
11940,1.1806127999588576,2.6750779144042425,13.041305218363346,54.832221908062635,112.43143683021715,-20.025067310423264,33.3811747596456,-7.061197241073105,41.28740477250268,3,S01
11960,0.8787961859307113,1.8905888506117983,13.519502259234072,47.464235661165546,79.07430810783701,-34.27503047080852,33.90638334505425,-11.242690079201864,40.63523210283814,3,S01
11980,0.4885340554230071,1.3566519435027207,13.413164223504065,25.540014598441743,56.87575837881149,-40.768111724071574,37.38442717165337,-11.754779315073709,42.368745348715365,3,S01
12000,0.0625558378348441,0.8421344371021411,12.67519547410856,14.7871818451355,33.43427959635753,-49.120373796099166,35.860798223827906,-14.306533253928016,39.85185467832663,3,S01
12020,0.10618021712838235,0.29732057086796426,12.154449013157985,3.684530544616085,14.167252173931079,-35.52354221253545,36.411806524135365,-15.833960243145421,37.64638307517605,3,S01
12040,0.1587820880063572,-0.5726057945202583,11.533024765427825,-1.663318412427576,-6.959936372768849,-17.842029362388548,36.882756719614505,-19.123734556920393,34.434711675018676,3,S01
12060,-0.04010946555812653,-0.7038620879179538,10.587751809565281,-14.273668655649821,-14.648719909092547,-14.124676440133449,36.17441087561504,-19.703900190083502,35.45157681261041,3,S01
12080,-0.35838131028197484,-1.2444935982174563,9.947519193526633,-27.189557728277965,-50.052810697617154,2.857034991152005,35.95189923301086,-21.036335618900882,31.236457724043092,3,S01
12100,-0.6836272909345639,-2.085856339712121,9.508965861350426,-47.70577605208872,-80.58798291631074,15.840354305429338,37.86307889027201,-24.250319298183605,32.15598355761539,3,S01
12120,-1.2237708630839288,-2.2753209088066377,9.295550745957724,-69.66911278349421,-101.43006862915045,23.893739699393443,35.370229131970106,-23.266813401130978,33.780983250798414,3,S01
12140,-1.3273368970350339,-2.88669513776156,9.506585342945824,-77.10912820803944,-109.6894034351206,42.08108171579717,33.599115948511255,-26.12583480180324,34.48640424541066,3,S01
12160,-1.103420010060321,-2.827648086553589,9.290293924559341,-78.42830116911827,-105.09823881051166,40.244443166473324,33.50419890305226,-24.349228664676104,34.827274547224036,3,S01
12180,-0.6718249679663999,-2.0421788951368693,9.455675205351422,-48.09715296536272,-66.89089333430502,40.270723674422385,31.510277926195425,-27.601325785796824,33.61828651686547,3,S01
12200,-0.04319757886235334,-0.34745953944271707,10.000675556974489,-7.511974029942143,-3.647720213346286,32.363081295975334,33.41763123055702,-30.581358374052677,39.27465064997027,3,S01
12220,0.3754645625282599,0.901014966556138,11.149453055326454,26.431477185537055,37.79788312789057,10.308399392292532,32.81965910626607,-29.313040003379893,37.407951294213156,3,S01
12240,1.1344841385905455,2.1704917413441756,11.947365561740433,44.64474938238311,91.18964151724361,15.066632241538139,30.64586852875472,-28.819076419090596,40.38852819870282,3,S01
12260,1.3913491355645657,2.7016485086620095,12.844733628026201,76.15768045291523,108.24006948977275,1.1625542810193923,29.814655867964948,-30.06899712403278,41.65410064215819,3,S01
12280,1.0188658826607364,2.6025218739979503,13.151815242062314,71.14648625020256,110.68313111282225,-17.672785265653232,26.201973957332232,-31.716476333197733,41.43438197021731,3,S01
12300,0.7283984216235686,2.1931142251263918,13.238640284219482,51.652408386599724,80.50959186677638,-30.000151081587063,24.85656292793068,-31.428970661637962,40.85304412036716,3,S01
12320,0.21797025245050716,1.3363626807595852,13.45347835237052,36.83570808343532,62.425807373723096,-35.16301047505922,26.109212582688727,-27.663338746195524,40.11626922226562,3,S01
12340,0.18248795684410257,0.3035846005722605,12.671696204171772,1.5933733317907732,30.00834645548599,-33.23159786700474,23.68457875056236,-31.882873939386208,39.87910467360207,3,S01
12360,6.551770756606234e-05,0.061068690637009926,11.948731802091883,-6.03125420640229,4.346304861547703,-36.191276854078055,24.634828149485678,-27.281922308236606,38.42935132306142,3,S01
12380,0.11344396679818486,-0.20707120088987602,11.454544861723038,-2.880909619991394,-5.103017235366289,-25.276796295700557,20.950166919314718,-23.955087015694783,35.30170706663102,3,S01
12400,0.06838327236888422,-0.6650551406233687,10.825301994112731,-15.436728520563072,-22.1444330832524,-14.130809098066981,24.153996741738794,-22.46919244202834,33.448649611430724,3,S01
12420,-0.28438555012284383,-1.428596557957422,9.926148767362761,-26.38786186545791,-52.56157089857599,3.6930945800472177,21.279558775708793,-22.484425218696497,33.950632199206524,3,S01
12440,-0.16545944835632623,-2.169040253476019,9.366998346815464,-40.83824246694598,-74.43880818376205,13.399841142609484,21.45067272749292,-23.01275527658777,31.146752552709962,3,S01
12460,-0.6268198017347945,-2.362598966143076,9.262168702317988,-58.544182523962434,-101.81740106233195,28.883529514781085,23.101706591455624,-18.83547035047654,33.3372553174509,3,S01
12480,-1.121197500663566,-3.023838207497975,9.051624397402662,-83.24211592694562,-113.57250150426815,33.021007299746366,23.32521694546989,-17.816771734437797,34.933070614049385,3,S01
12500,-0.839053690005767,-2.577079387053149,9.323398662580049,-75.88843660625972,-99.64513621683703,39.65451153293458,20.89067148085809,-15.307430773470093,35.59450599581609,3,S01
12520,-0.8771260025572659,-1.8762942545495915,9.865404558362508,-42.71364927299284,-69.00964380249548,44.948638996864084,21.336261700299303,-11.119028035332814,36.015677421311246,3,S01
12540,0.14083163606422883,-0.3554303295495066,9.85893438067996,-13.643084583430856,-11.736640564006024,34.3526245715737,22.112572085916597,-10.861164301859883,39.60823970879659,3,S01
12560,0.6591795564793015,1.2570174998083754,11.345075979597201,29.562065345769685,48.39546514342899,23.361355731640842,21.520329097272406,-10.735083352087473,40.887815687824975,3,S01
12580,1.1032703956066159,2.3688480186306964,12.113921759810372,60.24376646033606,100.48693036720874,2.2373324506796073,23.577544466636358,-7.7597256839054465,41.352993758563294,3,S01
12600,1.2226161301441587,2.758405835292336,12.68235842907618,66.67918077699782,109.88260919930897,-11.758305540804978,22.37944511976631,-5.454409825163806,42.16014319839787,3,S01
12620,1.4070251809712575,2.5618671565816222,13.011675318976732,61.50157231880938,109.66939022897645,-12.873577810394092,24.542683237322173,-4.241069171580021,42.26764242818638,3,S01
12640,0.6277690856611261,1.6359484937076567,13.24447452394473,44.84591245601349,86.40532163508306,-36.65370975562985,27.11294455785762,-5.441207026694679,40.530395937144085,3,S01
12660,0.5424700520438827,1.2069950913743743,13.058959696374693,8.567867516431399,52.24161350441039,-38.50364010477746,26.10992246655924,-4.252091684774282,43.17615419665069,3,S01
12680,0.25649103162625553,0.6198512505860985,12.790549171938617,10.141330407094625,25.30816874623653,-36.847769343638106,28.953427972098364,-5.40703915950022,40.85964503494943,3,S01
12700,0.059769504066958745,0.029092778494300642,11.96400936150269,1.2026354124767726,9.72147007138278,-41.64050403562116,29.326061294881782,-3.1745520585427407,35.67063332002846,3,S01
12720,0.23918616116061348,-0.29380420059643747,11.146964769131255,-2.3917040839556645,-8.251384828280107,-24.76347630402758,32.082989720234295,-6.088927289172262,36.18090276156775,3,S01
12740,-0.11097409097446528,-0.48802820063245517,10.747332330082292,-11.984590066026819,-19.70952124622831,-15.90442405533218,31.848282899757432,-6.456812372473431,34.295048297086154,3,S01
12760,-0.3983575809382539,-1.0287672346459893,10.03418720746293,-20.807053482927433,-51.542523186868216,0.4564660845195493,32.89096546878075,-7.143198305329186,29.260550480946332,3,S01
12780,-0.5002819941813594,-1.9030843954955752,9.479793085282546,-48.76874573624066,-72.8885598107523,16.336126427667054,31.606175017403167,-9.418286639588473,30.348406589965034,3,S01
12800,-0.7995094403905701,-2.60431221822061,9.158679973105668,-64.85891017500528,-105.00761347079217,28.64257451703156,37.89357988380246,-9.420734615607948,32.347522014733194,3,S01
12820,-1.1805781183175592,-2.95720012986938,9.106970379321902,-81.48828998162706,-119.50143310802518,41.29458630073985,35.24122239322007,-12.575697828105014,34.565851862855524,3,S01
12840,-1.1482832100009477,-2.5560316817006603,9.240264252752063,-54.97356170788194,-103.78093513067984,43.0775787421475,38.60580271042964,-13.994593799797268,35.97378106601781,3,S01
12860,-0.8817325210182133,-1.555956345193465,9.76101331364811,-42.956186550399764,-61.7660440229737,39.44109865385647,35.807096478999824,-15.027854702958152,37.70115104630934,3,S01
12880,-0.00793215414240217,-0.2564782890735151,10.052357876531406,-10.543423249565212,0.8354369032530438,31.758749957081392,36.94161016592953,-15.157062291397672,37.77819938327245,3,S01
12900,0.983258736630966,1.2587205237824608,11.055187903888493,31.34879849276002,47.03238743578453,12.768148321951896,36.88732664598915,-21.409762557723386,38.07068765458462,3,S01
12920,1.2461272783572819,2.3937443560941363,12.010118972075166,63.44250777941075,96.05150865382004,9.865765937727124,36.642410316134544,-17.089761788018915,38.5946215228549,3,S01
12940,1.4182641783209067,2.8181226608358,12.711974243672811,66.4459879099176,115.65624687689917,-15.16791244853444,36.5482745215227,-22.911884730612798,43.14469979467417,3,S01
12960,0.912270038070788,2.373291492781205,13.425399613903936,60.508258090535776,112.64838458999563,-26.15869520857367,34.86871229405031,-23.794920867672197,43.55027615208365,3,S01
12980,0.6328255412925136,1.8904198230123788,13.534091752738512,42.67811192844428,88.90358341194259,-30.59161953026451,34.80532319791711,-23.210989731101705,44.122612852260076,3,S01
13000,0.6281339281601966,1.2712083780672943,12.950342379724875,24.028674719187556,50.312590297085954,-46.5195894204562,33.26120982799388,-29.089932103697226,42.054113907132916,3,S01
13020,0.22127717487008097,0.44714660653333976,12.470737057303287,8.601658754559296,22.798358287710037,-41.33363189540935,34.36874055203501,-28.212805106644037,40.216143649165,3,S01
13040,0.11008039523207036,0.05810336257701232,12.04171675796359,-7.895798213400421,14.087556978682025,-36.24618918248094,32.91840487267513,-28.776093149762826,36.92856113457258,3,S01
13060,-0.04836094246507969,-0.36501973776212876,11.204571338876054,-12.385996915481709,-10.125959965050079,-27.72787666430049,29.18254437667325,-32.6700046872117,35.17264249920258,3,S01
13080,0.161220764004618,-0.6904849427819604,10.581422456387676,-5.843042653442239,-24.24595326284099,-13.721208970064225,29.196849233525537,-28.133702171605997,31.68422013711764,3,S01
13100,-0.4525499414346299,-1.2506900151285811,10.032820904776344,-32.639297591465834,-53.68926016973108,-1.0599511635673786,31.269709929368144,-28.943216118896885,32.54939113228376,3,S01
13120,-0.43733160689998785,-2.0436977672737395,9.315783040311826,-44.959493460855775,-84.28632775630223,25.927615587689306,27.60967600376539,-30.980848854446506,34.34131370531007,3,S01
13140,-1.0481664995621343,-2.4572352748096478,9.02640695532037,-72.08412534623059,-96.0557861765918,32.553907628742266,25.324893239633766,-30.088442478034278,30.834240695780718,3,S01
13160,-1.2555597720438414,-2.9695668556946497,9.180529740887561,-72.09256324523339,-120.85585340780763,39.30886880111276,27.19449544538955,-30.560776261297526,33.60780377347763,3,S01
13180,-1.060292242733517,-2.7601081028929406,9.497987938725956,-77.01373864966588,-101.83458805780343,43.15686984658901,25.060207716341267,-29.58747045495038,34.97948869935707,3,S01
13200,-0.487243723861961,-1.2945964143915334,9.802702585200914,-44.44596835953404,-57.67408253340081,36.81059385021566,22.46410144995637,-27.439634800083088,36.322831059157416,3,S01
