timestamp,ax,ay,az,gx,gy,gz,mx,my,mz,label,subject_id
0,0.1,-0.07,10.145759109311742,-4.2,-1.2,0.6,28.757876134536705,-15.927296497596982,37.87868062139655,6,S01
20,0.1,-0.07,10.145759109311742,-4.2,-1.2,0.6,30.069057082836075,-16.751521079860822,37.53083173024148,6,S01
40,0.1,-0.07,10.145759109311742,-4.2,-1.2,0.6,29.801743016275594,-18.031977919385906,37.96622425401566,6,S01
60,0.1,-0.07,10.145759109311742,-4.2,-1.2,0.6,28.170367659522338,-16.90277442593439,37.68237106466399,6,S01
80,0.1,-0.07,10.145759109311742,-4.2,-1.2,0.6,28.95915180495462,-17.428336055393387,38.3073299283866,6,S01
100,0.1,-0.07,10.145759109311742,-4.2,-1.2,0.6,29.557615077429407,-16.72052950047608,37.93254730146543,6,S01
120,0.1,-0.07,10.145759109311742,-4.2,-1.2,0.6,29.949391614494836,-16.481432099995672,37.95308706438487,6,S01
140,0.1,-0.07,10.145759109311742,-4.2,-1.2,0.6,29.450078430036484,-16.516530751219996,38.12333480662222,6,S01
160,0.1,-0.07,10.145759109311742,-4.2,-1.2,0.6,29.21792164410652,-16.74108479529187,37.75367814101198,6,S01
180,0.1,-0.07,10.145759109311742,-4.2,-1.2,0.6,29.318401413419487,-16.035300916700976,37.66960902719554,6,S01
200,0.1,-0.07,10.145759109311742,-4.2,-1.2,0.6,29.112734849967616,-15.123976677916202,37.04236712589646,6,S01
220,0.1,-0.07,10.145759109311742,-4.2,-1.2,0.6,29.06999719814275,-16.33008737678326,37.92269029901035,6,S01
240,0.1,-0.07,10.145759109311742,-4.2,-1.2,0.6,29.383904195183185,-16.537348714569024,37.64659866778749,6,S01
260,0.1,-0.07,10.145759109311742,-4.2,-1.2,0.6,29.14436059613035,-16.43418636071922,38.29918175945304,6,S01
280,0.1,-0.07,10.145759109311742,-4.2,-1.2,0.6,29.225174809838013,-16.68905256437001,37.370939450895975,6,S01
300,0.1,-0.07,10.145759109311742,-4.2,-1.2,0.6,29.270071838818296,-16.59256244092287,38.684236259012955,6,S01
320,0.1,-0.07,10.145759109311742,-4.2,-1.2,0.6,28.321736624590827,-16.851760546280342,38.17583183351002,6,S01
340,0.1,-0.07,10.145759109311742,-4.2,-1.2,0.6,28.71093321526619,-17.53218885129901,37.927347101098,6,S01
360,0.1,-0.07,10.145759109311742,-4.2,-1.2,0.6,29.10896994214418,-16.697459366155556,37.24277069175683,6,S01
380,0.1,-0.07,10.145759109311742,-4.2,-1.2,0.6,29.237166336037962,-16.155448332107667,38.33084277797191,6,S01
400,0.1,-0.07,10.145759109311742,-4.2,-1.2,0.6,29.640470066906445,-16.6153105976903,38.24651067216619,6,S01
420,0.1,-0.07,10.145759109311742,-4.2,-1.2,0.6,29.663733629787938,-15.943849882059162,37.72750648455011,6,S01
440,0.1,-0.07,10.145759109311742,-4.2,-1.2,0.6,29.28922747363819,-16.752954548192562,38.58500469304462,6,S01
460,0.1,-0.07,10.145759109311742,-4.2,-1.2,0.6,29.24620184483707,-17.0602546901356,38.05134990634019,6,S01
480,0.1,-0.07,10.145759109311742,-4.2,-1.2,0.6,29.410631812439874,-16.77937846581606,37.38497937884837,6,S01
500,0.1,-0.07,10.145759109311742,-4.2,-1.2,0.6,29.123605225561967,-16.870577789237796,36.78979319971112,6,S01
520,0.1,-0.07,10.145759109311742,-4.2,-1.2,0.6,28.988704752380755,-16.92977567608107,38.1170059507017,6,S01
540,0.1,-0.07,10.145759109311742,-4.2,-1.2,0.6,29.67063750502726,-16.920804382425736,38.056538181826085,6,S01
560,0.1,-0.07,10.145759109311742,-4.2,-1.2,0.6,28.756765846913275,-16.565557027267264,37.29334451215913,6,S01
580,0.1,-0.07,10.145759109311742,-4.2,-1.2,0.6,29.36287839826068,-16.13349435454844,36.969814352622905,6,S01
600,0.1,-0.07,10.145759109311742,-4.2,-1.2,0.6,28.936009023928033,-16.354360446359458,37.49005447275547,6,S01
620,0.1,-0.07,10.145759109311742,-4.2,-1.2,0.6,29.698169153451158,-17.32225894454111,37.60721396910874,6,S01
640,0.1,-0.07,10.145759109311742,-4.2,-1.2,0.6,29.44911211864346,-16.988825158344056,37.61714842605402,6,S01
660,0.1,-0.07,10.145759109311742,-4.2,-1.2,0.6,29.160042491392282,-16.982799770743767,37.72007104044137,6,S01
680,0.1,-0.07,10.145759109311742,-4.2,-1.2,0.6,28.77773255016997,-16.91460522645142,36.40963819222105,6,S01
700,0.1,-0.07,10.145759109311742,-4.2,-1.2,0.6,29.50437191492848,-16.710497845789412,36.876361437996046,6,S01
720,0.1,-0.07,10.145759109311742,-4.2,-1.2,0.6,28.613664007822752,-16.851129861502336,38.00140211720276,6,S01
740,0.1,-0.07,10.145759109311742,-4.2,-1.2,0.6,29.22208343868095,-16.23002317083644,36.918978316328875,6,S01
760,0.1,-0.07,10.145759109311742,-4.2,-1.2,0.6,28.863546636821127,-16.11354434356584,36.7260728802101,6,S01
780,0.1,-0.07,10.145759109311742,-4.2,-1.2,0.6,29.012828175093006,-16.636734522896113,37.3999466750982,6,S01
800,0.1,-0.07,10.145759109311742,-4.2,-1.2,0.6,28.832122941703666,-16.88910704639224,37.31724150686658,6,S01
820,0.1,-0.07,10.145759109311742,-4.2,-1.2,0.6,28.628007338876667,-16.227082353012793,37.28289507724754,6,S01
840,0.1,-0.07,10.145759109311742,-4.2,-1.2,0.6,29.056489740387597,-15.648439682694274,38.68296272724716,6,S01
860,0.1,-0.07,10.145759109311742,-4.2,-1.2,0.6,30.780641921087167,-16.752334929753168,37.819128023687036,6,S01
880,0.1,-0.07,10.145759109311742,-4.2,-1.2,0.6,29.403547119361544,-16.722473704097702,37.53527988563199,6,S01
900,0.1,-0.07,10.145759109311742,-4.2,-1.2,0.6,29.542043449135335,-16.380388367191735,38.67110659304722,6,S01
920,0.1,-0.07,10.145759109311742,-4.2,-1.2,0.6,29.27663864966592,-16.25462676462687,37.62562176675068,6,S01
940,0.1,-0.07,10.145759109311742,-4.2,-1.2,0.6,29.145230073991247,-15.864519363946739,37.553836847550386,6,S01
960,0.1,-0.07,10.145759109311742,-4.2,-1.2,0.6,30.05765060713227,-16.629796949168792,37.60367688762352,6,S01
980,0.1,-0.07,10.145759109311742,-4.2,-1.2,0.6,29.521592867583283,-16.622806373976392,38.02070030912824,6,S01
1000,0.1,-0.07,10.145759109311742,-4.2,-1.2,0.6,29.151500305979145,-16.79661189553726,38.20438027430328,6,S01
1020,0.1,-0.07,10.145759109311742,-4.2,-1.2,0.6,29.951132013902605,-16.63141988699837,38.36291212791591,6,S01
1040,0.1,-0.07,10.145759109311742,-4.2,-1.2,0.6,29.345704853891547,-16.438457985851272,38.54850623365626,6,S01
1060,0.1,-0.07,10.145759109311742,-4.2,-1.2,0.6,29.037523879669724,-16.297135752048526,37.36161546161308,6,S01
1080,0.1,-0.07,10.145759109311742,-4.2,-1.2,0.6,29.035715556715818,-16.29659284997501,37.717759581863405,6,S01
1100,0.1,-0.07,10.145759109311742,-4.2,-1.2,0.6,30.08195952480029,-15.958506397836969,37.410058818494456,6,S01
1120,0.1,-0.07,10.145759109311742,-4.2,-1.2,0.6,29.452256139809407,-16.43724642333911,37.310176252750836,6,S01
1140,0.1,-0.07,10.145759109311742,-4.2,-1.2,0.6,29.280844997726902,-16.382405596619108,37.20424666155923,6,S01
1160,0.1,-0.07,10.145759109311742,-4.2,-1.2,0.6,29.930651384443493,-15.882444249130875,37.35578290208588,6,S01
1180,0.1,-0.07,10.145759109311742,-4.2,-1.2,0.6,28.69529497337705,-16.762405496631338,38.45542312941434,6,S01
1200,0.1,-0.07,10.145759109311742,-4.2,-1.2,0.6,29.335061641479705,-16.70451021492014,37.74971031066505,6,S01
1220,0.1,-0.07,10.145759109311742,-4.2,-1.2,0.6,28.69503461340481,-16.611885308831,38.902614074042056,6,S01
1240,0.1,-0.07,10.145759109311742,-4.2,-1.2,0.6,28.603480696372507,-15.29572114302206,37.88972375570345,6,S01
1260,0.1,-0.07,10.145759109311742,-4.2,-1.2,0.6,28.88441769478315,-17.55533914163703,36.82293251106906,6,S01
1280,0.1,-0.07,10.145759109311742,-4.2,-1.2,0.6,28.93961687333778,-16.35760853443744,37.94007076584549,6,S01
1300,0.1,-0.07,10.145759109311742,-4.2,-1.2,0.6,29.22961759625259,-16.10473862962594,37.43995204370689,6,S01
1320,0.1,-0.07,10.145759109311742,-4.2,-1.2,0.6,29.037175105644348,-16.27661790494735,37.232296250868885,6,S01
1340,0.1,-0.07,10.145759109311742,-4.2,-1.2,0.6,30.00389885157165,-16.388122585860607,37.90323595677824,6,S01
1360,0.1,-0.07,10.145759109311742,-4.2,-1.2,0.6,29.12224447026642,-16.108593811701624,36.971080879393746,6,S01
1380,0.1,-0.07,10.145759109311742,-4.2,-1.2,0.6,28.374634470705583,-16.446939033054583,38.0682734153225,6,S01
1400,0.1,-0.07,10.145759109311742,-4.2,-1.2,0.6,29.16635208732598,-17.259703099955903,37.45263801534072,6,S01
1420,0.1,-0.07,10.145759109311742,-4.2,-1.2,0.6,29.194108113904935,-16.304193026052808,38.08857467109427,6,S01
1440,0.1,-0.07,10.145759109311742,-4.2,-1.2,0.6,29.9048480774918,-15.996110640468698,37.82149118590208,6,S01
1460,0.1,-0.07,10.145759109311742,-4.2,-1.2,0.6,29.963033904917346,-16.260910787320228,37.80732668646317,6,S01
1480,0.1,-0.07,10.145759109311742,-4.2,-1.2,0.6,29.411333569954582,-17.781654406257132,37.9253308408305,6,S01
1500,0.1,-0.07,10.145759109311742,-4.2,-1.2,0.6,30.498724107772038,-16.79943145641539,37.51302525587657,6,S01
1520,0.1,-0.07,10.145759109311742,-4.2,-1.2,0.6,28.844438561166925,-16.761692965916907,37.237400577454885,6,S01
1540,0.1,-0.07,10.145759109311742,-4.2,-1.2,0.6,30.26776703381455,-16.63617535165251,37.65117178322112,6,S01
1560,0.1,-0.07,10.145759109311742,-4.2,-1.2,0.6,28.83783737981239,-16.76090491430845,38.133187187946945,6,S01
1580,0.1,-0.07,10.145759109311742,-4.2,-1.2,0.6,28.50231857977936,-16.639735407972637,37.63956635701508,6,S01
1600,0.1,-0.07,10.145759109311742,-4.2,-1.2,0.6,30.20790130009199,-16.822835482790126,38.15120519105819,6,S01
1620,0.1,-0.07,10.145759109311742,-4.2,-1.2,0.6,28.90886734317173,-16.470864352105018,37.5225173540099,6,S01
1640,0.1,-0.07,10.145759109311742,-4.2,-1.2,0.6,29.27374709857466,-16.90135974928866,37.7573888141336,6,S01
1660,0.1,-0.07,10.145759109311742,-4.2,-1.2,0.6,28.83009408474502,-15.487818822891125,37.20817942585104,6,S01
1680,0.1,-0.07,10.145759109311742,-4.2,-1.2,0.6,28.85592567951608,-15.709953717225968,37.32436158370415,6,S01
1700,0.1,-0.07,10.145759109311742,-4.2,-1.2,0.6,28.741592705161715,-16.76572862502536,37.8790486363051,6,S01
1720,0.1,-0.07,10.145759109311742,-4.2,-1.2,0.6,29.095053277656625,-16.35597308401807,37.59044622947179,6,S01
1740,0.1,-0.07,10.145759109311742,-4.2,-1.2,0.6,28.786940766801163,-17.199544902429558,37.76898014814542,6,S01
1760,0.1,-0.07,10.145759109311742,-4.2,-1.2,0.6,29.64368012318971,-17.208655978342115,37.688814628196106,6,S01
1780,0.1,-0.07,10.145759109311742,-4.2,-1.2,0.6,29.297520601053648,-15.906689862185166,37.27483371177571,6,S01
1800,0.1,-0.07,10.145759109311742,-4.2,-1.2,0.6,29.587501002732132,-16.36063549463872,36.756269303963464,6,S01
1820,0.1,-0.07,10.145759109311742,-4.2,-1.2,0.6,29.22513462897028,-15.976846395120337,37.613477435427264,6,S01
1840,0.1,-0.07,10.145759109311742,-4.2,-1.2,0.6,29.795165200120106,-16.44267374545756,37.95761354954868,6,S01
1860,0.1,-0.07,10.145759109311742,-4.2,-1.2,0.6,30.041507248047274,-16.37592729275674,37.99033318720346,6,S01
1880,0.1,-0.07,10.145759109311742,-4.2,-1.2,0.6,29.584732017921795,-16.485739362811163,37.660470706820064,6,S01
1900,0.1,-0.07,10.145759109311742,-4.2,-1.2,0.6,29.37587332306245,-16.658402061961123,37.798285380321616,6,S01
1920,0.1,-0.07,10.145759109311742,-4.2,-1.2,0.6,29.4861068290712,-16.834627902561827,37.82358749120825,6,S01
1940,0.1,-0.07,10.145759109311742,-4.2,-1.2,0.6,29.807439725193277,-16.162090434378584,37.709712791333295,6,S01
1960,0.1,-0.07,10.145759109311742,-4.2,-1.2,0.6,29.49341054090873,-16.46994996754613,38.351809015327035,6,S01
1980,0.1,-0.07,10.145759109311742,-4.2,-1.2,0.6,29.69403603703169,-16.22295081708004,37.36753523287078,6,S01
2000,0.1,-0.07,10.145759109311742,-4.2,-1.2,0.6,29.399987115585187,-16.677764187891377,37.70459572279574,6,S01
2020,0.1,-0.07,10.145759109311742,-4.2,-1.2,0.6,29.51716279971911,-15.763480099719352,37.243238277251095,6,S01
2040,0.1,-0.07,10.145759109311742,-4.2,-1.2,0.6,29.60499496294488,-18.025080304719857,38.22353077295441,6,S01
2060,0.1,-0.07,10.145759109311742,-4.2,-1.2,0.6,28.59401991701744,-16.651144755483514,37.47049288798088,6,S01
2080,0.1,-0.07,10.145759109311742,-4.2,-1.2,0.6,29.872468267099556,-15.529512733250783,37.8170046017066,6,S01
2100,0.1,-0.07,10.145759109311742,-4.2,-1.2,0.6,29.886855458932754,-17.149613554113362,36.620275330473035,6,S01
2120,0.1,-0.07,10.145759109311742,-4.2,-1.2,0.6,29.662625370252734,-16.620711310494265,37.632941958350145,6,S01
2140,0.1,-0.07,10.145759109311742,-4.2,-1.2,0.6,29.641050228287902,-16.699464222415145,37.63639797286601,6,S01
2160,0.1,-0.07,10.145759109311742,-4.2,-1.2,0.6,30.241499729213118,-16.535359042173482,37.162364089448545,6,S01
2180,0.1,-0.07,10.145759109311742,-4.2,-1.2,0.6,29.31697241473257,-16.522880280601576,37.18401087196444,6,S01
2200,0.1,-0.07,10.145759109311742,-4.2,-1.2,0.6,29.2390258749101,-16.409016002275244,38.93194000815729,6,S01
2220,0.1,-0.07,10.145759109311742,-4.2,-1.2,0.6,29.654343256534176,-17.2180047520642,37.62294321513869,6,S01
2240,0.1,-0.07,10.145759109311742,-4.2,-1.2,0.6,29.2788686623652,-16.6707108949037,37.88998764507505,6,S01
2260,0.1,-0.07,10.145759109311742,-4.2,-1.2,0.6,29.266241187551362,-16.674565823914023,37.86564642939289,6,S01
2280,0.1,-0.07,10.145759109311742,-4.2,-1.2,0.6,29.432270184302325,-16.88967063353951,37.67850279422726,6,S01
2300,0.1,-0.07,10.145759109311742,-4.2,-1.2,0.6,29.144177211600457,-17.05962736416443,37.26731383948729,6,S01
2320,0.1,-0.07,10.145759109311742,-4.2,-1.2,0.6,28.816655511426962,-16.596969692594698,37.72409943883319,6,S01
2340,0.1,-0.07,10.145759109311742,-4.2,-1.2,0.6,29.77473626844407,-17.282939002299685,37.250088416142674,6,S01
2360,0.1,-0.07,10.145759109311742,-4.2,-1.2,0.6,29.310629380347184,-16.991427515438282,38.511750707929345,6,S01
2380,0.1,-0.07,10.145759109311742,-4.2,-1.2,0.6,29.310001285521626,-16.492311455384137,37.62744205450579,6,S01
2400,0.1,-0.07,10.145759109311742,-4.2,-1.2,0.6,28.979741880212735,-16.628842992561335,37.27617025856444,6,S01
2420,0.1,-0.07,10.145759109311742,-4.2,-1.2,0.6,29.220692447070103,-16.555435462275085,37.359188597631714,6,S01
2440,0.1,-0.07,10.145759109311742,-4.2,-1.2,0.6,29.152395195979285,-15.94656993912788,37.82256229404419,6,S01
2460,0.1,-0.07,10.145759109311742,-4.2,-1.2,0.6,29.925327274530854,-16.62642743929416,37.81464893163581,6,S01
2480,0.1,-0.07,10.145759109311742,-4.2,-1.2,0.6,29.430942572065184,-16.84910693592338,37.62029741808769,6,S01
2500,0.1,-0.07,10.145759109311742,-4.2,-1.2,0.6,29.0589969613206,-16.7314212646604,38.58271630368233,6,S01
2520,0.1,-0.07,10.145759109311742,-4.2,-1.2,0.6,30.091750394812657,-16.303776560797253,37.600084129174164,6,S01
2540,0.1,-0.07,10.145759109311742,-4.2,-1.2,0.6,29.538096551090394,-16.95413257036564,36.555621748033325,6,S01
2560,0.1,-0.07,10.145759109311742,-4.2,-1.2,0.6,29.62185148301593,-16.349018285961613,37.28146299508018,6,S01
2580,0.1,-0.07,10.145759109311742,-4.2,-1.2,0.6,30.0728330569454,-16.45757644601082,37.13368393049998,6,S01
2600,0.1,-0.07,10.145759109311742,-4.2,-1.2,0.6,29.331114982916063,-17.01841101106413,37.63103825289599,6,S01
2620,0.1,-0.07,10.145759109311742,-4.2,-1.2,0.6,29.36907334420874,-16.950923416456607,37.573087129612276,6,S01
2640,0.1,-0.07,10.145759109311742,-4.2,-1.2,0.6,29.496785045026595,-16.315412434282717,37.757640829012985,6,S01
2660,0.1,-0.07,10.145759109311742,-4.2,-1.2,0.6,29.050680114354098,-15.089485509471558,37.39177182609424,6,S01
2680,0.1,-0.07,10.145759109311742,-4.2,-1.2,0.6,29.688852228970024,-16.33997042456895,38.00253526860138,6,S01
2700,0.1,-0.07,10.145759109311742,-4.2,-1.2,0.6,28.49671152882123,-16.50004836097881,37.330569449852504,6,S01
2720,0.1,-0.07,10.145759109311742,-4.2,-1.2,0.6,28.776851142298412,-16.882874812888446,37.04475354942547,6,S01
2740,0.1,-0.07,10.145759109311742,-4.2,-1.2,0.6,28.891951040586065,-15.5074818123808,37.54923973436731,6,S01
2760,0.1,-0.07,10.145759109311742,-4.2,-1.2,0.6,29.472523089812988,-15.387154317351877,37.17713550127697,6,S01
2780,0.1,-0.07,10.145759109311742,-4.2,-1.2,0.6,29.279719724629416,-16.17403107044259,37.74849843105287,6,S01
2800,0.1,-0.07,10.145759109311742,-4.2,-1.2,0.6,29.580319094495998,-16.368697420715392,37.29835158490473,6,S01
2820,0.1,-0.07,10.145759109311742,-4.2,-1.2,0.6,29.450540354286645,-16.947829518937603,37.079355500401654,6,S01
2840,0.1,-0.07,10.145759109311742,-4.2,-1.2,0.6,28.787831924086365,-16.61084218399736,38.12701918980459,6,S01
2860,0.1,-0.07,10.145759109311742,-4.2,-1.2,0.6,28.95822879619081,-16.4179355846566,37.46995000691316,6,S01
2880,0.1,-0.07,10.145759109311742,-4.2,-1.2,0.6,28.98902101662672,-16.443138755388723,37.17570772698642,6,S01
2900,0.1,-0.07,10.145759109311742,-4.2,-1.2,0.6,29.399234295289318,-16.554246088296892,37.44707707233416,6,S01
2920,0.1,-0.07,10.145759109311742,-4.2,-1.2,0.6,29.65676943731445,-16.319219015300597,36.534892542328556,6,S01
2940,0.1,-0.07,10.145759109311742,-4.2,-1.2,0.6,29.575940643721292,-16.70497658380438,38.025774261822114,6,S01
2960,0.1,-0.07,10.145759109311742,-4.2,-1.2,0.6,29.899164720811868,-16.63466771701228,37.07213805127825,6,S01
2980,0.1,-0.07,10.145759109311742,-4.2,-1.2,0.6,29.676489130288775,-16.627501329648553,37.982209377486996,6,S01
3000,2.112072434607646,3.8982539682539685,8.62754048582996,145.8,78.8,0.6,29.051126601835524,-16.973837398532694,37.90031455429591,6,S01
3020,2.0139425040255814,3.7426565045727114,8.7159546554895,137.06468003763732,74.89835396005712,0.6,29.296476058479104,-16.415210072982582,37.18388055583804,6,S01
3040,1.9205984266317093,3.5931601047088724,8.799219984741159,128.83806550757365,71.18699344287676,0.6,29.154255195970034,-16.735825875823124,37.30289308470279,6,S01
3060,1.8318067936117863,3.449525542528403,8.877636318707584,121.0905317116908,67.65663811400462,0.6,29.275302990979448,-17.48620053026239,37.68065671630051,6,S01
3080,1.7473455796337662,3.3115229720881403,8.95148604089086,113.79417915998302,64.29846024623855,0.6,28.6221101326732,-17.244333836669767,38.16293338808631,6,S01
3100,1.6670035876688227,3.1789315598332615,9.02103509005812,106.92273310225768,61.10406264571239,0.6,28.914752823880807,-16.461344827345933,37.98634321247695,6,S01
3120,1.5905799208887685,3.051539131216482,9.086533917908353,100.45144891065465,58.065457654537425,0.6,29.02097955360216,-16.674113357302495,38.02288714458984,6,S01
3140,1.517883480319343,2.929141831173514,9.148218390969044,94.3570229722585,55.17504717749707,0.6,29.388183308727626,-16.677893596942443,37.81083996528649,6,S01
3160,1.448732486993238,2.811543797911472,9.206310639970434,88.61750877092112,52.42560368285115,0.6,28.397264064430086,-16.84776383098054,38.40897486547316,6,S01
3180,1.3829540274079948,2.6985568494882184,9.261019859756088,83.21223785609844,49.81025212974186,0.6,28.77286376437023,-16.907500681950424,37.27682238513786,6,S01
3200,1.32038362115218,2.5900001826811088,9.312543062610285,78.12174541410397,47.32245277701067,0.6,28.96511756100754,-16.808676652032496,37.7094018102895,6,S01
3220,1.2608648096186854,2.48570008366326,9.361065787715033,73.32770017375488,44.95598483043893,0.6,29.26761037751511,-16.516266335373714,38.008971992675065,6,S01
3240,1.2042487647767133,2.3854896500243687,9.406762769291541,68.81283839399575,42.70493088752212,0.6,29.961761372483462,-16.12915218133745,37.268725501858995,6,S01
3260,1.1503939170241773,2.2892085236912476,9.449798565832152,64.56090169578353,40.56366214088128,0.6,28.67300513233526,-16.872413932770264,37.91658388797332,6,S01
3280,1.0991656011899589,2.196702634320694,9.490328152688644,60.55657851436196,38.52682430331276,0.6,29.28279562908433,-16.977764152105888,37.98539896731953,6,S01
3300,1.0504357198008345,2.1078239527540736,9.528497480150913,56.78544896108986,36.589324219281174,0.6,30.075580650196972,-17.05808064223509,37.95371194998504,6,S01
3320,1.0040824227710696,2.0224302541390817,9.56444399902564,53.23393289626681,34.74631712937772,0.6,28.481615084523774,-16.922962790673246,37.50531100743103,6,S01
3340,0.9599898027137358,1.9403848903396408,9.598297155607675,49.889241025961745,32.993194555898135,0.6,29.307506177323415,-16.272606170034653,38.23402567390259,6,S01
3360,0.9180476051118694,1.8615565712697288,9.63017885782651,46.73932884674086,31.32557277924793,0.6,29.54389525043525,-16.190230231016244,37.570830333065054,6,S01
3380,0.878150952624751,1.785819154801227,9.660203914246502,43.77285327244559,29.7392818763601,0.6,29.323861085816894,-16.89773155476317,37.89044435326727,6,S01
3400,0.8402000828399242,1.7130514449096093,9.688480447501718,40.979131786830315,28.230355293715387,0.6,29.536936871936074,-15.93028277622698,37.80121735438501,6,S01
3420,0.8041000988152018,1.6431369977344432,9.715110283654194,38.348103974965554,26.795019928892426,0.6,28.426455092071684,-16.074321240059874,38.07477498875641,6,S01
3440,0.7697607317868803,1.5759639352443704,9.740189318877759,35.87029529487755,25.429686695846364,0.6,29.76918870773658,-16.05783086091745,37.25468670658814,6,S01
3460,0.7370961154508114,1.5114247662083893,9.763807864787818,33.53678295896347,24.130941550324263,0.6,29.281296693884286,-16.57717386102216,38.51571691872888,6,S01
3480,0.7060245712519158,1.4494162141869527,9.786050973660748,31.339163802318264,22.895536952976173,0.6,29.166390807887833,-16.185872827307087,37.21931122544539,6,S01
3500,0.6764684041452517,1.3898390522676283,9.806998744713923,29.269524022264473,21.72038374881521,0.6,29.463544307526078,-16.03512362549027,37.631642816736985,6,S01
3520,0.6483537083179327,1.3325979442808735,9.826726612549447,27.32041068011471,20.602543442721007,0.6,29.496674264750826,-16.316149383871643,36.44868484885431,6,S01
3540,0.6216101823860996,1.2776012922418218,9.845305618800179,25.484804862542198,19.53922085167132,0.6,28.88571948985134,-16.26641974264872,37.76930701312096,6,S01
3560,0.5961709536048421,1.224761089773966,9.86280266795636,23.756096405911496,18.52775711532852,0.6,29.525921481234228,-16.838371651271842,37.12236115379298,6,S01
3580,0.5719724106515044,1.1739927812801798,9.879280768294032,22.12806009254953,17.565623047503813,0.6,29.592300969409802,-16.094995709415123,36.932280739215784,6,S01
3600,0.5489540445642451,1.1252151266357227,9.894799258772895,20.59483323323798,16.650412811874386,0.6,28.72104245873063,-15.690810080538169,38.143549985832976,6,S01
3620,0.5270582974381148,1.0783500711867087,9.909414022720652,19.150894555199596,15.779837906139445,0.6,29.464631433820692,-17.316554341334502,37.73107364275254,6,S01
3640,0.5062304185003127,1.0333226208460085,9.923177689073356,17.791044319552523,14.951721439572431,0.6,30.005481943843602,-16.286096145379172,38.03643172138181,6,S01
3660,0.48641832720473666,0.9900607220867077,9.936139821896418,16.510385596633924,14.163992689660331,0.6,29.73235953551161,-16.589792406644033,37.73479367320936,6,S01
3680,0.4675724830034903,0.9484951466410947,9.948347098868787,15.304306631763886,13.414681924218774,0.6,28.549581428317374,-16.320756794396228,38.16643747602115,6,S01
3700,0.4496457614697086,0.9085593807206607,9.959843479373003,14.168464237947287,12.701915476035612,0.6,29.319547639301412,-15.551299774578245,37.79085288085997,6,S01
3720,0.43259333646194476,0.8701895185798483,9.970670362796463,13.09876815570938,12.023911057726924,0.6,29.398716115421564,-17.066818806492023,36.80174687972436,6,S01
3740,0.41637256803546807,0.8333241602532251,9.980866737613932,12.091366323743696,11.37897330509021,0.6,28.60919214970231,-16.494060995186988,37.74140902465454,6,S01
3760,0.40094289582019127,0.7979043133024395,9.990469321788153,11.142631007330621,10.765489537810806,0.6,30.184054270577896,-16.532582661533386,37.4046153893275,6,S01
3780,0.38626573759861893,0.763873298415733,9.99951269499419,10.249145734573954,10.181925726921088,0.6,28.47558748471585,-17.02738612773069,38.01474578018611,6,S01
3800,0.09584046318083983,7.07811032057194,7.296718442371377,-4.2,-1.2,0.6,29.157680153167043,-16.221690523886565,38.094704017135896,6,S01
3820,0.4373202499781973,6.825816634839827,7.260394628632219,-4.2,-1.2,0.6,29.497334658171503,-16.47465641295657,37.71936320607951,6,S01
3840,0.14661770727951984,6.721223107233491,7.097367083024663,-4.2,-1.2,0.6,29.000964439384745,-16.335433108390056,37.36889674053591,6,S01
3860,-0.14454368658886838,7.18168487577956,7.373575511844971,-4.2,-1.2,0.6,29.217977037210908,-15.84025999100966,37.49339784280896,6,S01
3880,0.4270986280733725,6.818191274613628,7.6721555295112935,-4.2,-1.2,0.6,29.26435869512936,-16.14653678173578,37.79147378318183,6,S01
3900,-0.01858136552562399,6.709786376268409,7.220454128375056,-4.2,-1.2,0.6,29.016586414629042,-15.446460171729136,37.199651886153724,6,S01
3920,-0.15004982075968523,6.820770724659781,7.608854842502674,-4.2,-1.2,0.6,28.56027050886154,-16.488637930292636,37.62277271821278,6,S01
3940,0.07921887024288976,6.819923302953421,7.314468534855322,-4.2,-1.2,0.6,28.80135395995194,-15.981118334026794,37.81953244648722,6,S01
3960,-0.07552010016879099,6.988604406171122,7.196470196331418,-4.2,-1.2,0.6,28.670092913246137,-16.476291950167962,37.53678623952187,6,S01
3980,0.46278876837505056,6.929288745869421,7.1014606031941385,-4.2,-1.2,0.6,29.65198517007588,-16.019242745752308,38.39238719214494,6,S01
4000,0.3304474676214295,6.713813067842177,7.238446615448964,-4.2,-1.2,0.6,28.589030015723267,-16.50353699019661,38.22938979972567,6,S01
4020,0.17057862907776622,6.693314506489551,7.291764512670661,-4.2,-1.2,0.6,28.906460212063024,-15.601436422019034,38.271358594153945,6,S01
4040,-0.0990945772038706,6.545339483924874,7.238969770192642,-4.2,-1.2,0.6,28.587192855056927,-16.810813555111174,37.697762229776245,6,S01
4060,-0.04085890564564651,7.22258823253171,7.116078560957929,-4.2,-1.2,0.6,28.15482334451366,-16.50770003477381,37.686625308055284,6,S01
4080,-0.07633574754796135,6.664619000474777,7.53123110090846,-4.2,-1.2,0.6,29.449640899257872,-17.247532486227815,36.90248356232434,6,S01
4100,0.06422979828762024,6.565435622360569,7.2966453807113805,-4.2,-1.2,0.6,28.359595216235206,-16.465009031197333,37.95026648151338,6,S01
4120,0.15504017996071745,6.49660824818929,7.637222600527035,-4.2,-1.2,0.6,28.927749605313558,-17.354960142154027,38.198281861663354,6,S01
4140,0.4696357878132027,6.71928528370408,7.414279974597417,-4.2,-1.2,0.6,28.531647120371932,-16.876596873401386,38.62711319515961,6,S01
4160,0.00860800450760596,6.858250921169467,6.63717842747092,-4.2,-1.2,0.6,29.16802002009151,-16.647983832415512,37.434398557010404,6,S01
4180,0.22493936528332287,6.657951539477078,7.1684822420314385,-4.2,-1.2,0.6,29.422786065024045,-16.56095543990477,37.681828237509784,6,S01
4200,0.29554725502704243,6.651017667373818,7.1092289321124875,-4.2,-1.2,0.6,30.163089817525155,-17.036586665964585,37.973527498547305,6,S01
4220,0.13004985084325146,6.331086753620186,7.048717363807408,-4.2,-1.2,0.6,29.04045323865526,-16.334758539615468,37.26922664500211,6,S01
4240,0.4377206032891855,6.630434894293995,7.276742516106353,-4.2,-1.2,0.6,29.19926214630263,-16.975452717031718,37.92067529867276,6,S01
4260,0.2767424900697847,6.534044186368583,7.0748807629662505,-4.2,-1.2,0.6,30.271543288079307,-15.995778569487246,37.52301752168043,6,S01
4280,-0.2898025782452317,6.979233917177832,6.774010256131447,-4.2,-1.2,0.6,28.872795832658905,-16.659876451635796,37.583400102956006,6,S01
4300,0.46991966525909634,6.857806073850101,7.080310092534275,-4.2,-1.2,0.6,29.08165745845486,-16.29386529964402,38.187756157206074,6,S01
4320,0.05652750938413647,6.538409560814882,7.068715553145183,-4.2,-1.2,0.6,29.155702716741448,-16.582595745343895,38.41442704434254,6,S01
4340,-0.043693150123413155,6.428554437756424,7.072749137317723,-4.2,-1.2,0.6,28.671974926043976,-17.161185153805928,37.76832884975632,6,S01
4360,0.3868538397360919,6.876687381559632,7.249249463457528,-4.2,-1.2,0.6,28.444750286945908,-15.813462451565321,39.03552778511669,6,S01
4380,0.34022923115976883,6.409979945700442,6.980553986843127,-4.2,-1.2,0.6,29.35483860080262,-17.16558417464095,37.14087433799841,6,S01
4400,0.24311574115886664,6.604770723212553,6.893782267411734,-4.2,-1.2,0.6,28.09555059318058,-16.615616749424525,37.96227331767312,6,S01
4420,0.326881476384724,6.9600438530396715,7.469679656132276,-4.2,-1.2,0.6,27.967074035762572,-15.849763639163198,38.6828514513672,6,S01
4440,0.03985458166137351,6.562015934275813,7.30661807002429,-4.2,-1.2,0.6,28.85816823631032,-16.537361991244623,37.17711957997139,6,S01
4460,0.24329065773747224,6.89213982845617,6.973357919107677,-4.2,-1.2,0.6,28.678333112262955,-15.24896140950196,37.551529944881636,6,S01
4480,0.425793787043117,7.088959554849175,6.904473236804603,-4.2,-1.2,0.6,29.32110987659887,-16.75661022651167,37.6306539670531,6,S01
4500,-0.012833054222920762,6.811454201793522,7.370117302998388,-4.2,-1.2,0.6,28.80332408946336,-16.588572219221174,37.85572710783352,6,S01
4520,-0.20965317425483107,6.79229629658874,7.0950961292664365,-4.2,-1.2,0.6,29.87996510075196,-15.933267401179346,37.2979292523975,6,S01
4540,0.04209596675744206,6.583122860536186,7.213621361309884,-4.2,-1.2,0.6,29.52638828626977,-16.8499623803703,37.315210452250014,6,S01
4560,0.39766162152072226,6.406979409569761,7.385873407127936,-4.2,-1.2,0.6,29.835696064613167,-16.028251582786858,36.59570712254592,6,S01
4580,0.10968443862719685,6.448831717987039,6.659220458784535,-4.2,-1.2,0.6,29.113068333579033,-15.67631389909523,37.71721940905379,6,S01
4600,0.14079556134241356,6.8425291494806935,7.546610084421381,-4.2,-1.2,0.6,29.344484001406126,-16.354912262731737,37.93513939704717,6,S01
4620,0.08223474650167258,6.493079282268924,7.32709590361427,-4.2,-1.2,0.6,28.876663851319268,-15.874427040958814,38.28292213884079,6,S01
4640,0.28797550384054976,6.619952692165214,7.152154884033129,-4.2,-1.2,0.6,28.564096050109537,-16.32174037246804,37.76764280306137,6,S01
4660,0.1478701990129558,6.621688742008383,7.176986826061764,-4.2,-1.2,0.6,28.79743035306957,-16.71864833297768,37.90838648990393,6,S01
4680,0.031403663564784565,6.763205230922625,7.345331987034793,-4.2,-1.2,0.6,29.157066590541795,-16.1330882602074,37.57554685019077,6,S01
4700,-0.06846648217045664,6.9792892313624995,7.049477339202111,-4.2,-1.2,0.6,29.1986801947278,-16.297771561099996,37.74490171885211,6,S01
4720,0.2996353069447474,6.558348895927269,6.935492076716089,-4.2,-1.2,0.6,29.61334803051434,-16.61468171737652,37.775564376743006,6,S01
4740,-0.1309600466936543,6.944917865789325,7.236941477035249,-4.2,-1.2,0.6,29.040472919930153,-16.751047549442735,37.82681551896984,6,S01
4760,0.12128727781998949,6.8177095656706195,7.013803597596743,-4.2,-1.2,0.6,28.533216730678834,-16.766295724601434,37.167896705270465,6,S01
4780,0.15532987486283117,6.79804740438783,7.014652142196186,-4.2,-1.2,0.6,29.788743288362856,-17.268796588573764,37.00198760992212,6,S01
4800,0.07457398678040253,6.754067057718439,7.164321142712566,-4.2,-1.2,0.6,28.316168174310477,-16.604631114212218,38.07234505864579,6,S01
4820,0.08819054257336949,6.736373385373981,7.162714225516661,-4.2,-1.2,0.6,30.21204504598893,-18.02920093683749,38.40655707249127,6,S01
4840,0.10645314553057558,6.7600073060933035,7.163939005453926,-4.2,-1.2,0.6,29.59899969971814,-15.406781593585986,37.769844131523456,6,S01
4860,0.08894043939940775,6.730593748257096,7.182948639445806,-4.2,-1.2,0.6,29.287869145880514,-16.551486718788503,38.341681484693275,6,S01
4880,0.11942196197457722,6.753275154677708,7.194178937679607,-4.2,-1.2,0.6,28.513529310049144,-16.564044609816982,37.550377870958584,6,S01
4900,0.08543228499656236,6.713858482873933,7.132693474289468,-4.2,-1.2,0.6,29.100912073564416,-16.286804859628454,38.01090564740531,6,S01
4920,0.08891368894430571,6.733331425332737,7.164648685062987,-4.2,-1.2,0.6,28.878999690229797,-15.70802509927491,37.99737217839829,6,S01
4940,0.07297621405296935,6.73228092425106,7.1854147828121935,-4.2,-1.2,0.6,29.227226085235475,-16.758392798101763,36.29800893967284,6,S01
4960,0.12584464674548285,6.712791808151015,7.181996377942048,-4.2,-1.2,0.6,29.631498423171294,-16.48515721956916,37.237313487905524,6,S01
4980,0.08552770981059915,6.717863457115371,7.160948071746032,-4.2,-1.2,0.6,29.367628979950545,-16.0421520991257,37.5198574123456,6,S01
5000,0.11048411646774615,6.693122032265628,7.194394683310763,-4.2,-1.2,0.6,28.69070565568666,-16.738052102529963,36.765079715269735,6,S01
5020,0.11138720562249968,6.755673015665031,7.152136318896254,-4.2,-1.2,0.6,29.16673515937078,-14.905452005712647,38.6259323242683,6,S01
5040,0.10732418821450575,6.754093659401965,7.15671695828691,-4.2,-1.2,0.6,28.943550823246785,-16.811066190012106,38.206127312273864,6,S01
5060,0.11781411631858088,6.743915253111672,7.180235197046301,-4.2,-1.2,0.6,29.113726081641747,-16.6522044670106,37.72267254725077,6,S01
5080,0.07903571918668191,6.739468183715363,7.161040591417432,-4.2,-1.2,0.6,27.784149287968532,-15.738165592110674,37.001090170274246,6,S01
5100,0.11814185609401676,6.706046651097196,7.144248499627097,-4.2,-1.2,0.6,29.55090103219827,-16.26922603499998,38.006087108152585,6,S01
5120,0.11396553150423772,6.771258066360464,7.164102165039989,-4.2,-1.2,0.6,30.115476301281976,-16.716769797707265,38.420291834241844,6,S01
5140,0.11889074400146513,6.7418948087193975,7.172467423167763,-4.2,-1.2,0.6,29.250618567775323,-17.49096145345814,37.97949690289795,6,S01
5160,0.11302107806926504,6.713154014937251,7.1672409842799585,-4.2,-1.2,0.6,28.13765962508717,-16.368290759567337,36.94366520911456,6,S01
5180,0.10164735329974525,6.749071075866315,7.1378041126590155,-4.2,-1.2,0.6,27.947302056402812,-16.92187165367939,37.87762628331391,6,S01
5200,0.08303805359814427,6.7519618104347545,7.20089451929125,-4.2,-1.2,0.6,29.61948491328634,-15.962661716338317,37.54846374598948,6,S01
5220,0.05616874864838398,6.723099900505993,7.155149795574155,-4.2,-1.2,0.6,29.625026960641588,-16.028690407210803,36.7750642319706,6,S01
5240,0.14883252976825068,6.7681293348787515,7.15984945064713,-4.2,-1.2,0.6,28.47217539898655,-16.494120529880533,38.69248882234641,6,S01
5260,0.08548141646274843,6.740405443745848,7.155801491507184,-4.2,-1.2,0.6,30.188292834347624,-15.71956048075321,37.80991694669044,6,S01
5280,0.11186462918841245,6.762816961954154,7.156710883990699,-4.2,-1.2,0.6,30.331510135909078,-17.414812669503966,37.98004288136895,6,S01
5300,0.10134953036066723,6.707604205398399,7.193098621645249,-4.2,-1.2,0.6,29.033516066774705,-16.63916124987943,37.354189850260575,6,S01
5320,0.0997488718353207,6.704041739014284,7.139781549560963,-4.2,-1.2,0.6,28.792478726624132,-16.200699545861546,37.5485348314551,6,S01
5340,0.09310556805848917,6.706949599404551,7.130594866050871,-4.2,-1.2,0.6,28.740754859026325,-16.68902866081615,38.03834218374837,6,S01
5360,0.09600507814798438,6.764890743602657,7.160120895548253,-4.2,-1.2,0.6,29.361902973629324,-16.10573833135414,37.77292786824475,6,S01
5380,0.0870979995767075,6.772454638605781,7.168291002590726,-4.2,-1.2,0.6,29.580048949925644,-17.671625442362693,36.36294894627447,6,S01
5400,0.08933895237326608,6.706836711177227,7.187991546549155,-4.2,-1.2,0.6,29.010979905157953,-16.190279186377047,37.763933628148536,6,S01
5420,0.08733846503578728,6.731733441331661,7.119890080496357,-4.2,-1.2,0.6,29.197657203464594,-15.736504418005467,37.89465850097144,6,S01
5440,0.09438855041602294,6.751694392285104,7.135576728546661,-4.2,-1.2,0.6,29.04142697908158,-16.609846189363747,37.80648424371385,6,S01
5460,0.06203671302935579,6.719226933053633,7.18559196053494,-4.2,-1.2,0.6,28.287930299749032,-16.154811867665888,37.88630149457515,6,S01
5480,0.12943825175952234,6.72263880024193,7.183663731984797,-4.2,-1.2,0.6,28.94642844180205,-15.780109964289084,37.557036203631625,6,S01
5500,0.1016296342090525,6.7553418201446105,7.14552773523314,-4.2,-1.2,0.6,29.365635049438676,-16.462025667305262,37.17157827908007,6,S01
5520,0.0878663093072776,6.739535517855644,7.1567902699429045,-4.2,-1.2,0.6,29.875195175201107,-15.007342197541202,36.97639794546103,6,S01
5540,0.08080751050458422,6.732483275921562,7.17597919636112,-4.2,-1.2,0.6,29.460346453041527,-16.597670849052122,38.17797380340144,6,S01
5560,0.11198890405674548,6.7259257266898995,7.1470853025214085,-4.2,-1.2,0.6,28.71324808098834,-16.145441162310107,37.86219281559652,6,S01
5580,0.09173255414771117,6.760160448172474,7.177853611008348,-4.2,-1.2,0.6,29.04262293709726,-16.55145557852895,38.02798081887455,6,S01
5600,0.09969246452218143,6.721577339279221,7.156207579936862,-4.2,-1.2,0.6,28.986121303073144,-16.537519689678216,36.88642136471028,6,S01
5620,0.1139828493430942,6.745108821531061,7.147114297088984,-4.2,-1.2,0.6,29.25286537161569,-16.008378752935343,37.95707673084514,6,S01
5640,0.0786793100188813,6.73348737316742,7.174058667131844,-4.2,-1.2,0.6,28.850176092935893,-16.018717362074828,37.18866177559898,6,S01
5660,0.07758842052621404,6.753841408412357,7.174006173230663,-4.2,-1.2,0.6,29.5780758947972,-16.60775913964801,37.66456401522273,6,S01
5680,0.11200768692965639,6.705991951295306,7.164683915134957,-4.2,-1.2,0.6,29.46999729791682,-15.799220098818525,37.6695479501723,6,S01
5700,0.12333483880456757,6.747287324189129,7.165862795465082,-4.2,-1.2,0.6,28.912233372557615,-16.082612265130308,37.38853569265281,6,S01
5720,0.07833184226322934,6.740130680019543,7.176383408632068,-4.2,-1.2,0.6,29.467213254536922,-16.840851675577106,37.29456699924884,6,S01
5740,0.0950561155497461,6.738644422740202,7.1687539755828205,-4.2,-1.2,0.6,29.036363094282994,-16.80100799820889,37.241310096142044,6,S01
5760,0.08175307271475386,6.7466904849583536,7.1565234570230905,-4.2,-1.2,0.6,29.656568698399468,-16.628163750150243,37.82502883918018,6,S01
5780,0.10129539157589694,6.749145185367083,7.182851043454474,-4.2,-1.2,0.6,29.547435022155444,-16.569486196887006,37.98956231570302,6,S01
5800,0.11368546181620733,6.7728047034895615,7.201297758630568,-4.2,-1.2,0.6,29.782898384459834,-17.03289098393012,37.75959609407467,6,S01
5820,0.09677750235415028,6.757947510299179,7.17100367589703,-4.2,-1.2,0.6,29.514734025812995,-16.827804845593054,37.76910421562651,6,S01
5840,0.12358847519286274,6.751257252217433,7.199021482267467,-4.2,-1.2,0.6,28.389757877863257,-16.424732292934834,37.822240651557536,6,S01
5860,0.10242721527115697,6.7666643163843965,7.126252983379261,-4.2,-1.2,0.6,29.2951555941504,-16.081362385929896,37.6772797363628,6,S01
5880,0.10349660549198927,6.742968303500638,7.1590735236206635,-4.2,-1.2,0.6,29.158642933509267,-16.96867247215478,37.460756386137994,6,S01
5900,0.07941671736880011,6.732128574298763,7.151077752112889,-4.2,-1.2,0.6,29.007580075161297,-16.30315862738048,37.77140858056096,6,S01
5920,0.09399843593922487,6.75757699044826,7.149575869529007,-4.2,-1.2,0.6,29.11457085460562,-15.772272601015503,38.51814410258583,6,S01
5940,0.11692898113907364,6.723483422960423,7.166956176084973,-4.2,-1.2,0.6,29.686791560250537,-15.992125871052238,37.85439504249156,6,S01
5960,0.09459811043431575,6.755031296295497,7.183795850016802,-4.2,-1.2,0.6,29.608376887568973,-15.718677717624367,36.9684515933041,6,S01
5980,0.09492614438507077,6.772965445618401,7.155023720240036,-4.2,-1.2,0.6,28.607006717544678,-16.53432951318124,37.873531229502404,6,S01
6000,0.13479683302207568,6.743834605880079,7.162492687919553,-4.2,-1.2,0.6,29.137244465057716,-15.98394636119815,37.480397667825216,6,S01
6020,0.09045961500471453,6.7273110466426,7.136691747124364,-4.2,-1.2,0.6,29.527420944719946,-15.983682583527921,37.787388665115635,6,S01
6040,0.0876201690236386,6.768336283525558,7.162056200324446,-4.2,-1.2,0.6,29.40832810052628,-16.694272766012315,37.2117706624686,6,S01
6060,0.09394507583972965,6.731608420087928,7.215169640362482,-4.2,-1.2,0.6,28.777493887214334,-15.226160713288248,37.35894655382169,6,S01
6080,0.0933638150598305,6.765850996891253,7.1679504714715785,-4.2,-1.2,0.6,29.73689531187618,-16.93724173619884,37.20161761838247,6,S01
6100,0.10812436861330686,6.732246857197759,7.167810310677207,-4.2,-1.2,0.6,28.223390029970524,-16.32837945252379,37.54207141484893,6,S01
6120,0.06451227585904035,6.744419898947534,7.179950303498246,-4.2,-1.2,0.6,29.04447445627723,-17.521378547885355,37.485574475822695,6,S01
6140,0.07990999608453782,6.727585577180633,7.150528646268579,-4.2,-1.2,0.6,28.971875733561202,-16.748780463337937,38.17165186805089,6,S01
6160,0.13355211208549062,6.75010659611121,7.169816122950847,-4.2,-1.2,0.6,29.431471946602716,-16.54334730221319,36.959312051855285,6,S01
6180,0.07307438500931764,6.768938854598988,7.198358690167228,-4.2,-1.2,0.6,28.88702023071743,-16.315826602595358,37.22962424614599,6,S01
6200,0.14038343445305768,6.743026749622401,7.166430763550985,-4.2,-1.2,0.6,29.26965255032269,-17.68958592416778,38.62188644756939,6,S01
6220,0.10334582013481533,6.726240106781246,7.174442178332993,-4.2,-1.2,0.6,28.730788963739805,-16.780399366202708,36.31415220817147,6,S01
6240,0.08195336987170924,6.735953601913861,7.1697012025066735,-4.2,-1.2,0.6,29.122488779580397,-16.93672415115781,37.19027632829621,6,S01
6260,0.12260946045797352,6.7227922649903356,7.136920386001251,-4.2,-1.2,0.6,29.771521748198996,-16.07441910895958,37.625157503548266,6,S01
6280,0.06909301829533526,6.712978128028443,7.189664386256317,-4.2,-1.2,0.6,28.771595312135887,-16.879075165257,37.960265067498675,6,S01
6300,0.09904132985345335,6.756586201743774,7.173994776332707,-4.2,-1.2,0.6,29.10481228084825,-15.476867249276058,36.53268327419067,6,S01
6320,0.15230299176289924,6.7427561134425655,7.186813360152518,-4.2,-1.2,0.6,29.760943567296707,-16.660701302092196,37.63365095697045,6,S01
6340,0.09883756435654237,6.743123712338224,7.168374128363024,-4.2,-1.2,0.6,30.08932470763237,-16.58612323550212,37.777683247656704,6,S01
6360,0.06480044220778106,6.759257004362038,7.159916966970719,-4.2,-1.2,0.6,29.134387014999795,-16.332311584491947,37.58657734875624,6,S01
6380,0.12064883462245608,6.707146849422482,7.169860332818978,-4.2,-1.2,0.6,29.777800050092818,-16.21503431522971,38.2122631353748,6,S01
6400,0.11880705355788974,6.739651590373088,7.189949095448443,-4.2,-1.2,0.6,29.38916729927186,-17.462336405230268,37.960397265010606,6,S01
6420,0.09085205458460499,6.759357862620944,7.162517179540811,-4.2,-1.2,0.6,28.615624866162875,-17.385223617981346,37.95820191973636,6,S01
6440,0.061213286732960864,6.720603121093304,7.164808147730789,-4.2,-1.2,0.6,30.189559136587043,-16.369647924098974,36.992039697943774,6,S01
6460,0.07876244901844262,6.718086537879602,7.145020287158907,-4.2,-1.2,0.6,29.59266356328263,-16.304454888145926,37.76309124151959,6,S01
6480,0.12445725313128947,6.742685364757415,7.194018178110956,-4.2,-1.2,0.6,28.635364237857807,-16.19802922344322,36.664877224076605,6,S01
6500,0.0436802393095228,6.769758828346393,7.172662438565175,-4.2,-1.2,0.6,29.81419831201799,-16.774080389255104,38.201325766305914,6,S01
6520,0.10056522196282312,6.721907712377679,7.174675919855367,-4.2,-1.2,0.6,30.439608046771234,-17.081265789745395,38.16334789125684,6,S01
6540,0.0996573187121909,6.767495319270703,7.170112880096295,-4.2,-1.2,0.6,30.05958849109833,-18.088378710214222,37.58421473365599,6,S01
6560,0.14838311826350525,6.736692600648848,7.163109468953198,-4.2,-1.2,0.6,29.398897730272637,-16.3134176859364,36.500703704956734,6,S01
6580,0.11532119898161972,6.74392527704142,7.147905953267501,-4.2,-1.2,0.6,29.526226062680472,-16.30466564140074,37.492763655260426,6,S01
6600,0.09326992921906001,6.711373949566144,7.1844202643902815,-4.2,-1.2,0.6,29.93335518057509,-17.214377199962648,37.80594602946148,6,S01
6620,0.1344596868574262,6.7197194995686536,7.132205176534912,-4.2,-1.2,0.6,29.4127494308092,-17.302665458358685,37.669763711641565,6,S01
6640,0.1169640656378214,6.75758706686226,7.126525391111051,-4.2,-1.2,0.6,28.90193398151721,-17.36076105089589,37.369884258175155,6,S01
6660,0.12062849328949218,6.7394996238466005,7.1784141248072295,-4.2,-1.2,0.6,29.35467799927862,-16.34365313376921,37.56135931914749,6,S01
6680,0.09110109870634182,6.759951692794895,7.166011943235916,-4.2,-1.2,0.6,29.279494278719447,-15.979834103035271,37.46167967013781,6,S01
6700,0.10535122292633213,6.730467415606885,7.182590381029682,-4.2,-1.2,0.6,29.07625031222342,-16.285970812869948,38.21724717686855,6,S01
6720,0.07702466805305029,6.749741750176044,7.1708652766351655,-4.2,-1.2,0.6,28.23735552279452,-17.093359853280155,37.91118054603381,6,S01
6740,0.14187128133145835,6.709879161676949,7.135595068510364,-4.2,-1.2,0.6,29.435606785755223,-16.652546835160074,36.81649603817153,6,S01
6760,0.09327886128487767,6.723770763238847,7.184139580361404,-4.2,-1.2,0.6,28.483104223487473,-16.563309349814872,37.4554594905571,6,S01
6780,0.07660114412026998,6.726601809730684,7.171803123923705,-4.2,-1.2,0.6,30.187377334652805,-16.646828376027962,37.4679632968688,6,S01
6800,0.07238792225730328,6.763363371644958,7.16490387319459,-4.2,-1.2,0.6,29.11278619690562,-16.272861372733416,38.30065204136802,6,S01
6820,0.07756440608938966,6.722011280349563,7.161812169047911,-4.2,-1.2,0.6,28.7556816590479,-16.566619200560304,37.452684411724746,6,S01
6840,0.07322460732238308,6.718209786971992,7.209306750151991,-4.2,-1.2,0.6,29.09514398444801,-16.644033069157214,37.49606911176195,6,S01
6860,0.06904546195422163,6.727300436767101,7.160413978847524,-4.2,-1.2,0.6,28.48421018164334,-15.95529069122447,37.769372751862534,6,S01
6880,0.16581817519708647,6.747988243888453,7.195467847825716,-4.2,-1.2,0.6,28.68960052223768,-16.857740622186068,37.14552838551919,6,S01
6900,0.05833951045658412,6.778251998974448,7.1409069826622025,-4.2,-1.2,0.6,29.166444727520858,-16.07590211515395,37.77807349822584,6,S01
6920,0.0836836438063035,6.7500862031050906,7.159282660922746,-4.2,-1.2,0.6,28.87446143172977,-16.00730971848023,37.85655393851954,6,S01
6940,0.08324796728173484,6.703983209137484,7.165848018694257,-4.2,-1.2,0.6,29.89865111849468,-16.18042122843599,36.45983771226679,6,S01
6960,0.10518608150396871,6.729425308890889,7.135420961881324,-4.2,-1.2,0.6,30.166413948695045,-16.765651310224513,37.02416201540907,6,S01
6980,0.08219811985947878,6.755937282863927,7.1736242518364906,-4.2,-1.2,0.6,28.78128092508771,-16.944144432491477,37.7239115470803,6,S01
7000,0.10312879461972894,6.779084228058957,7.175540296588168,-4.2,-1.2,0.6,29.43198383646259,-17.79041172025649,38.457752557858214,6,S01
7020,0.12756467812347852,6.724156364936107,7.157100499034156,-4.2,-1.2,0.6,28.735486521354087,-15.89217837501453,36.92500091089386,6,S01
7040,0.10604981097217604,6.75268309478034,7.169994034908392,-4.2,-1.2,0.6,28.385533970614695,-16.704709659438628,38.00475563570478,6,S01
7060,0.09819996940743757,6.709437964090808,7.157776319873697,-4.2,-1.2,0.6,28.738376990631927,-16.298778566814338,37.037204035415144,6,S01
7080,0.11808744552782598,6.72464995952346,7.152132625593733,-4.2,-1.2,0.6,28.742531637816708,-16.92268744769416,37.17488089894226,6,S01
7100,0.0928676359620948,6.715452457600761,7.164933905710949,-4.2,-1.2,0.6,29.074890998777416,-15.773077980714522,37.02835968659609,6,S01
7120,0.09311652551063807,6.7374083962266615,7.169506346999458,-4.2,-1.2,0.6,28.536355229948214,-16.193566014018113,38.263158004142404,6,S01
7140,0.09893200419929268,6.722133983082441,7.168571882440932,-4.2,-1.2,0.6,29.420248585016097,-16.072491491235887,37.45061067128456,6,S01
7160,0.08223311996361665,6.733689313430002,7.161831869778567,-4.2,-1.2,0.6,29.294221710720382,-16.969870884724095,37.830784072353126,6,S01
7180,0.12440751797481679,6.723683579517423,7.156893018803849,-4.2,-1.2,0.6,29.644401362229242,-16.678096566739107,37.108661905158115,6,S01
7200,0.09674895376676108,6.738297519398256,7.142141278848343,-4.2,-1.2,0.6,29.309489757464434,-16.635213909981474,37.12640645211286,6,S01
7220,0.08863655060587163,6.730503687108713,7.153354304282933,-4.2,-1.2,0.6,29.45676107745804,-16.357591684927343,38.00534660716698,6,S01
7240,0.09658831793367585,6.732834362171882,7.14084593965034,-4.2,-1.2,0.6,29.20429406870915,-16.08080313309701,37.3416008375259,6,S01
7260,0.08014895012975251,6.743413045663494,7.164331134026232,-4.2,-1.2,0.6,28.95367062032022,-16.64623081611604,37.856173773573516,6,S01
7280,0.1041016686870412,6.750011655000511,7.187688774395124,-4.2,-1.2,0.6,28.851711953062097,-16.38156429636409,37.45295128288031,6,S01
7300,0.08243327426828223,6.7373957258624975,7.212748788660212,-4.2,-1.2,0.6,28.758473157541626,-15.910801677584452,37.1172084176503,6,S01
7320,0.11622378000160842,6.724724439919943,7.158083949742646,-4.2,-1.2,0.6,29.0495305001429,-16.625252590464818,37.804678541709315,6,S01
7340,0.0968586610796754,6.723915610118601,7.127438241596936,-4.2,-1.2,0.6,29.01498299915802,-16.9630648641885,36.950183892599284,6,S01
7360,0.09962892575536417,6.726508472369404,7.169625886207098,-4.2,-1.2,0.6,28.27759422415191,-16.786209196632594,37.7097594409827,6,S01
7380,0.10091967306062613,6.781189867434251,7.174307862526637,-4.2,-1.2,0.6,29.309151548203346,-16.812723074809334,38.05101244529235,6,S01
7400,0.06462202675110142,6.751069083594629,7.193636717021564,-4.2,-1.2,0.6,29.269924199034325,-16.5564540587241,38.20320536912773,6,S01
7420,0.12259573287831085,6.6825632496971155,7.157537042395511,-4.2,-1.2,0.6,29.594786570530523,-16.433635032631855,38.18828333503284,6,S01
7440,0.08886757265273655,6.725631607270291,7.206903398555569,-4.2,-1.2,0.6,29.166679342210823,-17.218695608085234,37.616294457534735,6,S01
7460,0.09700691549953268,6.762362667074543,7.160783374232633,-4.2,-1.2,0.6,28.774652443292837,-15.420696987473766,37.824000440615485,6,S01
7480,0.11752417182152373,6.784412891255596,7.164246472656521,-4.2,-1.2,0.6,29.056599085207438,-16.80722529119926,36.80890682385286,6,S01
7500,0.11243537090462034,6.727258512421173,7.1821617585960125,-4.2,-1.2,0.6,29.227737149695113,-15.352576112160424,37.454125198603656,6,S01
7520,0.10768846026147483,6.761634802703885,7.186203274081457,-4.2,-1.2,0.6,28.685300843275307,-16.301464461968756,37.968641431866544,6,S01
7540,0.09339652024052002,6.771672292067333,7.165209868710994,-4.2,-1.2,0.6,29.231550681099687,-17.01404381904314,37.61870167706199,6,S01
7560,0.10864532488545008,6.73769852484854,7.14615506360457,-4.2,-1.2,0.6,28.99269194127434,-17.252322749304987,38.15043220580418,6,S01
7580,0.0885455604935789,6.792304415755145,7.16624302859082,-4.2,-1.2,0.6,29.283032294472836,-16.928118596215622,37.992635724164295,6,S01
7600,0.09760089757585202,6.759649386823948,7.177370380149966,-4.2,-1.2,0.6,28.41376077926813,-16.804803985394898,37.59369344467938,6,S01
7620,0.11129643905901768,6.7511219275306225,7.214172956826045,-4.2,-1.2,0.6,28.68860073552261,-17.493361132604228,38.187125589733036,6,S01
7640,0.10196637056972513,6.751988133211642,7.137246497240351,-4.2,-1.2,0.6,29.584133682569135,-16.333244317777954,38.19119270839529,6,S01
7660,0.06103475108452318,6.743331760484193,7.1308742468592365,-4.2,-1.2,0.6,28.918615395112173,-16.18277425735042,37.5306883012806,6,S01
7680,0.09171083522952982,6.7505988091028435,7.160387072085501,-4.2,-1.2,0.6,29.001892497876923,-16.235044383079973,37.264301136286804,6,S01
7700,0.09781858908357452,6.756692431227817,7.198350332514817,-4.2,-1.2,0.6,30.37420456240596,-16.38370475831954,38.28479860194767,6,S01
7720,0.12227368764513226,6.729995955768369,7.1792475772343725,-4.2,-1.2,0.6,29.02486551757758,-16.914021564288927,38.05279347737843,6,S01
7740,0.1209186238292304,6.733717552249066,7.1811591919685975,-4.2,-1.2,0.6,30.127645146858146,-15.938499188528887,38.014430622225774,6,S01
7760,0.12297226295250943,6.7347112025110825,7.135071136698217,-4.2,-1.2,0.6,29.225837546858443,-16.39814554897982,37.79077391298631,6,S01
7780,0.06261115220579222,6.734973012489046,7.15725213898833,-4.2,-1.2,0.6,29.818719499532953,-16.961294691307412,37.429932529116414,6,S01
7800,0.10929203778098046,6.7467422337292415,7.196212643394086,-4.2,-1.2,0.6,29.365326101129064,-16.130788114337772,37.46995366465598,6,S01
7820,0.10270038176125554,6.72799775985041,7.1730909681837005,-4.2,-1.2,0.6,29.463486211636862,-16.462798876964552,38.06590695780744,6,S01
7840,0.1427706564414834,6.756592247305775,7.1229458915203425,-4.2,-1.2,0.6,29.05216829117182,-16.61688304666967,37.867519531332086,6,S01
7860,0.10624284883591004,6.745235602937124,7.173014742446602,-4.2,-1.2,0.6,28.55773494189736,-16.32011551753346,37.629420486077095,6,S01
7880,0.12341856344615182,6.71943713650802,7.138946053906776,-4.2,-1.2,0.6,28.958127374680913,-16.736569259284064,37.326793255164716,6,S01
7900,0.1100516367752634,6.747056140680693,7.164720295402605,-4.2,-1.2,0.6,28.751307197274837,-16.108151797758353,38.491178267435494,6,S01
7920,0.08653225961691029,6.7349882495561255,7.166722868292319,-4.2,-1.2,0.6,29.025441839247804,-16.6465095727332,37.57598519575929,6,S01
7940,0.06519982994293841,6.735775373071907,7.162542753495966,-4.2,-1.2,0.6,29.398415219878615,-15.873581090436453,38.47941405368799,6,S01
7960,0.08322271191664807,6.760745138059464,7.183059739633808,-4.2,-1.2,0.6,28.867204489686156,-17.047110228772958,38.321717032420366,6,S01
7980,0.08175373256408333,6.740405802525002,7.160562869887245,-4.2,-1.2,0.6,29.137003011589776,-17.283829025972032,37.633747688495426,6,S01
8000,0.08627052134172511,6.7616324120725215,7.173680727800375,-4.2,-1.2,0.6,29.862354461145614,-16.634514266560274,37.008601970799354,6,S01
8020,0.12597408484342204,6.7295736494943466,7.194500002185281,-4.2,-1.2,0.6,28.356341550584204,-16.324791028709456,37.03845647339396,6,S01
8040,0.11117411695973684,6.736090776939884,7.1950151938919635,-4.2,-1.2,0.6,29.287505317968748,-16.64715749849974,38.05059420348192,6,S01
8060,0.10734951972350264,6.727774896413472,7.176137879913309,-4.2,-1.2,0.6,29.2177769498146,-17.008807635340837,37.87075885326564,6,S01
8080,0.10109028683684525,6.736907679994682,7.163429687468366,-4.2,-1.2,0.6,28.55235274685391,-17.523710849355147,37.95192758104279,6,S01
8100,0.10292489979159178,6.742327669186564,7.188498442781254,-4.2,-1.2,0.6,29.203294533327544,-16.67666870425856,37.87830602709087,6,S01
8120,0.08095462973757353,6.7562574142160425,7.136171417609757,-4.2,-1.2,0.6,30.212524799218954,-16.754524346838842,37.94202128795881,6,S01
8140,0.08444772377843907,6.77808820624249,7.203298930570226,-4.2,-1.2,0.6,29.881053792236145,-16.05880220699778,37.624983599512746,6,S01
8160,0.08905217558663754,6.752431878810217,7.1452350606158985,-4.2,-1.2,0.6,28.4362928381223,-16.06672017280912,38.041818027175474,6,S01
8180,0.10923379642125647,6.7476924674303485,7.162386418206103,-4.2,-1.2,0.6,29.12309934037017,-16.88592606692265,37.48674838553969,6,S01
8200,0.08873648281720471,6.7473758420895,7.131447035683294,-4.2,-1.2,0.6,29.741862292808786,-16.448122909499247,37.48783250093589,6,S01
8220,0.10993523114709057,6.754161277539178,7.162308996997004,-4.2,-1.2,0.6,29.45409116621282,-16.198753260191005,37.71754998234078,6,S01
8240,0.12594038297797835,6.719198274180861,7.190967464470363,-4.2,-1.2,0.6,29.533512638678896,-16.50532025158236,37.40587504631458,6,S01
8260,0.09921678519246623,6.762673175297637,7.170966421700511,-4.2,-1.2,0.6,29.47756435354259,-15.918586931203654,37.52437175115358,6,S01
8280,0.07971135991390992,6.737235208641689,7.151397572209703,-4.2,-1.2,0.6,29.476110202218102,-16.24457765049275,37.877188422754585,6,S01
8300,0.12290548167763518,6.775649810326766,7.164398845974368,-4.2,-1.2,0.6,28.830189111478585,-16.004890773215816,37.70425316729809,6,S01
8320,0.12929006285295366,6.731302405479441,7.176383787132694,-4.2,-1.2,0.6,28.79746352919285,-17.00523383581004,37.53868268690622,6,S01
8340,0.13341903340340436,6.764961900945297,7.139284852810248,-4.2,-1.2,0.6,28.87272945615769,-16.969307057175623,37.53230358167121,6,S01
8360,0.12224311971658718,6.758588688102532,7.131312475822489,-4.2,-1.2,0.6,28.88727069418045,-16.7451592771809,37.40723725373512,6,S01
8380,0.12845838873890966,6.746952591078349,7.219451921242686,-4.2,-1.2,0.6,28.78234577539338,-16.150284894738398,37.15972830251264,6,S01
8400,0.09839310468840673,6.7387298758178025,7.169206540699204,-4.2,-1.2,0.6,29.077200121829758,-16.400270327535786,37.87745447562864,6,S01
8420,0.07558706927216823,6.73704717631163,7.170415484030951,-4.2,-1.2,0.6,29.99816910322183,-16.347791326754667,37.7444340274632,6,S01
8440,0.10700253806015855,6.701405184469422,7.125850142401619,-4.2,-1.2,0.6,29.968729500254312,-15.433720521953523,37.158236616114436,6,S01
8460,0.09525965960366757,6.737684397350646,7.1725849987878165,-4.2,-1.2,0.6,28.79150528147609,-15.536666695204516,37.364733437950406,6,S01
8480,0.0885664106309915,6.738872418338328,7.179093743728582,-4.2,-1.2,0.6,29.287631040295235,-16.395540083025942,37.76874129258099,6,S01
8500,0.10180966719749117,6.749096028558998,7.1616992730465725,-4.2,-1.2,0.6,29.5717557350753,-17.11032132890311,37.28504848541263,6,S01
8520,0.0746585510263339,6.746932342530135,7.136864705868809,-4.2,-1.2,0.6,29.22871073271466,-15.763588604950058,37.62248553755438,6,S01
8540,0.07438861960466427,6.730473054024553,7.171207867286504,-4.2,-1.2,0.6,28.581329993672117,-16.239655984968977,37.92648435046191,6,S01
8560,0.09862720360762767,6.715689632998839,7.210516703522931,-4.2,-1.2,0.6,29.14067843375689,-15.841871471219424,38.15611958686787,6,S01
8580,0.07824925399594734,6.7340288011779945,7.186374163649662,-4.2,-1.2,0.6,29.501734161885537,-17.11744571381541,37.62621356178231,6,S01
8600,0.10301766692061769,6.7366231415548485,7.188316674769879,-4.2,-1.2,0.6,30.03130850734315,-16.304306473091863,37.28661257459117,6,S01
8620,0.09983925556773449,6.717471865235995,7.20825120578884,-4.2,-1.2,0.6,28.820677518936296,-15.709161608184266,37.773385148044724,6,S01
8640,0.10060518241184117,6.719296282382905,7.202525435653327,-4.2,-1.2,0.6,29.412290909507522,-16.28172344616373,37.12479278067165,6,S01
8660,0.08418880616081906,6.72816508970597,7.147501284541066,-4.2,-1.2,0.6,28.565777095375882,-16.671528076943396,38.08022755503074,6,S01
8680,0.12939014554129935,6.710915910578219,7.180088942643775,-4.2,-1.2,0.6,29.643283024846443,-17.444890916696693,38.45396572126453,6,S01
8700,0.13595109645978942,6.7429842693413224,7.157474051565488,-4.2,-1.2,0.6,29.82244927004174,-16.53944204894297,38.22229197163722,6,S01
8720,0.09954420996876548,6.7515714777930285,7.147831619646082,-4.2,-1.2,0.6,28.658847636527355,-16.994540691920573,38.07005809602937,6,S01
8740,0.10705780217322519,6.724771827827385,7.166655219908714,-4.2,-1.2,0.6,29.54361956037587,-17.236531371075273,37.89124451090004,6,S01
8760,0.08987811873816197,6.755160704100263,7.204416917968211,-4.2,-1.2,0.6,28.78688779408717,-17.743111909148997,37.77330085827049,6,S01
8780,0.07317504722962674,6.739420138296877,7.184204609000475,-4.2,-1.2,0.6,28.801698436522944,-16.630500243441265,37.608608000091834,6,S01
8800,0.09033451192365613,6.742206720139098,7.199489323315319,-4.2,-1.2,0.6,29.45933943221899,-15.440679235423007,36.97936089251709,6,S01
8820,0.07307899602613506,6.747137701551763,7.190527048913363,-4.2,-1.2,0.6,29.348246727994166,-16.074263867968583,37.00179272555947,6,S01
8840,0.10595100416170954,6.741416379400941,7.1893430266891665,-4.2,-1.2,0.6,28.51992077301783,-16.296008833076154,37.97857165589177,6,S01
8860,0.1041642529162775,6.753224317344746,7.2033744699081685,-4.2,-1.2,0.6,29.40410920501534,-16.655600779817085,37.37300107389445,6,S01
8880,0.08554880417450647,6.727024671466622,7.111942785749183,-4.2,-1.2,0.6,30.019821335835296,-17.11552406532237,37.0613657474464,6,S01
8900,0.08658224082974589,6.77867029456903,7.15045430741749,-4.2,-1.2,0.6,28.607188638923112,-17.290584942180338,37.864976495887824,6,S01
8920,0.10466174122567129,6.726840131070457,7.163766566649584,-4.2,-1.2,0.6,28.975080530186773,-15.85450799470836,37.680697333396495,6,S01
8940,0.1119519480551053,6.7516065199635245,7.140738424699695,-4.2,-1.2,0.6,29.200217393847332,-16.41508443808171,37.03449470109356,6,S01
8960,0.10689627341890062,6.762076831115055,7.1866963593425455,-4.2,-1.2,0.6,28.957633294872377,-15.880177404488736,37.8120818329401,6,S01
8980,0.09943864208092705,6.757372030895287,7.172660894011365,-4.2,-1.2,0.6,29.357059674148864,-17.179290287319773,37.72634769824714,6,S01
9000,0.08593022809032892,6.762367309762662,7.185767817649621,-4.2,-1.2,0.6,29.83730660268129,-16.76473065527174,37.334224169838116,6,S01
9020,0.1212027192299514,6.745890647516675,7.162268166327463,-4.2,-1.2,0.6,28.820222644368453,-16.014078977915972,37.67546940408542,6,S01
9040,0.09546970925882405,6.764628201449711,7.1497745749347414,-4.2,-1.2,0.6,29.2432947517812,-16.860218302270958,37.41603626336719,6,S01
9060,0.13122658568783818,6.714619597593515,7.162346602491567,-4.2,-1.2,0.6,29.84479058291734,-16.39744140219925,37.4554973787533,6,S01
9080,0.09979772448430718,6.727208716378923,7.147961635331271,-4.2,-1.2,0.6,29.56309451301699,-16.88213740665168,38.8192617666804,6,S01
9100,0.135844930535055,6.694609401897509,7.181066303879649,-4.2,-1.2,0.6,29.74462275943374,-15.999461172045143,37.77342117614172,6,S01
9120,0.08028563768095887,6.721417247150213,7.1858455046239635,-4.2,-1.2,0.6,28.97939099485919,-16.09340601532444,39.13217527019287,6,S01
9140,0.10333689065096004,6.7192835196509995,7.145792116530062,-4.2,-1.2,0.6,29.019381415023496,-16.53370655562891,38.4784603788003,6,S01
9160,0.12658019499652107,6.743514413948025,7.170868424977531,-4.2,-1.2,0.6,29.672634595081515,-16.262549239245644,37.869595324677675,6,S01
9180,0.09272124391303758,6.75178417569948,7.17064511562868,-4.2,-1.2,0.6,28.38776222997345,-15.864511231222084,38.71057020008172,6,S01
9200,0.10672027683554311,6.717146464160348,7.210023753804666,-4.2,-1.2,0.6,29.477693076148846,-17.27354445565622,37.029011730631325,6,S01
9220,0.06595320760479877,6.716641638522097,7.147552441329444,-4.2,-1.2,0.6,29.649598820448567,-16.58403668820639,38.14676352528494,6,S01
9240,0.12647765766575017,6.757342032407343,7.175438367678767,-4.2,-1.2,0.6,28.784117311118898,-16.46564338831415,37.499106545714724,6,S01
9260,0.06614354492886147,6.739737196896624,7.11678271537314,-4.2,-1.2,0.6,29.196645186909308,-16.528736095719175,36.78994950467199,6,S01
9280,0.06910578797342917,6.75783570279491,7.140121849831912,-4.2,-1.2,0.6,29.941591153209806,-17.169707996555424,37.739377133691335,6,S01
9300,0.08258675006823073,6.736552803030602,7.16717356114441,-4.2,-1.2,0.6,29.270084537041686,-17.522410214512895,37.10778646457932,6,S01
9320,0.04142911100911292,6.768608675099435,7.209315726751447,-4.2,-1.2,0.6,29.25745385458676,-16.555241310540318,37.68994406528648,6,S01
9340,0.08682350947714337,6.731769805072184,7.134252906531963,-4.2,-1.2,0.6,29.908940375697128,-17.41224697286254,37.19679793916504,6,S01
9360,0.10511934643841196,6.74023750553659,7.1795307180243695,-4.2,-1.2,0.6,29.65354088725364,-17.03202666863758,37.68541081422016,6,S01
9380,0.11046204193455561,6.732598251938925,7.155815578140183,-4.2,-1.2,0.6,29.266003968355157,-16.094055386334045,37.80466935627437,6,S01
9400,0.09936274709778413,6.767008357415621,7.170139408571146,-4.2,-1.2,0.6,28.940132896653306,-18.05660711320492,37.12331243929789,6,S01
9420,0.10616465273652856,6.727319484394558,7.19638299863245,-4.2,-1.2,0.6,29.552126115035495,-16.679388102754807,37.504651395049194,6,S01
9440,0.10126603227580938,6.725963073310397,7.192421589970399,-4.2,-1.2,0.6,28.225466909223673,-16.191598385065404,37.00617207854259,6,S01
9460,0.10308569179527484,6.731439318550157,7.117429873631284,-4.2,-1.2,0.6,29.437948421780963,-16.134174700850327,37.4001668091418,6,S01
9480,0.13535682620288736,6.731654117700757,7.132318440897921,-4.2,-1.2,0.6,28.88785320604101,-16.800875223290667,37.46084641116986,6,S01
9500,0.10435334483241047,6.743452793849803,7.16254475388132,-4.2,-1.2,0.6,28.389727100272683,-15.084279595459853,37.37391389995793,6,S01
9520,0.09146853219124831,6.730997090547917,7.195368102403561,-4.2,-1.2,0.6,29.440058998354615,-16.033489749816603,37.525845281460185,6,S01
9540,0.1156056919536258,6.717816080407793,7.1371817813858165,-4.2,-1.2,0.6,29.09510931008972,-16.60049067669175,36.750316782256675,6,S01
9560,0.11422110392167852,6.736462818836042,7.141804124873365,-4.2,-1.2,0.6,28.98656934661172,-15.83284365100352,37.701016171769545,6,S01
9580,0.08816882643932934,6.728302060026399,7.145652756243995,-4.2,-1.2,0.6,30.14666983477354,-16.299143402848088,37.78329082344004,6,S01
9600,0.10804816413649486,6.726689106342171,7.142162322426215,-4.2,-1.2,0.6,29.064369634981993,-16.20060495633833,37.51376212009442,6,S01
9620,0.06510312893333053,6.745101760825468,7.187758719867005,-4.2,-1.2,0.6,29.00252309503316,-16.348328521199164,37.05490160914823,6,S01
9640,0.048972161784986076,6.727237653526896,7.1956817073751616,-4.2,-1.2,0.6,28.662271199495688,-16.40233402573256,37.39550733981313,6,S01
9660,0.10961723499894634,6.721419503660779,7.196763197523532,-4.2,-1.2,0.6,28.88844760082446,-16.526218887848493,37.75701591653595,6,S01
9680,0.1204519431649384,6.749704965012684,7.193394732950423,-4.2,-1.2,0.6,29.560511427472903,-15.204112440843938,38.723597542627076,6,S01
9700,0.09882164130665677,6.775285538890816,7.174361509661456,-4.2,-1.2,0.6,29.314129872983514,-16.587756877169912,37.69068084695239,6,S01
9720,0.11807482957916501,6.755784386166745,7.211299871806398,-4.2,-1.2,0.6,29.21377406346931,-16.278472705484113,37.311286451924374,6,S01
9740,0.08753301793189519,6.718279501175963,7.136752165844475,-4.2,-1.2,0.6,29.69323906051247,-16.213476569488904,37.846913026478525,6,S01
9760,0.10454231905394822,6.726330937797647,7.167297040536867,-4.2,-1.2,0.6,29.46585284585322,-16.808130820656984,37.1733418565686,6,S01
9780,0.1387642567360298,6.730282616283843,7.165810009857155,-4.2,-1.2,0.6,29.422379773022993,-15.07328309241385,37.578068569703774,6,S01
9800,0.07303214581880206,6.7428595100601685,7.149855798215075,-4.2,-1.2,0.6,29.302360829506927,-16.16797737356928,37.182762321381006,6,S01
9820,0.10065536952614869,6.731145293538461,7.148824324544375,-4.2,-1.2,0.6,29.309697446743172,-16.947784474470367,38.31325141054024,6,S01
9840,0.05093492290904601,6.760871271598009,7.183803854993307,-4.2,-1.2,0.6,29.745051611018386,-17.2206839496694,36.61945974301841,6,S01
9860,0.11998221754733547,6.746635938166557,7.156457369604513,-4.2,-1.2,0.6,30.113211431083574,-16.50312944123372,36.96201066040602,6,S01
9880,0.11469876192131831,6.722939764512766,7.1628948305253575,-4.2,-1.2,0.6,29.14796950334704,-16.56250010312089,37.51085125433574,6,S01
9900,0.08650660211633746,6.726296698154253,7.152013259711887,-4.2,-1.2,0.6,29.690117023245293,-16.430716259770985,38.462251231848654,6,S01
9920,0.09286502626239239,6.752800975974176,7.173901297885478,-4.2,-1.2,0.6,28.295544261862588,-16.79055147938498,38.30445600356526,6,S01
9940,0.09662103009684363,6.737826444040751,7.126550827627198,-4.2,-1.2,0.6,29.36812217342218,-17.04947112538197,37.674933314180024,6,S01
9960,0.13310407678533895,6.760470127862937,7.17526423380074,-4.2,-1.2,0.6,29.003968287308854,-16.19696317730972,37.64367824873541,6,S01
9980,0.08043765707104826,6.715030998971921,7.187673036153299,-4.2,-1.2,0.6,29.424014786774404,-16.18429596246873,37.41163896219564,6,S01
10000,0.12975106126065264,6.704713298567174,7.213028584011236,-4.2,-1.2,0.6,30.091634591390505,-15.224058417765443,38.1922008256186,6,S01
10020,0.1312629500378114,6.794522471227751,7.153713085220563,-4.2,-1.2,0.6,29.58130304440055,-16.324803782418673,37.95397966839033,6,S01
10040,0.07112125689414872,6.721545212277166,7.180623264036872,-4.2,-1.2,0.6,29.545469927361758,-15.832306722427836,37.52431757445655,6,S01
10060,0.0560390644244246,6.729855575829417,7.176053863100877,-4.2,-1.2,0.6,28.645248482592855,-16.321290500018513,36.461338742979244,6,S01
10080,0.12107323950212989,6.733108997501341,7.175354673615639,-4.2,-1.2,0.6,29.621229945283673,-16.620139554554946,37.38115819263622,6,S01
10100,0.10107402185891683,6.735003835105696,7.171559125570536,-4.2,-1.2,0.6,28.405033283414962,-16.755678763742683,37.2092860228029,6,S01
10120,0.1021978995499655,6.7705134421861075,7.183460540500907,-4.2,-1.2,0.6,29.17716131612394,-15.533471504544302,37.562598587522416,6,S01
10140,0.13607715886019944,6.757433631555789,7.181797810413102,-4.2,-1.2,0.6,27.563921114229256,-16.475326888544284,38.13744610359905,6,S01
10160,0.11081648645480001,6.702538621031875,7.175611914408593,-4.2,-1.2,0.6,30.06942986623631,-16.351680405919566,37.73766079482119,6,S01
10180,0.02925710425342938,6.737675433723029,7.173713128376254,-4.2,-1.2,0.6,29.127635621498353,-16.174465567780096,38.20957173161955,6,S01
10200,0.08866200386277018,6.762896310308447,7.169672274723548,-4.2,-1.2,0.6,29.126025404498197,-16.557130567637067,38.371067228857406,6,S01
10220,0.08166669149690695,6.7639759267161415,7.1384662724369345,-4.2,-1.2,0.6,29.57130157197402,-16.213424714592378,38.12002343237464,6,S01
10240,0.0974471722257125,6.719042037499498,7.175353298479604,-4.2,-1.2,0.6,28.821531245124593,-16.808508194987695,37.86774109118666,6,S01
10260,0.09715039356691697,6.739624239783345,7.198417080075732,-4.2,-1.2,0.6,28.95965383813356,-16.429735916555515,38.38492106280062,6,S01
10280,0.11299526571633553,6.749469025213404,7.183350638576319,-4.2,-1.2,0.6,29.228387020941323,-16.558618591168546,37.59344676178185,6,S01
10300,0.07681188157087286,6.763488170375626,7.165471795814628,-4.2,-1.2,0.6,29.61003197938895,-16.71929617424106,36.84763596860613,6,S01
10320,0.13255388565451126,6.70180819880334,7.162290737697175,-4.2,-1.2,0.6,29.314373632096455,-16.59931556242045,38.224634680898674,6,S01
10340,0.10035088306535023,6.73986936219568,7.179878548548036,-4.2,-1.2,0.6,29.673988548450406,-15.784649872471954,37.37972879358408,6,S01
10360,0.09022209458325704,6.698116485852981,7.149570862154627,-4.2,-1.2,0.6,29.074588564786016,-15.888006543960053,38.29579714878453,6,S01
10380,0.08231008288756188,6.752912325355439,7.17147486948494,-4.2,-1.2,0.6,29.23581312916619,-16.79471949089828,38.18668364195608,6,S01
10400,0.09611833292561847,6.749514143479273,7.178809517377613,-4.2,-1.2,0.6,29.571831649312028,-16.10878609070688,37.07668252148224,6,S01
10420,0.09664512443822514,6.736961608698488,7.188803866695566,-4.2,-1.2,0.6,29.13336570474916,-16.16767533769295,37.776851595253056,6,S01
10440,0.10266107453576807,6.743762159045418,7.197835005727433,-4.2,-1.2,0.6,29.803848879210072,-16.523374769956114,36.83860280658673,6,S01
10460,0.11034102788039538,6.7437028871893405,7.176759227386634,-4.2,-1.2,0.6,29.170657300239203,-17.328567685761115,37.50510548601413,6,S01
10480,0.08542451997238684,6.750113213927789,7.11242523476401,-4.2,-1.2,0.6,29.540559422129746,-15.305192095280898,37.88527096870657,6,S01
10500,0.1199863351229058,6.759763938349351,7.185058203849206,-4.2,-1.2,0.6,28.96517151313036,-16.104038233086705,37.596968007792405,6,S01
10520,0.09625652546056197,6.742243111670929,7.1740502354486315,-4.2,-1.2,0.6,28.276774261237474,-17.44880510958894,38.277772912193,6,S01
10540,0.07632238589677647,6.686092746363904,7.176278231913512,-4.2,-1.2,0.6,28.730179792523348,-16.089737532270473,37.25895618878536,6,S01
10560,0.07248359250561381,6.75761268978281,7.164690110962103,-4.2,-1.2,0.6,28.896215690347304,-16.601595947902645,38.002066961010506,6,S01
10580,0.06676860820702588,6.734966066698264,7.162127200511717,-4.2,-1.2,0.6,30.032484653481823,-17.17352200083819,37.09272950983386,6,S01
10600,0.07704700053038549,6.743482800739467,7.191264293920166,-4.2,-1.2,0.6,29.06648799475567,-16.408755431428247,37.70841856845839,6,S01
10620,0.08165181136186439,6.736377974894092,7.150611504874794,-4.2,-1.2,0.6,29.64366503677202,-17.442752410848815,37.07233058676145,6,S01
10640,0.12678414636008434,6.756514886052099,7.176274657429109,-4.2,-1.2,0.6,28.73472639485125,-15.680983403599217,37.65951038573722,6,S01
10660,0.10720924408660751,6.743603683470216,7.171707166861998,-4.2,-1.2,0.6,28.695227914175877,-17.182471134287248,37.20474911834619,6,S01
10680,0.09290391871013551,6.752188121471045,7.166972700355894,-4.2,-1.2,0.6,29.247973676856304,-16.252835510937267,37.303481072739935,6,S01
10700,0.11550004179519356,6.712364095096133,7.1974230548967295,-4.2,-1.2,0.6,29.33608535773427,-15.302935083481964,37.68989397228009,6,S01
10720,0.09919738133334993,6.786299401694869,7.152069165289067,-4.2,-1.2,0.6,29.561430459721844,-16.204967013860873,38.13246024659889,6,S01
10740,0.10557773371228783,6.756207672977475,7.161014905967176,-4.2,-1.2,0.6,28.627939871261674,-16.13429676132437,38.38304867154789,6,S01
10760,0.04796025998742878,6.712170023127826,7.152635714781124,-4.2,-1.2,0.6,30.389599840541976,-16.56722171005559,37.20203732102494,6,S01
10780,0.12006355133391247,6.714611108731475,7.161596299446144,-4.2,-1.2,0.6,28.6656481120165,-16.663537937849593,37.20955481164574,6,S01
10800,0.10587643680608158,6.736103626985817,7.140780913467922,-4.2,-1.2,0.6,29.474842429932714,-16.15760901910639,37.70971169903148,6,S01
10820,0.11205923012495855,6.753863602113162,7.201272916754344,-4.2,-1.2,0.6,29.259922801353127,-16.135566383845394,37.51663340000092,6,S01
10840,0.10542620639020632,6.73781037200254,7.21979872302521,-4.2,-1.2,0.6,29.44631601868066,-16.090803479874594,38.241120868778424,6,S01
10860,0.13577830247766248,6.752881349370681,7.185503806545299,-4.2,-1.2,0.6,28.364439648554903,-15.316162429420773,37.49201812359826,6,S01
10880,0.08103695353885793,6.743309455129519,7.14717329598879,-4.2,-1.2,0.6,29.277190843325563,-16.297916531013602,38.06766752361681,6,S01
10900,0.08541080699477054,6.731189376404917,7.176693886555267,-4.2,-1.2,0.6,28.40009452630646,-16.337480323914235,37.66487221286314,6,S01
10920,0.09659633982449144,6.7187775437639115,7.1673450101768745,-4.2,-1.2,0.6,29.035046951451378,-16.35152708972132,37.555451427455225,6,S01
10940,0.09590054607402732,6.767217312381667,7.172753974170152,-4.2,-1.2,0.6,29.85866797014925,-16.07623035512675,37.66310674478203,6,S01
10960,0.07246807674747911,6.739898323274583,7.192279160407713,-4.2,-1.2,0.6,29.325464609522797,-16.406342297296476,37.785622051237475,6,S01
10980,0.1215101897601119,6.773079579905047,7.164775782354171,-4.2,-1.2,0.6,29.371446324757812,-16.09704441266672,37.76368402426906,6,S01
11000,0.07331470914999245,6.746658180828355,7.116858778265862,-4.2,-1.2,0.6,28.80307794300541,-16.81720770132877,37.49728280692917,6,S01
11020,0.0907652651284309,6.741288445967413,7.198256246445213,-4.2,-1.2,0.6,29.613358278347974,-16.573513307921004,37.79610022109257,6,S01
11040,0.11305264066858792,6.718540254268618,7.119850994450073,-4.2,-1.2,0.6,29.28566356177506,-16.39276576494663,37.679682696270035,6,S01
11060,0.09174672412348277,6.744650195763442,7.140010342259677,-4.2,-1.2,0.6,29.072374965526514,-16.897513548813784,37.05640933585881,6,S01
11080,0.10861182852507448,6.744536175128557,7.197352719049478,-4.2,-1.2,0.6,29.135967732850457,-16.417736250403287,37.12134043341088,6,S01
11100,0.06934686198296622,6.728417446310337,7.17561615157797,-4.2,-1.2,0.6,28.594452867350125,-16.247692428579395,37.61703829566824,6,S01
11120,0.08648673154624029,6.728622187703721,7.184279444179941,-4.2,-1.2,0.6,30.42533611275326,-16.261983101428704,37.43742447711513,6,S01
11140,0.08166239459923055,6.769433223051857,7.164472537411921,-4.2,-1.2,0.6,28.705700783484094,-16.82705751766207,36.80971887491718,6,S01
11160,0.09414059145293613,6.707577759095335,7.146736770543042,-4.2,-1.2,0.6,30.24811260058902,-16.098997559665047,37.33368713959648,6,S01
11180,0.08891191824790662,6.761901638045643,7.164994638347911,-4.2,-1.2,0.6,29.674020340264022,-16.50818595412101,37.7945249113323,6,S01
11200,0.09574450659578737,6.746111112089099,7.19337128222938,-4.2,-1.2,0.6,28.712770401073108,-16.62597409203969,37.282463835961366,6,S01
11220,0.11834960272108133,6.772676049538168,7.200565734787588,-4.2,-1.2,0.6,29.901729144087906,-16.56347414100258,37.55849178605215,6,S01
11240,0.11764415015525263,6.753056558659905,7.176601861970307,-4.2,-1.2,0.6,28.6921511797751,-16.151562231331525,37.789240773954916,6,S01
11260,0.07713324803178165,6.727106887609819,7.158462545079835,-4.2,-1.2,0.6,28.70902589463487,-16.151930623117472,37.33476777930199,6,S01
11280,0.11695648411598131,6.730606691058636,7.171569388606293,-4.2,-1.2,0.6,28.46052270045594,-16.290606439063,37.760074366838374,6,S01
11300,0.13209598251184687,6.731826490970602,7.161035341729832,-4.2,-1.2,0.6,28.789090972972687,-15.827090994927921,37.48847419947229,6,S01
11320,0.0783322909058083,6.773404533155641,7.194889294837234,-4.2,-1.2,0.6,29.30482425343837,-15.52880897178058,36.63046000653887,6,S01
11340,0.11255724825550706,6.771622479483662,7.174122803562569,-4.2,-1.2,0.6,29.052340544173568,-16.647012138428636,37.77646053137383,6,S01
11360,0.09946912299705982,6.796754899353638,7.177936774823954,-4.2,-1.2,0.6,29.440327142807163,-15.938148099219722,38.33404149494281,6,S01
11380,0.0931982280835568,6.705725621432325,7.181210977998235,-4.2,-1.2,0.6,28.466626068957414,-15.896279830098738,37.37817436935093,6,S01
11400,0.10916192093446692,6.721617240059908,7.190061901567961,-4.2,-1.2,0.6,28.968736520327717,-15.254459588297072,37.731965899914975,6,S01
11420,0.09294956413681821,6.702375795183891,7.1879989287404005,-4.2,-1.2,0.6,29.24260041318006,-16.183149400461588,38.725852509404476,6,S01
11440,0.09677343609556217,6.762176655256117,7.161560186209387,-4.2,-1.2,0.6,29.535141065963874,-15.59437713249837,38.099064723910864,6,S01
11460,0.11075447813523953,6.782061225530184,7.158935015283219,-4.2,-1.2,0.6,29.38715971621082,-17.161807933697855,38.010746256728986,6,S01
11480,0.09598163444067948,6.713870500968044,7.1975333089368485,-4.2,-1.2,0.6,28.53688019924175,-15.790275567811879,37.32758989686543,6,S01
11500,0.07432535859267243,6.748768649354983,7.175749573314347,-4.2,-1.2,0.6,29.15246735427322,-16.394374647487627,37.20381536358564,6,S01
11520,0.0761287011889969,6.735426299174965,7.13531167768109,-4.2,-1.2,0.6,28.475672222188507,-16.019258865531228,38.291382600720866,6,S01
11540,0.0476158404286761,6.729050792699018,7.132649561336479,-4.2,-1.2,0.6,29.37559218112958,-17.45909613906592,37.387864442412926,6,S01
11560,0.10742273389320736,6.721881185921483,7.135837852096325,-4.2,-1.2,0.6,28.93148493070147,-15.417723096715275,38.166956716940895,6,S01
11580,0.08462447307339234,6.742462573023777,7.172776509339741,-4.2,-1.2,0.6,29.164740437311202,-16.548128618040188,37.43034091236713,6,S01
11600,0.11216377043941853,6.744400188899683,7.138209202656469,-4.2,-1.2,0.6,29.75950375362107,-15.930437995323512,37.8561197083906,6,S01
11620,0.10679591244109114,6.746424964702279,7.121054011193782,-4.2,-1.2,0.6,29.059486087959975,-17.27460987967811,37.559977941131464,6,S01
11640,0.08777458453743017,6.769106163293635,7.153505083450499,-4.2,-1.2,0.6,29.01064481534813,-17.764103614333614,37.533892440954695,6,S01
11660,0.11935933262853084,6.730475687186533,7.194201202982445,-4.2,-1.2,0.6,28.999562116430642,-15.918673810233209,37.80554224127019,6,S01
11680,0.12993613055191439,6.73499709334434,7.148469426400043,-4.2,-1.2,0.6,29.496492223358842,-16.395684171725883,37.596205485049,6,S01
11700,0.0900117326043129,6.751155700934445,7.166714392726115,-4.2,-1.2,0.6,29.777893756794246,-16.865772037104904,37.68789089047952,6,S01
11720,0.09448517927850346,6.7529836565377925,7.169814128659401,-4.2,-1.2,0.6,29.115589115131,-16.971275354982698,37.36488443146845,6,S01
11740,0.04753365641917427,6.740787254540557,7.169547010213482,-4.2,-1.2,0.6,29.75047809022482,-16.678098801221033,37.222992590089824,6,S01
11760,0.11968554783425552,6.749601550140034,7.152763554638463,-4.2,-1.2,0.6,29.33105637333578,-16.551714758248927,38.275812339423375,6,S01
11780,0.07177449087325911,6.761655264353727,7.190389731796649,-4.2,-1.2,0.6,29.207336718343,-17.190267598527967,37.70164151922927,6,S01
11800,0.06002060054667166,6.740264920053665,7.18843822085043,-4.2,-1.2,0.6,29.664420135461963,-16.430223754088082,36.98932544149337,6,S01
11820,0.0879613993555753,6.747562337951513,7.117989149195784,-4.2,-1.2,0.6,29.64473071224575,-16.51624802165498,37.63715490479054,6,S01
11840,0.0865427168490826,6.733789186870879,7.1708749939542695,-4.2,-1.2,0.6,29.95314493059835,-16.431324668561114,38.09834109648103,6,S01
11860,0.0745297164752708,6.75449933769326,7.162708935486988,-4.2,-1.2,0.6,29.27882433355071,-17.021699902068015,37.79375087857574,6,S01
11880,0.08557203468235619,6.756022054685569,7.165205242994307,-4.2,-1.2,0.6,29.315192600165744,-15.452592806180819,37.931931831638465,6,S01
11900,0.1536693080205832,6.700227797125377,7.169436474178102,-4.2,-1.2,0.6,29.83964883508113,-17.48457047359473,37.381040805050176,6,S01
11920,0.11189578103493042,6.732990736812467,7.187728363129631,-4.2,-1.2,0.6,29.395223644942906,-17.20470744785868,38.765872772060334,6,S01
11940,0.08318425278317504,6.767899222772535,7.165923757135276,-4.2,-1.2,0.6,29.51898328238727,-16.980070991072665,37.84526112501696,6,S01
11960,0.11000750447457848,6.742206059737561,7.20041390273057,-4.2,-1.2,0.6,28.88560543169027,-17.12822921820839,37.63682575703793,6,S01
11980,0.12653519576103656,6.747966960307295,7.1777524772712304,-4.2,-1.2,0.6,28.888402659787197,-16.12158278161852,37.8750231952079,6,S01
12000,0.11416884534024764,6.755262684700604,7.148929445917363,-4.2,-1.2,0.6,29.435736698960667,-16.378050251785403,37.437718062972515,6,S01
12020,0.11766059603388093,6.750516680999127,7.165351077311802,-4.2,-1.2,0.6,28.60437949584501,-15.704958724778487,37.673846389398065,6,S01
12040,0.12129555810312967,6.73973773693099,7.201699581564934,-4.2,-1.2,0.6,28.998008660954245,-15.10137136024592,37.772765285003885,6,S01
12060,0.1363015481311912,6.72497612401631,7.13870662534777,-4.2,-1.2,0.6,29.82563770819709,-16.190362925508474,36.87272660591941,6,S01
12080,0.1252597036470486,6.711872459733242,7.179210870743894,-4.2,-1.2,0.6,28.80308076360772,-16.675240346942463,38.11214228772421,6,S01
12100,0.12117476011114488,6.752422741356674,7.196392956278061,-4.2,-1.2,0.6,28.812631062280065,-15.915128062497569,37.76123503761257,6,S01
12120,0.10615304683654544,6.727685487975857,7.162021327856715,-4.2,-1.2,0.6,29.567530147380776,-16.28756137287614,38.43308399400315,6,S01
12140,0.10873561300038316,6.705154283629033,7.147327655360475,-4.2,-1.2,0.6,29.471378970673197,-15.470522696868493,37.12923533544698,6,S01
12160,0.10589171153016602,6.7344491141994425,7.174474277032067,-4.2,-1.2,0.6,29.833098172015813,-16.94708693471641,37.29909432131196,6,S01
12180,0.09015604654457066,6.75247413733657,7.15962358051596,-4.2,-1.2,0.6,29.251739356635493,-16.384019696892985,38.34924584986777,6,S01
12200,0.09465837559855564,6.750298777432434,7.1992155264508515,-4.2,-1.2,0.6,28.415297318237354,-17.130985268162213,36.847347649104314,6,S01
12220,0.1405498517162536,6.7437479769311395,7.174674648372341,-4.2,-1.2,0.6,29.031888633023645,-16.08784956876071,37.08966732933707,6,S01
12240,0.12607905361580876,6.751568880931883,7.173362314565821,-4.2,-1.2,0.6,29.438083866620826,-16.498422448566437,36.90326213134216,6,S01
12260,0.07768758589236985,6.73346429263851,7.146647392915799,-4.2,-1.2,0.6,29.06553039325194,-17.38719102368164,36.92093769033286,6,S01
12280,0.0900236303536093,6.758577320567135,7.140982892437603,-4.2,-1.2,0.6,28.962983802387438,-16.297829352250027,37.66302563873819,6,S01
12300,0.10691487601316028,6.783434743988366,7.182037752128929,-4.2,-1.2,0.6,29.375165725525015,-17.04739578397772,38.40931808755653,6,S01
12320,0.07479952275289277,6.741797256093904,7.17897629680418,-4.2,-1.2,0.6,29.605106160104956,-17.117598892206278,37.53261909807878,6,S01
12340,0.12398582096487264,6.72166395361421,7.1845097916446035,-4.2,-1.2,0.6,29.272442802827786,-15.422430129410237,37.63893768631333,6,S01
12360,0.10202014736807817,6.73470350739323,7.144540430561864,-4.2,-1.2,0.6,28.881436399200503,-16.282260269480687,37.46953933624173,6,S01
12380,0.08882555095754474,6.764364294611002,7.183624565376148,-4.2,-1.2,0.6,29.524646214261246,-16.27112820226231,37.837020812964134,6,S01
12400,0.10667746515359695,6.764313481563866,7.177952532669828,-4.2,-1.2,0.6,29.497912101354956,-16.686253308824007,37.248473980607194,6,S01
12420,0.09722725225613298,6.715096997649725,7.164826783244795,-4.2,-1.2,0.6,29.502930071559135,-16.67147451400703,37.126121115151825,6,S01
12440,0.06902370704216576,6.717887691268525,7.195317164651618,-4.2,-1.2,0.6,30.22065890850071,-16.870628417139937,37.56275088931597,6,S01
12460,0.13756814662131148,6.732224994598831,7.173265996927764,-4.2,-1.2,0.6,28.988670889023407,-16.411122896622356,37.321052740534576,6,S01
12480,0.10101492500106891,6.7399251282131605,7.176460409229174,-4.2,-1.2,0.6,28.416906208319674,-15.692479352969174,37.80505287030254,6,S01
12500,0.12461063340933261,6.704224433155547,7.168154287757071,-4.2,-1.2,0.6,29.412254572777954,-15.562935867612572,38.53138338716926,6,S01
12520,0.11051491222533706,6.720796542063005,7.182113656804203,-4.2,-1.2,0.6,29.519116982888637,-17.506340656460416,37.48612997075888,6,S01
12540,0.10281966230201045,6.729708141531904,7.226362484061512,-4.2,-1.2,0.6,29.812664284127205,-17.38563053271971,38.55003387295025,6,S01
12560,0.07163434097134987,6.733553336528972,7.157246787749353,-4.2,-1.2,0.6,29.115791015676344,-17.001963748613882,37.56224943358653,6,S01
12580,0.09816124129730217,6.683688418629468,7.1801238374293,-4.2,-1.2,0.6,29.139898784932125,-16.00130626479769,37.53300740726118,6,S01
12600,0.08519786359228797,6.728222922045189,7.176604515183674,-4.2,-1.2,0.6,29.609514337360554,-17.13015774756112,38.518689120082854,6,S01
12620,0.07537162254901852,6.7507099701804885,7.1885094255361475,-4.2,-1.2,0.6,28.307949482466853,-16.589816201055008,37.20946925799843,6,S01
12640,0.10869363231745416,6.743638651155783,7.146840336916125,-4.2,-1.2,0.6,29.344650989507418,-15.862092948107517,37.00102892877136,6,S01
12660,0.10207700867269888,6.738104917898047,7.180365170516769,-4.2,-1.2,0.6,29.72195559060527,-17.24857560526604,38.755457633814615,6,S01
12680,0.11013253612178865,6.726150950483504,7.187544665366085,-4.2,-1.2,0.6,29.041127280002843,-16.34458225178238,37.28692728988259,6,S01
12700,0.11145377097531589,6.714747012328858,7.14554402734996,-4.2,-1.2,0.6,28.83727627021193,-16.201511512590777,36.962647078628116,6,S01
12720,0.1114351895516883,6.761577532837074,7.172853407003881,-4.2,-1.2,0.6,28.94607388047098,-16.89701057267554,37.791091229665504,6,S01
12740,0.12532335075169962,6.736703461035032,7.165559824818012,-4.2,-1.2,0.6,29.861230087350982,-16.170413318494628,37.44700623357407,6,S01
12760,0.09857194554669739,6.753256831242822,7.1745405788317616,-4.2,-1.2,0.6,29.4890616047545,-16.731770247111232,37.1124484173922,6,S01
12780,0.1047441705495577,6.784222742255879,7.194911505374717,-4.2,-1.2,0.6,29.133219143168954,-16.6344708087942,37.12263280162873,6,S01
12800,0.10488542285454351,6.708995092238948,7.169915897577076,-4.2,-1.2,0.6,28.309587433055345,-16.61079803209997,37.77534988564184,6,S01
12820,0.10670985137504398,6.744565229391611,7.171752064955227,-4.2,-1.2,0.6,28.88658664109351,-16.402653457085528,37.93619302696817,6,S01
12840,0.12467490340433997,6.774675187867952,7.157608591295131,-4.2,-1.2,0.6,29.481523900042536,-16.767801821225135,38.37595056232866,6,S01
12860,0.11018641766912754,6.74300904889914,7.165887264796813,-4.2,-1.2,0.6,28.72197148535343,-16.34473479171414,38.21205280556118,6,S01
12880,0.08770004325495469,6.75187356694148,7.1184863229223465,-4.2,-1.2,0.6,30.47695787488027,-16.27727482759736,37.57362769223812,6,S01
12900,0.09530920631729468,6.724650160845443,7.180537136604113,-4.2,-1.2,0.6,29.381573177464762,-17.199213026819777,37.15761611470196,6,S01
12920,0.09099057798934213,6.674772464803593,7.1312183433101675,-4.2,-1.2,0.6,29.396488323852427,-16.784475934816157,37.253529177802314,6,S01
12940,0.11171070449653252,6.779156745560832,7.205538521373751,-4.2,-1.2,0.6,28.810356579105378,-16.04563943060649,38.43644279571267,6,S01
12960,0.10847225422306664,6.7550667292581235,7.179903318085647,-4.2,-1.2,0.6,29.26184290488264,-16.30550296342326,38.15746366145469,6,S01
12980,0.10296150921406266,6.73077637100646,7.1557121208255,-4.2,-1.2,0.6,29.053071488715943,-16.406926857411612,37.07593249077772,6,S01
13000,0.08990317173744711,6.721274642053107,7.134357406018412,-4.2,-1.2,0.6,29.276982138938802,-16.998890661132762,37.93985570449772,6,S01
13020,0.07421624783689468,6.724660143840508,7.12865307001652,-4.2,-1.2,0.6,28.827465927571083,-17.68884882811691,37.21904586259871,6,S01
13040,0.08881919928002857,6.761148805781753,7.211500947820287,-4.2,-1.2,0.6,28.700152761558794,-16.732048772023354,37.70326217434845,6,S01
13060,0.0923478845055677,6.7310796280384295,7.207221324150353,-4.2,-1.2,0.6,29.723458675787324,-15.746212447294562,37.53212230281946,6,S01
13080,0.1065180508789504,6.706654899721538,7.159754958132741,-4.2,-1.2,0.6,28.910283262858453,-15.430322579445905,37.78555926080221,6,S01
13100,0.11219461440772575,6.7392315431497805,7.126936714346852,-4.2,-1.2,0.6,29.532503754509346,-16.689936513677115,38.07245991142315,6,S01
13120,0.08801274035985059,6.766063951331787,7.192793191591012,-4.2,-1.2,0.6,29.391861251029862,-17.23466334946807,38.57546412004558,6,S01
13140,0.09791919184362519,6.741073376164282,7.186040583922418,-4.2,-1.2,0.6,28.58746707310303,-16.21636604724408,37.95221647489746,6,S01
13160,0.1030290313982391,6.77307108166119,7.159435784511684,-4.2,-1.2,0.6,29.39463984623126,-17.027585691188456,38.4567892720729,6,S01
13180,0.09883628121788639,6.748572222896248,7.189654329197911,-4.2,-1.2,0.6,29.046200033587013,-15.986408394874102,38.74933715488219,6,S01
13200,0.09171337066471219,6.734945976523685,7.1578343754986875,-4.2,-1.2,0.6,28.95101936793887,-17.074350495203966,37.428733249411884,6,S01
13220,0.10989876950903249,6.730367770803436,7.140880629901383,-4.2,-1.2,0.6,28.298185451934067,-16.83390884681328,37.678151433250974,6,S01
13240,0.1390813783818471,6.730362157059747,7.167670476113282,-4.2,-1.2,0.6,29.415475116397854,-15.982163604017652,36.95153191999783,6,S01
13260,0.12887638599085383,6.7502567968136695,7.213080321858446,-4.2,-1.2,0.6,29.29133175540418,-16.502757798212492,37.75133118396297,6,S01
13280,0.10435688707027377,6.733300766592546,7.176013740997078,-4.2,-1.2,0.6,28.902384423135622,-15.344667198213322,37.79862341259664,6,S01
13300,0.08632497278648077,6.742766141471762,7.178839130900318,-4.2,-1.2,0.6,29.95072619361453,-16.26361983633381,37.6477775342664,6,S01
13320,0.09828644982709503,6.744175172119999,7.156104014011655,-4.2,-1.2,0.6,29.188635196172054,-16.967699041620982,37.46331041313797,6,S01
13340,0.07605363979349508,6.719708791342488,7.201355717190751,-4.2,-1.2,0.6,29.868726496577555,-15.840776664318966,37.50321297482607,6,S01
13360,0.12499803612396818,6.733471072287516,7.188451162314045,-4.2,-1.2,0.6,29.028915707865057,-17.077066499591158,37.37083392688095,6,S01
13380,0.06908184405904935,6.752716927176937,7.1123059473026755,-4.2,-1.2,0.6,29.730585782479817,-16.569811009392478,37.23442288687984,6,S01
13400,0.10054475882327103,6.720792150709511,7.155558047662861,-4.2,-1.2,0.6,29.012225280322696,-16.718940650306656,37.68820324666551,6,S01
13420,0.13591915468367266,6.760119796864578,7.193502210726893,-4.2,-1.2,0.6,29.782392491062375,-16.930675769240345,37.27515590672413,6,S01
13440,0.10298373654257932,6.736498600910099,7.1919550028154715,-4.2,-1.2,0.6,29.798157139705935,-15.652398985530539,37.541431690451276,6,S01
13460,0.06787582776183171,6.770123689290655,7.212709310602266,-4.2,-1.2,0.6,28.926071342234778,-16.07887582940279,37.1082580887961,6,S01
13480,0.12095122301695553,6.726441389783376,7.178507978162213,-4.2,-1.2,0.6,28.694622774290963,-16.107679367803193,38.817129756188415,6,S01
13500,0.12382517139993313,6.743983126889863,7.184852373362347,-4.2,-1.2,0.6,29.195743324522535,-17.045362546271335,37.46771882624739,6,S01
13520,0.0809981458491411,6.742451629786783,7.180988386980429,-4.2,-1.2,0.6,29.097855441632845,-16.145907562981876,37.994511215040745,6,S01
13540,0.05118168418529661,6.756959657632004,7.2014956131713515,-4.2,-1.2,0.6,29.42748681340527,-15.940185888801796,36.44535573353908,6,S01
13560,0.07829344884320079,6.773196710605313,7.174546224834902,-4.2,-1.2,0.6,29.485703993852322,-16.895814629486033,37.54299314646366,6,S01
13580,0.1195107756543635,6.749248482020242,7.165046419128295,-4.2,-1.2,0.6,29.526702650437198,-16.608459209532754,37.70240118698411,6,S01
13600,0.08358379610836739,6.754090979778752,7.1450597361191015,-4.2,-1.2,0.6,29.180368697382786,-16.195666887832324,37.15232598492315,6,S01
13620,0.11607531883986151,6.746598179963091,7.195912570729262,-4.2,-1.2,0.6,29.088509729791436,-15.916173678210738,36.96163471234534,6,S01
13640,0.07761819295124069,6.732057371691552,7.187028209513761,-4.2,-1.2,0.6,29.748889395559445,-16.31119048778104,37.668641552411486,6,S01
13660,0.09679677843869118,6.765399208664108,7.165642325716828,-4.2,-1.2,0.6,29.156330428208864,-17.127088611134074,37.164577988761174,6,S01
13680,0.09329651673461423,6.723633059132095,7.146024925021488,-4.2,-1.2,0.6,29.645419686293184,-17.141443132177706,38.131849106608946,6,S01
13700,0.06415813129327692,6.739855979277298,7.158362312129872,-4.2,-1.2,0.6,29.052236294479155,-16.7177727364289,38.04403528038017,6,S01
13720,0.11074010104676867,6.695064194372535,7.192497611279091,-4.2,-1.2,0.6,28.867640979263438,-16.24949792533916,37.53444290999913,6,S01
13740,0.11113080977201947,6.740894042815472,7.162873142436607,-4.2,-1.2,0.6,28.66516417584027,-15.788204650877672,38.33902698484209,6,S01
13760,0.08501632203103877,6.789728702045508,7.168745857132718,-4.2,-1.2,0.6,29.377441763655437,-16.8875123388228,37.99270265326489,6,S01
13780,0.1049190318902916,6.778712078950911,7.177750448030395,-4.2,-1.2,0.6,29.044700473105184,-17.527639117801602,37.681415503338734,6,S01
13800,0.10762166247478075,6.729234047180017,7.226907195980668,-4.2,-1.2,0.6,29.711352277825796,-17.596934039761287,36.98907461247972,6,S01
13820,0.08302627488459974,6.754665560673193,7.178205039433683,-4.2,-1.2,0.6,28.821532671576538,-16.397531108117093,38.144686089674316,6,S01
13840,0.10941296441280057,6.743748716624788,7.170929249313445,-4.2,-1.2,0.6,29.49923405854407,-16.53525863611742,37.916043250584885,6,S01
13860,0.05199802344753657,6.727135571260754,7.183319180213326,-4.2,-1.2,0.6,28.999856910903617,-16.085957846277132,37.328949401363836,6,S01
13880,0.10047831340792567,6.7417555196045855,7.165247645787671,-4.2,-1.2,0.6,29.845260098337715,-16.29592862430721,38.201246593436444,6,S01
13900,0.1173050913995821,6.732736781802451,7.1494403184301705,-4.2,-1.2,0.6,29.02279871552594,-16.59355135581469,38.036219867811646,6,S01
13920,0.10146531891975037,6.710204162738439,7.165308619318697,-4.2,-1.2,0.6,28.979292100304477,-16.321456292215096,37.133939691554176,6,S01
13940,0.08707643815164647,6.750485253510061,7.188512063267833,-4.2,-1.2,0.6,29.272786984608,-16.205541054635304,37.95585545395291,6,S01
13960,0.0988525758495795,6.731950698658064,7.183417404914851,-4.2,-1.2,0.6,29.885519238097828,-15.837795291679498,37.47279542700653,6,S01
13980,0.0862411053420066,6.757245215123383,7.165951845839788,-4.2,-1.2,0.6,28.434779763397064,-15.656970223118766,38.1080244331668,6,S01
14000,0.07385733826152989,6.735223649013278,7.164162939611146,-4.2,-1.2,0.6,28.69376298227568,-15.269553783620337,38.199374199300955,6,S01
14020,0.12165696847026525,6.766923044682626,7.147750465856647,-4.2,-1.2,0.6,29.605578887211106,-16.995098229223988,37.86415141721305,6,S01
14040,0.09771000394429225,6.750919824017554,7.159613757243524,-4.2,-1.2,0.6,28.932517504060517,-16.194383419165263,37.46100150951233,6,S01
14060,0.11346539576872089,6.7393997243504815,7.186832827015637,-4.2,-1.2,0.6,29.757843126882303,-17.128598102542142,37.364720147726615,6,S01
14080,0.0806551830029335,6.7144637279650885,7.1897197089752805,-4.2,-1.2,0.6,29.20695966817645,-15.87677528006428,38.115025009837936,6,S01
14100,0.12097231593288874,6.752661705557646,7.16216648904538,-4.2,-1.2,0.6,29.888321712432678,-16.556551292037852,37.546329853030244,6,S01
14120,0.10154843752028639,6.7321996515376155,7.182760390913384,-4.2,-1.2,0.6,29.040095293775682,-16.43425006801648,37.75960420216059,6,S01
14140,0.0898273300183844,6.741064045017905,7.15155410438136,-4.2,-1.2,0.6,29.236622585201495,-16.039438121968367,37.672705804562085,6,S01
14160,0.12229346143021624,6.7426609227579934,7.151227545287387,-4.2,-1.2,0.6,29.383132331818317,-16.59160642976082,37.89887217267755,6,S01
14180,0.11602303799648908,6.710078843607214,7.187980796804668,-4.2,-1.2,0.6,29.612197301390893,-17.269480753791747,36.28103781523003,6,S01
14200,0.09427288292023413,6.720313420597765,7.20608297580461,-4.2,-1.2,0.6,29.347563344651746,-16.03745998303866,37.68071635691959,6,S01
14220,0.10256875260176439,6.760933957246643,7.154857065750945,-4.2,-1.2,0.6,28.545852128139007,-16.952671010253653,37.3965669718458,6,S01
14240,0.10377827649593985,6.737254048653644,7.168416821273998,-4.2,-1.2,0.6,29.45633185224276,-16.87799252402194,37.61968700097454,6,S01
14260,0.10925429642289845,6.733889508568883,7.154108638029453,-4.2,-1.2,0.6,28.896807201038694,-17.61299971266603,38.31775750837263,6,S01
14280,0.11552450340666712,6.764859221017247,7.1597601339890025,-4.2,-1.2,0.6,28.848084869260724,-16.912942404548545,38.65338256355141,6,S01
14300,0.10137964104603382,6.73318991257192,7.145478335153095,-4.2,-1.2,0.6,29.01103277397982,-16.943368425960045,37.885994833313546,6,S01
14320,0.09215834629251403,6.743737868517556,7.194624876456376,-4.2,-1.2,0.6,29.279141276388547,-16.266858428015894,37.78064773203944,6,S01
14340,0.07926052415991805,6.683140949576637,7.171761708501742,-4.2,-1.2,0.6,29.211418251970155,-15.613918771075909,37.04126901772561,6,S01
14360,0.07344797665550415,6.705961094839716,7.166294164947064,-4.2,-1.2,0.6,28.632926045953653,-17.695676049591356,37.312164497203476,6,S01
14380,0.10684529794262333,6.760112310330247,7.157572604799877,-4.2,-1.2,0.6,29.497433323140083,-15.968389819985438,37.515133375342856,6,S01
14400,0.07745966643962493,6.736094796236428,7.1828616537493915,-4.2,-1.2,0.6,29.46652248391962,-16.60800424469516,38.08624875368641,6,S01
14420,0.07725308333693576,6.745850861808999,7.194170806827467,-4.2,-1.2,0.6,28.847746864436566,-16.83875227536695,37.77751336356365,6,S01
14440,0.12182150260090698,6.765192369361465,7.174627163288207,-4.2,-1.2,0.6,28.65141106306822,-16.011613000259842,38.551800062950356,6,S01
14460,0.10266364448934918,6.739451515970327,7.181562599557902,-4.2,-1.2,0.6,28.893832098654393,-17.863749994867828,37.572512152694756,6,S01
14480,0.1137842041339783,6.714996532247655,7.135177128617165,-4.2,-1.2,0.6,28.610778476885464,-17.072982063691075,37.63769192486906,6,S01
14500,0.10512098620432622,6.749752121247238,7.1526492035877665,-4.2,-1.2,0.6,28.5155620698056,-17.19412707923697,37.620904923227336,6,S01
14520,0.10857224320906186,6.713847497052708,7.165280578576075,-4.2,-1.2,0.6,28.93319264365537,-16.746409212223078,37.66306792751351,6,S01
14540,0.10301011218778912,6.753392692064098,7.143749496066255,-4.2,-1.2,0.6,29.37686362946225,-17.053438846366056,37.72570922742097,6,S01
14560,0.08030620191791407,6.781980854130364,7.164153108558474,-4.2,-1.2,0.6,29.877599273141023,-17.408958406911843,38.386797822027674,6,S01
14580,0.10337443366615727,6.769170681261021,7.195741837786687,-4.2,-1.2,0.6,28.274419381459424,-15.943834517466062,37.22777050924798,6,S01
14600,0.05147870023405056,6.729973032117857,7.190687904409122,-4.2,-1.2,0.6,29.43117603461582,-16.65479282346096,38.21639828004657,6,S01
14620,0.08615545095525479,6.733826521932068,7.138043815269274,-4.2,-1.2,0.6,28.687946746357404,-16.344232527060313,38.34283708467225,6,S01
14640,0.1132933780322822,6.742027576127153,7.184913496413922,-4.2,-1.2,0.6,29.951103373461923,-16.979812561858225,36.91341819857175,6,S01
14660,0.09004722120236862,6.7533154159526845,7.189095394802378,-4.2,-1.2,0.6,29.21473604690582,-16.59987970655782,37.614526003822355,6,S01
14680,0.14052255177780346,6.746996167575982,7.173897904649598,-4.2,-1.2,0.6,29.41297282077648,-17.313857780082124,37.70227901175936,6,S01
14700,0.1056413407339734,6.7360517657997905,7.170179661312959,-4.2,-1.2,0.6,28.975618187629408,-15.738680953317596,37.333904961921625,6,S01
14720,0.1135133389183879,6.711861596406827,7.157154181658071,-4.2,-1.2,0.6,28.53618704203433,-16.87930486615464,37.50095852148867,6,S01
14740,0.07884750470263478,6.752345406100259,7.186395023789284,-4.2,-1.2,0.6,28.93702549790483,-16.74061569653483,37.855835094917246,6,S01
14760,0.13147816304429635,6.732815878221194,7.1477024028275205,-4.2,-1.2,0.6,29.025962205964426,-15.85620307381777,37.22852431815781,6,S01
14780,0.07661718634385566,6.7710418919537725,7.178023184666507,-4.2,-1.2,0.6,29.616035976104133,-15.834487126987915,37.663101022824804,6,S01
14800,0.09164276018667462,6.764341169952348,7.18979646874442,-4.2,-1.2,0.6,29.556483884182658,-16.741715700779643,37.85505285017697,6,S01
14820,0.06514958041542449,6.768858145763266,7.165069632336912,-4.2,-1.2,0.6,28.8598435069338,-16.54103218576629,37.793505522220585,6,S01
14840,0.08636988044788682,6.744487807076368,7.167414356643789,-4.2,-1.2,0.6,29.00453401054183,-16.848201852021177,37.38409638708109,6,S01
14860,0.09823958312940351,6.738786137176434,7.178095120340356,-4.2,-1.2,0.6,29.261701491997584,-16.2491079352753,38.01880403071008,6,S01
14880,0.09836700871937677,6.743583083645002,7.18012823695151,-4.2,-1.2,0.6,28.63736118892743,-16.523239680795236,37.45823792630081,6,S01
14900,0.08318488356168346,6.745432444551479,7.167528729583345,-4.2,-1.2,0.6,28.844423190047397,-16.62823620846236,36.766463459102184,6,S01
14920,0.06484451591391731,6.746447336051975,7.165481185325166,-4.2,-1.2,0.6,28.946785978737815,-16.406021876501516,38.61931534077967,6,S01
14940,0.09097736824161876,6.726051157593875,7.181671112436065,-4.2,-1.2,0.6,29.23078618639674,-15.525622416598605,37.37634769737991,6,S01
14960,0.07691100278836377,6.744840374322032,7.193986306272032,-4.2,-1.2,0.6,29.213427193813107,-16.866197461638862,37.24230703296973,6,S01
14980,0.11464773889823003,6.746249475002261,7.164898668186032,-4.2,-1.2,0.6,28.749349458156246,-16.23971129713491,37.69426857101786,6,S01
