timestamp,ax,ay,az,gx,gy,gz,mx,my,mz,label,subject_id
0,0.11587380439045844,-0.0585724538798402,10.146527424234367,-4.207191483283723,-1.2504796984685782,0.47858200672339857,28.94439039861442,-16.624306237162376,38.15791374722364,1,S01
20,0.10431841871387501,-0.061011648644398855,10.158383900517235,-3.983952948392799,-0.6531149625176195,-0.036153571500262216,29.363693811793038,-16.095614444274588,37.54568234862609,1,S01
40,0.1312925270841755,-0.052509646632768435,10.151365806891354,-4.876230393767368,-1.3320548526960763,0.5159648322396627,29.573348473070876,-16.951396473605254,38.01716304993554,1,S01
60,0.1333622138560105,-0.056298288357307,10.144306935958584,-3.5372355541581264,-1.2761990209957086,0.01559255750556221,29.94945509169069,-16.626954659580804,36.983831859150676,1,S01
80,0.12445804850932586,-0.061407059202053534,10.157491243815524,-4.02376433174702,-1.1530857113516404,0.8072026425072831,29.45007534000881,-16.413652812020622,38.583930369566275,1,S01
100,0.1229648233542922,-0.04459012606130709,10.141028899904121,-4.224660999352468,-0.37840801726074735,0.8461291653450203,29.32817603923645,-16.850738700615032,38.2262878553692,1,S01
120,0.1265558749202687,-0.043707067088102985,10.162777437894546,-4.044686313980028,-1.5032875235473784,0.966906261558806,28.64891227493623,-16.041385155230955,37.79903899945301,1,S01
140,0.1596939815435855,-0.010557375933460317,10.142863533385905,-3.9897007615470166,-0.10916577643923175,1.0789125299574573,28.927757123441516,-15.925562621810316,37.926126188085014,1,S01
160,0.16492653682044028,-0.02388503470441445,10.153550294658823,-3.6084374996256026,-1.3985777099090624,1.4873038743888967,29.625579722037568,-16.578418406705016,37.5080709803782,1,S01
180,0.15043924309830614,-0.027789425234444907,10.146930962680218,-3.4528674758541653,-0.5902936915137713,1.025360294818995,29.095165530591135,-16.56328814850135,37.52730436180849,1,S01
200,0.16762053973944782,-0.009631257794493121,10.14483825854787,-3.4317582632546815,-1.535236154801085,0.070005428472246,28.964348391930443,-16.14525063736719,37.941187185166484,1,S01
220,0.17583959412079866,-0.01976009511884537,10.143055520446085,-4.608667837976218,-1.0593704384198563,0.8851622676412834,29.369994481540754,-16.71042181517918,37.94544093328228,1,S01
240,0.14589873470783984,-0.037011130962070767,10.145724767663724,-4.697709830257925,-0.771456191984744,0.4219423655834097,29.6209937515419,-16.6758080241955,37.48803291966726,1,S01
260,0.18044139938263332,-0.026794413899877356,10.151623054454127,-4.207390196228122,-0.3717116932712703,0.8812254431024773,29.214734859505246,-16.068497348789585,37.90963111220804,1,S01
280,0.1696909353343265,-0.01503959313319668,10.150690586829217,-4.127875780467436,-0.42567116948634576,1.9427992833231924,29.852692607644833,-16.056879388179844,36.87285437631789,1,S01
300,0.17852050312113754,-0.02622415899603569,10.140422224247454,-3.689925968440918,-0.6075428123908546,0.7001149171656156,29.011671094445486,-16.296711651175915,37.312731120166816,1,S01
320,0.1716679215159565,-0.02200300532315802,10.156260456272673,-3.669116351141088,-0.8448042742468667,1.0658226480037667,29.33161418304481,-17.17193065688977,38.29616792170013,1,S01
340,0.17510520868359047,-0.020381828158427512,10.13584250461678,-3.8062503675266774,-1.3442489059709493,0.4392162779855075,29.509739550741735,-16.55916753022531,38.596170343065374,1,S01
360,0.17591216676914317,-0.009109341321299709,10.139568364888044,-3.7210221005327604,-0.8892339577882677,1.6766190287065457,29.111713469516797,-17.185548316669248,37.50948080807654,1,S01
380,0.17132810511795987,-0.017054518990672292,10.149408337050266,-3.878219962342736,-0.5835237946996122,1.122199068011681,29.71415259669421,-16.460923087703353,37.48322039269877,1,S01
400,0.17170309236786555,-0.024034980077357555,10.1595675130333,-3.109800814542502,-0.7016275449525387,0.2138458468465529,29.578917663005843,-15.705758573424536,38.01350876881659,1,S01
420,0.1754381969785901,-0.037636399949575086,10.139479585763068,-3.421487196065179,-1.4590187336073932,0.4397880094223151,29.603022019542337,-17.171108596296627,38.50129771691827,1,S01
440,0.18114934698497503,-0.022835152271457257,10.147260399777968,-4.995102523055467,-1.068655935703267,-0.09586844106609482,30.06208927505543,-16.20941856770187,37.698674557282615,1,S01
460,0.1859841732006204,-0.013012652308122069,10.14252895673829,-3.5840736425459774,-0.41271049032668317,0.8978520315871297,29.585271824127258,-17.322001415330657,38.12038489220966,1,S01
480,0.17925742935392885,-0.011685617936348577,10.149492966584226,-4.367714886193403,-0.5074547970766039,0.6873188884218585,29.48945380427748,-16.415023892671933,37.46543250616248,1,S01
500,0.16840610922981242,-0.027233778457874037,10.153327773086483,-3.5065161139254952,-0.3194958292783807,0.3485681387650419,29.58694870156828,-16.391893168372057,37.70791990101071,1,S01
520,0.1685114304401923,-0.02915458669754032,10.14729208393628,-3.0011930164418894,-0.2675753863818644,1.0224624746966735,29.58892278542158,-16.43790118287594,37.79613136491704,1,S01
540,0.1857923992564675,-0.034524186127706635,10.146561204274702,-3.911055296267778,-0.616508584898817,1.7411693386324938,28.899719889838394,-17.353263544679777,37.96203443324741,1,S01
560,0.15265355111402018,-0.03432888187397698,10.151510136445319,-3.8145733760574454,-0.5086088929939196,1.2742030230154975,29.391714130025846,-15.79448843137855,37.34538459547399,1,S01
580,0.1762963341829024,-0.049246657017260866,10.132835996731108,-4.086975194940497,-0.9754962356925541,1.4463930652011983,29.07166748457828,-16.642802778908653,37.73350281342794,1,S01
600,0.15832353669914806,-0.04938666505675262,10.150105938325526,-3.6423476364565746,-1.4835217678322468,0.8311017958485821,27.893995618653907,-16.324915694883344,37.77492835472675,1,S01
620,0.19115173400317864,-0.058145805324375605,10.159605698239037,-4.509663875355448,-1.013256818279947,0.6303780135089044,28.897650093031203,-16.159525129385827,38.112447388135145,1,S01
640,0.18600403980609914,-0.056670512314838405,10.148214901145595,-4.159013587585285,-0.7396490750457718,0.6198526809702966,28.799239071839867,-16.532149208028073,37.881850055561166,1,S01
660,0.16345990893011708,-0.07561812291664397,10.143331636609602,-4.40903997256854,-0.14663152825691173,0.9579155951853336,28.95278187906939,-16.461965075597185,37.98380098640075,1,S01
680,0.15255998494792963,-0.07341319987549258,10.146664430470981,-3.8020280029781777,-0.703313318105761,1.1795378887769545,28.84842246977181,-16.57732778562535,37.82658279130518,1,S01
700,0.14441900017415757,-0.07898235131516586,10.143980652424307,-3.5259036347827175,-0.9919079839676189,1.4120029497265145,29.476896156290902,-16.396034274577474,37.34119946779083,1,S01
720,0.15755762155769004,-0.07290951870564696,10.141458066260189,-3.43279002543944,-1.5382549572265463,-0.03151080369599368,29.6619222666755,-15.811068517434855,37.05117716814591,1,S01
740,0.12009155059401277,-0.08459267625859498,10.14438040364753,-3.7457306246103905,-0.6940685503480427,0.6762879546874507,29.088777808646135,-16.045802731076694,37.52962626774138,1,S01
760,0.13958788557881743,-0.09093340737186212,10.152103166777303,-3.1867234606130164,-0.31638751748107896,0.9634977646592331,29.02017689774631,-17.144512998280653,38.21412931385582,1,S01
780,0.13521755394295107,-0.09540366096258594,10.12970712812864,-4.003945465248223,-0.5927400359608029,1.3049897898008873,29.677286849113333,-16.45563344443565,37.79880324654982,1,S01
800,0.13374652431862064,-0.09868644115168998,10.142389157844347,-3.967474654972028,-0.15014708284358513,1.139952083983426,29.21682876071678,-16.960445984273292,37.52413497327556,1,S01
820,0.12577795920328247,-0.10386382157104386,10.146823212385721,-3.240406676723797,-0.5165033304179777,1.7226485533474776,29.433102876534978,-16.72167591505653,37.47225095557289,1,S01
840,0.12984561194650573,-0.10042528619803727,10.153456883726045,-3.7054014506882718,-1.7519370677222403,1.719747383717829,29.389931746624217,-17.085933130756423,38.382495307022765,1,S01
860,0.13353550520665616,-0.11516177243278095,10.148289616175946,-3.2077092321089564,-1.48528749895848,1.0947044616498327,29.61173799189916,-17.122251866650043,37.281420247207535,1,S01
880,0.10172018489335442,-0.10550907584946309,10.140608357268892,-2.6624026540288286,-1.7334289177118087,0.4772264332155732,29.18682012468447,-15.9803292177963,37.246390811636346,1,S01
900,0.1070968881373677,-0.11396451972625835,10.141796185269156,-4.1500989565609805,-1.9507257413562504,0.2702963334229963,29.007908686550856,-16.25834901252091,38.71984371875566,1,S01
920,0.10879525724901652,-0.11334784787085779,10.145911448890269,-4.413986557380964,-1.9389837078432963,0.02238134875518849,29.017935101817226,-16.69318373005858,38.06121014294248,1,S01
940,0.09053882919671705,-0.10922428604266038,10.146714969022891,-3.8063651552522937,-1.0369284721453855,0.5503702516766356,29.41172020378531,-16.125671902484065,37.72678655289047,1,S01
960,0.1056527797930205,-0.11827274323775204,10.15670397562291,-3.9809073077172235,-1.9889855873095423,0.5919556911249954,28.369282465923,-16.835146960742286,38.11941338559789,1,S01
980,0.08905233678153845,-0.11401232086485563,10.14311907719715,-4.338785128332688,-1.4009438824375706,0.5761443997042605,28.761541267799867,-16.108102807263563,37.83799552362812,1,S01
1000,0.11243939752002043,-0.10619408209840306,10.150588985024726,-3.9816000896866166,-0.5930646855676618,1.2973087850997556,28.53019761115465,-16.265092666276992,37.233109108186575,1,S01
1020,0.09126931612493792,-0.11657050007297803,10.14331557501684,-4.724569812494136,-1.2714414834740482,0.22080560810460598,28.520699082495877,-16.781561792858152,37.211215961301015,1,S01
1040,0.0742809283787279,-0.10731821951356404,10.141617508867759,-4.353279149124867,-1.3607459802341233,0.01482633508857023,29.428436292762846,-15.998806453886848,38.52694504010596,1,S01
1060,0.06270369644901899,-0.10003231654178998,10.151906708179608,-4.729947237221095,-1.8831129470030925,0.3807457511590989,29.40078290821028,-16.821159689878925,37.1944543477108,1,S01
1080,0.06581614637471447,-0.09851960205876646,10.148920729114181,-3.9253454031921544,-1.1759009376346836,-0.8220938208969771,29.704265447048275,-16.8367432408424,37.64390127553014,1,S01
1100,0.036776357280046634,-0.10803180694420529,10.171778150367334,-2.9686189070298403,-1.6004489369320534,0.10405726886444977,29.279411635264314,-17.260542048581044,37.38009120028055,1,S01
1120,0.055268578406643364,-0.11095771717937142,10.13663827461592,-3.486771644712554,-1.838254243257701,0.32761003394620264,29.147341700311806,-16.768793134359143,38.475957987443216,1,S01
1140,0.048235621720027655,-0.1253246212066827,10.14755711595601,-3.992353443270582,-1.5542257583005326,-0.10498294612929548,29.435037645763234,-16.33058190049281,37.68541579656949,1,S01
1160,0.057919285888944766,-0.11256834051025949,10.139109057036361,-3.7700751462441167,-1.0722833190539063,0.2494430280525166,29.945303724131215,-16.29285908148347,37.97103929519115,1,S01
1180,0.048251104487669894,-0.10782287230007759,10.159113197461917,-4.005778240599784,-0.6189428292610482,-0.21181509972564516,29.307183095741586,-16.93320007638769,37.46544833746378,1,S01
1200,0.02793151153474016,-0.10460321970282828,10.157635273066928,-4.383602577951089,-1.7524468642240034,0.6833894823977078,29.055664592807144,-16.676346523380403,37.85576455321369,1,S01
1220,0.03612655493527496,-0.09475959946457604,10.130752171581404,-2.560675081860535,-0.7629064776748893,0.42228141758277193,29.48183929896281,-16.164361489867396,37.16455492732884,1,S01
1240,0.04412711892168935,-0.08744223205669532,10.167621502936079,-4.2373454891842055,-1.4870687826429378,0.717383333416475,29.314875925066552,-16.343666783176275,38.029300822824524,1,S01
1260,0.025313408670284893,-0.09585167076804513,10.15709543180136,-4.971520643666929,-1.8668527539262412,-0.13244866753156204,30.298698368746088,-16.711511687003718,37.14361062403046,1,S01
1280,0.02936209727337205,-0.08596297039707226,10.138079783069736,-4.804005993478945,-2.5373782752269696,0.6319645103898457,29.10583484997505,-16.07694753948426,37.74777099897784,1,S01
1300,0.01598006357422388,-0.09370333963915012,10.135991562036894,-5.068397885611352,-1.79866972719886,-0.8337238747742902,29.172850567146398,-16.709251559683604,37.62869131908376,1,S01
1320,0.04735971193556281,-0.10313456055407427,10.139266477422346,-5.051723908918439,-1.5643535860323654,0.20329142927346033,28.82597600351058,-16.201948492595527,37.56369799855102,1,S01
1340,0.024523368348584054,-0.07527523713368683,10.142706540190897,-4.324334289110563,-1.7270675771212738,-0.41116907205592856,29.679823753945332,-16.74024784532993,37.96771342532606,1,S01
1360,0.023323247007565523,-0.08230512394936877,10.15413206575816,-4.58890325993728,-1.6378358303353793,0.33607742331121154,28.92219610051161,-16.445944502033033,37.440174141851955,1,S01
1380,0.03631369764600338,-0.052924164969781515,10.145277937030613,-4.589203993904388,-2.219999624554707,-0.4002554982396843,29.283353009074627,-17.082294086634082,37.935815687464284,1,S01
1400,0.012571614536628486,-0.047559315305113106,10.133151279941591,-3.807578370009179,-0.6913769953172304,-0.5944021402419167,29.56381622833242,-15.183406167873624,38.089296628704155,1,S01
1420,0.009107403687190735,-0.05626188643279527,10.13605117062938,-5.232507271508858,-2.0823875787922246,-0.3244192043389026,29.109241747460118,-17.290187178195197,37.94931162693599,1,S01
1440,0.019319930605154717,-0.04350183159587391,10.155018638437294,-3.780432357256954,-2.4984905863251,-0.20004892762863458,28.52786098783231,-16.339828679728797,38.54981112098389,1,S01
1460,-0.004228362269063937,-0.04777837115496465,10.152815945162486,-4.3804368292055225,-1.5697463633223823,-0.9077598705863389,29.053786927681422,-16.291058993660606,37.736834679926275,1,S01
1480,0.017580225717631223,-0.044166468322596575,10.134925482382995,-3.6126913874438484,-0.9428972345398684,-0.26423796493922047,28.968072323443405,-16.122869849939228,37.51623750895173,1,S01
1500,0.01604183395991461,-0.020907988541478822,10.134140531681027,-4.357609082706186,-1.934104274762526,-0.17309982898994447,29.57598473452207,-16.90958211124078,37.8445675458497,1,S01
1520,0.012491729051143999,-0.03883192242553486,10.14341762678414,-4.801498019098191,-1.0425973907962662,0.33250686029208587,29.13679668787835,-16.166992552124153,37.25102818180387,1,S01
1540,0.012845100489254746,-0.03100162187353154,10.145529187092915,-4.2412345030774,-2.3431374410617787,0.6668538504047101,29.323814450474117,-16.622329164814175,38.50426017494058,1,S01
1560,0.008877053914230715,-0.03204703051013734,10.146530448063405,-4.503835035591185,-1.9350018561667564,0.2686097417931136,28.688201175370654,-16.50049590830012,38.194628808886506,1,S01
1580,0.036876763801630255,-0.012003945102877812,10.144976923583018,-4.651832766405268,-1.7775640204083833,0.9255882492130006,29.528392314102256,-16.151390193754004,37.685398310415685,1,S01
1600,0.04995692522043778,-0.028367455444767646,10.13941301511465,-4.1166710404869455,-1.409600997700886,1.203136153204015,29.051515434865795,-16.97805581325231,37.9207268250934,1,S01
1620,0.020299272490765977,-0.023314884627548327,10.128120461124034,-4.142685202449734,-2.0307765551380874,-0.28769454211445533,29.08371859170313,-16.68200473835104,38.43999258510198,1,S01
1640,0.01683301716551587,-0.024232390353588422,10.169540728003508,-4.755064683921926,-1.7609609771797512,0.8412584706973201,28.89148704455789,-16.528816562803254,37.94383676659885,1,S01
1660,0.04432057885426427,-0.008839440036366053,10.138972930839827,-4.229630953533496,-1.0462955673490573,1.4487196872614332,29.066511248430093,-16.684730184456853,37.983144807598215,1,S01
1680,0.042853780922100404,-0.019598544433296228,10.136143725504077,-4.297051528095789,-1.6735923746682504,0.2850279019595403,29.0357709609942,-16.143124411860025,37.97669315294379,1,S01
1700,0.03800459912483442,-0.020932488340557658,10.132802856351912,-4.659227460909678,-0.37986983547768727,0.10363548487193042,29.440022806842915,-16.434734426669056,37.88548940275476,1,S01
1720,0.04044840663477883,-0.008741336714178254,10.159489600795114,-3.3227366764309814,-0.9935773865962327,0.4113727180231336,28.998200321916897,-16.282100550360028,38.163313696013034,1,S01
1740,0.06057028405260087,-0.024246776319281994,10.13467210218225,-5.555931866069735,-1.1504160344554026,0.8493944761716852,29.385345902351535,-17.14624305380299,38.417809682216394,1,S01
1760,0.08366548220578113,-0.014815876959012743,10.15003513927761,-4.652212232222442,-1.8509517963426834,0.9180022201448282,29.31670310522109,-15.64380065285598,37.82907613231236,1,S01
1780,0.06937927031380604,-0.019994244838672785,10.144582661625419,-4.397418269295455,-1.7102288424418903,1.0572730982324932,29.508860258046706,-16.262960161540022,38.19296493893836,1,S01
1800,0.06414725620221848,-0.00939822377238956,10.145518646015084,-4.147713534374895,-1.5149731473718746,0.6319691962583419,29.415737560803485,-16.047410150009632,37.75150227252544,1,S01
1820,0.06257585984563846,-0.01976533241260118,10.139306487093782,-4.58485410982962,-1.6140342499425597,-0.48128134729281846,29.3376279163901,-16.484261209110578,37.68731333018202,1,S01
1840,0.0703998040801544,-0.03993985020038557,10.153818505109221,-3.252460800241303,-1.739512922673668,0.8053332638399994,29.148790270704563,-17.009612294219878,37.464386515220376,1,S01
1860,0.07329564311470238,-0.017004723577336366,10.157018122987695,-3.6142602760585825,-1.3851914174332278,0.12982481233502646,28.66279086397713,-16.657636490377016,38.107776102225486,1,S01
1880,0.0875333575943789,-0.020041000258995995,10.160602167347383,-3.475441226257317,-1.0624769439823505,0.7811711427128727,29.406302544334288,-16.204881532531395,37.204274871989,1,S01
1900,0.10645000331194789,-0.03408749912592684,10.160849204231223,-3.894910543705675,-1.4423774065027857,1.2900883673783041,29.20728989934823,-16.240951650015532,37.529305939620414,1,S01
1920,0.1036558037615863,-0.02508776588492625,10.14407201758864,-4.351943140471996,-1.6222458206869679,1.422535315861499,29.86481606005133,-16.25809956058119,38.056340451293494,1,S01
1940,0.11035460540783175,-0.0319137176593993,10.145055464935064,-4.657709167164979,-0.8143521737419099,1.2052148414804562,29.10455365075679,-16.43502816538031,37.68490044329268,1,S01
1960,0.10070947000912593,-0.04721237206314528,10.146291775036397,-3.945874325413585,-0.24295874738117884,0.36980703891437783,29.35193027265002,-16.643429363537933,36.87577344442116,1,S01
1980,0.09324210567537149,-0.03476893069874494,10.12971822372073,-3.7464563429954496,-1.0169565955283841,-0.40840267103578276,29.142498007654076,-17.128238259542826,37.55469563563419,1,S01
2000,0.11391042710198784,-0.060922606271536076,10.14447659880257,-2.925387737085435,-1.236881922324174,0.7588657182317693,28.539793489759575,-16.275047184278463,38.226275061891734,1,S01
2020,0.11488224674637186,-0.0766831586031093,10.162231012355974,-3.7584196303918347,-0.9406961937518591,1.48032061127657,29.297278371332716,-16.4461095743532,38.827211131672165,1,S01
2040,0.13892004032817634,-0.04233536730599728,10.153868194594628,-3.6186424064578318,-1.823686143275601,0.5493538072777253,29.699354166981085,-16.609551175897778,37.40333233181275,1,S01
2060,0.14470264625685297,-0.06442798797116348,10.14992507428333,-4.698910036871523,-1.238429484630996,0.29454692011239725,28.582559432256428,-16.96712811053048,37.865745215093206,1,S01
2080,0.14019777894341656,-0.06817118541276283,10.13063566923448,-3.438373632174711,-1.3446101025638002,0.7528905842501831,29.13232887410714,-17.080115390197683,38.13413043091725,1,S01
2100,0.128701133523774,-0.06978332405292889,10.136542378428908,-4.349807523463976,-0.7989992585091263,0.742469570674152,29.290943334536585,-16.402569265560878,37.90060099104611,1,S01
2120,0.1200482963161128,-0.08331649365026132,10.140367313236052,-3.6829994469951326,-0.7888884203230024,0.5458570570618948,29.511464015788576,-16.132507430270024,37.840322859890215,1,S01
2140,0.14529921898066026,-0.0867754261874558,10.156364007954371,-3.734701351681875,-1.269343087721005,0.4235271236024257,29.36710851170949,-17.341245533690802,38.45206237141926,1,S01
2160,0.1419445987456183,-0.05949098855648369,10.154908621369826,-5.070729838770256,-0.2819275999683516,0.6909221634507191,30.197085749274777,-16.68242498684269,38.43476801348586,1,S01
2180,0.15220897516836443,-0.08210707908427291,10.141086759554213,-4.069982919773864,-0.8763780919702354,0.31798026366974175,29.41967693749127,-16.666459030583688,37.728949290926394,1,S01
2200,0.14608798030749598,-0.08996535141246037,10.156055438114858,-3.5816405594925698,-0.9231980087121641,0.9058050513365447,29.406808113448093,-16.740577686156087,38.1109238682434,1,S01
2220,0.1706538901848686,-0.1257536161741345,10.145529325858304,-4.1618345115288875,-0.5917171795327486,0.522869892283189,29.36616311538175,-16.09791897931484,37.96518224397424,1,S01
2240,0.16777848454800465,-0.09035071366820671,10.153029393477354,-3.4344749920161157,-0.712966185325059,1.4971424847965549,29.24095433894859,-17.60563845958022,37.6957510857446,1,S01
2260,0.16881961078100538,-0.10267356410607159,10.154078624912671,-3.8866500507268746,0.0076823421747804765,1.2193000445641515,29.406605932402847,-17.314923238329314,37.465863935376746,1,S01
2280,0.16735508634714943,-0.12572760662853955,10.13938043224458,-4.22452548157532,-2.305494400021722,1.4225675437458354,29.03023673549187,-16.65683267811366,38.03909416816445,1,S01
2300,0.17001947849996296,-0.09015023355124675,10.140223261182967,-3.9288018444612023,-1.2036026794668202,0.8529072407577415,29.197199120421782,-15.763509449251044,37.8227674963275,1,S01
2320,0.18100119210647547,-0.12130209160117239,10.15283378292687,-4.140993727821778,-0.9713903720362563,1.0357119317364558,29.032187304986824,-16.300561545817317,37.743197472937894,1,S01
2340,0.1790455179516002,-0.12390891803230142,10.143136015911972,-3.6119539681176667,-1.0623123679597095,1.2049689070908385,29.154741102319186,-16.56724398560432,37.53777069214711,1,S01
2360,0.17515260324438503,-0.1216944550605625,10.155161034478274,-3.219692809260007,-1.001459696325813,1.1577332744418816,29.24390248660909,-16.524552098356565,38.11063249238722,1,S01
2380,0.20245127986571368,-0.11439019528240144,10.145372673220347,-3.9363065395516053,-0.952407378733604,0.874444433800752,28.987485146866447,-17.00737262904695,37.35869477564835,1,S01
2400,0.1759320401411874,-0.0872747577554153,10.15183723063002,-4.545396026695699,-0.022220361782445908,0.9608874827868978,29.93080716522479,-16.623261312838544,37.868829303238535,1,S01
2420,0.18594541601621412,-0.12139998091774545,10.146296505610088,-4.731120430586445,-1.366782449315124,1.764773679449008,28.863002065970875,-16.067772791154802,37.99109529644067,1,S01
2440,0.1867779526527042,-0.10687269937714114,10.170820666313011,-3.99254580801934,-0.914171311282789,0.35974588119296097,28.987203710260957,-15.68440201113309,37.65667972698832,1,S01
2460,0.19611307782711782,-0.13014920550503173,10.160956687121232,-3.1402632873074485,-0.0487881410474289,0.403586570603753,29.320759536199898,-15.961041246722766,36.95366963055837,1,S01
2480,0.18004316398171905,-0.1087934770807365,10.143410758691424,-3.777013957364597,-1.3081902851378981,0.4197889510678348,29.409610302737654,-16.718189458508142,38.15997280758819,1,S01
2500,0.19312902575273616,-0.12436051586034605,10.14219873838904,-3.9758271535513594,-0.7850993017558654,0.7135530298234086,28.892805218065497,-16.19726321399575,37.68683770398366,1,S01
2520,0.18113506554074907,-0.1215208143793895,10.162140511208277,-4.317233651980066,-0.6392897229009684,0.7494485089051861,28.77345741811507,-16.549572137242635,38.110520046738095,1,S01
2540,0.1677795510681919,-0.11109041108479617,10.150922516056255,-3.8017235207591993,-1.2760205801140216,-0.4420724439389262,29.305043389201828,-16.625257987792608,37.89411972398481,1,S01
2560,0.17380332632427797,-0.11348928295217349,10.157763701820876,-4.419476815226932,-0.9953472852610723,1.5669140336092737,29.20152763431361,-16.13804991350348,37.62957665252018,1,S01
2580,0.1744200279841553,-0.11048681308001007,10.136687204134823,-4.195128683514016,-1.1428792650049961,0.6849942330974955,29.29510451396604,-16.882502006052228,37.94748955132206,1,S01
2600,0.17349066541487188,-0.10826934817048246,10.152643246917608,-4.163730925548764,-0.6466343280290261,1.6090142919250199,28.930151272856044,-16.909611487904,37.6729383948154,1,S01
2620,0.1659948518101878,-0.11195567231779444,10.14322991274013,-3.9733826464361015,-1.3677347232811894,1.522176698641589,29.96603263316399,-16.955984829590996,37.833865799169224,1,S01
2640,0.16485465444814204,-0.09381423558341853,10.140177848850723,-4.454029807945762,-1.4025803127360532,1.6614355598021842,29.7566068927405,-15.882064347493513,38.13559024291638,1,S01
2660,0.17297034098658956,-0.09034897150120877,10.140258029670996,-4.239505002304479,-0.8983671385934908,0.6315277605682494,29.272130880341912,-17.08276028034546,37.41032628879769,1,S01
2680,0.16843410404654802,-0.08414739046519448,10.150519170521854,-5.105301042026999,-0.34348552182095426,0.7829219932803135,29.519776557688864,-17.126972182476685,37.94397260252903,1,S01
2700,0.15509285463778663,-0.09768442086731033,10.133485959571033,-4.442081529620938,-1.299424475714718,0.6610669507395323,29.138980128733856,-16.40916978251495,37.972584225584725,1,S01
2720,0.13619348209949722,-0.101828730034723,10.148903122002073,-3.910658260326237,-0.8745673614856054,0.7403687042612973,29.190174282769597,-17.262947102838595,37.92623768971567,1,S01
2740,0.17241898863663066,-0.07917982071582158,10.157250622650334,-3.5649923560784713,-1.3874354746349962,0.7665334381524348,29.963700426562205,-16.28747887193888,37.3797749167897,1,S01
2760,0.13005315532648687,-0.07741677105005326,10.14661431542684,-4.215708499187693,-0.633978201261249,-0.03340231235689339,29.136476713773384,-15.99319670977788,36.780326154838995,1,S01
2780,0.13630276830551005,-0.0819493240709375,10.15342625937047,-4.956355580616026,-1.3019685167409831,0.9539975228269374,29.762974762230282,-16.456899137106802,37.554236161484596,1,S01
2800,0.1366625975471013,-0.07214956540496885,10.146772586392778,-4.382191571560936,-1.0458375589220306,0.5209598639676777,28.94223324335863,-16.711242784237996,37.68593769144411,1,S01
2820,0.1331139906541259,-0.044861838839955606,10.15116714365938,-4.55385470432123,-0.9673211032157195,0.7130834276249959,29.39253841651072,-15.970121226460874,38.048585291668836,1,S01
2840,0.13840963291122174,-0.04812994068390501,10.135364220456896,-4.506982739240788,-1.5046934942604973,1.2829844980393463,29.37069669478566,-16.27373492751145,37.692903826515426,1,S01
2860,0.1230111003337158,-0.0434190722216719,10.145759548361541,-3.7302861655289825,-1.2951100874452883,0.8909763899258023,29.662570690201495,-16.164252175781122,37.229778520711655,1,S01
2880,0.11319107286510634,-0.056278632156567025,10.146970296639317,-4.536250673624504,-1.0028315364858353,0.6781779259991035,29.54701996545203,-16.565763249342112,37.87164354234378,1,S01
2900,0.11082659713842555,-0.08760968424439566,10.123980042295496,-4.555393216466637,-0.9904217983984642,0.5371976913415368,29.579530466813402,-16.919826810864354,38.089067216432184,1,S01
2920,0.12368205084217403,-0.046969313111748845,10.139782865253633,-4.724055861629107,-1.9178662457467082,1.1073399341793517,29.20796763510948,-16.867315745751853,38.625879533866915,1,S01
2940,0.11622454177201627,-0.029889732190200892,10.14099446130747,-3.8500794588413814,-1.1110900038942828,0.3706483333308217,28.336944216648885,-16.50536165023319,37.84388867454941,1,S01
2960,0.11035576188698805,-0.033790636404832944,10.14073610731059,-4.164713914138924,-0.9619827317048635,0.81608806913669,29.176497759673975,-16.866604657162608,37.796288510426585,1,S01
2980,0.09607723592987098,-0.02854264648412786,10.151152794347272,-4.4443529759396165,-1.573626399858871,0.39118930663093177,29.972549335551605,-16.285187530036122,36.97834331826738,1,S01
3000,0.07733641105525457,-0.034296399285579315,10.149902571991074,-4.391535566864458,-1.3667479029141416,1.1741963587348683,29.10680510961844,-16.66845542226757,37.858808636375,1,S01
3020,0.09087412256796781,-0.04161653653730431,10.150355921038143,-3.902491686906674,-0.41102302634085,0.7885957439551293,28.855437417627915,-16.39279420098768,37.81747568046331,1,S01
3040,0.07561698777315569,0.0014378377861237746,10.154021795312811,-4.343657086380513,-0.4369974018729703,0.748430250559531,29.177709159468176,-16.628508570472295,37.193541930339286,1,S01
3060,0.07319751884929693,-0.03930216733926937,10.148390712709366,-4.486518452511165,-0.7918043045085794,0.5534165313958473,28.99689282796377,-16.127505205671383,37.690215307117256,1,S01
3080,0.07397810147493449,-0.031512994991494216,10.16482552439286,-4.896514085759686,-1.073991021342775,0.4948425066072777,29.003061588286887,-16.68011712372978,36.93471511945069,1,S01
3100,0.06890979585901401,-0.03113751290166584,10.144743009930377,-3.6716234836571893,-2.208903833678974,1.484303010015676,29.23035229082495,-15.990492787231974,37.21724833331336,1,S01
3120,0.041314045600900844,-0.017482763689264186,10.136464165114669,-4.420169785221145,-1.6269775068044345,-0.010974004609620058,29.58436731812609,-16.33496486702279,36.81621753281203,1,S01
3140,0.05942877651838309,-0.004946802329942462,10.138448548466764,-4.578082683849364,-1.720696464329965,0.26781373990873697,29.29812523394773,-16.783093064611403,38.354688109820486,1,S01
3160,0.04862638217576872,-0.02484826851986823,10.150527576598009,-4.405923512936969,-1.0650409772436853,0.5521828170650276,29.241139607632324,-16.214993486854468,38.15647846702723,1,S01
3180,0.0357539961119894,-0.034584785080023536,10.137449683887688,-4.1753073373332485,-1.9285308222964495,-0.27402182741577064,29.878126044345127,-16.597611211862905,36.26883253710635,1,S01
3200,0.02291490663639742,-0.024206325562207996,10.154887017091381,-3.7181340417766715,-0.39956652338407905,0.3709498011776452,28.70027786441705,-15.934031701043184,37.541775253860926,1,S01
3220,0.037567773258615406,-0.03134859079780156,10.154544800515602,-4.843915900940967,-1.5283229870571544,0.21793618833015704,29.50943811828967,-16.371982470637043,38.4558618111757,1,S01
3240,0.022033284961859037,-0.010153633240610527,10.136620710199926,-4.790564766640756,-0.858614068569469,0.893381167660948,29.420926305862235,-16.761908193694588,37.749257411931865,1,S01
3260,0.03070826027559373,-0.014184655183532097,10.144224483766935,-3.394101466210959,-1.5460340849325132,1.0324928866699832,30.042702966196583,-17.27274509245569,37.39896625241682,1,S01
3280,0.03642585355164321,-0.03651185882939264,10.137411154179492,-3.709107360951649,-1.266030015462205,-0.5978656025761769,29.079583068105798,-15.896466902847628,37.746481079280564,1,S01
3300,0.02930336532733445,-0.03972097660842058,10.138927586849562,-4.917617649234371,-1.484257954344013,0.5501837890075112,29.542175120081907,-16.1260758276672,37.893171383189724,1,S01
3320,0.023504879586527416,-0.032218481883512805,10.134678183972406,-4.489698762104806,-2.1009643029161333,0.4736055619460785,29.900527699003852,-16.488230583031672,37.87233575389362,1,S01
3340,0.02544222928618027,-0.028873467232704515,10.146362255649425,-4.191578798533781,-2.0600974759232122,0.20656886613267061,29.082826668711036,-16.253892838551174,38.11791071834204,1,S01
3360,0.03512321504189719,-0.03561887113194113,10.155365283017343,-3.61720304831965,-1.472701020807217,0.2774183353867795,29.19582894948589,-16.811413553756818,37.83633630988124,1,S01
3380,0.013201979388485635,-0.024722472774486595,10.140165691854868,-4.530930138880007,-1.0106210710204673,0.13434255886267776,29.73516496043351,-16.605739485576,37.53040268625779,1,S01
3400,-0.0001485164783097126,-0.03568033081853679,10.15097378585022,-4.517608104206757,-1.1560201712364637,0.4248548186899426,29.011109765835766,-16.441886729632834,37.50034237008554,1,S01
3420,0.01500266628253008,-0.04924603799666266,10.146841204472887,-4.301816811581646,-1.6023155447764912,0.4312336141899381,30.054227381578134,-17.311929733664982,36.65948822448852,1,S01
3440,0.035456400188424594,-0.05761712569577276,10.150827397285795,-3.8839329452660256,-1.3989773393243294,0.34398939262302053,29.0377834009206,-16.334815610764014,38.31375003184155,1,S01
3460,0.005629109876340299,-0.04243531363482092,10.146069442835453,-5.382237936496988,-1.0360367528781773,-0.6683476760198123,29.729219844780694,-16.19351971607452,37.37644032821584,1,S01
3480,0.024565407165305475,-0.055882022934740955,10.135537069727597,-4.770331001614165,-2.186835180750901,0.972115061220584,29.826100038168434,-16.097344375489584,37.82572042585191,1,S01
3500,0.015191590885738251,-0.0718286921219515,10.145489905128889,-4.038318510289153,-1.5188390352112882,-0.010889544156108433,29.17853876794598,-16.304055031562346,37.86706623702661,1,S01
3520,0.018121830096700278,-0.07176780463743854,10.144402526975577,-4.792020858607005,-2.001391491261937,-0.07039421504232801,29.55006157917007,-15.53379956974733,37.97884157820164,1,S01
3540,0.04190861096003121,-0.07764855624672776,10.154491352529105,-4.106743525674064,-1.007202421598195,0.29256672797701083,29.382481357454676,-16.536914389130082,37.50883985341567,1,S01
3560,0.018973065309637147,-0.07984230834763897,10.130456262306952,-4.459430220345455,-1.7091734252539872,0.07067035162008661,28.999962745683614,-16.487503891359566,37.570574910441366,1,S01
3580,0.024578187948182117,-0.09504296074328575,10.141502273739935,-4.21298316287724,-1.2321112436074808,0.6909269397692446,29.31198602913007,-16.746497895790714,38.170065665941166,1,S01
3600,0.02693158375048635,-0.10841322584459119,10.129814921366389,-4.087075938305777,-0.9402356480848724,0.3754310476775936,29.506102602697975,-15.187268273842736,37.671392775471396,1,S01
3620,0.028734941028808872,-0.0991376768023624,10.155461587795662,-2.98493080436433,-1.8073283414279795,0.8584927424887512,29.285052932725925,-16.324440666723625,37.59249352203128,1,S01
3640,0.0298615613103142,-0.11292385403849148,10.15966362218785,-4.154251972403832,-1.1918976606351062,0.7994227454200855,28.704080737994357,-16.26672830278947,37.66921792213706,1,S01
3660,0.04145943026261357,-0.0887367291923396,10.147408696488991,-4.43824797267126,-1.8599954728190435,0.7549076455956591,29.73390357287794,-16.300278446917325,37.27293952706267,1,S01
3680,0.039087850329317546,-0.08867610163636686,10.154711780816875,-3.9123701965183644,-1.4670745275224684,1.348393240615965,29.410970787293003,-16.917403759895947,37.284573801127024,1,S01
3700,0.051846946456743356,-0.10675387985042883,10.137564950688313,-5.020405790123878,-1.4850310846483508,0.016334346110883136,29.667999410217657,-15.911852340952306,37.41439191934313,1,S01
3720,0.04258167147243436,-0.10451579142038231,10.13254209277008,-4.009023460237786,-2.26514997169626,-0.22051236925170137,29.291217046903068,-16.488882080883158,38.39573415078915,1,S01
3740,0.055834063214612414,-0.102132154734534,10.147098856802645,-3.504894968314508,-0.8410852053876186,1.2937833180940523,30.079524298723136,-16.72645919585363,37.578944673426854,1,S01
3760,0.05444829852685113,-0.09473888762918231,10.150709597290424,-5.006094603288449,-0.9039506519807323,0.6832330800067424,29.462137673666373,-16.404930353863712,38.03670714875241,1,S01
3780,0.0456088089886496,-0.12366379705925874,10.137082904348615,-4.403418957797777,-1.6468758853225212,1.153726366995539,29.340301575291026,-16.714280187701554,38.49059732406928,1,S01
3800,0.051190549979665254,-0.11360883939379668,10.142544616563537,-4.869271088321533,-1.1235120044311662,0.8863881962271349,29.38608098344065,-16.15399138993643,37.55564934928421,1,S01
3820,0.06947018128359429,-0.10006235475077674,10.14844681661378,-3.122780788624123,-1.7725881314279537,0.7398824277798122,29.95850578053294,-16.42211924181303,37.75812667939536,1,S01
3840,0.06262644194122767,-0.10719225150803749,10.122100704794095,-4.528619556683898,-0.9875398834814917,0.8528695491868878,28.978212093151704,-16.807276698899848,38.3996073133791,1,S01
3860,0.08296461960839878,-0.1107069503847005,10.147177370064306,-3.6140942823645084,-0.6500304053106738,0.3066344540054757,29.08072511801093,-16.09093665973268,37.48560164867147,1,S01
3880,0.10281291318862527,-0.10402743480950477,10.138476537024879,-4.772120372502119,-1.4529665690372255,0.2961683450281973,28.72437905955785,-16.724722139727774,37.974063234509245,1,S01
3900,0.0925042476465543,-0.11027783687337667,10.133581785727637,-5.033360553656602,-1.4259922251141866,1.0538453087506734,29.42571689459983,-16.1647720702293,37.92766741761295,1,S01
3920,0.09896208554274791,-0.12498573774360995,10.136747913495132,-4.537390604800481,-1.3425048810367735,0.9135674036686765,29.79078258238584,-16.063893168878884,37.60853440985323,1,S01
3940,0.09746308690498957,-0.10966812492334226,10.162815798365054,-5.277218918449077,-1.0062471464180938,-0.4081809171974059,29.566700237700008,-17.138943507852062,38.11491017216507,1,S01
3960,0.10170338147636174,-0.12641154098742496,10.151186575448975,-3.808540024961969,-1.4121438765431844,0.8544098707330554,28.99368345584115,-15.992130392294198,37.39194084252642,1,S01
3980,0.11398039827151143,-0.1201341864747195,10.152796224060793,-3.78793378926048,-1.5507350791878518,1.3367156766795996,29.856047140303755,-17.455693847015013,37.288847057382334,1,S01
4000,0.13008773172515933,-0.10042350941759542,10.166444275605153,-4.00126456073479,-1.0003009968792418,-0.7093878180128458,29.468376219391452,-16.00386185306234,37.96590237333327,1,S01
4020,0.12257277904961233,-0.10457035519334473,10.14899570181803,-3.5311431763948264,-1.386297056725752,0.06949685333545574,29.54947955053308,-16.405356625624478,37.81613384383158,1,S01
4040,0.1121126456512943,-0.09538967216921541,10.130706486418019,-4.209319722236372,-1.072942452537485,0.39212824689795184,29.191625110576453,-16.54763540673685,37.73415209318847,1,S01
4060,0.1248527364068612,-0.09624369115921234,10.14294293128114,-2.7511608259322733,-0.6869418248566839,1.618965979544127,28.914110556874896,-16.1242151922351,37.783641866719115,1,S01
4080,0.15063345566163228,-0.08729564522061956,10.137659262398929,-4.907217694319105,-2.405886507313562,1.3545755596242302,29.492563352874054,-16.76584286644532,38.19631544950093,1,S01
4100,0.12497397940086775,-0.08669780130744788,10.138393018246285,-4.271295167501026,-1.2503220148810514,0.8936153919696472,29.184856218877677,-15.884632856585442,38.01046406346,1,S01
4120,0.15729926694881216,-0.10936064815065939,10.151637091333335,-5.137165494481405,-1.2431008105026238,1.135895485342095,29.074342331181438,-16.56308226998956,37.54792753648414,1,S01
4140,0.14334490037680153,-0.10052075192366434,10.132074567914842,-3.3185823645825527,-0.5916475268918872,1.9853850058152531,29.297601180250282,-16.72961573516705,38.438197707726914,1,S01
4160,0.15014223152458214,-0.09626563264040783,10.139604616740755,-4.127356316812967,-0.8429821220781414,1.3170909784842733,29.534555076658656,-16.222448314576035,37.93905709221735,1,S01
4180,0.144490321576035,-0.1011121733978157,10.140706380720037,-3.7756409715450343,-1.882724369361199,0.926352186238047,30.255537228817186,-15.869595185400724,37.03746384778474,1,S01
4200,0.1572745502629026,-0.07231132402898667,10.13229713181539,-3.5296875479244574,-0.7193372156513841,1.0128523234231646,29.57956878672734,-16.238537850280373,38.247448190143096,1,S01
4220,0.1448873685023036,-0.06765355853763638,10.156242387730096,-4.494395367311616,-1.2762467685511776,0.22753175225132544,29.145166377023482,-16.32691443101601,38.281854540742245,1,S01
4240,0.1403543803380792,-0.0714837807310287,10.143108916656958,-3.9934432508499143,-0.37104216191797956,1.445974384103494,30.00018916901302,-16.80633997718524,38.22217438311919,1,S01
4260,0.17399894539348612,-0.06271532914218944,10.153257603987743,-4.153411990563344,-1.0913686641818099,0.42988482622672197,29.270157961258118,-16.461291006010846,38.325609705833344,1,S01
4280,0.14395434679972596,-0.055870812572951255,10.134815057843985,-3.5130296639393497,-0.9796851236056612,0.8686457050293852,28.622278069040718,-16.256925211880564,37.14858134215712,1,S01
4300,0.17284149555898792,-0.059347755801633914,10.126813030651755,-4.395610685691303,-0.9312164689128426,2.265391682273969,29.832648364280253,-15.554456856446187,38.614341186648474,1,S01
4320,0.18665751890626636,-0.07120422604532524,10.14101739439834,-3.962181004266518,-0.6609110247594082,0.48233217078718127,28.674762730199266,-17.049827156301696,37.6116111326799,1,S01
4340,0.1667263952467784,-0.030865525670036767,10.140543081270032,-3.7110563776483843,-0.7309065445234245,0.375468408710662,29.351666073567888,-16.034399418456132,37.19482476404365,1,S01
4360,0.17651367384253125,-0.04145316749136746,10.143530748362567,-4.062068587228356,-0.2879625167379227,1.442434474153289,29.17577655906189,-16.24402125317792,37.35525462025233,1,S01
4380,0.18435807383743058,-0.05150060337599768,10.150315202745187,-4.145577057191858,-0.16303155430593774,1.3040670140985164,28.993527458392084,-15.870946771801549,37.60284872795074,1,S01
4400,0.17385942506782803,-0.03174462221106941,10.14796290254441,-4.436696761364943,-2.2731093115726586,0.7832375770885525,29.205079714275517,-16.703234064124615,37.464785817888156,1,S01
4420,0.18048319676709007,-0.03396919247500496,10.139610261830674,-4.6599315128890915,-1.4380466363200062,0.5519583380129076,28.921035533731533,-16.41094875643446,37.52787060241476,1,S01
4440,0.18701449732243391,-0.04928954165898468,10.149535897382089,-4.51458969894593,-0.9087129888395573,0.6607601404124718,29.583319417433913,-16.950896584931208,38.12756809016975,1,S01
4460,0.1938310848964209,-0.02283791690089028,10.14709266776334,-3.632987309896058,0.02160777372543876,0.32371913196866026,29.4964969579577,-16.945238566202278,37.77828931260812,1,S01
4480,0.16509395928381132,-0.008641687162010095,10.132768400896417,-3.6903149056246325,-1.5989814318757327,1.240935535710996,28.684845252605122,-16.87480605030073,37.797405991081305,1,S01
4500,0.17935100869279186,-0.022630787342143105,10.151888058682909,-3.917095745071298,-0.5002127988867844,0.7344336298394517,29.430271099292707,-15.890011907755932,37.611482412523046,1,S01
4520,0.16441159750286866,-0.02343255580937579,10.153120130544178,-4.033898499097778,-0.6819680255074613,1.2351898566885664,29.533855358436977,-16.892770484455788,37.1052770708053,1,S01
4540,0.18308829321263484,-0.03061036055236578,10.136757421471874,-3.304918665064574,-1.222725276936952,1.0811883658991506,28.94365775852919,-16.503571345947556,37.762393860946794,1,S01
4560,0.1640201065761593,-0.020010484049720903,10.152667636771152,-3.800313242687602,-0.2317580682481516,0.7380891322189438,28.740690019873895,-15.801924309190252,37.910587745769526,1,S01
4580,0.17370353905079838,-0.02872119136573858,10.148442336597912,-4.806449919571729,-1.0077799266037186,1.216863964155948,29.173687342658447,-17.131136502222645,37.859098118199455,1,S01
4600,0.17380132389935343,-0.008766353020406452,10.138719450164105,-3.161480574082822,-0.9246719583998992,0.34628958294206935,29.603921088504308,-16.31783249055377,37.903648830266604,1,S01
4620,0.17200829504654364,-0.029830068245543226,10.13931330809262,-3.2857797792456203,-0.3925177967667606,0.27542341209790333,28.699266521931047,-15.979805195201463,38.08333233681946,1,S01
4640,0.1434924398782928,-0.027951029505888972,10.148416566051328,-4.650728521467508,-0.7705071007511648,0.6418746395399317,28.991010774661785,-16.54539717570995,37.541147887798054,1,S01
4660,0.16954939504310662,-0.013624415195323876,10.125073898038137,-3.72628299228796,-1.6876482381141167,1.2497689125959486,29.144943658473448,-15.931316231052648,37.57611912436911,1,S01
4680,0.1636033205912492,-0.03247395143385092,10.158622626556069,-4.5607240034733785,-1.1241269407498091,0.9913507738367293,29.523158185106478,-16.79922945570642,37.784865106438424,1,S01
4700,0.1542642386969772,-0.043609537266270926,10.14610695942131,-4.41108031773947,-1.3694063884552596,0.7517374763683129,29.780339622532306,-16.950456072806503,37.56007717146666,1,S01
4720,0.14412738707120232,-0.01780439386390304,10.155171389056687,-4.050418742091883,-0.6431194037038691,1.4703825727705389,29.269624789900874,-16.711620659162122,37.47120540079138,1,S01
4740,0.13839043767993028,-0.04631745487746161,10.13579901961885,-3.6747333812935423,-1.437046526657563,1.3701824344364852,28.801371090066446,-16.67641647541214,37.59911273417935,1,S01
4760,0.15423942722630762,-0.04181511108929058,10.14311111884191,-4.15584044792382,-1.1696376167419877,1.0697476262616274,29.142636747537708,-16.326287539505042,37.63811325533926,1,S01
4780,0.13689612681469926,-0.027103092151391638,10.140100021615451,-4.1503231555736155,-0.7896665951788551,0.597002816836909,28.774493095869182,-16.78540605756453,37.825011932049826,1,S01
4800,0.11706019521383051,-0.053941752867922,10.145930511786128,-3.6369960529051406,-1.5137891646152326,0.5048665018176641,29.620172112277608,-15.545707738170286,37.58121839554323,1,S01
4820,0.12100693349594005,-0.0436499790307958,10.154514901126944,-4.1795600071482495,-1.0375887419815215,-0.021252503228837316,29.128351948727495,-16.29136023439169,38.39540462584387,1,S01
4840,0.12055694152593206,-0.05927676369663374,10.157502997582665,-3.8476882337153646,-1.0963291916940476,0.5266036880983599,28.596653947930292,-16.448123717149613,37.361989429777836,1,S01
4860,0.10962566969672512,-0.05897385793859045,10.155276276234693,-4.41114406254316,-1.0548779044950158,0.6173784688753851,28.894059452968413,-17.012951297983,38.00032297970153,1,S01
4880,0.09981241794419536,-0.0445483017854894,10.152660385985348,-4.436727895029645,-1.1775309262767708,0.20359444768189588,29.321046061281077,-16.888263446315335,37.90416973522402,1,S01
4900,0.11199561850138808,-0.06248726803475842,10.139630794637167,-4.3507266372804105,-1.5267675543906025,0.5480537981348161,29.1927011531263,-16.980259625345717,37.874644607249344,1,S01
4920,0.09343875990038417,-0.06660582627466412,10.13694101735564,-3.7660447223304425,-0.9008548183903642,0.11638145362776386,29.227673186039627,-16.661651828082896,37.81346488217376,1,S01
4940,0.09442176642324515,-0.06040001232183171,10.133319974978301,-4.032081413682856,-1.3056698041518577,1.4647084157657488,28.957092518127684,-16.822227240485127,37.90303157036733,1,S01
4960,0.09404055749535158,-0.06836094870743872,10.145982439734675,-3.73246818009041,-2.3276628684397096,0.9776974781062517,29.492059741619617,-16.505013147299877,38.09680859620988,1,S01
4980,0.07772590771069109,-0.08689566618080022,10.15241381654307,-5.069067916182965,-2.4177023755290943,0.8413294383416876,28.838053544376184,-16.360568528268573,37.4209617713007,1,S01
5000,0.07793657617692804,-0.08613150046503538,10.140006830509117,-3.8736476109862705,-1.2816142434338482,0.6455083566089265,29.432393357228097,-16.817985922575044,38.167444226837645,1,S01
5020,0.06300515940665288,-0.08712245201597273,10.16017841753484,-4.5460624546093955,-1.4005814964719965,0.6106806335899128,29.069336208089528,-16.928511569162332,37.762750277694906,1,S01
5040,0.07716687084797882,-0.11833175398843464,10.14300563063604,-4.65491285863299,-1.3466832993970572,0.11544782676552978,29.425852426313433,-16.477944044288293,38.010912601037,1,S01
5060,0.07347466967398866,-0.0767140770977227,10.162794758536402,-5.218206886376127,-0.8110682371520828,0.37869837654165484,29.401516206326516,-15.569506727995304,37.97538125578052,1,S01
5080,0.06371451241795734,-0.1054593569294966,10.137849007841897,-5.043455465118649,-1.125396429888493,0.363394628995251,28.93174722076755,-17.09978281353122,37.66417861197161,1,S01
5100,0.07256683329882849,-0.10754113302261778,10.136653991482293,-3.4109210645002936,-1.8152236865871536,1.2526825528324572,29.042617551363065,-16.934577528711173,38.5857907973127,1,S01
5120,0.05350935406043256,-0.09711249629628466,10.130115588822434,-3.4460235175017813,-0.859139801270294,0.8704958917505226,29.668906084004053,-16.952978720275407,37.89474075290862,1,S01
5140,0.06580525091707216,-0.10963039612688177,10.14564466539246,-4.206512866328203,-1.4573657389369203,1.3566566990779347,29.406626428923648,-16.900388219928345,38.558310110683344,1,S01
5160,0.046067980206894635,-0.11014025160438712,10.134365251042615,-5.544290937434893,-2.3612164570598244,0.10200244511540751,28.743059061587886,-17.140699207748575,38.451232874548026,1,S01
5180,0.04623150997766396,-0.1152416783000847,10.137673667545176,-5.8463774319910815,-1.2008258150135527,0.5733137862389565,28.989479865888537,-16.080032014060436,38.17943895935445,1,S01
5200,0.054328622105968206,-0.11345722744632483,10.128674376161502,-5.549818798380015,-0.9103905778776965,0.14283092914170836,29.632536925057625,-16.549689467226443,37.583390491210196,1,S01
5220,0.055024834301245364,-0.11900115341383093,10.154536635236928,-4.155236505234516,-2.370908811447762,0.7614857711168491,29.95543160979369,-16.889436734433296,37.723568078854306,1,S01
5240,0.03426450270235189,-0.1119491047987438,10.1380464203109,-4.823010528093709,-1.1608615949854642,0.005505796748750069,30.008175701915647,-16.60251347070666,38.054416458689374,1,S01
5260,0.03590554119212193,-0.10508501453501369,10.163532844999526,-5.383474760901629,-1.4015852565559175,-1.3085026585593043,29.31044950807228,-16.536079160229637,37.58232375797173,1,S01
5280,0.029316674536237444,-0.12359523565844269,10.150608727482593,-4.403475837887,-0.9391857994634109,1.5130649507908656,29.690286443355628,-16.979167343264518,37.498200662817084,1,S01
5300,0.029708756717178042,-0.12362472314785257,10.14370388338166,-4.249784481262644,-1.363988021741283,0.6479463369315885,28.876870768169454,-15.731340560244575,38.21345080455056,1,S01
5320,0.03683941926386694,-0.13256637650698413,10.163109475881296,-5.128396994413396,-1.7112964639518307,0.7265117644826403,29.374074962234438,-17.07415586391013,38.16119740842992,1,S01
5340,0.02419955279174464,-0.12189454254935694,10.144756276559926,-3.9823261571736706,-1.4915332116924434,-0.5466264028593241,29.32577995397894,-16.123232939052293,38.01294335040655,1,S01
5360,0.021177694233996486,-0.10951769849675025,10.152827826491741,-4.153261710775043,-1.8176590675590747,0.9860598448312452,29.180405037831235,-16.037923052761585,37.89140077427811,1,S01
5380,0.028340302879733895,-0.11232941196240308,10.123457115120637,-4.720361957575998,-1.2783100249123032,-0.43725903473387284,28.910089315980784,-16.76383123562801,38.0915515173244,1,S01
5400,0.01940934217689301,-0.12192691762284841,10.137398754850386,-5.088128165052225,-1.5837002123883028,0.5730684224401933,29.06398951199109,-16.033740177072957,38.081988006429334,1,S01
5420,0.01081282968746719,-0.1048489732687152,10.134504875474573,-4.9652283743961805,-1.2034874545245002,0.46788399204092335,28.676890061816955,-16.802298285483246,38.32425606318036,1,S01
5440,0.025518673447258486,-0.11302656903774455,10.157633713247847,-4.355248539785837,-1.399004763111913,0.696881366619021,29.737253074577712,-16.675683040592,37.826026142947704,1,S01
5460,0.012429668973407429,-0.11808349382453416,10.147891807437015,-4.570445579178763,-0.6630642869998135,0.2513754481906419,28.845078925570473,-16.22631222590131,38.06629047569265,1,S01
5480,0.030468022154360286,-0.10075781774317977,10.140947701278117,-4.226666850211011,-1.5652376208085117,-0.08970134201985547,28.886361395739357,-16.929614194762216,37.905763221943,1,S01
5500,0.014715520974741103,-0.11159723067510671,10.144093564397963,-3.8696404428397835,-1.8193412966267992,-0.6858117841628465,28.80274609718781,-16.6169170448504,38.14454842965995,1,S01
5520,0.022193083899092247,-0.09465265184856192,10.160817853344053,-4.417611586119704,-1.826061696588511,0.9150389936712979,29.739853898588862,-16.18604613633905,37.43888634984014,1,S01
5540,0.013221673101185355,-0.10112861684669786,10.151473088962275,-4.6305935877544835,-1.4351398563458337,1.8448608154604025,29.574034181094955,-15.61097248848494,37.716240927299985,1,S01
5560,0.016397581236599623,-0.08444426221527662,10.132137924691424,-3.9104846184872923,-1.2785174975499916,0.037951146162612415,29.30330540928783,-16.724891339082685,37.654630863831684,1,S01
5580,0.022669329169461766,-0.07635549825471212,10.138298348685064,-4.779506985519016,-1.8001995793593553,0.30402421940782987,29.198609875757015,-16.25153309537494,38.211999595731214,1,S01
5600,0.039407016881155256,-0.07808595088949351,10.12820780264866,-5.1093482109389345,-2.1009589461581912,0.3474847187605993,29.750622118862683,-16.22788182897962,38.1766425887319,1,S01
5620,0.02426304571511964,-0.09167049204523173,10.130272644816394,-4.281050084356401,-1.3282556695632772,-0.26219871663855565,29.728198566885435,-16.67361192333008,37.5502657507629,1,S01
5640,0.03785583167430975,-0.06482185599330513,10.155547854063176,-4.486495890280873,-1.7337799960003992,-0.10298765972620649,29.936864637523385,-15.692729830089991,38.24908582056446,1,S01
5660,0.032661033825623215,-0.08018449025039819,10.146199330944413,-4.268528635809774,-1.7756025793503138,0.31956989180343603,29.086589958873056,-16.325613766970342,36.888370498991705,1,S01
5680,0.051674103506539344,-0.0739182044208786,10.144780088241255,-4.803304972279108,-0.7910518502880292,0.7755914692596392,28.980584717161893,-15.431897919684111,37.5796411979083,1,S01
5700,0.05600607512726478,-0.07304678681122621,10.151625735341085,-3.660038054906531,-1.5755861754690392,0.6494224554648702,29.479861045419728,-16.738805179385764,37.771624031246915,1,S01
5720,0.03919996762178791,-0.06013487512092336,10.134381216152043,-4.5302923443892125,-1.2479410101418549,0.4235910567080186,29.321007131538504,-16.62601548877005,37.21196413921209,1,S01
5740,0.047728312009182323,-0.041079849623322805,10.143966874262077,-5.203854756917166,-1.1741571385243386,0.8410157643781094,29.276348664717986,-16.297534535710145,37.82892227850846,1,S01
5760,0.052058053428679175,-0.05877974597173745,10.143463641450799,-5.013015290670783,-1.5222991123672172,1.1554066022177976,29.56045858738237,-16.25587484357999,38.07158093328582,1,S01
5780,0.07993565717346385,-0.0486181084399722,10.128055637679736,-3.7963367843169538,-0.6857907053663436,0.16874704209082192,29.50116970667523,-16.83217923959191,37.99357272187663,1,S01
5800,0.06958870671402702,-0.04117415046488819,10.143214932122412,-4.5455180147212895,-1.3716896395920655,-0.23245508333331066,29.315767197623504,-17.045643160541708,37.36993088597877,1,S01
5820,0.0679284841703942,-0.047024730593126424,10.139336094168447,-4.009634194426,-0.8964392716976727,0.644602183114918,28.9564858146734,-17.278609690109327,37.86593632620884,1,S01
5840,0.08028007465354094,-0.04689859048906017,10.145371587546734,-5.085373456280916,-0.7025553263352088,1.4486943383020185,29.55718979355749,-16.06262095576525,37.762019030928855,1,S01
5860,0.068208661421055,-0.03542383975954398,10.140416902936515,-4.304098432751004,-1.394478089918405,0.5296891461897997,29.52707644285131,-16.42272019577989,37.42778621061404,1,S01
5880,0.09243257111145253,-0.03196958822914556,10.138963767569683,-4.340897821423921,-1.2071740968602929,0.3071751499119696,29.094363062946254,-16.49207547802773,38.70604354069881,1,S01
5900,0.08612149045074816,-0.00834230330423004,10.131510165684672,-4.789470523892484,-1.5156882815775086,0.2378869234493209,29.489983379780416,-16.08857377319152,37.83628921676948,1,S01
5920,0.09288878092643875,-0.021994898526656245,10.156009805556462,-4.901820570196435,-0.9851499532702197,0.361166791959177,28.66864180894972,-16.593092177495087,38.193467386976074,1,S01
5940,0.09370495725775835,-0.02758534154560293,10.146337675387326,-3.8237014697122715,-1.1624567379066295,0.11080733527596887,28.760109568936752,-15.858498040572009,37.28390480434263,1,S01
5960,0.09654300022736016,-0.021110621273972736,10.136173184155117,-4.200737972369607,-2.1749193174901933,0.48577340127917784,29.518151196266693,-16.841988063865195,37.51968685082768,1,S01
5980,0.12424178176946563,-0.021539582403906486,10.143175034077455,-4.164517773191779,-2.0077800694978714,0.4830268868970037,29.50922235881718,-16.4317129557368,38.28172564076053,1,S01
6000,0.11651796923544286,-0.011159085525943517,10.135906040530827,-4.248531995426834,-1.0525502139065872,0.20700268278197415,29.187868127683263,-16.544276801745276,37.53708068868168,1,S01
6020,0.12141788518062767,-0.028631955165699365,10.136164336778387,-3.933420065395391,-1.4284497129495932,0.6184088440379244,29.56813071091394,-17.188833582581715,37.41391474967475,1,S01
6040,0.12585827288208046,-0.020574991100071507,10.143640753045455,-4.028869791894966,-0.4307211786707291,0.2908170111846175,29.51952407126528,-16.580937784752734,38.290073062539975,1,S01
6060,0.13012259669177628,-0.03654281157078802,10.155220701208776,-3.3498570416570375,-0.6508637315013079,1.5297897234301896,28.85053297621963,-16.46807367803595,37.75298938878499,1,S01
6080,0.15278787454461837,-0.02642205959504794,10.152072390248124,-4.408109190964309,-0.9922907747376044,-0.07465301148101955,29.51274328537492,-16.23598679844141,37.61050888292155,1,S01
6100,0.13680051359862455,-0.03827416929159212,10.161641776086752,-3.9927297814777156,-0.5783422394309035,0.9301968479095044,29.188558433686136,-15.958535668973498,38.08599980466759,1,S01
6120,0.1622411915639745,-0.014421999665273334,10.135771420897006,-4.45000179076892,-0.13368478279110985,1.0615496324885012,29.69319750666891,-15.659652019965092,37.95776510622005,1,S01
6140,0.16391649607688052,-0.03912378326602166,10.128493820702769,-3.8687730224278565,-0.8650654926528897,1.2876729485727996,29.721564157402913,-17.144314307594385,37.93564728144169,1,S01
6160,0.145671959524811,-0.022657550858873166,10.129559073128222,-4.2026820382857535,-1.5162029067793497,1.693654464326404,29.472624816579764,-17.02233197675386,38.668149358235645,1,S01
6180,0.1441391920039064,-0.023835637570156255,10.149266821081486,-2.9856829756617524,-1.6810805866994598,1.2943206132120688,29.223716084710162,-16.9279822190768,37.99100308989083,1,S01
6200,0.17756911091905725,-0.02714069755976513,10.14701812293641,-3.8738630728529535,-1.3615280328529298,0.09523048553908309,28.990572439931764,-16.616663120673138,37.993474003803556,1,S01
6220,0.16078881289779398,-0.04537925231913708,10.147542060818768,-3.588629900396422,-0.6243823160966828,0.6495676106444663,29.82896797792625,-17.528881417629698,36.74119916550731,1,S01
6240,0.1551865602911509,-0.036814004192231964,10.146402814706315,-3.714618900070782,-1.4255187710407593,0.49600300751797033,28.963080806242427,-16.698775952000965,37.872331672566126,1,S01
6260,0.1516630149227959,-0.05581414116747442,10.164303324693778,-4.834691837578918,-1.6230037563953996,0.10389775937991425,29.18520630248858,-16.881070981692538,37.81518586534649,1,S01
6280,0.16810874278361648,-0.054634007990209205,10.16813148879567,-3.132193073930601,-0.8215309340733621,0.9339372016239315,29.30840203540803,-16.45523711304196,37.91955924243527,1,S01
6300,0.1704871880440305,-0.05707867676153028,10.147925285713463,-3.23386335974992,-0.6515528976072275,1.2633032879136827,29.126572615357414,-16.23191997336835,37.38166514806621,1,S01
6320,0.1773492310078213,-0.05691859624739491,10.141322788410466,-4.157489484869685,-0.569963235903604,0.8269102133347214,29.121592829940468,-16.59350924882395,37.53437284213782,1,S01
6340,0.1819788887718223,-0.05803035255289809,10.143368672973423,-3.65969539154767,-1.3302192871872114,1.1949234123958759,29.231770722908475,-15.880555013173646,37.26791102089515,1,S01
6360,0.18291366213697025,-0.06392745454092695,10.160025274407907,-3.805629239744289,-0.7243499464520988,1.2171353434622931,28.954339022148844,-16.543868224948824,37.606672453688475,1,S01
6380,0.17444651344889406,-0.07419836668237262,10.144672446972594,-3.596837941940832,-0.6368980330028557,0.8131399913323872,28.940345004760886,-17.394600127667072,37.60945033464191,1,S01
6400,0.16950857877901826,-0.06294001518707931,10.134465672267373,-3.448997341448842,-1.0127105698286631,1.4638713415356062,29.421520523864782,-16.24589962555399,37.14322910461374,1,S01
6420,0.1819103262508902,-0.08002556866008378,10.160169638072373,-3.4399524523272937,-0.1565555622529009,0.6947264172600037,29.480747154087336,-16.039668533158974,37.99325486824712,1,S01
6440,0.1778265733139503,-0.09019388133234535,10.155840679782665,-4.120713634264418,-0.2504456173486669,0.617961254480774,29.010092957775704,-16.821756473973725,37.22331644114196,1,S01
6460,0.17160109709223717,-0.09360240430592974,10.147447245777736,-3.5333818789596183,-1.050630251775798,0.8838398953614874,29.259269785743918,-16.59172448710618,38.07713148940862,1,S01
6480,0.17250701446009362,-0.10303920831200498,10.150607277657075,-3.6995464660249597,-1.0083058293622615,0.21083065798859385,29.93009086824643,-16.452781196028592,38.11521491247655,1,S01
6500,0.1840009366995054,-0.0772796262034623,10.154829874221868,-3.9269007845319748,-0.902857648898759,0.6762755688539953,29.20325826483613,-16.76395326491822,37.338017541283925,1,S01
6520,0.1763793290513892,-0.09382164508471061,10.141721668331048,-3.3171891084075016,-0.14302283542707372,0.18142623313421502,29.3288673979862,-16.593713396964702,37.60952382687206,1,S01
6540,0.16962918034889754,-0.10672275921540308,10.153153783973815,-4.406451301859231,-1.2402190324435125,0.7376588668761456,29.06039538890469,-15.446101212166015,37.64221116128246,1,S01
6560,0.16550219669961097,-0.08827246544123678,10.142165124817287,-3.455218132741195,-0.4728618316773815,1.302041844128623,29.68849400326374,-16.93763005872139,37.562109160877135,1,S01
6580,0.16828449784782468,-0.10716407050645135,10.149550694621034,-4.403175036588806,-1.0792341678607618,0.486012885882931,28.878817788541248,-16.70511164534301,38.723110002002585,1,S01
6600,0.15954721613290584,-0.12233988280835204,10.154367285903835,-4.505324602719173,-1.586268288875792,1.236414725258793,29.219915686624475,-16.994467188491235,36.929105410798606,1,S01
6620,0.15481605664261805,-0.12831142181557045,10.153858132442666,-3.920596467481415,-0.623048061448251,-0.3181760483345921,30.423908054310562,-17.355567572054827,37.53620672321773,1,S01
6640,0.15634502461885164,-0.12399752575603819,10.136451973503945,-3.525552609866242,-1.2632101074971511,0.10132196627263601,29.99600302918039,-16.54118615161321,37.45968209789378,1,S01
6660,0.16378577294353014,-0.12732907548554995,10.133705867344085,-3.7373167473707305,-0.9029483234802143,1.1949327053673435,28.881314249551522,-15.92729407710206,37.941077074133226,1,S01
6680,0.16973492850759847,-0.11084916905345346,10.132544527625576,-4.246494351672361,-0.8502453641088012,0.7282305679942465,29.41149493463773,-16.416853718708204,37.85943489701388,1,S01
6700,0.14686103157037994,-0.12624751442341745,10.143389639108959,-3.8348321030263586,-0.9610937938436026,0.5708460939775253,29.521534592117746,-17.01891903354505,37.76009988236495,1,S01
6720,0.1486116654482892,-0.14464575239184577,10.15206066245112,-3.907095106500653,-1.5997027996094686,1.1353277191561988,29.70069847843945,-16.690933941924833,38.39290775128929,1,S01
6740,0.13273625589020746,-0.12277572136787838,10.15055491670087,-4.365694148343451,-1.265929425887744,0.8242233020859232,29.95528916756968,-16.64700329841871,37.62567842827488,1,S01
6760,0.14558870660213905,-0.11090347780387971,10.148795764284353,-4.721594845925992,-1.548414621119847,1.0735067562985587,29.603707919887288,-16.724556005323862,37.86368051513441,1,S01
6780,0.1250596403533084,-0.11377777449466611,10.152441916699688,-3.9981332298883325,-1.2480839697624104,0.7454698395824912,29.684364762745467,-16.579194762515044,37.38035321198358,1,S01
6800,0.14168177593717382,-0.12183725458809586,10.135642730976,-4.532239917346618,-1.8701860713005307,0.9255651658301112,29.660449084382513,-16.60444376661868,37.15855920995316,1,S01
6820,0.12537233185560678,-0.13014899787520778,10.15984905037787,-3.730249694103043,-1.9994502019445424,2.0610066933580833,29.396378571500914,-17.005745711529507,37.59281318698237,1,S01
6840,0.12987178879785313,-0.10164249042223053,10.129386367752414,-3.3798533292172523,-0.22747675089159392,0.5310335536256465,28.894503265558853,-16.182334429687288,37.40984055617832,1,S01
6860,0.10473374074874214,-0.11385352392288026,10.146535268337509,-4.034261081215115,-1.042868604591376,0.4199939670372617,29.007948833019157,-16.279151473865696,38.348114210865724,1,S01
6880,0.10967037422750758,-0.11580047596724533,10.1379533021136,-4.645110367851691,-1.553003441689997,1.8444870152250799,29.600269234382655,-16.91404006951703,37.74369455247784,1,S01
6900,0.09714006479256004,-0.1159311338690836,10.128500355403736,-4.49051920061779,-0.5744049936418969,0.23425103575836048,29.101262904610266,-16.157593252913934,37.447671987543366,1,S01
6920,0.09406672989854299,-0.10642696343931803,10.135113614377547,-4.425375647897901,-0.8702423792446848,0.25899490223576505,29.53109207351013,-16.52613647032775,36.93500311475464,1,S01
6940,0.09854730837431988,-0.1149416097177626,10.150368388922525,-4.209023275519351,-1.8431919647680441,1.1841644732442276,29.16771166462563,-16.378722812619543,37.885501424095544,1,S01
6960,0.1010685249823821,-0.09059322306301519,10.148256188466755,-4.930854258393806,-0.47355738035947825,0.04521741929760048,29.426143131621533,-16.88940420597264,37.3811302043174,1,S01
6980,0.10197939260856637,-0.08933602170251648,10.142448309835483,-4.157416246524663,-1.3456915165155652,0.5878375504866197,29.824528385148845,-16.649880804395558,38.06087539576952,1,S01
7000,0.08304568519434168,-0.08331601115129608,10.152510216070445,-4.042732934907568,-1.4876949966628887,0.7235778857406185,29.87770196770324,-16.129764205253085,38.04300241441454,1,S01
7020,0.0681184235544045,-0.0957480474013752,10.153707159306403,-4.647697600350018,-0.9798716518451324,0.3887621209075752,28.827587704447556,-16.056810169761526,37.905612436688294,1,S01
7040,0.07013468924867751,-0.08296736265482718,10.145821606382231,-4.488706863958116,-1.8872021333136315,0.4619458634842425,29.620018157169344,-16.29215368936598,37.9518145319219,1,S01
7060,0.06515801446737753,-0.0759728347115226,10.152767594414607,-4.371002692261703,-1.8613507825078612,0.3367914506216644,29.810714613657392,-17.297171429916368,37.50751974527052,1,S01
7080,0.06236683549612985,-0.06351180169155515,10.16391885412677,-4.583447779025449,-0.6292507477775362,0.24944319716523455,29.3416239806555,-16.794921406375753,37.25931897213577,1,S01
7100,0.06209099755192005,-0.07196507076010138,10.15089273564215,-4.726716645920156,-1.1554430096647996,0.9429660174619889,30.128014232217136,-16.340910955245498,38.255322226660475,1,S01
7120,0.053749694771792283,-0.07493587182537956,10.156314157138063,-5.136821228681507,-0.8544850849642023,0.07056407562613543,28.842391896690028,-16.838767132042744,37.69268017055553,1,S01
7140,0.05786056556157299,-0.056388566462774264,10.14343186699598,-4.281253705951958,-0.9253439487466927,-0.29797307764894543,30.065173662452263,-15.9982085491793,37.584453626797995,1,S01
7160,0.037841152436716166,-0.0502719587682621,10.14030403655557,-4.018025233713574,-1.478400927623175,-0.05997772000095147,29.077827669818078,-15.964971680259898,37.60271621805181,1,S01
7180,0.0425052832299453,-0.035028380295688416,10.159688271102379,-4.4213846777964285,-1.8118632040599334,0.3535848086113588,29.254128454516177,-17.08205685786631,37.47268127489345,1,S01
7200,0.04892685065912429,-0.06651332352016556,10.147019635783398,-4.446537219492812,-1.3380502469210436,-0.059080869967920946,29.022364324105418,-16.619615056848637,37.662812392548666,1,S01
7220,0.04605999612803535,-0.04925265605447836,10.170707360413246,-3.5787922326149992,-1.0608071004326756,0.6982401969267733,28.402615451609805,-16.756006220461327,38.43870424128673,1,S01
7240,0.029419717553251276,-0.05697387402154813,10.131690982569145,-4.21541661368581,-2.2635635010150237,0.9053729375242057,29.34284601897702,-15.914464308565547,37.97460954591525,1,S01
7260,0.01781670148670518,-0.025791569715134348,10.144608882243904,-5.048214365181521,-1.9788413067759631,0.7626913667514573,29.53994712983984,-16.65194453186597,37.493756630976634,1,S01
7280,0.04721572324072782,-0.006365159770840692,10.139551543220733,-4.892481491820719,-1.1459762800417914,-0.05647284432327815,29.6871631536639,-17.03213093352867,37.37286232985576,1,S01
7300,0.045845073084696764,-0.02679176901745725,10.158211400267176,-4.43936653154838,-1.2244791665695984,0.40002786304062093,29.254740516709575,-16.779953012686605,37.19351597294913,1,S01
7320,0.0051616215275213095,-0.009085205614024906,10.13331629571896,-4.419946644801527,-1.0500649900149355,1.6083029791317207,29.906062784551036,-16.276097603910912,37.758820791019545,1,S01
7340,0.029024673738029097,-0.03874669398020961,10.145213456550026,-4.41172451636162,-1.6580775451174157,0.35628356778788683,29.04671355786327,-15.679900412742489,37.40849437977372,1,S01
7360,0.040536586679672484,-0.017345427684276098,10.173549287662595,-3.8051172683936274,-0.90970258595344,0.06522196164846927,29.742214228502696,-16.521213279585343,38.06424991952335,1,S01
7380,0.026486095260410486,-0.02265433468474401,10.162059309328516,-4.127704684155142,-1.9683063802342127,-0.47724967677709873,29.08726005776112,-15.746025489329849,38.248239113428305,1,S01
7400,0.013041619658742676,-0.02779013180893533,10.14732251698593,-3.653172602385427,-1.9295227502266301,0.20152007905103392,29.024527132352638,-16.63273788896013,37.374094200885764,1,S01
7420,-0.006564177321610409,-0.025911507507941002,10.14939742400406,-4.443889341319632,-1.9822376023948822,0.18236461664433068,29.319155289121394,-16.725505743514123,37.24606786887722,1,S01
7440,0.030772274660413393,-0.026523369917497076,10.12912720326856,-5.195308668047684,-0.9887498965344217,0.5631955052816303,29.352360798211663,-16.63774255056174,38.22331003048582,1,S01
7460,-0.0012827251672290346,-0.02242283913254712,10.167343347552539,-4.476968607354385,-1.6939333089808786,-0.15684455869504144,29.12927384536102,-16.894527410818757,37.81714238453188,1,S01
7480,0.017439823406750113,-0.02309895878954337,10.140447365230402,-4.776900465705792,-0.8651503636928535,0.41309738841891197,29.062500044456506,-16.95332240521951,38.03631889783147,1,S01
7500,0.02603513540779051,-0.014502420445552534,10.145250439108182,-5.176588786444811,-2.4194903597169177,0.07170296193074066,29.36012167325282,-16.975974097666533,37.41473010592879,1,S01
7520,0.023480586842086246,-0.028512966742592717,10.151394194881176,-3.5939617638835957,-1.1302364671744602,-0.06885906090763383,28.973820848575453,-17.0439890622133,37.45422585706576,1,S01
7540,0.03919160310919885,-0.015718077526187868,10.161761816732051,-3.7488572641779485,-1.3875552494018824,-0.25517580392072703,28.93500219871935,-16.729073614881724,37.732069052062016,1,S01
7560,0.03501567530472781,-0.02465403548245227,10.134343528559075,-4.542536380485344,-1.0144673775030384,-0.6449389102372144,29.299244839600135,-16.52220606012478,38.31518899747038,1,S01
7580,0.027667099100460127,-0.03512879394598209,10.164586161271817,-5.117862597591901,-0.3642554336225273,-0.4842305464924571,29.274374000625112,-16.312815498081566,38.31333844472669,1,S01
7600,0.038125872364838276,-0.031342309848737336,10.134023156524727,-4.84545075097665,-1.7440915151698768,-0.10105988185966874,29.18200819885054,-16.92516401361728,38.055113472546466,1,S01
7620,0.019024838667395835,-0.024050029038621613,10.132350984302404,-4.274219036566077,-1.2570015029689248,-0.8788583225199081,28.98865163015431,-16.64221603390831,36.92777223449283,1,S01
7640,0.03195267021680738,-0.04772246728539749,10.140343548762383,-4.810220352898369,-1.0965793915306183,0.4291080936987659,29.087869415059874,-16.131214278829624,37.927417851538436,1,S01
7660,0.03345314547822645,-0.04067868820549336,10.167922358629921,-4.4806112583155375,-1.0305587450243496,-0.07556273854932483,29.469438538932156,-16.278306090731448,38.29643733463536,1,S01
7680,0.03920604660606191,-0.04865728087244054,10.137500394123633,-4.283901127216561,-2.528341441757947,-0.3445383027599077,29.498511685425253,-16.51148426000924,38.07645068137605,1,S01
7700,0.03856772646035326,-0.03156218418308708,10.148936731207549,-3.8581172459644613,-1.334816969612099,1.1190205487882892,29.504468912790802,-16.26307807412637,37.57176253311811,1,S01
7720,0.03343592537004317,-0.047247312817254306,10.174742507227075,-3.6538591999505687,-1.1689351863085997,0.027314836704843803,28.972605205940997,-15.85244186361555,37.72389814835532,1,S01
7740,0.05727902515939114,-0.07642524104334389,10.150130067924302,-4.785624289777175,-1.7177126640639278,0.1753706736958277,29.368996731950855,-16.75466580542985,37.13804669350838,1,S01
7760,0.0668436786475904,-0.07489762463558276,10.119768624251076,-4.427368054978962,-1.7763902814273345,1.1104068261375972,28.974930477254496,-16.08409617203907,38.00470404884908,1,S01
7780,0.06185008171970529,-0.0664298146990637,10.129942929351264,-5.370994785832023,-1.0156537486598596,0.4813362786408894,29.460769522380858,-16.842512893517195,37.30002749279103,1,S01
7800,0.08755036070460799,-0.08394472152455787,10.136988567415255,-4.492892125465508,-1.7420488513435055,0.3399223520532902,29.755635990168656,-16.560966441783847,38.11622930798428,1,S01
7820,0.06465287375246578,-0.06363891429169168,10.137717829619294,-4.4950150302648675,-1.0552407072181336,0.3059397083108943,29.672468049375727,-16.066486810661196,38.006711116894614,1,S01
7840,0.07975129168938773,-0.09020948036359352,10.14693295373505,-4.2904388210133755,-0.9031761717931914,0.23321961093456717,29.92369930390171,-16.510840741464825,36.928526977369906,1,S01
7860,0.09076737461093053,-0.07112089520586239,10.143725658053533,-4.380730946505924,-0.917300191794033,-0.31522815066545173,29.588533381500095,-16.090455275041073,37.4683673376685,1,S01
7880,0.07929302965404883,-0.10593923092918843,10.131500894731214,-4.582753974886205,-1.9717931277501624,0.5071761527400138,28.65264309791151,-15.952946029567803,37.813394638143244,1,S01
7900,0.08619638022197755,-0.09503684547502525,10.140930570592287,-3.6441639959706302,-1.4066283075525916,0.5846746026394208,29.12297815951466,-15.716445375400834,37.671501613445045,1,S01
7920,0.09999513668793196,-0.0858185362962385,10.135553174626862,-3.97453481952247,-0.38730931991929063,1.2584564807476535,29.19485645582606,-15.77585061880135,37.955178041088764,1,S01
7940,0.10778340395640114,-0.09578755467266802,10.13666415942283,-3.419927957994201,-1.2776632363912244,0.5670208476997001,29.48033036543948,-16.759886731250077,37.563062031168656,1,S01
7960,0.11651435512850819,-0.09078142310645275,10.124194517331148,-3.513850125619769,-1.2422084200422565,0.9393783237778455,29.50630050460213,-16.09910297643141,38.12987223095638,1,S01
7980,0.12937434236697756,-0.08734058014472093,10.144908365032164,-3.6121515385644822,-0.806044257738218,1.1201053442732176,29.715586319473953,-15.6790867614117,37.432351606327714,1,S01
8000,0.12058983765848372,-0.11296704289681103,10.138681098451453,-2.988029291176793,-0.7171163234322464,0.7789537773478503,29.747378662369222,-16.032906352018184,37.72759764247841,1,S01
8020,0.11765716613685501,-0.10842243743703214,10.142347252097128,-4.629912052829942,-0.1588505393419386,0.6685057590501176,28.94156051132454,-16.53309515396245,37.42003797307096,1,S01
8040,0.13777036916754945,-0.10058438669348826,10.120573821689275,-3.769088289502842,-1.3767518268440413,0.39419421228786466,29.043958754332383,-16.39576662684149,37.43738968579759,1,S01
8060,0.13191311660038083,-0.10783359718609917,10.156251939145378,-3.9461589578015506,-1.410500807041962,0.03176754249501401,29.29333620755742,-16.12901974842491,37.2569019728435,1,S01
8080,0.14690481430237162,-0.11834907749641377,10.155477408477253,-4.998469995755302,-1.0181862734324036,0.37161729589361403,29.283907784760533,-16.331449090492335,38.028284220535696,1,S01
8100,0.13784552530771682,-0.12273679496258405,10.158619770311892,-4.57240685861274,-1.2790390125459845,0.1956085378675213,29.320596586345136,-16.43227216903422,37.97850085243874,1,S01
8120,0.12624899207301005,-0.11547142993609075,10.124977420262207,-4.647256296036897,-1.6450992416587873,0.8050560567771705,29.097754841123486,-16.689655670846555,37.981003313587436,1,S01
8140,0.16069356218095426,-0.11155756870842054,10.135902385589532,-4.1968208524188,0.07889103950047605,0.9961085610288638,29.47027814902945,-15.361709230566548,38.441895411076324,1,S01
8160,0.14131288091941616,-0.13110851413429633,10.126360029643227,-3.3903252614918444,-1.0049769801704005,0.6780616814257105,29.44295739642631,-16.059570630187952,37.550696155567465,1,S01
8180,0.15776279478137803,-0.12977420118723293,10.141766359976925,-3.869531597649699,-0.6826983386983235,0.7094974178947417,29.689593260031234,-16.812555991396543,37.41145908568469,1,S01
8200,0.17624180645624277,-0.11680926041877424,10.158549639969205,-3.0953349530923715,-0.734394068834589,0.2045337087679846,29.520350043989566,-16.151844372951572,38.24412329472321,1,S01
8220,0.16122992599542607,-0.12668219813560902,10.131841372335325,-3.9832579507176202,-1.2188958909996732,1.2023460633146987,29.021951197269185,-16.129010294139675,37.933023802083845,1,S01
8240,0.16696200078675463,-0.08970652831300271,10.162208635457798,-3.2874188116058143,-0.857896967386506,0.9163150480776048,28.98380177856341,-16.40569130229785,37.88532635737072,1,S01
8260,0.17861564335604269,-0.1250832545507541,10.134796556404467,-3.786594885294329,-0.6738834062129808,0.39933602660633,28.54021891882924,-16.260305864680028,38.07593402680699,1,S01
8280,0.16287040385447143,-0.11428727862967081,10.140918616602464,-4.242750677324763,-1.652146305502606,0.7166941630573378,29.219646771013966,-16.46615940836378,37.35009230489326,1,S01
8300,0.16144366358792211,-0.07875958644441118,10.129115292944006,-4.24157985405726,-1.3720945522515717,0.5448993741754774,29.24333291750972,-17.023116795807077,37.714156811012316,1,S01
8320,0.16972455961253835,-0.09678722644544244,10.129268917831535,-3.620398042273931,-0.6867204746883575,0.41775742965179025,29.501120290862215,-17.093233739834726,37.652630824037736,1,S01
8340,0.1827260880775574,-0.11200375793274817,10.147347911564266,-3.827494921640072,-1.1785654118456685,0.35202449554509385,28.432604845403088,-15.63268646731329,37.87518919332879,1,S01
8360,0.17276362285637897,-0.10645908899608741,10.145119742847498,-4.778925421131852,-0.872879324048751,0.7266032719734586,29.94832807776246,-16.501839730907257,37.983619753759854,1,S01
8380,0.18521842802525257,-0.09391410590027777,10.136175360772208,-3.284208374592049,-0.855278022219001,1.2371674988598969,29.227811387885183,-16.49954147538127,38.560156277752945,1,S01
8400,0.1966047224777182,-0.09436930033081296,10.141506762421663,-4.5692923787020625,-1.9828494946721744,0.5521124485191604,29.327664839515545,-16.280039020584056,37.39943560020461,1,S01
8420,0.1764600405704228,-0.09214418111137544,10.144317430957642,-4.287491424388516,-0.6289225847935598,1.0284371493192044,29.777400939008007,-17.320828757150494,37.46303265990554,1,S01
8440,0.18394468760473134,-0.09587099298705651,10.13043469327841,-4.363127636413482,-0.13012236995792947,0.8865008595781763,29.47842408404183,-17.0932458553744,37.75080791367105,1,S01
8460,0.16641551332094745,-0.08031004592831816,10.13781972170646,-4.135218015177929,-0.8709642920756766,1.687684341929447,28.962458596465382,-16.633027833756522,38.371824432902386,1,S01
8480,0.18236166607784432,-0.08732486251865125,10.147313822778997,-3.1879777629320296,-1.338893379172796,0.6953088158581283,29.482511761697456,-16.230874403250716,37.63436487752782,1,S01
8500,0.1849628794007966,-0.06470640726238977,10.13727203208812,-4.390268847367593,-0.8739301826131285,0.7734385695919562,28.995036915759595,-16.27632878205904,38.29324798278244,1,S01
8520,0.17368712020536886,-0.06702443780804629,10.15073851056191,-4.107203387683474,-0.8311632649509391,0.6748227689326827,29.56066056294425,-16.843085057932228,37.89358303504251,1,S01
8540,0.17204614902303406,-0.05503585656824564,10.139824921416022,-3.857049478261306,-0.9779893237919454,0.7328543767557918,28.73378058254116,-16.0322390276572,37.73753963363513,1,S01
8560,0.1703300526963684,-0.06066113388592035,10.147213418955483,-4.608597625491709,-0.4641834356765291,1.58245087738525,29.281135706762985,-16.20660613483881,38.15284656366634,1,S01
8580,0.1875948575277125,-0.06484558944149836,10.14457560929517,-4.194516656410817,-0.6192212422930352,0.8932107301620302,29.57762219828612,-15.973644145813386,37.82332394452,1,S01
8600,0.18052552760209797,-0.048202806553137995,10.150128968552897,-3.920280472236462,-2.160258559470881,0.7192292962830967,29.051394547212432,-16.001080566108083,38.271853636766586,1,S01
8620,0.17126707240847583,-0.047054556394911726,10.134477202710773,-4.943339154365477,-0.6024509214829485,1.9658232602704118,29.836172383548845,-16.023940221639712,38.37816886010033,1,S01
8640,0.16363107194934845,-0.03565041580060657,10.155798140697366,-3.4152183177295967,-1.7005303047784615,1.3043257332843,29.027397085311737,-16.743969405078037,37.36404634998362,1,S01
8660,0.14670090372792924,-0.03159528379085345,10.147724933812816,-5.471711395161217,-1.3584737462030896,1.1930953762693415,30.353491866902623,-15.833002971813174,36.95266797925881,1,S01
8680,0.16251878610080106,-0.04590155714174521,10.15481258393915,-5.188963900943331,-0.6903239151014308,0.853245905463428,28.87722489604481,-16.900605966724967,37.60096161553793,1,S01
8700,0.15371805027884838,-0.039430005755019225,10.13277414682137,-3.4556190020783752,-1.0137644282702505,2.012995314956351,28.847109607904443,-16.54063345836846,37.0213601548833,1,S01
8720,0.1540080426884175,-0.029538964434260254,10.14733079801493,-3.7185773775602007,-0.2198375768442533,0.9085126618497978,29.688385666302697,-15.835438957315125,37.859966706143155,1,S01
8740,0.13084141373505798,-0.027049113664964007,10.145495657631633,-3.910463042561523,-0.8444769911747341,1.500510353944041,29.170020366674798,-16.648987478504594,37.52279633822913,1,S01
8760,0.15311678707785714,-0.020358376793853154,10.158127383980522,-3.634536718006454,-0.8599190644282673,1.3174649690278657,29.608524334595277,-16.456811025667854,37.773361921998365,1,S01
8780,0.1335487232940752,-0.03312595956233145,10.154485836447158,-4.642327221081008,-0.6056788492354239,0.9806618453917089,29.074437988606057,-16.791802256262343,37.88781035455016,1,S01
8800,0.1397795926754298,-0.02916334792457538,10.130945373030404,-3.650931792670728,-0.43300358996832333,0.500865595777796,28.906887105425778,-17.204539745913696,37.20015983361941,1,S01
8820,0.12611325014746905,-0.030070181168781178,10.121290926601555,-3.2685657155484065,-1.4148636968197619,1.306195471960065,29.106222120027926,-16.67220459273568,37.8342407740274,1,S01
8840,0.13405390942329332,-0.030619786683564167,10.148147827591929,-4.100683836709233,-0.6794803756957813,1.1468807185111247,28.864999428131362,-16.45727369636095,37.747259764634116,1,S01
8860,0.12593024980923084,-0.0025828726728954615,10.156430783594711,-4.209386520970723,-2.1565419499221,1.3559017042064079,29.951410595434027,-16.385687950434765,37.95718686350758,1,S01
8880,0.11897028549450529,-0.004028249255245073,10.172378486333388,-4.605815110047163,-2.0677984775216345,0.4031052933684879,28.806678103629867,-16.366409924544154,37.280450663315634,1,S01
8900,0.11458895292920544,-0.02866497122556045,10.166274186606799,-3.776030024891681,-1.5885932560031821,0.060175431424043135,29.305147821381166,-17.08823593379691,37.682973679420584,1,S01
8920,0.09922303012268407,-0.02477588869882868,10.128981012772407,-5.015499375473806,-1.7974054725458477,0.6556546784185907,29.62912843950249,-17.43916369242833,37.63185707263447,1,S01
8940,0.10773887608358204,-0.026976289743836875,10.145580064261432,-4.245725904066383,-1.3100579214104768,1.6668657425625018,29.52472041362568,-16.751645357733217,37.544855561153966,1,S01
8960,0.09281894932688826,-0.037071048589399976,10.12624344523241,-4.213773633156982,-1.0538081406958102,0.9077550686194645,29.675463505771912,-17.038616228925633,38.366879123799265,1,S01
8980,0.09778640720952976,-0.011974090749826999,10.160461542390893,-4.505836453018574,-0.9699370191073939,1.5500232929213236,29.483417356477112,-16.21701615100634,37.65242046692676,1,S01
9000,0.07395791017195139,-0.01771869713350606,10.132806691997898,-3.9659765243919307,-0.7596148304422138,-0.05522294184615617,29.76133532753838,-16.8765449547181,37.81759117248848,1,S01
9020,0.06199155964128509,-0.03390724875125168,10.15382435381952,-4.270333685718449,-1.8915749120307797,0.7145217905475328,29.562402679216266,-16.559182370845946,37.98759985657399,1,S01
9040,0.0702785822105721,-0.020866243668100415,10.140458721994651,-3.966016921230505,-2.1464009963857507,0.5069245866799367,29.49537490908091,-16.841458903500595,38.88205076912636,1,S01
9060,0.06535767946690049,-0.056656146966577586,10.142947648610548,-4.601708710927608,-2.0538985205740863,0.29625199769702526,29.403187197265684,-17.044117763001935,37.81180573939867,1,S01
9080,0.06636810634067686,-0.04106583305999027,10.135755748015223,-4.546286619373205,-0.6415352005691218,0.36150986329405876,29.26443074264513,-17.069594731274883,37.11102738939425,1,S01
9100,0.07672196204968865,-0.04613373733110142,10.156084194132724,-4.723234458522063,-1.2552733561878597,0.7417946355756304,28.853899763514303,-16.255121941561697,37.86381932722619,1,S01
9120,0.06909343330733295,-0.05300546614150397,10.152758580378828,-4.9543011429327395,-1.616853530788189,0.8594709297574487,29.35098232632423,-16.170051992819214,38.16769610159652,1,S01
9140,0.054615323144629066,-0.05292956942859729,10.151782410394233,-4.566670895377462,-1.093620724654523,0.19971517064834354,29.966286653422717,-15.80635087873945,37.95541702050572,1,S01
9160,0.047567964581495766,-0.06128202404461984,10.148122445339725,-4.3632351337379,-1.5031686963782427,-0.12845889035666502,29.299365361838284,-16.6660068153339,37.588260869596034,1,S01
9180,0.03960891785161842,-0.03860445358005074,10.161604678609718,-4.705526070660154,-0.9196290124116946,0.8032550628904858,29.26194890087666,-17.365237555675296,38.21282494966915,1,S01
9200,0.04280855121176185,-0.07264994208387492,10.13060616323271,-5.4628303972767025,-1.5258446125798781,-0.0856320004568013,29.106216158282688,-15.947626953685553,37.371575418305945,1,S01
9220,0.049836234100710655,-0.0781065488605053,10.145160925738814,-4.285747489129875,-1.9005727833607224,0.9075668990840184,29.70066381701347,-16.568385097407177,37.30802013488868,1,S01
9240,0.035283344182942364,-0.0859808277697125,10.146742630570833,-4.7090757730396335,-1.047362559865755,0.8550925547455003,29.07611939210756,-16.130382084953975,38.34619385541333,1,S01
9260,0.0521612626436173,-0.08257165460250387,10.151336890964172,-3.2339987571091697,-1.2827902498524337,0.6185530158476319,29.48736191674913,-16.018973290096795,37.752715250689896,1,S01
9280,0.02808200133182423,-0.077131561941983,10.154124485328303,-5.194362447625411,-2.3853029020481227,0.8428990381120118,29.23335610957334,-16.634596267985007,38.12510254674744,1,S01
9300,0.009556111135389109,-0.07824282119068021,10.130081713969192,-3.7782774377392245,-2.197567048548696,1.2625471438339546,29.125183610911076,-16.42336307463594,37.33102878694233,1,S01
9320,0.016605377368588872,-0.11244339419059625,10.155254911242427,-3.940525188608704,-2.662198551296278,0.8533216765667829,29.151192536745178,-15.98321454647537,37.55418400901612,1,S01
9340,-0.0014834180668791275,-0.08786046718381006,10.140011602255711,-4.951561239033502,-1.6361173154254793,0.72982457197614,28.8532125091759,-16.105061991733127,37.85839817390188,1,S01
9360,0.020525313780502985,-0.09453166649699085,10.150627560425473,-4.3357856944935005,-0.6313202166760992,0.5808762541317205,28.746358986754633,-16.480133773031515,37.911865655600515,1,S01
9380,0.017271741009867406,-0.09341935136190214,10.153898971010662,-4.820177337443066,-1.703286739612608,-0.22929681117472955,29.954660182735633,-16.319182310187145,37.931181640881434,1,S01
9400,0.008184056623646213,-0.10176256495793237,10.131250712959131,-4.308361687585833,-2.441839613315273,-1.230735454182359,29.795024292238587,-15.907693399313548,38.07891239889775,1,S01
9420,0.01613617519846272,-0.0998683494477324,10.139854573084968,-4.814609509038174,-1.9240764857474029,-0.3645702587019396,29.690438742860525,-16.50317742006726,38.08979550293178,1,S01
9440,0.028033511247151977,-0.11474562292284571,10.15493533672126,-3.9062889816446567,-1.754193045762249,0.30853787536602734,28.921171826769818,-16.35851973215138,37.451792437123224,1,S01
9460,0.007744150962375421,-0.12398045050118892,10.151509188641564,-4.645349577176426,-0.9501665720574337,0.014404262186106354,29.030934973993492,-16.084431095739426,37.679045795347484,1,S01
9480,0.013251626994391738,-0.11057305912557269,10.139516295382355,-3.9880987701292696,-2.004170792590465,0.6898982201678122,29.111991372888365,-16.426156243390533,37.01414978958629,1,S01
9500,0.021072076616417704,-0.11869597298544299,10.139595970250344,-4.321422175743237,-1.3625076533409595,0.5884535540534764,29.59698860174899,-16.824130726840146,37.813302427234085,1,S01
9520,0.018408036565660105,-0.1169105141648824,10.134938384250818,-4.835083282844522,-1.0870920417558931,0.4281766817947784,29.120420791803095,-16.117937927725922,37.717406808709924,1,S01
9540,0.039228014455711016,-0.12134926390792548,10.131533699279515,-4.69667506894957,-1.8171291498756745,0.46526762035811103,29.52319333869026,-16.499521723724374,38.44978761001735,1,S01
9560,0.023964983338854925,-0.1212111356044899,10.130361380807118,-4.368131809753944,-1.1861829141662614,0.4496327383995662,29.568802116605106,-16.96674892741627,37.90789875712109,1,S01
9580,0.029834828232690097,-0.11495324778566564,10.1401286424317,-4.702562998902113,-1.4711930902752468,-0.0439958440724465,29.349409942786625,-15.951094711628885,37.5783910335519,1,S01
9600,0.031154061283263423,-0.1266467602171007,10.133573517916329,-4.461532990676238,-1.6165686333055345,0.7250901940189732,28.33718050283199,-15.54879149616758,38.250129962572856,1,S01
9620,0.038835405177073914,-0.11829039736248351,10.168799705323938,-4.983924402971436,-1.6486731938954393,0.8096083518285377,29.324099354409782,-16.733839218464347,37.61411682623668,1,S01
9640,0.038122666082919525,-0.12685494138308928,10.151652027667796,-4.246234359376582,-1.336160062865967,1.784490339809805,29.271892010495723,-17.348062376608755,37.502273312144496,1,S01
9660,0.028833141109818702,-0.12456063388086629,10.163581620827852,-4.651883301020439,-1.5904947919490344,0.2720857058011997,29.0734254555882,-16.071750392515828,37.41977532381797,1,S01
9680,0.041924685252114895,-0.10567406696133749,10.161482303506695,-4.849559797101019,-1.4394027798598545,0.9772847962422754,29.168227907221077,-15.955832174638092,37.90321510157042,1,S01
9700,0.053089098850399856,-0.11213146467411296,10.153268675859449,-4.932705486552315,-1.394942683464847,0.12352946206896781,28.987655869526304,-15.932207524420042,37.87570926066804,1,S01
9720,0.0689445436100424,-0.1247012450256755,10.137254767339483,-4.739828846690763,-1.3882582159726258,0.7919078720062372,29.03005182534397,-16.61601765149001,38.12765567768286,1,S01
9740,0.049618944988594614,-0.11535704420688628,10.16388051741342,-4.83813666404395,-0.7657807160922151,0.45867023128116813,28.504521764175543,-16.778148982699832,37.24572467367137,1,S01
9760,0.05054949709020848,-0.11970653567013896,10.139591532593316,-5.281868862478247,-1.4286296602641433,0.910896125828107,29.407452572507335,-16.390244206046603,37.340619413218995,1,S01
9780,0.05173828464602388,-0.1206841560118681,10.148132773388431,-4.588696511859007,-1.8925153746651353,0.10765618903303065,29.1419270815464,-15.924309593783596,37.425994120796666,1,S01
9800,0.06658203670187401,-0.09474739020701198,10.156386031990568,-4.7009343249241,-1.6961636853040476,0.3661222738224706,30.447523760052935,-16.539235142093872,37.69324215438969,1,S01
9820,0.0736346905535321,-0.08975807157632601,10.140782376604365,-4.122924519840148,-1.63634821155066,0.7618332965444714,29.625714636211754,-16.958683986315652,37.7507401718347,1,S01
9840,0.0841403149881661,-0.11318670598216612,10.141300585559987,-4.133259409564558,-1.3314584473337086,1.1448510037616226,28.73470027162034,-16.654910713999687,37.56569761765275,1,S01
9860,0.09873761182272313,-0.08734562609231153,10.13378729516505,-3.980626936880056,-0.6883841369504499,-0.01791520315706918,30.06331954265353,-16.813503713815045,37.848293962960994,1,S01
9880,0.06906186317089971,-0.09277712418616599,10.144000809403172,-4.859922967645887,-0.7968077201112912,1.0513946231860403,28.791774641332214,-16.52451846126832,38.32485421223471,1,S01
9900,0.09890260034560834,-0.08727249618058641,10.141924476922988,-4.265510301090207,-1.7198061292991413,0.787542412479508,29.48157367367385,-16.45378965874012,38.33374037244697,1,S01
9920,0.09637025338355298,-0.09240085294702802,10.15023090985599,-3.931876157708537,-1.5515477352381368,0.5391097313562917,29.616510540649703,-16.937027825071084,37.73730642771349,1,S01
9940,0.0786725539859705,-0.08141956333857905,10.157242449244688,-3.196086889859748,-0.3837884367830037,0.8355132990813299,29.5755001532455,-16.85916218887703,38.05188682764979,1,S01
9960,0.11052200197676161,-0.07158683891516122,10.145815672422842,-4.84469858028964,-1.647536393898628,0.38645903771279444,29.515909202356394,-17.054713254327105,36.68458962329881,1,S01
9980,0.10432914524477124,-0.0540142068402654,10.15014303455839,-3.760357669762884,-0.9433192363555946,0.25816218495021187,29.15699039807346,-15.995559074438303,37.55441446048187,1,S01
10000,0.11474422818956728,-0.05408921470934833,10.158249324650283,-3.7564481028793733,-0.5357166533934622,0.935360980980962,30.171109596736425,-16.631564350451328,37.41086406934939,1,S01
10020,0.10992041049627747,-0.05468400545013424,10.148099226843172,-4.121272338858625,-0.16879343420450144,0.8601424358778726,29.614024788236392,-16.107837936180037,37.21496867846075,1,S01
10040,0.11147607401535575,-0.056841905055364704,10.139028522768209,-4.605401232274884,-0.9701769051465092,1.2131910819674459,29.811056707732817,-15.683684140726225,37.11039638344983,1,S01
10060,0.12368720026114066,-0.05105280915870901,10.132700985325537,-3.353221114146104,-1.4719983636864074,1.3722301278781162,29.482552550205266,-16.16404397113569,37.088818412047516,1,S01
10080,0.11585490644359536,-0.029968185135732683,10.13967843972844,-4.624490693542847,-1.9812397586669483,0.7548864974855026,29.187153512091147,-15.911506576986286,38.19994490900793,1,S01
10100,0.13749171249389597,-0.032078588882774754,10.140795095012145,-4.429687598972821,-0.7397699800158475,1.3365479510310736,29.098942754049816,-16.368377811761533,38.119830476167735,1,S01
10120,0.12642298786301842,-0.029447464440369872,10.16202092227429,-3.7085984010927255,-0.7783427405848096,0.35623796444586076,29.223383277827157,-16.538495130501456,37.45650098749214,1,S01
10140,0.1576173885250014,-0.027475568852406568,10.151945765258992,-3.4953586183008465,-1.3921291478160187,0.7838048292506096,29.03616082817624,-16.443474518004045,37.736540276103426,1,S01
10160,0.13740911787788385,-0.034386201635862666,10.122981274273302,-3.918116244844776,-0.9201273731666237,0.8282814248660642,29.313258898723827,-16.809905510665427,37.94001291739481,1,S01
10180,0.16052378752455437,-0.032346794694215024,10.148829253545282,-3.9203413993144824,-0.910943568974739,1.145784913755102,29.674088481952126,-16.404584621238833,37.887985524661076,1,S01
10200,0.15710943070787492,-0.025520599334195808,10.131673258461497,-4.7808638707191795,-1.3426385343660716,0.7543696543203819,29.491527627826727,-17.102107687319844,37.91064184908932,1,S01
10220,0.16244472477688604,-0.03140801949155662,10.147348788925967,-3.4587494861407038,-0.409987182679704,1.485775917828291,29.26864068046398,-16.186113718897488,37.91175084286179,1,S01
10240,0.15995927743438848,-0.019704984411315102,10.137910922914088,-4.102331522738333,-1.124723382216036,0.0963187369539763,29.195290416339798,-16.357281881089925,37.382723360388745,1,S01
10260,0.17430479744736274,-0.019373707773309226,10.13181664602925,-3.494267841468817,-0.7636535077172945,0.6273339905293783,29.30934467087423,-16.44286644374067,38.307984943744174,1,S01
10280,0.17777116535867343,-0.018570878350204198,10.153389751358226,-3.8743343499382004,-1.108388197343184,1.7261672007660565,29.12459357920048,-16.336319256895536,38.25868452033791,1,S01
10300,0.1695443378726707,-0.04180746842921602,10.130791552546244,-3.924184061346957,-0.6425916834477821,1.4307107231848781,28.8509756740794,-15.891499945332454,37.70260376388813,1,S01
10320,0.17538050520099935,-0.007096415362679354,10.14941052754314,-3.7494894380388066,-0.8888862898244198,0.8964760724481802,29.414166872673423,-16.117596257476876,37.665703214690225,1,S01
10340,0.16962160341513408,-0.01943106118175581,10.148228246590271,-3.7204406825444587,-1.0458349586246514,0.6626165118782734,29.297064819175542,-17.27939370353181,38.18569773525449,1,S01
10360,0.17086549636850143,-0.028453111492722345,10.149124040186004,-3.087459303851667,-0.9033964071953821,0.7305495128532854,29.750237255522855,-16.996188451465585,38.0634319690221,1,S01
10380,0.1895194559128584,-0.019371604217557542,10.17340073108078,-4.925116276925806,-0.5265486460199281,1.870114034796424,29.830040810130818,-16.563477489453025,38.1070902972854,1,S01
10400,0.16293926667741687,-0.02195999554403095,10.15525515542838,-3.723904161378946,-0.17210806030846793,1.3587479512555793,30.06620616686307,-16.5103606450117,37.96698510334433,1,S01
10420,0.18850665832171884,-0.03793707091218207,10.153990683650802,-3.7714189444454274,-1.233219854775146,0.47322366651464653,29.320122418299604,-15.79967518301062,38.637815487422294,1,S01
10440,0.18131499512329707,-0.03650985040809025,10.150398563699406,-3.533252588802759,-0.38524363187757626,0.4287481730265061,29.94622451964124,-16.534073725694924,37.8218341733454,1,S01
10460,0.16965029420143923,-0.04652025576764776,10.1428025584099,-4.353223708269716,-0.9189212118458168,0.9953635256197899,29.964623661776937,-16.578665559169586,38.08878334068483,1,S01
10480,0.19485700100189407,-0.04423220512153159,10.133283661587884,-3.847179691791026,-1.2005094661829536,0.9024771074867339,29.08522756762468,-16.304796814869345,37.61515224119025,1,S01
10500,0.17812272914218708,-0.04866939159563766,10.129409514866166,-3.85362207761749,-1.2292395983281863,0.6241790923407493,29.45341711037892,-16.526479374192256,37.81016191364441,1,S01
10520,0.17868124606960067,-0.03674755652663514,10.159843602420969,-3.585706494726731,-0.5107100564746185,0.4929859033782941,29.23228073910469,-16.5933686952349,37.65344522389454,1,S01
10540,0.1805010946043839,-0.04591593717007854,10.134793248194914,-3.621209346559045,-0.5854631045014467,0.2948803663823883,29.706519586467646,-15.958913386723639,38.22195271555773,1,S01
10560,0.16445980315814032,-0.04221764138443222,10.160145347131081,-4.87730740007474,-0.6781931133196502,0.9200551524951917,29.36728811296505,-16.35378582337708,38.24813475877684,1,S01
10580,0.16686708949107792,-0.05784750162645815,10.146863780084336,-3.9283707052116226,-1.2468988134816161,-0.09847305504023118,29.745207453856622,-16.171735854090173,38.12641483435127,1,S01
10600,0.16463825930589848,-0.07455562235876598,10.146880690915449,-3.865721114228679,0.08409564356486587,0.8849688416415082,29.833213470694652,-16.036411819675024,38.54240605554663,1,S01
10620,0.17333350906777645,-0.07078224596355652,10.155722294812866,-4.153458278423203,-1.8513931708600175,0.4681803249437559,28.92998529701614,-16.56969181816192,37.91762869886154,1,S01
10640,0.1619887155598898,-0.07681834314168401,10.154263863367877,-4.447587872042159,-0.6329721428082489,0.45431296315739184,28.96369160250961,-16.810890472453174,38.29851908755699,1,S01
10660,0.1553122206484928,-0.06613372886126398,10.13963564468793,-4.602382863681924,-1.4183446487826517,0.662960667678982,30.080426306014967,-16.501043763408216,37.72805717627118,1,S01
10680,0.15944843761268432,-0.07906535699291951,10.144631597630978,-4.342534437173388,-1.826666803612786,-0.1792302612772415,29.623138082344106,-17.51101420963877,37.46295884749589,1,S01
10700,0.156106427444966,-0.08882343660549281,10.138140525320843,-3.944596387135497,-1.6375745098743266,-0.04849661066332167,28.769566006269848,-16.949849584294668,37.39409568171852,1,S01
10720,0.14686555794359826,-0.08343955942698945,10.14191698288573,-3.7395685360583264,-1.4091953717947023,1.0184039689672406,29.181322322612637,-16.749964670270142,37.268236818961626,1,S01
10740,0.1320097976916489,-0.07654633387280689,10.141559479176442,-3.569946798160474,-0.8703490038649815,0.5941150412465174,29.007843648081817,-16.348431153494463,37.88522099139601,1,S01
10760,0.13255258484405405,-0.10630406790420321,10.154376895761944,-4.044211116595863,-1.6035997043113817,0.13450996527431325,29.816382919492604,-15.842697799638328,37.16124797040508,1,S01
10780,0.14566207120216085,-0.10623902706508395,10.139666243425149,-4.3782059463511205,-0.7543263492649234,0.40323943920106997,28.89820345035719,-16.672002228622873,37.98620705410174,1,S01
10800,0.11666410762408057,-0.08398708078464051,10.136614158981791,-3.9480894374207853,-1.8662583855458557,0.36739401808420646,29.42368500400582,-16.66350189907663,37.15766188967013,1,S01
10820,0.12623432023446182,-0.1095000501848371,10.133933282834429,-4.582303271257606,-1.487898576607773,0.3346997125824042,28.973966471662617,-16.13842771289055,38.268016033710005,1,S01
10840,0.12779664356830767,-0.10101496719930289,10.138947756813726,-4.3744855524753,-0.07465333039389654,-0.8047129237667313,29.877950561634147,-16.239105940388566,37.23895482440375,1,S01
10860,0.1268251271704424,-0.1002543458528115,10.148673341641333,-4.392953770254641,-1.0601998122185061,0.44591038123837545,28.868788703545853,-15.92297277388809,37.880658796851314,1,S01
10880,0.12163073243017437,-0.12003052540942241,10.140989465316908,-4.572736348582361,-1.6972598281704188,0.17896551553843337,29.066069952095212,-16.958105023476683,37.17693720206826,1,S01
10900,0.10084859021717671,-0.12060729500296363,10.13780828803169,-3.914936860134896,-0.6335967064057056,0.005586782840244386,29.61327411282197,-16.372911113781793,37.49746541451871,1,S01
10920,0.11040508730356406,-0.11080498004674097,10.132294851927634,-4.2433120518524,-1.1262451248849779,-0.009950868672172541,29.98652502951226,-16.842237892297657,37.8737199577803,1,S01
10940,0.10638327841044741,-0.1057328467465502,10.148943554624273,-3.865705364011125,-1.7001303229160074,0.35023368024940676,29.37091397375779,-16.457225990119284,37.67783430345088,1,S01
10960,0.09135944712952114,-0.12174178207580799,10.142499917246905,-4.229239465401056,-2.03491602655098,0.6448945216349192,29.10034989584096,-16.31566746989837,38.22761342827629,1,S01
10980,0.08510428649489071,-0.11830079692807721,10.151045130932088,-4.370775951964566,-1.274036851915461,0.29011030220896133,29.178874732162,-16.424556889971573,37.73764675362423,1,S01
11000,0.0837926368509193,-0.12778865595405253,10.166198162128131,-5.057111055120983,-1.2748654546969607,0.5760152471953004,29.487903100517578,-16.775925778673223,37.38630854058564,1,S01
11020,0.0768252366678028,-0.11473196620132216,10.146128929977712,-4.25995157559943,-1.4793814804542644,0.11176089482899176,29.426077480748,-17.27300631718701,37.891058494359065,1,S01
11040,0.0682948166377948,-0.11722827871621544,10.146013536961807,-4.710184560886907,-1.2827369899258916,-0.17289392136799064,29.422776864195683,-16.704291945200094,37.362296030895216,1,S01
11060,0.07768406282049496,-0.12237603908146633,10.157261701901852,-4.067829559358821,-0.31655447094852507,0.3952272320167656,30.02736585993935,-16.023558102001168,37.62802441316709,1,S01
11080,0.07457217264524366,-0.12146727523015768,10.134557844669565,-4.694277404064919,-1.8307100943413306,0.8563387723390945,29.002001317305282,-15.94835912564399,38.250559597832,1,S01
11100,0.06789430136179439,-0.13290027279898517,10.137932264463219,-4.207475511898801,-0.8829591546465432,0.24645899835752072,29.673256114644996,-16.209187551159733,38.08626792636859,1,S01
11120,0.07190710385973557,-0.1075335137048696,10.115887082844038,-5.186255275975747,-2.5140648716656826,0.35239318931101854,28.76001291275584,-16.56624548147923,37.300471542317524,1,S01
11140,0.049163369377621884,-0.12445881536768512,10.158110813682166,-3.981378327416654,-1.1471673145951287,-0.02711762574601806,29.31805365577815,-16.66035970432314,38.149766600825885,1,S01
11160,0.05732169827585201,-0.11156843573637895,10.147943287551014,-4.559995886655995,-1.24401687614151,-0.3986578907194088,29.096879447883,-16.694819408317585,37.535049760721385,1,S01
11180,0.045995296678416585,-0.10222701330555681,10.147916704036154,-4.5169904087734665,-1.527424627359188,-0.08545607785811626,29.615088077465213,-16.103894951774368,37.90180874011435,1,S01
11200,0.04791248100881596,-0.0979457032815827,10.140624212397727,-4.583255616271067,-0.8312539397462815,0.13758427504617954,28.954718668537993,-16.37627510132289,37.482610283844735,1,S01
11220,0.033270371896043,-0.09915439683457722,10.146424490084199,-3.8958463237439016,-1.2538520995693412,0.27253574582892726,29.501656879313433,-15.897459023944329,37.53125981298549,1,S01
11240,0.05119857508124574,-0.09828330493108488,10.158620792793277,-3.562775386152531,-1.8242350203304394,0.5992895647638257,29.73567510082954,-16.720052420900196,37.97961724208904,1,S01
11260,0.043721817045803205,-0.08259919673275051,10.152020704430269,-4.282299751244028,-1.296201918908585,0.6336955806915439,29.263459228762184,-16.434339757123304,37.43227937652229,1,S01
11280,0.031941864950551346,-0.10246864766461367,10.138180951618368,-4.936375724194772,-0.8034226876888904,1.2613251483534482,29.51494342133319,-17.217397491332598,37.26525581391038,1,S01
11300,0.013771379069671144,-0.07487003117667099,10.139499213775313,-5.153404169792156,-1.1293149147188668,1.0903340626521982,29.08089214502859,-16.899206041530917,38.05369709640776,1,S01
11320,0.03045914390156257,-0.08645344648910311,10.162297586127043,-5.0199763773890265,-1.3922245320408038,0.02362059262782923,29.05803892667414,-15.935260358502752,37.7824642332387,1,S01
11340,0.02449759421673285,-0.09139814867993883,10.157363602386978,-4.12854046654322,-0.798301701706517,0.554254332052655,28.343943083109476,-16.532196621332986,37.79506292638252,1,S01
11360,0.031219928546522863,-0.0516038284760609,10.137759162287695,-4.491519541729498,-1.6727392644193804,0.9061096331331233,29.65158907965337,-16.70697213751673,38.39149034016662,1,S01
11380,0.010149675662326746,-0.08029318651021165,10.139734537910586,-4.222353546530315,-0.14492233188413373,0.06552447600396683,29.049627104788033,-16.743791862848187,36.81914433959915,1,S01
11400,0.0362141727462523,-0.06008965774643499,10.14452087894243,-3.928349676268813,-1.4872165925641052,-0.03911272223073048,29.591137838331623,-16.941231741432013,37.52918550553132,1,S01
11420,0.02135128701784951,-0.0525472633572954,10.13446964379615,-4.633625113877594,-1.706200790849571,-1.100882264400445,29.9397427573385,-16.170010297999855,37.717344192091325,1,S01
11440,0.045003439946095826,-0.06156346799984721,10.136029317457437,-3.9371006606781287,-1.2679900873896377,0.014617146009219595,29.46395531396829,-16.60081601499432,37.57343763659224,1,S01
11460,0.013970031685017578,-0.04406002478505056,10.137660691792988,-4.403777739531789,-1.4663228731149904,0.2387298302481895,28.86887588252235,-16.409961099306763,37.43297792310709,1,S01
11480,0.00834635511291558,-0.060460483424438057,10.144784724590554,-3.807597089620846,-1.1821852693284085,-0.15202049111591676,29.225926849766118,-16.790030237305974,37.49525600696756,1,S01
11500,0.028703305397887777,-0.042755811661321474,10.157837921627323,-3.8850375536926824,-1.8502204930721724,1.272214138290685,28.620415523651396,-16.631599305722368,37.63714321685915,1,S01
11520,0.039404355809976734,-0.04138615813484475,10.163200815742579,-4.619009392715545,-2.4062160015476985,0.5857588862761647,29.355873975500728,-16.654114037781042,37.29601078440421,1,S01
11540,0.031126208289347673,-0.027581951812720808,10.148430677149873,-4.6519161670504285,-1.0689777074373221,0.21031234842323054,29.782001858267975,-16.528753952333005,37.678676828943665,1,S01
11560,0.02263403715050559,-0.023412985659374407,10.141351018702151,-5.19884924193507,-2.013326251470862,0.8392350440613725,28.785383145850965,-15.585120842025837,37.34196267022874,1,S01
11580,0.01824041615396918,-0.019797513855871772,10.133045010466267,-4.389163327133201,-2.0612166058943924,0.16498800188632767,29.046014191137225,-16.222939400322197,38.153718798261544,1,S01
11600,0.024179641352585796,-0.03683866556732276,10.13175498306084,-4.165444417207519,-1.5469728293336011,0.2827746716279284,29.06430576292402,-16.62730066623722,38.315518603552505,1,S01
11620,0.03793151110348846,-0.021046348462339784,10.143644791357792,-5.077644503722614,-1.9166843374065752,1.1303311537481446,29.11072610505551,-16.22167586438036,37.80009584933487,1,S01
11640,0.034107166042428264,-0.02423680593646422,10.124494138457191,-4.3693617254983925,-0.859630481740281,0.018450791804882516,29.437803103316174,-17.135401806728368,38.20230118286778,1,S01
11660,0.0503179246451282,-0.019135887760828266,10.155296310908778,-3.43482314073546,-1.1936773543419987,1.0983553092419922,29.013582657559734,-17.257658595923537,37.44032800822037,1,S01
11680,0.050102284673623966,-0.001086853996761214,10.132198572015268,-4.448650486165743,-0.404176267377646,0.7508052216668472,29.598075785473835,-16.930295538590276,37.43893783058092,1,S01
11700,0.052975643836001715,-0.026514455449958285,10.140528967014761,-3.9696178065187344,-0.799619791537936,0.2794463711558197,29.633808266403243,-16.695038803742364,37.731456201656336,1,S01
11720,0.06565530828299651,-0.01909512856216046,10.14232567343778,-4.7835964951163525,-1.1179553988071926,0.42094507571950945,28.947943079287757,-16.22847274644478,37.68045250003181,1,S01
11740,0.05199434461784111,-0.010504461190562447,10.148709146152644,-3.3679884760637124,-1.1606342592646213,1.1350296112303524,29.21590735239198,-16.284172343363174,37.8230324076794,1,S01
11760,0.04900167906421182,-0.03680846178678942,10.143360510195873,-5.0486948136056995,-1.39739078357728,0.3693602281215148,29.1559356224347,-16.509617236650627,38.01627145749444,1,S01
11780,0.06725121059058228,-0.0370836100763618,10.154093666041003,-4.89906962858686,-1.0896908702387766,-0.5727134161516975,29.638353505817697,-16.538562570037904,37.943596634386715,1,S01
11800,0.052729562739615314,-0.011707808311333286,10.14950345926801,-4.861485678508898,-0.7381677022879519,0.015444984603860346,27.99675784502246,-15.32664839822141,38.057901209535444,1,S01
11820,0.07242744276089387,-0.030007639396473967,10.154340237429833,-3.204875639946388,-1.6566811500179293,0.8944473840263867,29.412893518918214,-16.774876081024132,37.64601918029032,1,S01
11840,0.08367688983870919,-0.029068392959723542,10.12615040038513,-4.141504867224182,-1.1671483282923094,1.6385953508331794,28.995262759824122,-15.367737810190931,37.52556246632137,1,S01
11860,0.07027319416667133,-0.024267666163372295,10.14419549488198,-3.8940704066880873,-2.1201200706628143,1.4245778717610804,29.9833409508392,-16.564197534287075,37.70507373999973,1,S01
11880,0.08661415302870669,-0.038148496062260326,10.149503789437402,-4.574664942554203,-0.5816446646833884,0.8922780720455872,29.45161355074815,-16.604770489297323,37.6383591739285,1,S01
11900,0.09471860205485796,-0.033589801272922985,10.153264267811462,-5.010944901866273,-0.7628102318271799,0.3025923050106062,29.17142448784426,-16.13583958570051,37.98407376919648,1,S01
11920,0.0977156058286236,-0.031190675665662047,10.136817475187726,-4.410067298243254,-1.5299104325528616,0.820429738347771,29.58209441783959,-15.757230878559918,37.51517935366304,1,S01
11940,0.10056257844530132,-0.046260456901712106,10.15837657603739,-3.9480477320517173,-0.8921618028076923,0.6860635576517451,29.48814215883729,-16.32664006620413,37.41805105393617,1,S01
11960,0.10510156884215217,-0.05039282334944548,10.15137275608211,-4.061193031576677,-1.557138985833901,1.406586796891496,29.303619745265113,-16.578064407503554,36.88843531081102,1,S01
11980,0.1029171242579363,-0.05343780787918498,10.157658983449842,-4.353640718558451,-1.8178441841905624,0.7174834888322088,29.08675935813254,-16.43686487109762,37.78500321621513,1,S01
12000,0.12259988031337334,-0.053522239158821906,10.131977839884835,-4.416126085556847,-0.6670258732452782,0.5018844926916268,29.63290350154276,-16.239444503274136,37.28240326698123,1,S01
12020,0.1267214052925517,-0.04520861112806906,10.140028774815148,-5.289770340853118,-0.708638794485639,0.5069053155644463,29.403697697069003,-16.03803226575464,37.51292481840842,1,S01
12040,0.11773304606289384,-0.06263512101419634,10.160480719119008,-3.9625709407279057,-1.2004449497857834,0.8585489835642615,29.14771229764482,-16.83164738854751,38.247183216852854,1,S01
12060,0.1108784253499926,-0.05940124789239229,10.143361004937889,-3.6569009747217667,-0.4583486638648234,0.5821901609919735,29.22735314463078,-16.649129034240737,38.021976676082396,1,S01
12080,0.14238204632085755,-0.05505754383571838,10.149786182638735,-3.677483316255474,-1.2387521029268285,0.8096122840634061,29.32884347385788,-16.377636883343293,37.577313080035715,1,S01
12100,0.13899809221448317,-0.072244518900132,10.169218310966485,-3.2987373114014638,-1.2632177411863528,1.202110377872378,28.734936414615433,-16.263140307529657,37.51051358120554,1,S01
12120,0.16409390449133143,-0.06372625600585484,10.132960382849502,-3.7775355476871524,-1.0899986405640933,0.66331308758871,29.71394244656927,-16.557598524500456,37.56537205590649,1,S01
12140,0.1499196218238883,-0.09482504866811586,10.13393456086218,-3.6352219895131714,-2.0000761325100354,1.1561872505136672,29.192084968398532,-16.522827999035115,38.01365939513763,1,S01
12160,0.15832522356297885,-0.07987673515715712,10.142337388686071,-4.230352016685116,-0.6583932394563042,-0.36742455356834336,29.40086364332919,-16.574793405670825,37.46257843489677,1,S01
12180,0.1470354060615674,-0.10286406064250078,10.13724074722584,-3.80594774886142,-1.275066416293867,1.1852997597083013,29.960477745939954,-16.597111331175558,37.87425776514556,1,S01
12200,0.15129973315746215,-0.10876256877387419,10.132600708124437,-4.195524628900504,-0.2451304144755857,0.3837836922760809,29.423858342097123,-16.522546594543208,37.984330205863984,1,S01
12220,0.16745274747921707,-0.09084807831714842,10.124456242615425,-3.0576102742224873,-1.3300647196719275,1.5458272027179898,29.58696905534765,-16.455560380419676,38.286055598940465,1,S01
12240,0.16785646944177401,-0.10809325593680784,10.140386789670432,-4.5934299086107035,-0.5542020756399639,0.9674224043215407,29.251750299896088,-15.5742632225739,37.45528407944584,1,S01
12260,0.16139098896022408,-0.11160296561587857,10.152246855373043,-4.527053283246577,-0.6200128319389231,1.1571353516589604,29.36712400719746,-16.057772722231192,37.14616481755733,1,S01
12280,0.1840144686210042,-0.09665343793903719,10.131704406879903,-4.079553371938713,-0.7104807712678751,0.6742645345695487,29.33993286293554,-17.439696537215795,38.16473918053984,1,S01
12300,0.17039243158263861,-0.1236047297890556,10.147189279544877,-4.198196192218886,0.0953484825469677,0.5527423808243369,29.624930155249697,-16.565495245696358,37.78670294453193,1,S01
12320,0.18464922242910686,-0.1267289120315623,10.158924656504217,-3.92874971721762,-1.2433786692484707,0.6494826304647732,29.49589553710577,-16.75716242809505,37.66650063230929,1,S01
12340,0.16973370458255554,-0.1344355462370649,10.16179861862223,-4.493659071423938,-1.392600513789301,0.8455679791155101,29.59297193960341,-16.564491390974833,37.87737633414916,1,S01
12360,0.1783891572541797,-0.11714984232399285,10.132515704723152,-4.2089906628544,-0.6879212759022446,0.9475591116255837,29.03046266609882,-16.631228878620448,37.55969791343168,1,S01
12380,0.17548087276327676,-0.11150809151869276,10.13771711824371,-3.2574522424264423,-0.3194116180931239,0.7399082848992323,29.790810635561375,-17.147403572416238,36.87978958131855,1,S01
12400,0.1999848096015909,-0.12201234928203529,10.140658111052277,-5.0052051632935335,0.0042526780089866545,1.013533868272546,29.080823239818184,-16.419306936439494,38.29180912083461,1,S01
12420,0.1687189076862447,-0.12974146653153187,10.15645876561024,-3.86307327805155,-0.6603410793134354,0.7009618703400006,28.86161564735391,-16.49852071758244,37.458526566032795,1,S01
12440,0.1880038120183936,-0.12326748875842805,10.146204781591331,-3.786233389025119,-0.25217431279771074,0.5798609881588174,29.375629290025703,-16.60420708385232,37.20993117829329,1,S01
12460,0.176390014862943,-0.11310123124018015,10.127651748233767,-4.675734005267681,-0.4173960097194447,1.5249180812919982,29.221663282762066,-16.308003777919943,37.189961964049196,1,S01
12480,0.17561114660133428,-0.11259376050618292,10.149837442750066,-4.915659774758277,0.04270918272074642,0.5910626342013164,29.05704002924872,-16.448841928986695,38.337203751465054,1,S01
12500,0.16611990999220136,-0.10884120856311374,10.149609879902068,-3.946487816783388,-1.163345104694933,-0.02113829590257732,29.390013584246567,-16.13296695411761,38.12092135951251,1,S01
12520,0.17499206139147583,-0.12533451829832143,10.141911353632658,-3.76191422232778,-0.7466338955305558,0.06327819463641216,28.830243480470003,-16.206085895196047,37.22176043862513,1,S01
12540,0.17750534806935603,-0.12685846998366673,10.1223903166318,-3.077517918924016,-0.7430149567111799,1.419032520312312,29.528706935667714,-16.048420448375552,37.637754077234256,1,S01
12560,0.17666929832924527,-0.11935526178971985,10.145557276442316,-4.448666892690614,-0.16884895188609628,1.6535373875735049,29.746992156032768,-17.072484711382625,37.839060851452686,1,S01
12580,0.1855145698691451,-0.09691092310573697,10.146632729573179,-4.134286066411632,-1.6264259380414232,1.2155709683989033,29.543207497725678,-16.033672836188458,37.70700874129003,1,S01
12600,0.169102675223351,-0.09662159917077613,10.15263709651966,-3.4521046162534903,0.3828145175724602,-0.2590365620933138,29.115633115999433,-16.539982664340766,38.484422885023896,1,S01
12620,0.16286382199174498,-0.09853047362201137,10.15060036948399,-3.9019241326585155,-0.5398535473219529,0.4102458367797417,29.073512098275792,-16.10685087017172,37.986514582814216,1,S01
12640,0.18399822852491685,-0.10599730292660933,10.140045404578306,-3.7532655548253713,-1.4268568235737502,1.2291485637211896,29.330987804104463,-16.310523357004456,37.98431992555198,1,S01
12660,0.16826290755829548,-0.10101022440690534,10.15114181452801,-4.427892037175714,-1.2408100144587704,0.2668663327970783,29.477389440217355,-16.649192563429292,38.338434477558636,1,S01
12680,0.1444131129002339,-0.09937318668370865,10.156291669436637,-4.242503520391717,-0.6606883605364183,1.742060382765838,29.533175410436954,-16.15158681269433,37.16182841238089,1,S01
12700,0.14611938944470013,-0.09600912909081823,10.147915854867367,-3.551887801138002,-1.0647735626112291,0.7235640662092327,29.184250319998238,-16.773316037529717,37.298076026724566,1,S01
12720,0.16116202300140325,-0.09089812138415303,10.14557167286384,-3.759776959992608,-1.5839724452151989,0.095710113370021,28.947763515561274,-16.412411746927745,38.18751141878234,1,S01
12740,0.1495054109864726,-0.08897999946790457,10.130841301003109,-5.110537961195478,-1.3189282808373404,0.6030867906033552,29.34793165456113,-16.475685611448355,37.492579090914695,1,S01
12760,0.1476758685392053,-0.0802634648565592,10.145874398762373,-3.902708978980683,-1.7795790659650017,0.8381339220153933,29.394881047551138,-17.09596614387129,37.517541396840464,1,S01
12780,0.1372107385717472,-0.09266723410424818,10.132397852216153,-4.371696364955617,-1.3314287025355804,0.17334369852982157,29.68073671029846,-16.23840964383021,38.61861902348285,1,S01
12800,0.1358389607640802,-0.062019669815040694,10.141959317433495,-4.184593371968489,-0.5622118793012949,0.8761876891977967,29.25084563335999,-16.974707933255267,37.308939622961205,1,S01
12820,0.12387683699260721,-0.060564881582102,10.156212031087682,-3.389585415551489,-1.1189052842143454,0.8426869822658599,29.609555927486422,-15.765693343538915,38.23202033357515,1,S01
12840,0.14050793425978655,-0.0782282487803997,10.12617865097813,-3.9610260688862544,-0.8902385187609366,0.7166068400624466,29.747781335310147,-15.877543920713244,37.56920697473955,1,S01
12860,0.1261878546711674,-0.0638166541883077,10.170989225220808,-3.2321790307851352,-1.664803927206557,1.4324490784074968,29.276982776936894,-16.47968006839702,37.68235144986725,1,S01
12880,0.11029028085883309,-0.03794364685187772,10.126828063358465,-3.7563529889986054,-1.434893544861093,0.5601988946361786,29.470319747769885,-16.505835492030144,37.88871742320902,1,S01
