timestamp,ax,ay,az,gx,gy,gz,mx,my,mz,label,subject_id
0,0.27446145769494223,-0.24672396672939595,10.286804561792627,-4.8729834831940035,3.342425539768496,35.21998595921723,28.165921378713367,-3.426598924506817,38.25275906918022,3,S01
20,0.8430184724947578,1.196695687521644,10.97687353541548,32.690174771911536,50.45983855252827,14.719974476962586,32.093775723751875,-5.309345167889128,39.148472014389405,3,S01
40,1.2336051415491622,2.146129062944289,12.225554677055381,72.27654686934598,99.71224379353893,12.908436281612516,32.48478935247957,-5.6679461951209404,41.722066240244935,3,S01
60,1.5446514767567994,2.8488079164200815,12.622678911184078,67.1357843531356,116.56565513068219,-17.975025817324426,32.732184653834985,-9.369093154500147,40.74134994047142,3,S01
80,1.258169757529409,2.4676745525110992,13.311027653763185,79.64882887025526,100.95395476003121,-18.25261258642814,32.68462523474946,-10.988252308421421,42.012183078630315,3,S01
100,0.8101571970651567,1.912935152105608,13.742439762213639,39.39595192263406,83.88222181652091,-32.061283853681566,33.45111608293975,-12.57940403091014,42.771775068767745,3,S01
120,0.49353950453326845,1.1051153822082398,13.113254803172921,16.505329718246024,50.629677519834175,-33.808109612642994,33.67667237011,-13.717605121152502,39.85253284085263,3,S01
140,0.045722376979309844,0.800235322480207,12.635355829582737,8.255664785801812,26.78149564370039,-33.84925654458431,38.80132276235237,-12.209503129086377,37.66174467987245,3,S01
160,0.0740933033057044,0.21802810070729167,11.92626561611023,11.689815809733776,12.773895669809692,-33.95461254986616,37.15140189540706,-14.534756876662627,36.64016224880041,3,S01
180,0.29618325282247515,0.04451215044232154,11.307219410260933,-11.967231224043628,-7.53347724289646,-21.00074833095497,35.36609786978825,-15.521367291502225,36.3711284150087,3,S01
200,0.1603137382434542,-0.7650919067471433,10.610225948156298,-9.873140935975815,-22.84976172579235,-5.272006834502147,37.265938677339435,-19.754696249486244,34.25672778540476,3,S01
220,-0.34782682585033287,-1.2082476500050323,9.901907235373491,-29.59090393166823,-59.16982684344186,-2.960516344731516,36.498524773760465,-19.21578276730188,31.11309098873436,3,S01
240,-0.5025131466626844,-2.301146257721942,9.380131531488551,-48.18228230582061,-83.12461503132563,17.918325895321512,32.47778932046761,-22.708862644275136,33.56156975362194,3,S01
260,-1.155537639800907,-2.522422338234498,9.303382954228418,-64.62862387358558,-103.59810737870619,25.036968735736238,34.34660243745177,-24.973849205315492,32.74793817808306,3,S01
280,-1.4009164638368574,-3.1131110036518055,8.965953503765398,-79.13561279922845,-112.92520286937882,36.35122851445021,36.80156566192505,-28.574559588057475,34.04283242522877,3,S01
300,-1.0623491359314563,-2.446913818849143,9.04928062356819,-71.8119209041379,-92.5552030773419,43.59603129178968,33.59680539526484,-26.248367645682222,34.42625006779711,3,S01
320,-0.29955436539908886,-1.6400907784338397,9.573061507237606,-46.30987945975713,-48.99202002755227,42.46201957898851,34.665462405356436,-29.843021369248987,37.18883148357899,3,S01
340,0.187476023527494,-0.05647237592821556,10.074566134293406,-9.473947571615211,9.8156062556185,30.709646136680586,31.810856576415805,-27.18949198288085,40.2111218654378,3,S01
360,0.8920772362704539,1.2781446492561221,11.281179864199023,31.989080998254142,62.008683542813515,26.914441607299466,29.319468170797247,-29.67180446612194,41.430111096401426,3,S01
380,1.2331854961358595,2.367061854693693,12.145002754257973,64.64478315529615,92.15863850908242,7.9420301784401754,30.6157360623136,-27.942203467826044,41.99465097753122,3,S01
400,1.155585488840452,2.690054087184601,12.574562428892415,75.9321470321422,112.95060030890536,-9.1424092841812,30.392991976587158,-30.287957017773085,41.10812823301097,3,S01
420,1.1225844169291181,2.63165353861703,13.13595262947698,55.080338792733514,102.89249099628752,-25.232078983127256,25.37773731613452,-32.241539556281865,43.91570651053836,3,S01
440,0.7284954797402751,1.8169437460995534,13.297331170633106,45.7836136899054,79.71736982449481,-32.47754873774788,25.538485265453858,-30.348929626293785,41.114492925231865,3,S01
460,0.28484921886937925,1.158361605371766,12.832597261328639,19.598506057419304,53.57640959679539,-36.02340369167098,25.51806556695422,-25.975939989673435,39.46934734927616,3,S01
480,0.21609192180919368,0.6597071266601915,12.69744660089496,-0.8871731115344001,26.05921010035874,-35.42169444678864,23.619626054813317,-29.773154265710712,40.5061451957258,3,S01
500,0.04289449380473077,0.08218320824482317,11.839908478783746,-3.265293502405733,-5.391427412307077,-35.38588050712913,22.347637884232036,-24.94793614904545,38.82886859794682,3,S01
520,0.12688014041034054,-0.1214440077003586,11.206612222181446,-16.947177435641336,3.7252501811087653,-27.34161328742061,22.472441268918224,-24.021025039836136,34.442077972998966,3,S01
540,0.1042807888196494,-0.6198103836097044,10.498103477710462,-23.141971230518664,-22.692826526402367,-11.831430047087078,21.795089450597636,-24.023449462418263,34.32942798624892,3,S01
560,-0.21133054875463927,-0.8864138566992601,9.964448100834538,-30.37238901142181,-51.11640567435968,4.609147146590891,21.654940602294527,-21.019818913911237,35.8224027272467,3,S01
580,-0.6261070006632656,-2.099856323172663,9.229906513926124,-47.728708518378575,-80.34642100340419,14.293285315465567,21.47016512562208,-18.420796613828916,33.84663011050165,3,S01
600,-1.0186795269482594,-2.5540121750986096,9.157239202106759,-69.36935089979129,-106.3731171383336,18.06240589950734,22.49089216539968,-19.33441395551196,35.431667836441406,3,S01
620,-1.142416353224451,-2.794886954955691,9.465993652511964,-71.55944716237819,-113.34174243972987,46.463127074533126,22.86479689003395,-16.488289427937772,35.157351430056536,3,S01
640,-1.088403043128414,-2.2434836717703637,9.51098967059767,-66.57399070331114,-88.73975329225179,35.04951201424851,22.435177422580875,-13.94875127619966,37.017477998137494,3,S01
660,-0.4421697836576389,-1.3088251350903264,9.529794341299098,-41.79631401605563,-63.3124043292303,38.59399285331468,19.40665274560003,-14.55047796936131,37.140040586366155,3,S01
680,0.19890505325134092,0.09050341983677015,10.088130337382227,-12.57137779213155,4.734827977260824,32.34254837514472,24.390736066487683,-12.395032556466576,36.268852773150854,3,S01
700,0.9900715972814591,1.3562792697994954,10.9532866767006,28.482616463269697,53.747066569525586,23.809193859800427,21.972726340500316,-10.476306009408862,40.306078460689186,3,S01
720,1.265829209301125,2.752828010698203,12.176317834776855,47.21828650475504,92.99607755357665,7.3606722711888874,24.073104133685725,-10.823813057538267,40.823943814883144,3,S01
740,1.4038659243196123,2.8660562446600903,12.742588913415984,65.68929732864159,99.67704422264023,-7.467392602238943,23.365869247535553,-4.333778422971847,42.488058346988346,3,S01
760,1.0598664801229856,2.5656371187218694,13.077255905525986,65.4730577042654,107.37977291668312,-16.70258106475358,22.406094657765934,-7.203556055530877,44.500947322575485,3,S01
780,0.7768020687946595,2.000326636056245,13.57273619293999,48.078199477255914,89.97223168290007,-35.56925405344537,24.7053087184313,-7.004645852493661,42.87111749311904,3,S01
800,0.31985844428136845,1.211845005357643,13.127027217839897,23.780147600105195,49.049187188490166,-50.05699611644241,25.832274247845966,-6.943092257299938,42.43533631587235,3,S01
820,0.25130956265619186,0.7241634916054522,12.582808098329402,7.160290304496383,24.302664489645828,-45.3865916180244,26.561309754402743,-4.330388089943068,38.359348171377405,3,S01
840,-0.11559891554859891,0.07864956552997879,11.739596151943344,-5.103569509319042,9.89059799739789,-29.71361669859934,30.505225218308645,-6.948603843781597,37.999589964927644,3,S01
860,0.20389998438766305,-0.4053826261799192,11.333394832522236,1.8341506894713353,-6.975728807583529,-26.95812655019234,31.550957195368866,-6.905331726101622,34.519169421030014,3,S01
880,0.057220596013355406,-0.43919057077797036,10.507477922035958,-17.907133688539815,-30.03532124894245,-11.89980726674146,31.81667638869609,-5.016612286704687,32.49752252317039,3,S01
900,-0.27924424803037995,-1.1220233060399893,10.010213751314904,-20.67621964634595,-63.198750582630495,2.043589640596426,33.5631587341189,-4.45835621376254,33.365633145444136,3,S01
920,-0.6274696631770464,-1.8623021483902893,9.36404212639704,-48.37299488130149,-84.36227709960059,22.225256805647177,32.864443762259526,-8.352697779575285,34.239915113254824,3,S01
940,-0.9859895626952989,-2.633210429648084,9.343359290433488,-68.22626544962448,-110.97517803909454,30.120452421931056,37.20013662153201,-9.520733770585052,32.09990426867085,3,S01
960,-1.2141251387097205,-2.856337251798254,9.097786520136651,-79.3909110203475,-117.29600856841581,43.26415353248104,35.68437369334985,-11.305693143136473,32.92156211493825,3,S01
980,-1.244002914969863,-2.5287754819563752,9.49050480722793,-69.41091673248238,-94.02650107050573,41.697839573727954,34.98900147272195,-12.183969464131295,33.93931216492234,3,S01
1000,-0.7242505110413514,-1.5142092103043778,9.825094768026418,-38.050615662257684,-61.741677211964046,34.466114440754104,34.43155121319987,-12.038287672813787,35.80274685858498,3,S01
1020,0.15131485789249438,-0.02630861374522752,10.174376889072212,-0.41400577480349954,3.8992949855741594,31.983060801405408,36.21841855007073,-19.04392410582887,36.63277488493213,3,S01
1040,1.0379545264051264,1.1378557272332603,11.016288421009252,35.531475761047304,55.92047066824935,18.729524051014927,39.13614129986527,-19.90371202466995,39.645009787339575,3,S01
1060,1.172042831935599,2.3128152313831394,12.034077343052509,57.308173300890275,93.15909527597454,10.170060420020393,37.47805543270046,-20.252285552378652,43.27003673308802,3,S01
1080,1.365726807080197,2.668424952958067,12.935357383959621,67.59117609276949,118.26844106322903,-5.678434794748101,34.115270694555726,-20.45956528918039,42.98917613006846,3,S01
1100,1.3752093307628255,2.4895535513857134,13.301109949525145,65.89134738752661,107.13851758512357,-22.885869838777754,34.92177355750605,-23.64915062882925,41.6237896212909,3,S01
1120,0.4765731029027491,1.9783523233885145,13.377799393422556,35.19419311469576,79.61389209956958,-31.17100864207796,34.18149045557949,-26.3096206377948,39.69885133502029,3,S01
1140,0.29530555619184473,1.0790553749149716,13.261138104331968,15.701167304325772,55.17189864211029,-37.20498747409626,31.699441446394076,-26.2858457456191,40.59929387799413,3,S01
1160,0.20434313146826438,0.4070530385960181,12.74020759129198,2.650584754511107,29.563618429530546,-39.31785358555034,34.20583250393592,-26.237409407231393,37.82006918110335,3,S01
1180,-0.14306713373804436,0.19968340308365934,11.784647675147607,-6.535426841553213,9.214131442967656,-33.66561917635662,31.91117621822489,-28.398518417355827,36.72772315246558,3,S01
1200,0.036961098482824445,-0.23300910557679583,11.193809254851415,-3.1197816796318665,-4.364522930282985,-24.79649724608656,31.757608173576504,-29.57782973482001,35.97523021133724,3,S01
1220,-0.044421858213035764,-0.6503900953376707,10.463249741175233,-22.032064599340647,-30.25011490316717,-5.775517164763974,31.40135245701639,-31.61109790983992,33.878109790598884,3,S01
1240,-0.1919054834121164,-1.1376457793542611,9.924718517243216,-29.184191563719835,-52.691652866920755,-3.326183931977996,31.44468094790671,-28.469531752858565,33.31244119289721,3,S01
1260,-0.6774615396400148,-1.9710531961127746,9.107620180664123,-44.623727970212755,-77.89739311994539,16.33613787108815,27.324729941813374,-29.180583225344506,31.80307748964434,3,S01
1280,-1.1071507693438056,-2.8402855747650197,9.12274764520191,-74.78602932945945,-103.86080796727876,34.12036250767535,27.950639514229426,-28.162773693696955,31.016902821245722,3,S01
1300,-1.3008605366486508,-2.871627343493328,9.23931763060995,-83.38737822523704,-114.18318201920324,40.15056752645979,23.814700044691463,-31.979552443986044,33.1604504834544,3,S01
1320,-0.6906546951799662,-2.614232831274708,9.3261767843694,-75.83880267197303,-108.18920645071182,34.85682277239476,27.35512980733248,-28.388581590718143,33.80638426933207,3,S01
1340,-0.7929626202021434,-1.621723265526105,9.675943723001042,-33.99549876598532,-63.094522202880526,45.310221469068686,24.869572516894504,-27.055891400933852,37.97635151855931,3,S01
1360,-0.20166941061627516,-0.36064115741559294,10.13922292412522,-5.3702598434217546,-8.337251968815103,28.42088324635874,24.074076946224032,-27.057727464568202,39.406091046488314,3,S01
1380,0.7053338151330634,1.41160377917611,11.149740080643404,32.28884404594088,54.151695996097956,23.745873883953063,21.33358696961526,-23.45406878605665,39.10111116668812,3,S01
1400,1.4011444301600136,2.5645416500158915,12.085646656187194,56.82919007581339,96.85857952552593,6.413882617160517,21.987810983126273,-23.642367651694787,41.31215143759344,3,S01
1420,1.237858173175333,3.0273254993078216,12.825883663547083,69.23829784321164,110.49855708825308,-10.510368070522164,19.954116463862235,-18.324096192567737,40.268707183593534,3,S01
1440,1.1279335395445154,2.8613031863641627,13.375854528683318,55.71231922699486,110.37915054716022,-15.563763823470259,22.143879100937177,-15.444445950905894,42.784870149142016,3,S01
1460,0.83350953761007,2.0400591068860567,13.42331214622599,38.39871686102417,80.14846647851547,-27.43485498236756,19.549158736064456,-16.20491276006329,41.452669346528694,3,S01
1480,0.5580336253298696,1.3343463287741706,13.154803634952614,23.94258820895195,55.083126490133296,-32.07936802359466,21.40028875006619,-16.864481652132067,39.08993943054013,3,S01
1500,0.1320464382491126,0.4080599366879801,12.738453280375866,2.413822661815405,22.032647990388124,-42.232438329837194,21.82472152309178,-13.193413050013707,41.05974826997818,3,S01
1520,0.1771983754012464,0.2333599509405614,12.297501009299443,-6.146151986110777,12.332423695824316,-35.63162498683591,24.476851254810445,-11.80124850819205,37.00667536932805,3,S01
1540,-0.15161715514974214,-0.14039527626434184,11.590022034282683,4.426912139285819,-10.167022601630318,-25.503162626215452,23.646253676157407,-10.135863270687425,37.391670606279526,3,S01
1560,0.03796995034079642,-0.5170048614279621,10.43267139560549,-9.896669458100167,-22.467876555777206,-8.190587964378627,20.489118376592767,-10.16842626705808,34.25344693375174,3,S01
1580,-0.5316839939578152,-1.0102656408366864,9.951387067175975,-22.033608758823124,-51.77694760667579,-4.2428857855772435,25.576096226261118,-8.351596498845847,36.48339120914314,3,S01
1600,-0.6452576944906252,-2.2655259720247756,9.535477349658205,-51.33234163413618,-82.41309776620871,12.207578423109267,24.98980156855335,-5.336236418833444,32.95005953368337,3,S01
1620,-1.0764987903671397,-2.4083802208184384,8.955061588295298,-63.60596017007562,-98.93199077616022,27.96236537890983,26.76181481173689,-4.770176789791858,35.991928150079055,3,S01
1640,-1.3459859658036788,-2.931623133405169,9.389716273185398,-78.61492430682513,-114.44414062418038,30.295676628462616,25.09766245115474,-8.839917267274442,30.965544329876813,3,S01
1660,-1.256427132114659,-2.4421006291600795,9.589232111433152,-70.82735418833681,-99.55959576231152,43.43372245919884,25.908915058264988,-3.4666660752231615,34.94835674928179,3,S01
1680,-0.6278836394568293,-1.6829733513920118,9.5160278909277,-41.61760009724529,-58.274752226106834,33.89534346786406,28.757080508126517,-3.042695067975488,33.986251189142365,3,S01
1700,-0.012620218093199076,0.0673819974780451,9.99014527030631,-4.92883839807169,-1.3657793466247503,32.03663627540914,28.900449891924914,-5.491742310574547,39.931054725270506,3,S01
1720,0.9196129054441274,1.3043699965319917,11.034826307015013,33.4029997016042,62.01737295633738,16.24113994046001,29.23878290957498,-5.663999590265396,39.699121327263555,3,S01
1740,1.2241630515200888,2.250893950743926,11.860490965457549,53.57763540870178,94.29066427226589,-6.593598058144247,33.57618306274851,-3.0238888407749225,41.83965406158435,3,S01
1760,1.342671529414599,2.942997807260618,12.839881080407226,72.31873499337146,111.85398373816848,-12.446613763232547,32.19829877320761,-8.729070794688027,44.39873723509306,3,S01
1780,1.266934810570703,2.4800957859494983,13.306326678200465,58.452674209651505,106.54625891938213,-18.031596576171065,33.676244199610366,-9.352262129695895,41.46816613919685,3,S01
1800,1.0180750340853844,2.1485079509102154,13.23080064093125,39.83252266375644,85.4314040711448,-30.50994673944926,36.77426368958943,-7.608615749364585,40.67038288532489,3,S01
1820,0.3929830689268823,1.3042533708078754,13.080060167827027,19.016653404714845,55.77274976899022,-49.80234024433567,36.31143392740113,-11.598242464569807,42.503708073283576,3,S01
1840,-0.05791907013245107,0.6988558294232503,12.676980546372086,1.9753486909281284,22.10564694209546,-38.752102882057365,36.62994011786047,-12.704841434439583,37.28567120108398,3,S01
1860,0.10517283345670148,0.06133754091203106,12.039313176857519,0.8105587767049185,1.9499321963458185,-28.112418816672132,37.01201174565752,-13.51620450369853,38.60971590447917,3,S01
1880,-0.04686200971374915,-0.34707048509423916,11.393172577538564,2.248603896631331,-1.2972422282329423,-29.55176673139448,36.592534425237474,-15.03247218666684,36.45917327740498,3,S01
1900,-0.008589873446270588,-0.5118116936152444,10.574989475530113,-13.32935577973663,-19.051471721610522,-9.155140619002978,35.5637610674371,-19.324263004787404,35.56307827267063,3,S01
1920,-0.27785498740348213,-1.2383502530096842,10.022525436113995,-23.01140781448538,-65.15303289222676,-1.3597730262847985,33.56056202046905,-21.003576164536746,31.00578513113818,3,S01
1940,-0.5771438392248684,-2.078223033391022,9.085791685743725,-50.07669403463878,-80.08137266825176,17.341490483938763,35.213236976478065,-26.999729476431696,29.246638234483093,3,S01
1960,-0.8803257344210125,-2.403579530691951,9.019776138198713,-69.39634705365309,-99.05914421804968,23.68241683505826,35.46190896684734,-23.89182544582831,32.47561998553792,3,S01
1980,-1.2432493690179802,-2.8762553915113362,9.163824654824772,-83.77540585684662,-103.10422306173778,44.80810162966988,33.15705172235856,-25.18929778563134,36.935371890250075,3,S01
2000,-1.0503548523858155,-2.6389144487707923,9.19133567114517,-75.41921407885944,-93.21847833710565,33.847900147042644,33.05660707146875,-24.958132973367636,32.253996509926395,3,S01
2020,-0.5424991444504602,-1.4990775075926541,9.677019657501408,-36.883669370539266,-61.54407195322613,43.44635795455983,33.17228112012519,-29.72338596697561,33.22770008500056,3,S01
2040,-0.11671485261057099,-0.10911474528436443,10.122446306031419,-1.481879867375869,-0.7682875547364911,34.16737377906701,32.5584522520854,-29.7575404630246,38.00269538849852,3,S01
2060,0.7359813111586877,1.0975688109754276,10.715994009998,39.22002353954839,56.777652832097836,23.76089333846438,34.344765693271384,-29.846838326065704,39.6245576336902,3,S01
2080,1.3903969472236208,2.167977366680887,12.19022369948561,57.359353776374874,92.65919464260296,7.30972785225519,31.538563927248205,-28.16796210480159,41.00140583534744,3,S01
2100,1.0880419688332474,2.862425690681085,12.552252296272,68.16859354294117,104.12359140215803,-1.006843037224677,27.37035353284219,-27.189203620559972,42.332319561842674,3,S01
2120,1.0670165278759234,2.4348533500296696,13.091110149275076,59.20729196559605,108.06072014745558,-13.435191813098585,28.348988366834337,-30.423688884245266,39.19585037930453,3,S01
2140,0.8582135864428422,2.061372455464787,13.235172111027172,44.88995172938446,83.45311451214351,-32.782270974913416,28.194320509126694,-31.016256486640486,42.53747304605762,3,S01
2160,0.2852466709278608,1.272639473301287,13.102098673217213,16.390345603766068,42.42744982991184,-43.10902953093719,27.44064823840081,-28.345886591719342,41.06927894184552,3,S01
2180,0.5898590995843138,0.6232258731579596,12.962069069576614,7.9898979376604435,25.768379338638947,-41.216543325542354,25.90581900871556,-29.52240802039207,37.241094560019334,3,S01
2200,-0.043378707504616476,0.1973545118891432,12.081470579726696,-4.90257730710783,8.958966238089351,-28.559530939684795,25.068064443426152,-28.000630961243367,34.27148348016779,3,S01
2220,0.15642564965768985,-0.12673237554298752,11.184887237175197,-9.753803864028406,-16.02892248025725,-28.66728501409992,23.74648014799198,-27.302912769308698,35.24890356378201,3,S01
2240,0.027123291605457248,-0.4184537412131582,10.365180153904332,-13.088537422436591,-33.68672020300985,-2.871696731818133,25.064640069071604,-22.376784191298825,33.28789288878954,3,S01
2260,-0.1752387694648291,-1.51059459663926,9.944767188223937,-28.216946455561057,-54.10672933461822,-2.1250234560779377,22.781325292493406,-25.408909942040015,31.821340235608506,3,S01
2280,-0.6373013805929636,-2.091797914621603,9.390373031244627,-49.86022847581966,-93.56666689174041,17.799316243816726,18.433685264903595,-19.947340363157217,33.66992600208658,3,S01
2300,-0.9775965661057383,-2.613721066974242,9.359389458803516,-60.54079315008971,-100.26798712517176,37.24332758365094,21.91595214544916,-24.08678239235692,31.61202701893191,3,S01
2320,-1.0179711302447079,-3.038833812357026,9.068442644298964,-76.07233743803869,-123.1348281634262,40.440207112585085,21.22322105406929,-18.216503120484738,32.58571616105796,3,S01
2340,-0.9625792239422913,-2.5633208157655747,9.336482904025768,-63.27559042104636,-107.68963782675578,40.54616325611004,21.495155307747062,-15.501040319792908,33.36722971010706,3,S01
2360,-0.6742240131975578,-1.6884952929634967,9.604801831221895,-46.59597303547795,-69.02271892702889,35.52027714816656,20.089716470934263,-13.080458172637513,35.82513867520336,3,S01
2380,0.12631794424462808,-0.31050331522771424,10.069637008606197,-5.404429241710072,-1.6895961014747811,34.16226127353674,24.085994093664688,-12.817674761971766,39.93127411606851,3,S01
2400,0.7949163601827685,1.101360442154834,11.541493771027593,32.781368844704154,50.61189169178918,24.598805803513354,22.241448636622444,-8.756134885864041,39.270650794772045,3,S01
2420,1.2054681190969436,2.28749057354971,12.206083054175636,56.387022166166815,94.0981163231856,9.21510261937933,22.415445899472267,-8.051225855490541,42.33684980604974,3,S01
2440,1.439100863148147,2.6310855643456144,12.726847301731443,67.87301621041424,109.52757485099569,-9.826883624521544,22.227676223401556,-4.710718847290327,44.12314697241451,3,S01
2460,1.1695376712877752,2.7355969649626455,13.22887119452912,66.75664358230603,108.78335778914604,-20.994792326765147,28.73085248210417,-5.212714993402531,41.34200818362188,3,S01
2480,0.8161543916591874,1.922654151211572,13.479074928641912,42.87718508673026,81.8005941232728,-32.97075747508338,25.102612390413828,-5.312488638118451,42.79998927727427,3,S01
2500,0.19800058762413847,1.2530340517116705,13.20000183309054,31.80095069716619,50.88624517975528,-52.601100253056494,27.53020455385269,-4.437511283158889,39.65832147749628,3,S01
2520,0.1359129770607631,0.7213799660562397,13.00116985136752,8.473771395483435,15.880463832726651,-54.78141010649856,27.445664665262218,-3.850365393190482,39.62818199320747,3,S01
2540,0.18827315898550243,-0.13574665515562745,11.993486418598192,-8.443566747962176,11.748754787721158,-32.58728389398594,28.120700024658635,-4.660488626956423,37.82269745331002,3,S01
2560,0.018744270853184197,-0.10774317984702984,11.181960425853395,-18.203903312884798,-4.221839813753844,-22.574056328557255,29.604684171524227,-2.3891371949705213,35.07663557900593,3,S01
2580,0.019197806139060816,-0.3740848288036893,10.492193780596017,-12.142409705703379,-29.05036801491757,-24.98393642922807,30.17448081514604,-6.81247590847083,34.94167794507358,3,S01
2600,-0.0919541890369227,-1.4429647340921814,9.89048478946396,-31.909621227363264,-54.546438337397404,-0.3842248454595346,31.881932906072706,-9.25665222622063,32.73886317982857,3,S01
2620,-0.4408043314008774,-1.8950666328616934,9.47890350322656,-51.27359948489314,-75.22789156202461,3.28354626539314,33.967130583289816,-9.864783582085016,30.699289972720806,3,S01
2640,-1.0651787870675764,-2.589743894344362,9.047768898485243,-61.97812486962189,-107.01589982179148,17.037534370193374,33.202375591411936,-11.50922410150971,33.55984804577642,3,S01
2660,-1.1073329980034983,-2.885804277267783,8.963615033931196,-78.97369222734041,-111.92776063962226,45.65529068424731,34.59090646287763,-11.209171203525985,33.82155264018409,3,S01
2680,-0.9938865789582781,-2.562886585916165,9.195149259601783,-60.16748507481441,-96.50295212891186,39.19314513491764,34.36174240504539,-12.509212450468963,36.67405863980032,3,S01
2700,-0.8113649903381632,-1.517859233604768,9.513872036557741,-41.232064934383736,-65.08362799549623,37.19433876037328,37.129875733883196,-14.150830011760203,37.4642267767942,3,S01
2720,-0.2588741847182615,-0.33476259950396214,10.048595805070933,-10.533225264132856,-6.011606063566426,33.2664624524607,37.97325848089727,-15.611739683234257,41.35608029555001,3,S01
2740,0.8649116466966984,1.2993691671733452,11.003502084204563,38.82260265255477,56.7533883372643,23.777760263752825,35.8476036358294,-21.508549919406875,39.105192566515576,3,S01
2760,1.5058335451543041,2.2494586193277497,12.032469898330906,58.000226008163466,91.05353139837334,8.72784382032236,38.77897833807769,-21.023493898150353,43.04014064453392,3,S01
2780,1.4830443450350181,2.4588722863695853,12.76749688807936,64.52480621590469,110.24523760380985,-12.96397509074129,37.986912487202886,-22.159288900313655,41.079512127050684,3,S01
2800,1.3133237864671967,2.8005913888524594,13.208221593652441,73.12833258549495,102.91559201505186,-25.313757666348373,33.3556347282357,-23.254085593597832,39.21633007102495,3,S01
2820,0.8144216852800364,1.8726945643254744,12.998237169182808,35.97224868774387,78.32591246133894,-40.50991424483851,36.27854115495195,-28.11380504302406,41.39983502082419,3,S01
2840,0.5302437144193851,1.2707466886053658,13.102648366701898,20.8244828794797,53.38813514987614,-42.191104191832416,35.67849437137278,-23.306884937376566,36.42664691128853,3,S01
2860,0.15424540537906167,0.6415581767518106,12.718223788265128,8.966080904269592,35.00568886846989,-40.03960503262953,32.14436698169578,-28.89996741063127,39.57791036125926,3,S01
2880,-0.18733235742306517,-0.12366795667759248,12.138240640016027,-0.9616010266747725,1.0540319061864587,-34.335127337733944,31.888118532050658,-25.314420987589354,38.72513656011806,3,S01
2900,0.024014421397297786,0.29362807015404285,11.539077885739829,-14.996160914013924,-4.0930794582726175,-34.397394352624424,31.712211084904595,-30.019409876628185,37.63755358288714,3,S01
2920,0.06814672376924052,-0.5941290693888237,10.481640237901878,-12.923639072083219,-23.9422872034041,-6.564497476296709,31.457593120647775,-26.68905607742279,35.092192820123884,3,S01
2940,-0.4703120637488103,-1.450233403056929,9.93780831695169,-26.419008350300913,-56.00078924717935,1.5078515973536137,31.174977847462344,-27.84064012045424,30.82666770196869,3,S01
2960,-0.9848476692368514,-2.023627447735063,9.390616732242718,-44.655499754919006,-84.08787546105165,17.01262880648592,29.5759150173016,-29.37964499537504,28.587999927315423,3,S01
2980,-0.7860953034381197,-2.5088026186469774,9.308472701671846,-60.47767113767594,-105.23331112843721,34.00747799505459,28.313602568923347,-31.663451698867238,34.19551275133328,3,S01
3000,-1.0295186751248362,-2.8483393620840416,9.151386207763622,-80.07046408664584,-118.49727967167483,39.90584153011317,24.964585078146715,-28.923523784619153,33.988949704052715,3,S01
3020,-1.0915474848356583,-2.47702877044754,9.27182341250557,-76.43545477727046,-99.38210792167622,39.14136848794767,25.28270556715531,-29.817447646799685,35.74814494860373,3,S01
3040,-0.49225411420271237,-1.8331091263579131,9.69637730076813,-56.41348255005516,-67.06724629654538,42.09287070139881,25.401220393474745,-25.754214965994716,35.22099114157464,3,S01
3060,-0.05715162535567264,-0.11081400332668725,10.231147622998517,-8.57913756990701,-10.62806505514872,30.33650472702436,24.969269928194493,-26.96223914924749,37.83601182779205,3,S01
3080,0.7770261458125741,1.2936788479514951,11.239539848500678,33.32352904305553,56.948170501519954,17.56633694542448,21.794835789397403,-23.388351443286204,39.463723079400026,3,S01
3100,1.277747431678435,2.3423786749005195,12.029723740402357,57.22790537361828,96.36553056682705,-4.386645610226846,22.5825026690908,-22.686948287327105,41.53085497648074,3,S01
3120,1.4996053846328152,2.509204579213473,12.488275914705383,65.31561294722074,118.36520571816511,-10.66367429431277,20.71667342009085,-21.78388080079327,39.101448912155796,3,S01
3140,1.2340912758200677,2.4929861942060345,13.208920861283,54.716957614279394,101.18415967715848,-19.604197148416095,20.058458007243217,-20.392350749194478,42.2096826158539,3,S01
3160,0.7624190086356522,2.143943159674838,13.428444906278635,49.89242136510653,79.22321902081075,-32.03209632962733,23.22997212290061,-17.141273258277742,41.09669496123053,3,S01
3180,0.3218242368637664,1.1729753702483103,13.37838051528718,16.020099980207267,49.08559269008754,-33.65649359667071,18.799894039051054,-16.684358527558032,40.454397830604535,3,S01
3200,0.02804567310138785,0.5598668226515324,12.710155306578912,8.591221659479988,24.50010439609278,-36.50752937995407,21.812940091669198,-13.493824093703227,40.732557092402224,3,S01
3220,0.17338646663366897,-0.03377218348624552,12.233237544444185,-0.008846202605497844,1.6391249097794722,-38.62165078091839,21.761828438893264,-10.608285892710317,40.383091336097635,3,S01
3240,0.4385957254549162,-0.25829601990289197,11.260287484918008,-12.357343854662172,-18.04405514632109,-28.39755997643621,21.68596475696939,-11.462317765138192,36.2648272200736,3,S01
3260,0.320086228156453,-0.6793378941449131,10.494600735618953,-12.770697422845085,-24.858946246096995,-19.123215102034514,22.506609059436784,-11.189857315529466,37.61414693164314,3,S01
3280,-0.41443175475786354,-1.1269330899987147,10.03209863959456,-27.710043477037924,-35.9995953560269,1.8912973254107466,23.998860363928046,-8.864907444433713,33.27467022823899,3,S01
3300,-0.45639237331822413,-1.914685048432721,9.559323456715042,-43.14678049917392,-85.11722430408398,4.196078468356797,23.856400872712026,-5.249111586487015,35.66618300144847,3,S01
3320,-0.8674122065137476,-2.748542451885269,9.267284602072529,-75.22579580740897,-98.29126466755187,34.417647520297386,26.387101029908273,-5.141720671442391,30.97152198059766,3,S01
3340,-1.104513642530048,-2.9998331720106286,9.044572862388584,-78.49558174477077,-124.0440091306943,33.75469540928511,27.508787477032282,-6.323319187891887,32.90984868704605,3,S01
3360,-1.0084846290042115,-2.549536373424466,8.974406249814793,-71.17289508113082,-103.10820674184761,39.12432490905115,27.94969114212988,-3.5977736615831026,36.53127285416524,3,S01
3380,-0.8095761375523977,-1.8233767045270979,9.649785762314396,-51.17442693242726,-60.13217546898132,44.1238653459595,28.119895054858517,-6.305389378056013,34.76788408985978,3,S01
3400,0.28415483388080903,-0.12540067541834846,10.158723209367604,-4.984485996159735,-7.431548625035324,29.230394699559078,31.098751146767352,-7.21772705856593,39.15799922807188,3,S01
3420,0.5853134465719018,1.1209700780784948,11.396676925262884,23.912402507466897,50.86657629344777,21.817438060195457,28.37049963250234,-4.761377108045034,40.524048406344704,3,S01
3440,1.2439235190794184,2.2018754346990534,11.89323682533498,47.184184519070556,103.04117722153487,8.697644543748515,32.477079982804625,-8.818648031041539,40.55657923352775,3,S01
3460,1.304904659971615,2.7283877502750267,12.904573807654089,71.16564856742093,105.15264577802812,2.310130796635882,35.301919658849,-9.280339045238241,39.7495887543359,3,S01
3480,1.3536224163737465,2.57874652354963,13.06146109195821,56.578385240511246,107.7957122612589,-22.59705700845087,34.10856963006937,-7.814483013146205,44.660691204933876,3,S01
3500,0.8130778768536923,1.9269306574635645,13.188262928776792,34.972458015329565,85.0485180525372,-29.924494679109387,37.13631861207924,-11.01774452257823,39.50076979543344,3,S01
3520,0.682303167093479,1.0616541455909532,12.99404657626752,24.784265174697186,46.712914945857975,-26.375356157118187,34.65357949743295,-12.840860783227274,40.850114736645715,3,S01
3540,0.3957719447700343,0.6197393274538157,12.686780047613201,8.02389510022882,30.002648941868777,-40.568514555498396,33.484493932378314,-10.274322852575228,39.69312475973477,3,S01
3560,0.22654102931410885,0.23517116606783328,12.133317907610222,-2.1273950777610704,2.2448725250440313,-37.07467063913253,36.72013796475914,-15.734663368361323,38.24210364385824,3,S01
3580,0.13427419381304595,-0.09430693617766533,11.358431306018758,-5.210693070104307,-7.110185226284136,-25.58353099748842,36.73418060522479,-16.517353878943375,37.87632501155202,3,S01
3600,-0.16069762547806568,-0.5384324772051386,10.67754182550472,-13.911290440555412,-18.652919633039076,-15.236807582163795,37.56367895286174,-18.882418355204976,33.08015262545378,3,S01
3620,-0.35643840164513985,-1.1583292714055038,10.211512715437781,-16.15015177723844,-55.94325647284084,9.154491091913812,35.04412795438516,-19.59120710074854,36.50051525787616,3,S01
3640,-0.6513147652632,-1.8490897882654695,9.600852961328355,-46.493273824894885,-80.75354068114177,23.406612036593003,36.16161077580229,-22.194819495295796,31.702159931237464,3,S01
3660,-0.8807927897784591,-2.7960769102080127,8.685586249398913,-65.80722986278975,-102.79374527683747,25.982296436030875,36.90814477883049,-23.038809848330043,33.71630565434451,3,S01
3680,-1.0753058676520102,-2.8524952236251577,9.041850547546158,-74.66870576016977,-113.12338324401249,38.91140414135234,32.87830006380206,-27.050395315680458,31.210538173392397,3,S01
3700,-1.106279439766172,-2.6028209857125693,9.453005233610712,-71.80060028549944,-97.51179946953827,41.413351267884394,35.143445099099225,-28.18022182151417,34.12821932140072,3,S01
3720,-0.6452494457598228,-1.5393282781306157,10.10892126157217,-47.22479026820907,-63.8342373313252,38.25984428085277,33.33458789886032,-27.90746174408668,38.3466810391736,3,S01
3740,0.1045362767623992,-0.4566346144703313,9.95402761158953,-3.6874250811369818,-11.60745898700445,35.94934795453746,33.69360801206686,-29.167325076060795,37.755124401579366,3,S01
3760,0.7117979066587472,0.7478328296312191,11.300029461949674,38.098849911007086,50.56669604113045,17.155317542158606,29.176688176253847,-27.00318941027572,40.636916487930016,3,S01
3780,1.218151482799481,2.201899922388341,12.11419867455758,59.18677148622372,92.3563834102427,1.753501040618508,30.782745916749114,-30.4969468813331,41.488551449477725,3,S01
3800,1.4943933899146105,2.7011071962577065,12.728202615819857,67.64188797514576,101.31421470842754,-9.241938860086238,29.36010215629516,-32.03386473711781,37.90515362080375,3,S01
3820,1.2972350663971306,2.3968291311754752,12.914672282107004,56.88460870527382,109.80499504874214,-26.660171505277887,28.075502187094386,-32.70596448861024,42.65875349347325,3,S01
3840,0.8704184046182204,1.8981892349169245,13.419695084912195,44.885152406229814,76.09170864807157,-21.24844055574117,26.950245664552373,-30.98680544443923,40.8255672149836,3,S01
3860,0.43327114445733994,1.246168446973945,13.10533590738517,29.24704139142148,51.960732028097276,-40.57322877763992,25.392105608603558,-29.619405863469563,38.562700062721945,3,S01
3880,0.10005732393000032,0.6512145152806241,12.601966925532231,10.73431598042336,29.856510928830925,-31.09004513395927,24.742206716221673,-32.396477071255646,37.64892300913801,3,S01
3900,0.20706453062095204,0.19832395163565203,11.980430903237028,-5.106714047129607,12.547044265149188,-37.40557836173095,25.716834878045493,-25.961373831059976,36.0190223687544,3,S01
3920,0.20751414540304736,0.011775419930485198,11.237296726818037,-10.231196262823115,-10.716450686119128,-22.227258474242234,26.47086652152105,-23.804939665975525,32.95908537798271,3,S01
3940,0.09165718631679928,-0.6920198469198406,10.5651306688557,-13.176354920549006,-22.201360667337443,-11.423413651657297,21.5834672894043,-25.047120856793136,32.89568038941114,3,S01
3960,-0.25814957356817436,-1.071630193184733,9.948655841012762,-28.528450093443805,-49.30324803937297,5.244975625849323,22.748315797466304,-21.560386232998653,31.005198752782626,3,S01
3980,-0.49961932399382414,-2.105037586650396,9.510276819434747,-55.14861413691587,-74.113243224436,11.66305502804597,20.044046602648486,-20.06661638428946,31.614973077451808,3,S01
4000,-1.120155069981725,-2.4695413793983274,9.337680646988362,-65.40287674119803,-112.34110445817984,20.785722627100952,19.532092281413043,-17.144593216780066,32.31504369585285,3,S01
4020,-1.0872842431323442,-2.8872107661082365,8.77341365030077,-77.52895967167782,-115.19549219269555,32.61558678519142,21.13924967967014,-17.50854559711688,35.37311642886996,3,S01
4040,-0.8058414919915171,-2.7144585193613913,9.175919294174502,-61.12245627293447,-106.10157467136922,45.35718681634639,23.499991634526637,-16.545001329730333,36.170588714389915,3,S01
4060,-0.509572570927921,-1.5076826118996811,9.768308555738756,-40.95291803990148,-64.97123274809401,36.38146294957423,20.413008009082745,-15.473285057876163,37.043755137884474,3,S01
4080,0.27005660862177977,-0.14572164444541308,10.274458464447026,-12.021477495892798,-11.203425227304423,28.830041378891366,20.901446372012458,-10.490963313596172,37.186749102525255,3,S01
4100,0.59716666609043,1.0594128805014396,10.740619441357389,33.745486031365175,54.88827868201683,14.406990301488088,22.54686404435077,-9.056039710298545,39.93317598272463,3,S01
4120,1.1735696404050315,2.668545094527392,11.793797616219384,64.34363102708865,90.10461148616234,3.334914535516006,22.35951640230172,-8.706679696074936,40.333661311520764,3,S01
4140,1.5123595483413665,2.987328476767373,12.782044438107528,69.63520173011139,110.11928250188558,-9.705625563855364,23.615405926268956,-6.769932379676111,44.81180811110477,3,S01
4160,1.0240239889733154,2.50328229369718,13.125846317188062,62.3415693913653,118.12936897975803,-17.93400307462308,22.57448319314772,-4.570399714983478,40.29953189310835,3,S01
4180,1.069477293943446,1.9646589777565364,13.106013212726854,37.62477074367876,91.03401656563355,-29.949125285073535,25.13572876767951,-4.701570539268097,41.56642940013012,3,S01
4200,0.2683707750783485,1.1177227005592991,13.390885123329255,25.337657802743326,50.9124145453287,-39.889362533608775,28.26454203083398,-7.6226938445336305,40.69845856437467,3,S01
4220,0.47091947310224846,0.5161447383423252,12.613374423053715,3.79768086712396,21.10913252781245,-37.95467562330923,30.038162243875107,-5.173265139294234,38.773636823837926,3,S01
4240,0.10960457082410459,0.16137251815515596,12.163611235130363,7.28091149803305,11.487591008160004,-33.22300144295407,28.50996036734825,-6.111356694396707,33.700507649957466,3,S01
4260,0.1208564836156969,-0.32221625420153227,11.408605917488524,-3.150403202316838,-14.429921372163857,-35.45573061267496,29.10124574034676,-2.8022553715989673,37.97210824887726,3,S01
4280,0.09296930290245049,-0.5445894609819721,10.614584736696386,-18.566552192242955,-16.730591331837395,-16.8268314401287,32.62957465564793,-4.629139366520539,33.00778934391664,3,S01
4300,-0.4764811948168868,-1.298896786205563,9.725980067506311,-32.40905426591619,-54.53471712709208,-4.290241407975215,35.025318044886056,-6.833448258300178,31.595741841673984,3,S01
4320,-0.6412644216023943,-2.224359938707224,9.467065356565922,-43.72106726437712,-75.09694430696278,19.142360561964963,32.503848035385744,-8.349079880538122,36.256608029615464,3,S01
4340,-0.9787586524769255,-2.84447339688151,9.202717044748827,-71.64699876337038,-102.50353835765003,29.660395480259982,34.14464627129817,-9.800389583083557,31.86809573275687,3,S01
4360,-1.2043590465040843,-3.1737724364576096,9.089534105886147,-78.32124596436758,-106.5760586827361,45.91689033367086,35.8790798589609,-11.4793110646669,34.50037494338769,3,S01
4380,-1.059049828278717,-2.6200621781047246,9.394519042375348,-63.152997447153226,-95.77516520135514,38.04702763655131,35.04661330828509,-14.355622171933764,34.23365856006808,3,S01
4400,-0.6964710322053753,-1.637941237105804,9.654481444775099,-53.32201709955987,-65.09267071031867,40.409157456571755,33.930916949732975,-15.15117243659022,35.100083980202946,3,S01
4420,-0.22005676444045888,-0.14465768709184823,9.875992075060408,-9.77205410103505,-9.77238967087192,28.26681926740688,36.75911433000849,-17.971080761256427,38.65574909923514,3,S01
4440,0.7612849378416429,1.2608140010580606,10.975891541765387,25.841219470402688,49.77432498582621,23.073529267356637,37.83788927155692,-18.48715309415843,37.02532822842178,3,S01
4460,1.0341245530547407,2.3237450162694824,11.936742540063422,57.513772378838965,92.6803957264797,-0.16581104657701895,37.24092276722298,-20.630767224398447,44.44503898024065,3,S01
4480,1.3038560248186695,2.6134761956896897,12.685979056941395,69.5638593667485,106.02903563475294,-8.919433481010982,37.95518547823914,-20.549821101976494,42.75216058076896,3,S01
4500,1.4425777480228774,2.7817990445652137,13.004201067666168,63.58524733958427,100.2701308320517,-19.009365295961892,36.360338403786855,-26.70747530327705,40.13201961645484,3,S01
4520,0.7644326620388558,1.9082983965422655,13.333202500754082,42.407324931345535,82.17719908063992,-30.405838014845756,34.44752698501016,-26.76578139322857,42.15734205902362,3,S01
4540,0.6183122524936168,1.2101308597017386,12.967548429802099,20.342851472403606,53.67542956275737,-46.85336381990457,34.174706547780346,-25.05482159616506,42.19349022438381,3,S01
4560,0.4863578786113537,0.43602002673718704,12.841180693443407,7.608458528550602,27.31928672528903,-35.68645961013881,33.634972899376905,-27.691245750511403,36.65126899787252,3,S01
4580,0.09789044476121807,0.185323459845885,12.132055312380757,3.414214791445441,13.290233149764047,-29.373484647486933,33.00904775985558,-30.588077575544574,35.67882223562937,3,S01
4600,-0.08985033788166283,-0.16195611071344565,11.428484122012641,-8.582638265434891,-5.7338061514203895,-30.08525145392555,31.05147245445365,-29.279010833145133,37.245858227898545,3,S01
4620,0.10077166459653257,-0.4270393545942649,10.57487025782574,-17.509104127013376,-23.82346609770647,-9.438052025433365,31.72949095410635,-30.274092954680146,34.92731328073333,3,S01
4640,-0.36505529925037694,-1.3059954357818802,10.065485589063213,-24.720394053565105,-51.95762362898652,1.973218222515253,31.385110629088715,-32.814197946515534,33.78474837638451,3,S01
4660,-0.4742627816813354,-1.9184483365824696,9.325758074122573,-42.916625579909756,-79.34612059483626,14.074989803700737,27.126847643292,-32.31611349220478,32.3719368736057,3,S01
4680,-1.0379537778577281,-2.319588840402055,9.322062734061431,-64.6442355302761,-102.06004826804605,31.11161934343528,30.67230953701538,-32.40651819195247,31.660616364732544,3,S01
4700,-1.2094703442256987,-2.9360017890160455,9.305495195300592,-73.84833403270336,-119.76336271536373,48.4256225004813,25.119675292212243,-29.38392072497808,35.19724333757016,3,S01
4720,-1.2643030239229482,-2.267306709138432,9.10132974466886,-73.0539256356631,-85.49462940292463,39.80518111356134,25.641113398306793,-28.839749150152304,34.457364929477905,3,S01
4740,-0.9075576989422184,-1.473519300208528,9.863386491369292,-38.079492572072326,-66.78484075290395,35.31790144198887,25.0530212569792,-28.714963538295954,36.76772797662347,3,S01
4760,0.012880326424331054,-0.3298670096514293,9.948810372053877,-15.668788856844547,-9.294295915126005,37.19241983696726,23.36396021718008,-25.36409080018988,38.77442079634152,3,S01
4780,0.6194776198775168,1.051642807594773,10.706258074277041,30.48456929286677,49.37069205859542,20.60884418295597,23.5995623716377,-22.23065090091424,39.46087213944247,3,S01
4800,1.374491339948365,2.2209674076763566,12.020832658834001,62.45932752031307,97.24216138510975,7.863791170543913,23.55317113352683,-25.229208772207855,41.72612797054382,3,S01
4820,1.3050511112506855,2.860389237573276,12.944400848481502,68.78660929404559,110.2262346763155,-7.037927814976272,22.437804928636297,-23.5882240158611,43.46304701851273,3,S01
4840,1.097684730344453,2.4374628992424436,12.7759075688029,55.507574252147876,113.5186373617144,-28.962486993507916,19.33039524177027,-17.814728403473925,44.82945162041875,3,S01
4860,0.6300355132651777,1.768298798713881,13.146471313413336,48.81357773924977,80.66282376626003,-28.4093198771122,20.498436097334242,-17.337474581584715,42.6273187813164,3,S01
4880,0.26912290148162155,1.1229049215238935,12.975173894079695,24.19603250416681,53.91420552887254,-28.665568399180202,23.42760332375491,-17.483127016489497,40.12228907495424,3,S01
4900,0.16217673485964756,0.7726461943871472,12.516760970404874,5.959984100957631,25.331629300464666,-35.60084050291784,20.75700127782121,-14.993959298849807,40.15120162258418,3,S01
4920,0.05937150668824742,0.19446153005086148,12.003844000068213,-5.722212303782644,16.49526415680998,-32.000486874256296,20.766174403595105,-11.998073658887925,35.6119885156188,3,S01
4940,0.022800969935581075,-0.37020242691629834,11.503822211974171,-4.937660845693107,-4.586557818560139,-30.32721725325133,20.56903161906218,-10.434648187194828,36.38274436362628,3,S01
4960,0.14221559882841334,-0.4925002921911858,10.519352135210605,-16.33355762915214,-25.546453157598375,-8.790922460159459,23.212717426829624,-10.784152147537515,33.42981873524613,3,S01
4980,0.027884971227418162,-1.1844170842066486,10.041504648287372,-20.608144025692788,-45.126613370144945,5.471190981822452,23.66958177194227,-7.3672497544747895,33.10350028539097,3,S01
5000,-0.8472870418099309,-2.0800884192093294,9.586792163039476,-48.92364684863323,-77.59455173195808,14.07037320031125,26.063573260300664,-6.810084970704275,32.503748066992046,3,S01
5020,-0.9570556821016251,-2.4791944974040483,9.256524361548184,-68.62628495284034,-91.86119027681089,21.584991821879207,23.97252905282299,-7.695962995905213,34.414712763021484,3,S01
5040,-1.1649208115915146,-3.1693258328829685,9.329708919119739,-73.43610547621535,-110.88950858996482,41.37190092786314,25.9075843693913,-5.274456318180649,31.10935244900229,3,S01
5060,-1.008411691315873,-2.66629112651931,9.6641834179819,-74.34733334733096,-97.801512776828,45.0745250223386,28.061291619339915,-6.1102243100718985,35.63647044432034,3,S01
5080,-0.6887465624115131,-1.9909458007451495,9.757305695141062,-52.54094540392846,-63.70040625142125,37.13302000537106,26.993968905074542,-6.437134644800076,34.547623005322585,3,S01
5100,0.1301892982412354,-0.18005507222817735,9.889251210010364,-7.844984401002468,-7.922176937748189,35.1098161540907,30.481799214754314,-3.1920498706696847,37.71841668698681,3,S01
5120,0.638699444578668,1.1398278187417292,10.897136201767037,25.582367186456327,49.72977137512062,20.429639840857718,30.27242393474169,-2.793808893704881,40.09968073235321,3,S01
5140,1.0616139032157685,2.2885923955812153,11.680822569906647,67.54606214335091,99.04267654496242,0.8658646160753797,32.56558014008311,-6.83587967591438,41.843006541173054,3,S01
5160,1.4129289354687238,2.991451564603227,12.79150842544845,77.73877953058165,110.97879254895629,-15.330492743291124,31.703666113288456,-6.693773619139445,42.80102747722416,3,S01
5180,1.3824028394650691,2.4527756779621335,13.502677158570403,68.03604888214379,103.75306605830137,-18.729558868753074,34.65633885543052,-6.233604011147123,44.60125861613992,3,S01
5200,0.7539902262092062,2.2110538443343803,13.426023086503017,32.54770571464146,80.02818195252212,-25.76404132916981,33.57486056258442,-10.584565658177931,40.62592061026068,3,S01
5220,0.32114245820341414,1.075282245616998,13.37957553816114,16.478625705307874,58.429075020907554,-39.17797033466057,34.2131787739593,-11.531875757597401,41.39746866080415,3,S01
5240,0.16785643799121902,0.49451206927369923,12.570858493550835,7.9528566237824085,30.580187574850232,-41.957750538735404,37.92831937449259,-12.420964204822262,40.020338709884925,3,S01
5260,0.23614581116541686,0.07771403833462981,12.059569886915884,4.4018917846776295,11.589173660499778,-41.96616835177,36.22561516597213,-16.947586565872232,37.607214761830114,3,S01
5280,0.023116294989165467,-0.23708401265370416,11.038174684056106,-14.527442078642697,-11.977462550048426,-22.220694211010816,38.27267962663532,-16.497814594338916,35.931157649253095,3,S01
5300,0.10933429520802128,-0.39038395434490497,10.584188475661746,-10.865290898488063,-29.55302870143221,-16.62596091958204,36.01642274143823,-18.320502475803508,35.91863216445404,3,S01
5320,-0.08713387405776157,-1.2684214931104254,9.965523655086367,-15.544395413175518,-53.42197670592941,4.827578975455949,35.77021642656112,-21.599534872975518,31.808467178996565,3,S01
5340,-0.46354423412201884,-2.444208430810617,9.534771262241259,-49.80801028300242,-77.63119250785903,18.96382964947739,33.914770138075866,-22.629743442090287,30.790900524429066,3,S01
5360,-0.6488233134258647,-2.6068053310956434,9.12263844934321,-62.64254412247821,-102.90940902265073,25.8338464257451,39.943984981442725,-27.27051354195777,32.05432616145745,3,S01
5380,-1.08313017207189,-2.8268626172680484,9.071753628389509,-80.57069019189917,-118.8256218058361,40.13777934354099,35.389284845134306,-25.706204524956146,33.166122460384855,3,S01
5400,-1.369748324589671,-2.6162585529297244,9.097524195148342,-76.2979947489444,-101.673599252025,37.42098721846785,36.72254565488606,-26.798629038979183,32.81518135889921,3,S01
5420,-0.7681669398107654,-1.722126267243688,9.720306939902658,-44.72573792747631,-58.27160826970765,37.00874170839147,34.30353200588654,-25.566263203047924,36.8510786631988,3,S01
5440,-0.23074144342165578,-0.20865582735858007,10.08577128892035,-7.053948283257649,-14.07677198711005,31.674637014638854,29.336896425177525,-27.774585131024466,37.178246077249085,3,S01
5460,0.8704448713977503,0.8582754627566183,10.822340921982958,22.601149172530885,39.169634289004016,21.705151421146972,31.40524620058511,-28.3630708701851,40.189995798327885,3,S01
5480,1.298062006604112,1.9880576145527369,11.892835611579335,65.8010588652319,95.35603240673647,1.8301726599111388,29.291789646652497,-28.762667012159675,40.434192718113195,3,S01
5500,1.3365168987079799,2.7138837901618342,12.725051562839008,67.11306634760868,115.24862019445605,-12.406943846498345,28.244365263766433,-31.173756194943962,38.86738999310808,3,S01
5520,1.3931884030228796,2.74678105956043,13.135042989668845,50.653110301527974,100.28393731861696,-20.694288353015143,28.403758243582807,-30.95614989149196,38.71212721439902,3,S01
5540,0.8174507944949657,2.1339835359774493,13.506877266982391,40.41612076131957,83.60926252904929,-28.501586688135752,24.911680478070807,-31.445088202363173,40.6772703767808,3,S01
5560,0.5228063649054092,1.0632815741818185,12.957369819519673,22.64704171116245,50.40326345860561,-39.01314536018957,26.688930098481705,-27.424208062274708,41.61134827504562,3,S01
5580,0.11743737374664294,0.4674016043700337,12.722815512509433,4.795059893095,31.34639608182258,-40.15404547283891,25.301011680244475,-28.962011306679518,39.09217453656638,3,S01
5600,0.2961768389900784,0.14947815711500304,12.206848445715995,3.413411553360059,9.142095523701519,-36.1270267177063,23.35965814412244,-29.353178831709503,37.15485699631432,3,S01
5620,-0.15019750892063052,-0.17319629705628792,11.165439048255134,-6.496967188605996,-2.0148207511633984,-33.635969043612036,25.556425627957246,-29.498646230529157,38.51203648589593,3,S01
5640,-0.09594510830351072,-0.6807865856865181,10.554196750681365,-17.130748797198862,-22.620579337651346,-6.485381467272045,22.403552744938295,-22.651133574401825,35.904506987029805,3,S01
5660,-0.07187384927374552,-1.2398096057147698,9.803660120196897,-29.58610127370856,-45.94306293045669,-4.279488367659149,19.07623872774113,-22.849213058335568,33.7896024024581,3,S01
5680,-0.6903445143497767,-1.7691756216338401,9.451463609197946,-44.56058807948804,-72.12580754880513,23.28834109372888,23.993478659000147,-20.392458786015816,32.26587343792597,3,S01
5700,-0.7181131523601696,-2.8549467542337412,9.449595702808743,-69.94396699807318,-107.98789687508585,32.37878317777394,22.94482909583058,-18.72877048378718,34.31908806919367,3,S01
5720,-1.4205094681457593,-2.9219919325417103,9.100905645228147,-81.93531340023986,-123.96780403949367,36.52515044364124,18.682666210176073,-14.809740115467068,33.58463100695519,3,S01
5740,-1.0785678575280946,-2.5336125462774026,9.210354435816534,-63.501627522900506,-101.44383306751452,44.138805504639585,20.776633272978955,-16.763769573753226,36.01288968389782,3,S01
5760,-0.7722516350233903,-1.6644210747607744,9.768889690609274,-44.2771984134986,-66.51854996388978,37.37208034286695,23.00646150410163,-11.32646214342247,36.52837311780258,3,S01
5780,-0.12657055614936535,-0.45827739485026375,10.187129952995374,-9.391741814079209,-6.586434144436893,27.772790949623037,22.486132237127645,-9.365509094231484,38.32324437667469,3,S01
5800,0.8640541037880791,1.1930184535904562,11.097930620726382,28.52724821498401,49.13269632166151,23.052944514879737,22.11714248259847,-9.516094383262395,39.30288165780059,3,S01
5820,1.2376251550514143,2.591692086406921,11.792781974273229,60.109492064053825,92.47130601592512,14.524058464849192,22.516445595722647,-7.16366301377225,42.15341413452927,3,S01
5840,1.225014350177831,2.8459306552260957,12.859696067706963,61.47690657822291,107.82839256115794,-2.8993613889493086,24.991200033558993,-7.378478667259502,41.45397324235748,3,S01
5860,1.3016683529656852,2.530106899119054,13.09642709571701,58.34069694331775,108.3193087839893,-18.142641482203658,23.55492833342425,-7.528185250449553,41.8761979901134,3,S01
5880,1.0638048724854599,1.8665932944295909,13.022239621766778,44.35253413498635,84.15370899935796,-37.44921271165699,24.835713723275,-5.577879577270008,40.768841195657544,3,S01
5900,0.7185142612369593,1.13197027089658,12.965337486911102,23.867329203098006,55.47061912405074,-48.915921577832265,28.626728011024746,-1.617339983830405,40.99552750265041,3,S01
5920,-0.02351397238514215,0.6020301146045672,12.850442074495632,8.42664806893244,20.867979904293424,-38.242002058704706,25.96051398971749,-3.6956045594023443,37.19933337015626,3,S01
5940,0.18548297622484888,0.2453154074191397,12.238391548116653,1.3228276766434046,13.866114695899856,-39.152525631067725,29.64870788018809,-1.0775933324499931,37.528522312604714,3,S01
5960,0.006226711237892937,-0.24776807092643238,11.341857806391522,-3.322790669435754,-5.612188814953805,-23.43896130435114,32.5204639246936,-5.015932466748753,34.94810509698107,3,S01
5980,0.09296164304642442,-0.8999905805647626,10.80917882376405,-14.334799527477553,-34.528114549784014,-20.50797312389063,31.67340789399477,-2.8690554117536893,33.43615963062566,3,S01
6000,-0.3655094084788433,-1.2052916017185036,10.004684433764094,-29.728882804418976,-49.37302430779242,2.724852229261774,32.7156016666239,-7.494691562114731,31.67076012086961,3,S01
6020,-0.5354570744441184,-1.9755385708529016,9.351484876445523,-43.90847874285861,-78.95630699112554,11.37871207553687,34.32229153815038,-9.118178574693037,32.08852198748689,3,S01
6040,-1.1139115849664112,-2.695300999339757,9.298220925501296,-62.34505482119895,-99.23095221679306,16.428791046333718,34.438694919391,-8.505812647907403,30.748966996667658,3,S01
6060,-0.9289048297296579,-2.8472026430037274,9.062047511319223,-83.83957492765553,-115.67265008067866,32.26889831257055,36.495562109985414,-10.114968069120195,35.57334040078926,3,S01
6080,-0.8694577235751589,-2.287249773438647,9.130132186211979,-71.59545686315789,-98.00911439351037,43.130744239024345,35.15585509102419,-12.471689740834385,31.573411983114138,3,S01
6100,-0.5275239734996494,-1.6508026341776596,9.658120685686821,-41.671771871554384,-56.89147502260031,36.70031071741219,35.5652042580205,-14.525328508292391,35.38120417224764,3,S01
6120,0.052613853446491034,-0.12695060232690983,10.18290070425139,-12.328229232661787,-8.870512388452003,35.02437318769492,33.46964114094112,-16.39334582175714,37.339789926105055,3,S01
6140,0.7990256661474219,1.1234505956934833,10.95067916100402,27.000202261714385,50.18586617207514,19.464493480146146,35.496492188535385,-18.467318743633093,38.134426094342665,3,S01
6160,1.271627456973789,2.003376992666527,11.970616192208148,56.198307462647385,93.24206318309298,0.5476809135734374,38.08860722477338,-18.509166253268543,42.73104515372279,3,S01
6180,1.6016684488992732,2.5873811810435408,12.615472397788919,65.25595348115104,118.18571250451406,-6.742845007844861,35.64576287176129,-21.0591895001674,42.363079899241335,3,S01
6200,1.2430637083104712,2.60989335707646,13.334493226452604,65.3079965202028,106.74694648839815,-25.214081725607457,35.627418430634734,-21.566306838767296,42.66299720458958,3,S01
6220,0.7458057958335635,2.007404513171721,13.353078980345273,46.83636465600636,73.20458793989849,-27.619962220974966,33.42715718492751,-22.994248971561632,44.9690794368159,3,S01
6240,0.46657546366941316,1.4390928622929946,13.002640473833962,13.797676042233082,49.823398856176325,-39.36634760152438,35.00144748403359,-28.145649879469154,42.3045266684207,3,S01
6260,0.20434478110787835,0.6723495710824365,12.779990258239161,1.2196468237975244,17.820225635940854,-36.834217439015404,34.12212181054541,-27.110092551892556,37.564938618017294,3,S01
6280,0.06805802804257627,-0.0003650385758136032,12.108671102748632,-0.5576332231336076,5.9944633276872485,-35.44758260818135,31.636420518513347,-26.61945344112565,36.32083619674693,3,S01
6300,0.13651222308959768,0.17842702978962824,11.421956120630323,-5.56523402428719,-2.1361202254546994,-16.032550987361834,32.926002538615414,-29.734806125727257,35.332567438982664,3,S01
6320,0.16742996362765658,-0.7155613165734676,10.499641491057995,-19.57561285746337,-20.309926518389215,-13.948657096357948,31.866675294959624,-31.124585019912622,33.05025050231953,3,S01
6340,-0.25142446137101115,-1.3175196084248353,10.022517866735683,-29.70840869101124,-48.7501283765249,0.4362558590308599,27.638780707587504,-29.543072150860958,32.60085076564125,3,S01
6360,-0.464615916204275,-1.7802189104112167,9.58882963801438,-52.68474555635892,-85.46981404809124,16.012575498925756,26.830364229175782,-28.656400789404938,32.81338008667505,3,S01
6380,-0.7483431219971635,-2.4727467291572998,9.17143030267052,-68.46136712435623,-102.17546322629444,20.577919492170157,27.349607261707806,-30.18528763567936,31.49330532085473,3,S01
6400,-1.1905044510961156,-2.98235841676951,9.341766905014714,-81.90288790779728,-119.45283102673598,40.069600035276785,24.931676821624723,-28.269357210502566,34.21305769996353,3,S01
6420,-1.2536947894354997,-2.5985318186868813,9.22958052631617,-72.17579894500645,-95.36879356023655,33.427351631420244,26.125058092063437,-27.08026231767486,32.19569818625621,3,S01
6440,-0.7914760067340809,-1.6931409574691105,9.648855787560013,-42.42867318741511,-73.15452656745295,34.73919045117588,24.30498014079182,-27.155600177245447,34.65676988382478,3,S01
6460,-0.05543751733896635,-0.49580709505275966,10.165352494779002,-13.25742273766043,-4.472702680411658,37.69899234398432,22.778246986546865,-23.167931761316762,37.66053361157552,3,S01
6480,0.8291473843137056,1.1889514786709994,11.12990146204473,33.33939912749122,41.14910758604677,17.759677839591554,23.16722161889773,-25.174558370578847,39.116106721883206,3,S01
6500,1.2130399414502935,2.4803905816847687,11.777940403995801,61.88166612403916,97.7047467557548,15.768788090059308,21.426577028449174,-20.258233211523685,41.15982701030656,3,S01
6520,1.1581962460642088,2.8989517343225053,12.809666436944365,70.94377954207162,119.72233169841158,-8.34669904572028,22.886064492361065,-20.777838954216442,41.24032583657877,3,S01
6540,1.4131205990777642,2.3994682318521687,13.1822256368885,60.33991894589849,107.80785410570775,-20.11472017858276,22.886387203485555,-18.55066043424056,44.35012710924788,3,S01
6560,1.0452311386687485,1.893276653495018,13.350465427625167,38.479754491878296,87.12733390465647,-28.367910301570085,22.721621710684012,-18.289866913780067,40.03922243499811,3,S01
6580,0.6833836438541765,1.1231653344934387,13.12821228089362,20.09150206620524,54.84903846922597,-34.086994672284725,20.604056789861517,-15.158022999106674,43.51607852613632,3,S01
6600,0.19108958455251246,0.36421540950349374,12.718164722602234,9.447626190520818,26.266166282920913,-36.61545332356461,19.835679886870917,-12.887735866126182,38.80355847148938,3,S01
6620,-0.03968101380670058,0.106163084332529,12.065145408976207,-2.8638272307432198,13.388323249459026,-27.25023293037109,21.19318607766391,-10.854081470137517,38.135112407592345,3,S01
6640,-0.017599320127452717,-0.2720455330570074,11.336463593361275,-7.667110152605308,-10.444162154709808,-26.596218184456486,22.450490510093353,-9.933850067577858,35.985496439703404,3,S01
6660,-0.02274708796317608,-0.5725654072430948,10.410937509180945,-3.4201860695445854,-21.322181816547538,-14.134798912520504,23.75232376963274,-7.536821572433483,31.968819841275177,3,S01
6680,-0.3914768989945391,-1.0412724048702777,9.857436136458883,-15.998427345717339,-53.335742515002615,5.621677298523463,23.8000419143028,-6.738050388883627,32.76901213709,3,S01
6700,-0.6742809213314543,-2.1588357340356468,9.656586276878917,-47.41524651692087,-71.71645618775325,14.165672136487007,22.961755563824674,-6.836279959847714,34.30107971645454,3,S01
6720,-0.6753953595597426,-2.3969379883272697,9.175673500311452,-64.4804766483396,-97.32205992212569,20.227748066255657,23.913326496395875,-6.070433221958103,29.810127223637494,3,S01
6740,-1.1148043153706813,-2.8990665730105767,9.032923124612678,-83.55476291522152,-113.29340805557148,46.232047185299116,26.01250397959374,-6.316770160986714,33.17977179707667,3,S01
6760,-1.3066065593360114,-2.5321532146447594,9.21572819806026,-75.75212476179442,-97.6687211700495,52.15980196859743,27.72242724756443,-3.3102901211730176,33.50154832960437,3,S01
6780,-0.698061614199797,-1.839759841183452,9.609502421743306,-55.67373192067449,-57.36419767226742,36.768599523399544,28.077511202225608,-5.554607376372042,32.78790974969223,3,S01
6800,-0.01198638030990555,-0.2590612094911835,10.11109191336413,-17.30214888382276,-11.061156998665348,39.04251046815964,27.939642049212733,-4.144600989810443,37.24949413125328,3,S01
6820,0.7743588496848158,0.9168206368899172,10.93290399720348,32.97469790937131,52.6917958136547,24.829743367568756,32.191499650285394,-4.582672840763761,39.76452910765447,3,S01
6840,1.3870690193734423,2.353034548490518,11.697597512640874,50.49536671270792,90.81470799992164,13.679684542458142,32.78594687540783,-4.033695197307496,42.71667357238179,3,S01
6860,1.5338894408732195,2.755436450799374,12.594990804259035,71.35510047249323,106.63514863218585,-13.936289557866338,33.67784032036709,-4.555169746315541,40.857508064713166,3,S01
6880,1.2694494785837076,2.6419227568558252,13.22000326637926,68.91297728838678,102.38718092907902,-24.384069946005404,31.545421405124532,-10.654013916551968,41.99344871468752,3,S01
6900,0.9097758404565398,1.9496372649245581,13.516415680327498,41.050392081534575,90.36526428063216,-33.54019223668806,31.86830475829831,-11.71794844073896,42.853471283239955,3,S01
6920,0.18109228558099924,1.276968352662178,13.195028830697607,22.54784375299126,60.10684038613276,-36.50026729894644,34.55850528119764,-13.92730689195381,42.16873619533947,3,S01
6940,0.358045692984053,0.6298748608011169,12.589923067705989,-1.5968989087848628,27.266120239751945,-35.267269415511244,34.429240888018086,-15.905169735367275,39.914621581633085,3,S01
6960,0.23358710667371202,-0.1203923194734404,12.324166019383648,0.7374311533342341,10.61032225925446,-32.17304763367087,33.00329386542357,-18.542812644116694,39.207490046668134,3,S01
6980,0.07092627879240476,-0.1832652100955108,11.367269756721353,-9.738448625626503,-3.511199195922427,-20.605391801906286,36.410603188617046,-17.126439991989514,36.49187870237969,3,S01
7000,-0.09949176925147588,-0.3742854817009652,10.673543007312507,-13.049696741961888,-24.22886782251225,-14.876822655826425,38.282114543360755,-21.181649575757348,31.103854244254354,3,S01
7020,-0.27157485191763164,-0.9430189781825717,9.919352685345347,-27.675567171257132,-41.30904889643627,-0.3138092648023554,37.29787725318329,-21.974405211300088,32.76839865116188,3,S01
7040,-0.5364163429479503,-2.2047116805871565,9.526433669666076,-50.93006705915862,-85.01943949826719,22.931288492440558,36.9129810282527,-19.285141143174542,32.76677914992682,3,S01
7060,-1.1149742258679352,-2.5160966433045284,9.119158057138826,-74.12448616626936,-103.5122762303998,21.034745824919824,35.1231056331456,-24.284428715237308,30.144472455345184,3,S01
7080,-1.220798127950523,-3.0026659949805046,9.19333691414861,-72.51681972838205,-110.19372898003394,35.41670268233064,36.34747890258919,-22.689006361747467,31.368526645301692,3,S01
7100,-1.1510985291737184,-2.5569925364486923,9.489549057856191,-66.33187717326119,-100.73355823775388,37.60786033081275,35.56411527466089,-27.712747242134782,34.66308020581487,3,S01
7120,-0.46338703153865657,-1.6411208940711823,9.89405638161444,-52.69978191115629,-65.74039395790376,37.28178821894987,34.94678724060755,-27.99987423480679,34.610448051958926,3,S01
7140,-0.01601756281548218,-0.37836465118885165,10.043723383666267,-13.387577039121677,-8.340760594564092,28.069352379013665,35.115632540559425,-29.238408037964646,38.19507541192208,3,S01
7160,0.8792274291518898,1.2897827430922584,11.003094857422596,26.99903963079198,53.395736380795995,26.314135488842474,30.78521775864511,-27.927804273552542,35.909266276808225,3,S01
7180,1.0838880845984553,2.4541023773269126,12.03664670053916,59.37197482727883,92.70148144586925,14.820897971104344,30.995183203755353,-28.18260522123807,39.97374014574179,3,S01
7200,1.3764053772957454,2.690213635194287,12.389195353927464,64.07691031918378,114.70963291163854,0.9703824367571151,30.781468523760438,-30.32052614983847,40.98513098565576,3,S01
7220,1.436396027279116,2.8296014885661678,13.116686414029475,62.509624053596696,105.09454054134059,-13.574119390727894,28.29904394688029,-29.340446621637064,42.525098825389755,3,S01
7240,0.765946666615722,2.2345126928323578,13.21903151801585,39.44665077082758,87.721553066588,-32.03584140099473,25.730122128232072,-31.229038822309338,41.472828238241675,3,S01
7260,0.18624574066904626,1.3615085982537982,13.20395495558923,22.201962375705538,54.3452920694969,-38.39162519519715,26.537600954951987,-27.525464133157378,40.30494166495969,3,S01
7280,0.31657432270267877,0.5685892300330297,12.842838422045865,2.3488991551206526,23.289030999129366,-34.09866420102431,26.11372540446753,-27.847891427778173,38.361069963726415,3,S01
7300,0.2498244465286896,0.33820116834635033,12.078274760466247,-3.531160803703124,6.5464520543595315,-32.41098355356504,24.184971929472724,-26.676365062862406,36.52286776894931,3,S01
7320,0.10535748123986063,-0.014234047996265424,11.470220028854158,-7.064179219030999,-3.2479075825412798,-24.65907753080809,21.967457224067463,-24.820933856881847,36.19398311512452,3,S01
7340,0.09692449533185599,-0.44345444271627815,10.678514760694902,-12.203858717524792,-15.524655941015789,-14.961192456922193,24.062778002820444,-23.2387418868529,34.10710430499372,3,S01
7360,-0.41964499496346586,-1.0517068090642603,10.06913277706749,-30.22650199520367,-40.38733578649771,-10.410670555274676,19.067589905525832,-23.59679610924458,29.24676912205344,3,S01
7380,-0.4687005393922996,-1.668551590641069,9.52251850593353,-46.37885001571054,-76.29303554917239,17.1409811904664,20.403127934432238,-20.109995486508105,31.671693736928347,3,S01
7400,-1.2011227600455907,-2.5472466324644314,9.119010844680133,-67.42008497911121,-110.36518494685268,20.42102036633092,20.520478464543547,-17.179228675311528,33.28870591345998,3,S01
7420,-1.0781915887303208,-2.8982894813771125,9.128689301910006,-80.08345140452626,-113.07507938381052,43.45206263997764,21.05617226896541,-13.522447284950836,33.11952268654869,3,S01
7440,-0.9067799417743486,-2.5785928693589133,9.259976183308558,-74.0094663105194,-102.24480172190798,45.104761598857564,22.987764753479723,-16.09060479576967,32.8654275742282,3,S01
7460,-0.8589856184602843,-1.6820919949452917,9.300658840067308,-54.42393063347943,-62.67257267639278,42.373686804500245,19.603031532999758,-12.782721802787734,36.29334627390188,3,S01
7480,-0.1152888610121281,-0.27361208021246497,10.010016582950962,-15.223253216841048,-7.848162322787671,35.273747634831004,20.00157492715573,-11.029717301632969,37.895420576039434,3,S01
7500,0.9026424730439226,1.058991646378615,11.01258164620775,36.756451810795284,48.44045412253139,27.053252217921298,21.529040035448983,-9.681996550368265,41.17467665571236,3,S01
7520,1.5011057407512476,2.3783319988950353,12.131949483115653,46.491478873880325,98.05549771035395,8.39500330809241,23.641020230348893,-8.849678174500479,40.466062525394136,3,S01
7540,1.217668008055661,2.782034992894379,12.712400314240817,62.777947817951954,107.24137267001797,-11.621821215638446,23.308404045271708,-6.724880601462049,39.644642987474214,3,S01
7560,1.142729058297918,2.6173784234325903,13.111760915353939,58.63139188082732,115.2901717037409,-20.47691264501746,26.448084028856837,-7.379176478506367,42.69077161540255,3,S01
7580,0.969736003720078,2.2335216445436585,13.191605660431037,44.71577871865264,88.53869687932296,-33.1615223134886,26.602776373422195,-5.872747877644025,41.179206388447,3,S01
7600,0.37577108514046753,0.9595056056861464,12.724942320316538,21.256783351616832,50.48349031117101,-39.94489773789052,28.192562111520495,-2.96100777688587,41.8157773626293,3,S01
7620,0.2524141330190331,0.5594550887012253,12.901477631209332,12.205950855641742,23.418598816630148,-35.36169055601272,27.185211194575796,-5.056780216871592,37.395587132931205,3,S01
7640,0.20688456728860635,0.3557121062153515,12.50995984935205,-0.45800530809799156,13.26443284801768,-38.514311131910674,29.125707041935794,-3.9476108287783407,36.90656492598953,3,S01
7660,0.44310762300375905,-0.2651819682468809,11.601046435349128,-10.247068474545447,-9.545150878813054,-24.56177262730646,30.408431728786947,-3.613600923342416,35.60145276942936,3,S01
7680,0.08109463717164186,-0.6177939822682541,10.79813996971208,-10.585360831391565,-25.780627604992812,-16.087954149912342,32.17409353282868,-8.65115733413235,32.71749305953669,3,S01
7700,-0.3404266963923187,-1.312222090743366,9.941677982708864,-30.47925097417451,-39.60172119317949,-5.710317882484739,31.834689721993804,-7.3361970128460054,34.28796106361888,3,S01
7720,-0.5944502472781859,-1.933231361743868,9.435633477421536,-39.73382758522274,-78.1332561059135,25.3331020872189,32.266522968983715,-9.034435459867687,33.300194608415865,3,S01
7740,-1.111686937794574,-2.5442220512766527,9.2350906162397,-66.27040837869018,-100.1795055879186,27.028941021388743,32.958686912683106,-9.996893045326345,33.039556486789095,3,S01
7760,-1.338573639158843,-2.8130081924288386,8.676620007188694,-79.85924908725377,-117.67299173631996,31.33720969324485,33.77295168043747,-10.237343260032084,35.57285653281879,3,S01
7780,-1.1278155288577878,-2.5698429028879475,9.196632256490897,-69.74908336852573,-108.84612947532375,46.22222699925644,34.14195431267394,-14.261326446863029,36.464442727724645,3,S01
7800,-0.6969030604573279,-1.763930791900744,9.543594032948572,-55.194409458019514,-64.54242706471332,38.963543560805974,35.06999757973762,-15.330505390252256,36.21493525536248,3,S01
7820,-0.23257504342702254,-0.2417930270077197,10.152359881586293,-13.169065095232309,-8.68384627468047,33.569861695801244,36.71322815807751,-15.512377176910213,34.659567936509674,3,S01
7840,0.6273168561045696,1.2367012213689075,10.814314749016027,28.476315169925474,38.079658404475616,27.15527394269539,35.05970416864937,-20.896651366753808,39.028095222689906,3,S01
7860,1.056860876467279,2.4561312840950995,11.740210118456426,53.72900949766131,92.38624598950307,8.615175724960736,36.39605792245192,-21.694888619736687,38.42633677275319,3,S01
7880,1.470131000742218,2.678243921119294,12.903980951419559,66.13185229847228,110.4838984364655,-3.200198345705028,34.46676557903308,-23.4704849029368,40.28470940114803,3,S01
7900,1.2860559709532657,2.892410314079032,13.342089244889209,61.12426092494843,111.4368838406432,-18.71902830041389,37.23540938986526,-21.380650457886336,41.50099825041704,3,S01
7920,0.6225938195194435,2.182051476567109,13.21056558013395,45.005602306158124,78.9451678535733,-31.29035605264898,34.66627715209509,-27.06250583780993,38.6652831137374,3,S01
7940,0.45185168067672954,1.3830524454591886,13.302845374125388,33.15157242078551,54.45197651163997,-41.13050839629454,35.52709998540489,-23.27494348733541,39.82673218563938,3,S01
7960,0.21702116336586624,0.7644312645786533,12.671135366549649,7.270877043199007,32.64397047720834,-48.49294961168046,32.950039553750834,-27.119500203079898,41.05172966247832,3,S01
7980,0.20511244801841869,0.19928184749951777,12.011031700920693,6.934702435142396,11.361869503338925,-45.76109093908024,33.556355487932976,-28.85313227555588,37.57064882274909,3,S01
8000,0.14453572155182903,-0.41649365618427653,11.541550785309079,0.35440103344497853,-11.018412507617022,-35.98854131949731,33.75874585377074,-29.13322770137877,35.52409446920234,3,S01
8020,-0.22276421678296263,-0.777230957589554,10.725894519219475,-14.08133298450256,-23.7868321319414,-14.16267984808433,31.56479628110609,-31.71033846105148,32.96558855016697,3,S01
8040,-0.36693219610344885,-0.7695402594311564,9.836339764066354,-33.74335386689823,-43.48690769489199,1.8608707977295205,32.1595664068097,-32.944833097865065,32.86137417843868,3,S01
8060,-0.6737679450970647,-1.8589718895149903,9.293229482018061,-41.38208640159762,-76.77758191307113,19.243007470981084,27.95312024427512,-31.526859794943096,31.539934150156522,3,S01
8080,-1.0616788565534299,-2.819805972226433,9.068466040300548,-63.782578132954086,-96.28641093795794,29.906475103853445,27.39932184185778,-29.486864130468977,31.39337857443934,3,S01
8100,-1.1606148791837019,-2.73272926621933,9.29712641853263,-80.28202834436354,-119.43207990199342,27.57852733056448,26.963991843896487,-27.3607169390049,34.19952783022994,3,S01
8120,-1.2069699374133638,-2.714803161675699,9.257007797201497,-71.64348865532001,-106.78385726205013,41.53460838584309,23.78792098054044,-29.55131265838265,31.51661578804478,3,S01
8140,-0.7499348875059441,-1.8668651046956402,9.563780661197997,-51.15547835564355,-70.97287886851352,31.3435650149001,24.39105037292949,-28.820796131270964,33.590941962860285,3,S01
8160,-0.20963043526820294,-0.265396673582842,9.95535428129422,-3.7591962805642236,-12.811349955991956,26.303750038013312,25.92345169484804,-27.176856192898963,39.41235249787252,3,S01
8180,0.6150248600993599,1.256586880413811,10.969847076396366,24.527913460825737,41.590870813008934,23.025208559184733,25.029209121930077,-22.18018505912417,41.18828825667111,3,S01
8200,1.1713174892916647,1.99490026984374,12.017686125336992,61.06009018434061,89.16013382705813,11.592737413559147,19.80981504410731,-22.643614208689478,40.38808821136613,3,S01
8220,1.3501233054079618,2.8884333183995556,12.581276421131212,75.56159719951553,120.19512175744181,-11.091972538785091,22.666241875176727,-19.96126320317899,41.68238220104417,3,S01
8240,1.214688108545388,2.593926237521391,13.158907224380716,60.88612726689264,102.89693633282113,-25.24167281474977,19.956110483248608,-18.811736351494517,43.88988608021782,3,S01
8260,0.7215969983526141,1.9520026873488943,13.404454244447852,47.16727624098276,79.58555528143062,-27.587844234014046,19.333722961044575,-20.225664032383,41.61099888618125,3,S01
8280,0.7781721716274151,1.1702864552364787,13.202401746223577,22.858225699903716,54.278413908935555,-39.47898219425236,19.7770044740809,-16.06966162141097,42.474986503357435,3,S01
8300,0.16680186236467834,0.4129250941331017,12.506063859199593,12.056437248701997,27.59760607690528,-37.78495345975847,24.267498941916006,-13.711961916508915,37.273899361467635,3,S01
8320,0.04954383140672198,0.23163386609818515,11.820013036615833,-1.8089748340863978,8.42907938300388,-34.8054445207387,22.644180061089088,-9.174383668864216,36.56975530190094,3,S01
8340,0.015752080879795863,0.07207267042978732,11.185023917795574,-2.619860920003,-9.153494300905159,-21.212595076222446,21.5679967380984,-11.099892030248565,38.61676188399894,3,S01
8360,0.08263545930484907,-0.5684560234325136,10.904108372835342,-4.397573624229457,-26.258777480948062,-14.998854964994718,20.78230395455679,-7.857863982697928,33.83478674412423,3,S01
8380,-0.2862754007666083,-1.1176839573273651,9.919242378548688,-28.50451756341417,-51.6634440478799,-2.099031690748747,24.4436797873944,-8.037738329180241,32.497323725959504,3,S01
8400,-0.5988996504224295,-1.868324665611613,9.55465235148344,-42.073716221008674,-82.21934663392642,22.40557761341228,23.434445717016658,-5.101578810513718,34.41516351127125,3,S01
8420,-0.9321213076834501,-2.5696194661716834,9.032225458739452,-65.70083728819003,-103.49251006101402,40.3245305641472,27.41627745739237,-7.609112647089367,33.00036797437552,3,S01
8440,-1.3858665632416418,-3.1350416008761277,9.154262853186305,-74.18284621427152,-114.32097711949525,35.034646418884904,29.200380246462593,-5.049872691034502,34.236268548565626,3,S01
8460,-1.0520707949438648,-2.649712598323345,9.492462727637829,-76.59834602733537,-110.41554479163413,47.94926061798032,28.423625901276594,-4.0236698689637835,32.62056777112352,3,S01
8480,-0.6891801741061361,-1.7326342608914225,9.807532756604171,-39.798388072193326,-59.22507443566947,37.94295056424536,29.206051929813185,-6.5375005456491815,33.66801442966003,3,S01
8500,-0.1372832530994501,-0.4566516250907973,9.88172750667463,-13.08227404399252,-5.924094931725592,30.563764550902203,29.3865335735683,-8.279585383732774,38.974585851332876,3,S01
8520,0.7669545856564794,1.27018192126982,10.952545421250932,26.29425053206015,52.88788447951007,21.086942296273172,33.79747971939829,-4.011631536972781,39.79064632619466,3,S01
8540,1.0237071020792692,2.3365421779656925,11.890237697610843,56.422099386461426,92.23451054379667,3.8866794575385124,32.418027751305644,-6.977097544819717,39.13702916974676,3,S01
8560,1.2651584406114145,2.667781454894908,12.64533270298422,75.03685048235674,111.68722479915884,3.0668230003714174,34.94143391196589,-8.387748753435048,40.061422543095674,3,S01
8580,1.0369489310104552,2.6834464946345724,12.99019444631472,61.51211645143803,106.80872941526073,-13.245557318799644,34.62337335932192,-9.75874378936065,42.515533967044966,3,S01
8600,0.9235757444840619,2.2826217886474423,13.566474700491254,41.406312751589795,78.4527819974327,-34.908750580468784,34.959609123586176,-8.272443149627168,40.226954426401214,3,S01
8620,0.5487548883251233,1.3208299881019234,13.115966727994676,15.877678156850802,57.69335953666405,-40.01287544335325,36.954944842907445,-9.707883304857265,41.66309863595029,3,S01
8640,0.31501265049773175,0.6785213070443341,12.771259732461534,6.116323617966162,16.89001633877748,-33.78139112211556,35.34606216691529,-13.894046190678836,40.35908745409062,3,S01
8660,-0.01907294839360177,0.05484886890664739,12.230150318800536,-6.322554435520396,7.262386433675881,-34.827519602485665,37.71665163517032,-14.243470113757752,37.472700639877175,3,S01
8680,0.03157647221121064,-0.31752808941029276,11.237367717058241,-3.0194413371096633,-7.589613987830502,-30.9271754819282,34.771449599204985,-15.984005094552671,33.298849051233205,3,S01
8700,-0.02959336227185419,-0.693679166122328,10.651890433565901,-9.445509562070928,-25.661863309826668,-21.813237746917224,35.93797210801826,-18.72392248629835,34.229263810467074,3,S01
8720,-0.0013744603076411566,-1.6478986164286933,9.983554776601913,-20.79931133144012,-43.161183201242665,3.330234318726256,39.20626730059929,-20.533900970672157,36.785353762689695,3,S01
8740,-0.43424471769855444,-1.9111692016211053,9.633804853609107,-38.03452744330219,-82.21472734825547,17.97561665223402,37.550782554021254,-19.400837060222152,34.44444007190491,3,S01
8760,-0.8586164630919819,-2.7140402885467845,9.080498700975115,-52.3552911116634,-106.25829137446956,31.61657487253651,37.353433183310926,-25.510974851623793,32.50484693188686,3,S01
8780,-1.2489062965174025,-3.13644413078767,9.09949520174983,-71.2830080832036,-120.65723609202897,44.21976707984452,34.56756630391337,-26.747987943281426,32.337065294511206,3,S01
8800,-1.230271914563303,-2.710376155803333,9.45294909466787,-83.61523871227222,-96.11613535266147,48.02366352793226,34.825031074040254,-26.929691466095985,34.094281807320584,3,S01
8820,-0.5308348242155195,-1.6376666113443334,9.885688529428535,-59.821410372625564,-68.18985384087846,29.704806614420924,32.627743676544924,-24.794854367558308,33.97261784979828,3,S01
8840,-0.35976025302897674,-0.3020000316646102,10.074147667179444,-8.153051423764094,-12.108018843951497,34.01946884750624,34.149032145983355,-30.99043186579408,35.97715222176495,3,S01
8860,0.6143854659153506,1.201461932717468,10.808823342587527,31.82525657385253,54.15095086905287,18.84835161503543,30.617979622121883,-31.696329232211614,37.10620994891984,3,S01
8880,1.2883170051558661,2.113183730689392,12.004741717068308,56.57974785715395,90.45288781156802,16.890235337712276,30.898500717389815,-29.80964716550921,40.526231396159304,3,S01
8900,1.428696692571823,3.002348786865814,12.524786460771614,72.42988764066392,105.26357477698109,-6.968031911308536,30.390505119312163,-28.967982177451645,41.47804274095836,3,S01
8920,1.1789446278494624,2.7164521750446267,13.20305818616778,67.67178186655364,106.65752098903138,-20.750916398830444,26.989471201885717,-31.062188741001126,41.05982509031016,3,S01
8940,1.1004443300099764,2.1425967149301437,13.189071067143791,34.75239250447025,81.41735507312391,-27.05721496358956,26.670092386087628,-30.97793842739507,42.782814261138306,3,S01
8960,0.26516118977235326,1.4520502972553395,12.983638398445821,24.607366595487658,52.006401306519834,-41.87939812659313,24.986415558982387,-27.474702593321105,40.61656161846974,3,S01
8980,0.2051286203413103,0.5340418951931278,12.869968840608228,13.308107942578722,28.8507571447125,-37.0567575012116,24.727786516002944,-27.026758430970396,36.70779657173039,3,S01
9000,0.3489475591430711,0.16734781772037394,12.01780140188627,0.5297573951793044,16.96334754407987,-29.554352479252557,25.747770093909175,-29.454142889396316,41.02489856682216,3,S01
9020,0.0963260620763502,-0.13857893259455867,11.544485852263348,-9.736190635387024,-1.503955193672552,-28.102741555200044,24.592596582825017,-24.81802732626786,35.001117172808016,3,S01
9040,-0.1103960069043673,-0.6114428795854578,10.751256550426223,-11.829042609183103,-35.3638120062718,-6.75882775898179,21.650559339021036,-24.604395172754085,36.3089988084287,3,S01
9060,-0.028780270686308562,-1.061204131705077,10.257149270482156,-27.329653021812423,-41.54756573457979,4.09638611774507,23.20196638661909,-20.09161264984776,34.728830202963145,3,S01
9080,-0.7335776243615545,-1.878546937546133,9.472695211207153,-47.506876292827435,-78.4785051725148,15.015022451081169,22.318402628092368,-20.821447623350984,32.34653217610307,3,S01
9100,-0.9232600639375382,-2.782030986788555,9.342692375374904,-64.46515883798808,-104.4663536798558,28.270674828374393,21.02607005356625,-19.53161107405759,32.15321403787257,3,S01
9120,-1.037073697952832,-2.811993453662667,9.15159032039674,-75.54754925136147,-110.74386996105402,28.26802037699385,20.885290694969573,-17.138409646245847,32.38578063187251,3,S01
9140,-1.3146702044939929,-2.6146661696460294,9.40943341081536,-75.07363554108377,-107.54324371596857,46.8146999709693,21.957204244879765,-14.297755252379623,32.35111441867123,3,S01
9160,-0.7988747027639638,-1.793284410628182,9.404575524752046,-43.186278139848135,-64.34068362437456,28.416311076830468,22.375393896155046,-12.488534069254836,34.455687823252184,3,S01
9180,-0.09015103564388177,-0.34031297232639657,10.020209527615705,-15.813321509130507,-17.608836280357238,37.79453569615466,22.076403993357324,-13.022202519480686,37.936575761272984,3,S01
9200,0.6094276107417658,1.0357139026984077,10.888512807733074,34.81268414928619,44.86314063472505,16.682817487767082,22.31897050022789,-11.039117755925826,39.01665039175398,3,S01
9220,1.0353996446232585,2.4536012139892,12.00512016221537,49.928485265203506,91.11754026017078,2.3864947667281053,24.848867008706527,-8.330810372622498,41.263998166324036,3,S01
9240,1.590468270780945,2.4592218097576026,12.680164983345795,72.97180607425433,110.6331804553938,-1.6735025162992527,28.319355806542134,-6.967822960781199,43.109515255587034,3,S01
9260,1.3423336744940857,2.707517015617606,13.152006065621768,65.46074675210313,107.54980608740814,-21.060035865826237,23.92027695449608,-5.334423353435935,42.41515351179164,3,S01
9280,0.6962745558305201,2.0497665204383146,13.251106134249063,50.01878862056361,80.37547700422057,-30.757844022116476,27.49356364732907,-1.8875380952983178,40.78741045322556,3,S01
9300,0.41523945756905856,1.1952795012698096,13.429690540869904,26.20427495299811,54.05839412243154,-23.80430228159617,27.610930333757622,-5.835859333489298,37.75145164846656,3,S01
9320,0.19031186224683588,0.6805635177695348,12.97918991966139,9.764679858308348,31.16367495479965,-43.098382414561335,31.264535815240453,-6.55112344351107,40.45098128771461,3,S01
9340,0.07297654816619284,0.08070699612319795,12.287051758067665,0.7174004118289998,14.801670380027243,-30.27351200669619,30.11999748790273,-8.67342470192743,36.84768077383964,3,S01
9360,0.01918401599033122,-0.30970764691082664,11.357834092119836,-2.6892723138971233,-14.521482967907247,-29.307718785439143,31.455496317280254,-5.471869171371521,37.47394492579583,3,S01
9380,0.16564123042906254,-0.5294145320976178,10.52117378648214,-15.741465994527324,-16.598414455261075,-13.155809843501821,33.68425952437548,-4.760117623413215,34.23751852252645,3,S01
9400,0.030102395529419027,-1.2951809885963392,9.982077611486773,-26.422371493770537,-51.88744865144471,2.193721119268515,30.865707583677928,-7.639490020755346,33.21370926017224,3,S01
9420,-0.5019068024300022,-1.8547519831307455,9.640096200028596,-44.851779870126585,-83.26886061282343,20.531494092307028,33.474850603235566,-8.080852841082478,32.371958897404575,3,S01
9440,-1.0354890062899806,-2.4507629103320845,8.980623000858548,-63.80508527321661,-101.41470823476013,32.39951347352448,34.259215101211296,-7.241801451097468,31.7806146936502,3,S01
9460,-1.1238627349841201,-2.7381987788195543,9.019087503446169,-78.85222506941993,-113.15955675402053,47.24100305338779,36.955525862833014,-12.06832668593193,33.12437319097786,3,S01
9480,-1.0666420931393727,-2.370708378328515,9.39814176975862,-74.86314955859518,-101.3987401227713,42.727555441729024,35.448661695708395,-11.626345874325693,34.584825057858296,3,S01
9500,-1.048404578840953,-1.518751136500807,9.547292351217374,-51.990945625048944,-75.61485489686011,36.209977595395934,35.00732501594298,-15.1414514506578,33.29541496563017,3,S01
9520,0.08673735146829598,-0.40302468552914206,10.058091457899543,-1.520615069768401,-16.086088608391776,25.680706835564397,35.15503809624674,-15.263303497588728,37.26641476139118,3,S01
9540,0.5568800824533781,1.0938356855789713,10.8994313762166,24.12838194651718,40.07461614726527,32.26646940992611,34.85332603188934,-19.248229303570803,37.77767886800858,3,S01
9560,1.285084414535842,2.264516562409012,12.16919095021254,56.83552674133998,92.37563634876824,10.742110274463805,36.10124915085003,-19.49973180793145,40.542602760682485,3,S01
9580,1.2528229450287538,2.994986942188566,12.779299137046044,76.78342265075283,110.66809750090088,-9.381635191361584,38.870834520939596,-20.319605760222245,41.20093467822787,3,S01
9600,1.430091322858862,2.792963859650801,13.220785390387498,63.63099362746132,100.42194949613342,-25.63015898395208,34.305091697221854,-26.01226601218348,41.646378802415384,3,S01
9620,0.4756649489673087,2.03076652687157,13.21521325480412,49.34999581030443,84.00852723064969,-29.066332353700197,36.32023800854721,-23.005106691608425,40.04449625536207,3,S01
9640,0.6398091278171061,1.269849317381466,12.979294816931016,16.993186898027556,48.66566453483949,-32.93898884530706,35.29530843810468,-24.584226808009372,37.88717882983735,3,S01
9660,0.19555978964329646,0.7071856439403634,12.646419259660274,8.867552912959109,31.983734061885404,-39.50879063582063,34.783328934525784,-28.970678675538043,38.67149205826307,3,S01
9680,0.19864103600897876,-0.1775639932834786,12.080290771209665,-0.1011381144677328,13.872183615574057,-39.070439637724114,31.973475391814844,-27.166069958962826,38.81151682885657,3,S01
9700,0.5287506208002215,-0.11216379087648366,11.517306302363583,-0.384106030670857,-8.853020262231782,-26.493736689528568,32.45535171355387,-30.829511662632683,37.51170459108284,3,S01
9720,0.01628127635289761,-0.5036231162939895,10.6459121292657,-6.876494461332865,-28.889896102557888,-9.098185147937714,31.14209142729655,-31.416603855347716,31.947967452825576,3,S01
9740,-0.5764385478708464,-1.197739065386326,10.029752093198322,-30.511550054573856,-45.38457234322331,-2.3014573818096435,31.281585024650745,-31.7192750830126,32.70434393533692,3,S01
9760,-0.395853409907007,-1.7554478013647274,9.163282299689653,-37.2002820306635,-78.27017097798293,17.02627923241721,28.339582861194618,-28.575551805945096,33.97488934166947,3,S01
9780,-0.8332221250251436,-2.537789506474234,9.123796659379218,-69.34187995831138,-108.27934043780299,27.879695607194222,25.35358133475208,-31.26740922887735,33.387983003904324,3,S01
9800,-1.4679674403732397,-2.882860321895685,8.987313086723365,-78.96580635406616,-112.59120549161942,31.12923965053528,25.49503436865445,-30.077355366805733,31.182889452818497,3,S01
9820,-1.1858455884151249,-2.601371944764391,9.323175304558543,-77.39057025367934,-96.29295088042602,32.45288890012126,23.130339160279426,-31.972670107951995,30.73427134316999,3,S01
9840,-0.669869534177807,-1.9675633386790874,9.514306826587609,-49.97986557917916,-72.87656416162562,40.29021010545322,26.775518661064808,-29.104509137053974,34.587665411226446,3,S01
9860,-0.4139347035572247,-0.2677088744575615,10.348178357983636,-18.297406200139562,-8.998536939418546,28.652781354523903,24.920048184828595,-25.892025564562037,37.73078064472404,3,S01
9880,0.5993757957795713,1.2906148699046374,10.83391128652232,21.793518244585375,41.06936670553903,17.11627124306299,23.075176516678926,-24.733760592324913,41.19105748595704,3,S01
9900,1.0567481488012551,1.9540123830696532,11.75584991596468,60.459147689547876,92.0941494977614,16.247192217710577,23.639309461364284,-23.473385273427816,39.36782292676242,3,S01
9920,1.4204913528751806,2.617926019110164,12.682668847022045,63.99391842814167,105.18567073243287,-14.948066896619972,21.956249083249546,-20.355058724484607,40.3395619201864,3,S01
9940,1.2654447177805634,2.5360898780123695,13.11584334052714,55.78776896148084,108.16302716241786,-15.82960661102089,20.204572799516704,-22.780687252397264,44.51363967552297,3,S01
9960,1.0731564173366406,1.8187622808106165,13.141211355113754,39.45177582637776,81.63464022094774,-26.69554584870427,19.95458406285804,-18.959930008754483,40.28557225831456,3,S01
9980,0.3586796822299416,1.114162100415874,13.290422656088124,16.688314793705015,56.434892666816765,-37.60158936538282,19.451220858683197,-12.075676779721325,40.69972129163317,3,S01
10000,0.09891254638431339,0.39065273538136436,12.883281408552426,6.879742235739342,21.46935832739224,-38.87006138390557,23.134270417988553,-11.488320597576905,39.57465805474532,3,S01
10020,-0.22070404207104768,0.012901002509775786,12.183419308555672,-0.5110587972928555,16.837861931282294,-33.59139279507393,20.5888668040791,-9.431785315059875,37.25120738975761,3,S01
10040,0.002490197285774043,-0.39147961053564423,11.491317330498084,-1.0157956975998728,-3.9526862291532057,-31.628684215460382,23.2126548545233,-9.32629793046473,36.46730469650446,3,S01
10060,-0.07128637920967451,-0.7415830574035012,10.770104374511515,-14.620265251085062,-25.81195021434049,-13.923665358930792,25.272313207543306,-8.967009054066818,32.817310765157245,3,S01
10080,-0.2399384156299265,-1.0634917806050628,9.759517689763292,-31.0494564610534,-43.901346833016405,3.839741736526312,24.63992657446158,-5.9227688274462,32.795582272537246,3,S01
10100,-0.6791199999794622,-1.7505480004432135,9.503493068353125,-45.49343995659823,-78.58943912662714,10.472713962282558,24.71284494636608,-4.705181957898631,32.9411715971749,3,S01
10120,-0.6243426778299764,-2.6169733480881328,9.31613428770105,-59.83951769299442,-104.92493879355459,27.57360530533366,21.776306036006083,-6.240785879101453,32.52859842195569,3,S01
10140,-1.1793347010212494,-2.7692246905914413,9.174581584561794,-80.46396493533348,-109.32128639306157,33.04488062389841,25.07949017618451,-3.944492161932051,33.23558396539262,3,S01
10160,-1.050560189865795,-2.6997841316480358,9.291141793944169,-74.05974265795767,-106.31826574532704,40.04415530608306,26.195648721047576,-7.099369417557372,34.515579526030194,3,S01
10180,-0.7030396582250771,-1.9284755411999346,9.60674322221658,-49.2581678709116,-68.004866166222,33.17884663639288,27.7867289179465,-4.661683835064887,33.999514211297814,3,S01
10200,0.2614431228852151,-0.28419830513670086,10.121115799075877,-21.278449621423793,-19.171905621742223,38.3219044627835,28.980832870487163,-3.898605413723221,36.14054432185167,3,S01
10220,0.6970843099717112,0.9972253780334581,11.036512914455447,19.1546674536738,33.18168681692134,16.49754506596795,31.60449162511568,-6.464639766545094,39.47538503177363,3,S01
10240,1.0267200521475512,2.233771128261864,11.95613227365245,50.42627552963973,86.11922951105748,5.68405713940836,31.438922158153012,-4.593385181720105,39.374500150511565,3,S01
10260,1.3905777068362053,2.8418889970139243,12.691254562738417,71.00934098134935,112.54732852944038,-8.973995691132924,34.263981916790435,-8.35455340460805,42.50994311403106,3,S01
10280,1.454252976132793,2.6529829963089684,12.90687564450874,60.47715481658771,102.23091030831053,-22.051310345214368,33.97219100833152,-4.961773956586653,42.85682104031227,3,S01
10300,0.8448832734534805,2.2669015044784944,13.39950680613217,49.88533357336904,86.95552873282008,-24.45165333135428,34.753444017120984,-9.703569394141761,41.21407268636908,3,S01
10320,0.3159718789248861,1.1884688131432664,13.243593500136829,25.337856862809822,52.81179493437206,-38.89490923803176,35.123083060075416,-12.156756426283327,41.22576561872806,3,S01
10340,0.047682300925504476,0.7444746587124031,12.932504703530961,6.43976944938239,31.822501612661615,-40.18182012001909,34.99872024926797,-12.926998552374416,38.11685172810415,3,S01
10360,0.1701062587943586,0.1367534174849686,12.272745844811617,-0.9223786336985906,10.155117334522101,-38.99278971709807,34.12442693660479,-14.99891235613361,36.737445067317175,3,S01
10380,0.1878867770001706,-0.22926027445661587,11.285497536342769,-11.084518954910997,-5.8311582290611295,-22.43968394050622,35.264927633112165,-16.728226576256663,32.58695269198669,3,S01
10400,0.002820839224906113,-0.338452362775759,10.565183338800665,0.5266583201312356,-20.281091570174578,-10.753715917480301,37.48545698630504,-21.384415829364393,35.96341855542012,3,S01
10420,-0.22496785913709075,-0.7995219254297241,10.144703612261912,-29.626831611070276,-43.55321908080377,-5.586758161001015,38.27820071298574,-19.65808771852468,35.03605617352129,3,S01
10440,-0.4457053913113027,-1.9105800105355184,9.37898665171304,-37.73127548120835,-71.39953192015422,9.318758549079783,33.711681276224695,-23.779355982334447,35.45123495258506,3,S01
10460,-1.046008689074706,-2.4101674636972565,9.07221212353796,-65.93695663846783,-101.29376960185145,20.560209069179486,38.13591549371448,-23.221612857694296,31.527385144214822,3,S01
10480,-1.458353760824887,-3.0387819360349835,9.046203855168987,-83.00798903705031,-123.76581479579687,41.22958429158228,32.48388418328551,-25.307604900023883,32.637241597737265,3,S01
10500,-0.6782502993798777,-2.628042426831197,9.227317569559084,-63.537000156435255,-104.42301762494891,39.47021917136249,32.068113543559676,-24.738735660207006,35.050454221620456,3,S01
10520,-0.4703968335101407,-1.7153320095047901,9.631158881990734,-53.45370790839542,-61.5941299667768,38.595437718272635,34.127815264837345,-26.603259545613895,35.426816760463865,3,S01
10540,-0.05130724447632565,-0.5128236105313241,9.9896506562588,-10.31196701840938,-7.373503391847932,31.75641829752914,31.18306431573252,-29.83851151759086,37.05741338907504,3,S01
10560,0.45742659723943613,1.395430268214709,11.061109637772644,27.111541265166,38.00318805232827,21.00937522887695,34.831710046916456,-33.444514220009644,39.78627383788678,3,S01
10580,1.0259614681430853,2.0822891110026687,11.526256430311992,51.634426351567356,85.27144944080452,9.661305058677636,33.383246483922385,-30.989185622233226,41.023441872215784,3,S01
10600,1.4431887097658374,3.0614320456734063,12.473826733171125,67.81833533081559,108.66106164536623,-3.4252811030954233,25.755528455543647,-26.284058658608537,41.94476217828576,3,S01
10620,1.3023236238851428,2.6531292960657136,13.177150570199217,62.15478924233119,109.8633429780956,-25.514752451565933,28.65023302608665,-31.815194771620263,41.77409359743089,3,S01
10640,0.9150972013112149,2.3042699199973904,13.524877664625432,42.36186188859966,79.80349215552882,-26.019350265862816,26.524385133042927,-28.456502779544106,38.156680417713154,3,S01
10660,0.4598131187272453,1.4912847507261868,13.382674102762689,26.175601101011047,50.2073079762352,-50.28005458713317,26.588424926601732,-29.959545281724807,40.1793315461741,3,S01
10680,-0.08199511376060864,0.270713654312541,12.811424366597763,12.22867803310336,31.423973086738773,-42.41416816693209,24.246504792929915,-29.15670499993958,42.148211703983016,3,S01
10700,0.3063151644054257,0.2708176651183702,12.220715590023595,1.1108333769247238,10.02455140564457,-32.542352927275694,24.873343604490653,-25.472738864724505,35.726534174623225,3,S01
10720,0.06715307144192145,-0.3913367844602772,11.616605194831157,-9.75940030833064,-5.265382938562365,-29.50065742236984,23.32004616447999,-25.184653053824377,35.95120034429982,3,S01
10740,0.02589359320395898,-0.5031231017307343,10.806005542492494,-2.8240884638488994,-23.033081030259083,-18.03727997355099,21.201443201149136,-27.036053922398338,34.17255165453257,3,S01
10760,-0.19252854146556894,-1.1595037873633376,10.044156212447062,-24.789710253800916,-47.455466402662644,0.8595990689297487,23.2964165039372,-22.527441629828516,34.84061770822443,3,S01
10780,-0.4984797916789362,-1.9467357901806115,9.625208860165264,-37.00273087238674,-82.26901418996094,8.081579459585543,24.58056155883877,-19.831245127300324,33.83307255059326,3,S01
10800,-0.8141569968016622,-2.6186819957454097,9.206241198073892,-70.92654372147254,-108.5733957336064,23.959760607278348,19.237275877682023,-19.356427601092882,32.61422928653323,3,S01
10820,-1.114841683287496,-2.7958292194082266,9.149261051088155,-86.04415984123764,-114.82818107985062,39.41756369555775,23.772076121592278,-15.292741829821082,33.77670704200421,3,S01
10840,-1.1131021526374185,-2.6316539389777858,9.440926392829047,-76.07034977707691,-103.5172062245267,37.0418362894967,23.721474356872534,-14.340665588701103,34.52193072409047,3,S01
10860,-0.5329832932698896,-1.9127336268951418,9.773263486124609,-46.74842752495319,-80.64631424119654,43.41195079406866,20.815491375132837,-10.685379011516018,37.21665663359906,3,S01
10880,-0.13303047115732888,-0.44434573128311966,10.066436342895797,-7.778057440026546,-6.740360540569716,38.36463273303074,22.069571696609735,-11.72454616359458,39.312079132297676,3,S01
10900,0.7522914331498717,1.0376314063840213,10.798928861426534,25.209437963653922,52.48448336630742,20.773356290139986,20.092431128167497,-9.129578655274166,41.974726325748584,3,S01
10920,1.1683172142409801,2.6357718328095796,11.807907153959793,56.42786198960291,88.62547875732551,9.345933769747726,21.749620641952408,-7.780587442736518,42.17874800593961,3,S01
10940,1.1282911912625768,2.371654742809603,12.479419241952677,71.22943913248668,112.22143013861086,-5.8659119574373415,24.806983905307952,-12.135946651060475,41.221116935052486,3,S01
10960,1.4251043833628332,2.568561484071544,12.826754364550318,68.27473341409348,104.68686949525826,-14.399863172059936,25.809466112148527,-3.8006429228358685,44.65706225575768,3,S01
10980,0.8730225266809165,1.9294815330817299,13.609139113209006,44.47417516080124,88.14442547931917,-35.631347290883916,26.554904852449795,-6.595084379520794,43.818395579353336,3,S01
11000,0.5210234342345038,1.081867610658186,13.09266536936446,29.89216957162692,49.15102018402902,-34.65386326716629,27.516202718301805,-3.1683418695440007,39.96831010949116,3,S01
11020,0.056642170196124476,0.7225054400901072,12.86854637340026,0.00932773491154748,39.1458111941983,-47.102108482252696,29.1517658939192,-6.36446815622098,39.01897810783529,3,S01
11040,0.12280021520083081,0.10857937744814544,12.223321507230475,10.432357809678855,13.769976017618081,-43.49459724178923,31.695118697570358,-5.542535314231753,37.692916816745736,3,S01
11060,0.05407026952808987,-0.5228285394533709,11.683060928122098,-7.475404636152765,-1.5390448579036617,-25.648299172866636,32.17072912414883,-6.261746280861278,37.1829106303789,3,S01
11080,0.24573042079809063,-0.7202300133082071,10.904516996353165,-5.706689633506392,-16.199455300150348,-10.688792958683598,31.685971933435212,-3.3889016531980465,35.71264723233121,3,S01
11100,-0.1984570096471512,-1.1343185997027805,9.873997256591911,-35.86217218955138,-45.15812693539118,-8.161256840767372,32.60701533360093,-4.673705397213483,32.83250564214744,3,S01
11120,-0.6249096409714788,-2.151847863100824,9.521548924520138,-48.97715715039268,-73.14867701803861,18.036263444616466,31.77864191363616,-12.71268041492523,32.937779908619405,3,S01
11140,-0.8027944182574583,-2.4640341874381053,9.12133037470815,-64.57900169345156,-108.2130911569678,22.772136813750212,32.41650423929505,-6.257145724954064,35.7884740125585,3,S01
11160,-1.1395360849704264,-2.9367679577702983,9.06874639752295,-72.78637484180406,-106.48684985331145,25.69541653336336,32.96828223863254,-11.897583130241195,34.72844609022579,3,S01
11180,-1.0549548829510078,-2.6433606610760485,9.226682795244193,-67.5954706557932,-100.2232439644829,39.51169922834158,36.40429249504119,-10.628074115969707,32.66597668737431,3,S01
11200,-0.8554045365805456,-1.6194065806364235,9.552678058305293,-46.27094154428805,-78.37814416541534,39.300036567100655,35.45503100700809,-17.021845496810382,35.80081385121139,3,S01
11220,-0.11010537235217002,-0.4104720474306359,10.02156254800405,-20.575783159908333,-16.124903855851908,26.89086988481948,39.14599431945126,-18.452959169682924,39.731282058112406,3,S01
11240,0.7433761863855094,1.0369068913317574,10.829077908584377,29.04410336612555,41.49743852752501,14.174801348513677,35.82513592036016,-16.910035242773567,37.04155223914674,3,S01
11260,0.99495362005482,1.9981428781093842,12.107940954118225,55.80187372212875,94.30250671069165,17.570637557252617,33.51256261924094,-21.293999048756255,40.790383122078445,3,S01
11280,1.606073602387979,2.9930581789354633,12.520621755962269,74.5749334500986,98.61362364626986,-6.357168001831647,36.947092439311064,-20.85874743557921,42.31620163219656,3,S01
11300,1.1413792742439144,2.6576888669222902,12.852182903800635,51.961435400347554,111.88469966343266,-21.68215619486636,34.484302374039075,-21.713038873962947,43.67781336467068,3,S01
11320,0.9933805680486204,2.121126353809238,13.27401347632585,54.28825870014896,83.57568938906402,-35.147160249223596,34.82903353534127,-23.750286983542214,41.83945883629145,3,S01
11340,0.45442600210542883,1.3670107482961076,12.907949716672384,25.62877150031275,53.47796023277344,-38.24757773596846,35.558277652814496,-28.827082062657723,39.903776176732194,3,S01
11360,0.27007279701442133,0.6091993287556201,12.66447713216483,6.699839832783856,22.2382091752434,-48.28539268646025,32.88007829696761,-28.93178695219329,37.90272115658216,3,S01
11380,-0.27756648044175314,0.2487317299441203,12.064577021822949,6.967047860502237,10.709716824782884,-38.99277598927358,30.717461663967356,-31.372934211253337,39.3147815927803,3,S01
11400,0.26066117266191224,-0.15116495664364998,11.339117598050683,-7.961897185611925,-8.216407272204021,-29.554420821157173,33.6186719119067,-28.97603797283707,37.159521506225836,3,S01
11420,0.3330607902508418,-0.591092113512206,10.604014333317483,-18.345335113255658,-21.8185944984167,-17.84709397915048,29.20483250660609,-29.10686409610323,32.40560166797102,3,S01
11440,-0.6184536737555448,-1.2831978839586682,10.045373124003813,-20.931077372363188,-39.442852669448946,-2.4458947217337235,30.715806846157427,-31.061108120093316,33.42238578516935,3,S01
11460,-0.3684304410816974,-1.6943140201259166,9.358012956098491,-38.88165955990748,-71.69621093123955,15.11511483820739,28.491164275387636,-28.830302360116956,32.90078131428625,3,S01
11480,-0.7966507208146539,-2.7383830788999637,8.9648808048884,-69.16935201114761,-108.05984726776407,31.49373317719719,27.696841707406847,-33.49551690061881,31.332152577994748,3,S01
11500,-1.578695189149752,-2.6900033610304614,8.974011579102546,-79.09483300237184,-114.0660323136525,35.936197935253965,28.346514128160265,-30.176390315095492,33.5279308482218,3,S01
11520,-1.101673160589858,-2.5342812585533663,9.290414654099008,-68.61494497956672,-105.72200352518885,31.50692060420782,24.528543204060213,-27.71197642171683,35.14222284130635,3,S01
11540,-0.8999264141740494,-1.7022153713484516,9.557609857456285,-53.68260687825215,-64.67546329076139,43.598288903058936,24.97028562813096,-25.584988193174297,38.10751349170409,3,S01
11560,0.024485956419926708,-0.34629798378897486,10.117958693396043,-17.245946403747595,-7.4552704222666195,36.10514928376876,21.71280599986742,-26.252450940869963,35.27402263554488,3,S01
11580,0.8808676507518008,1.3978007577601517,10.925023875351615,24.179369680272156,42.505770208162275,18.42854208536435,22.83364966387572,-27.845906146211107,41.3746310926665,3,S01
11600,1.249272525485775,2.193470054207668,11.750463422304595,44.02261823438421,92.5467344299623,12.407846512697944,22.935511031174627,-22.034382448591998,40.71948558689697,3,S01
11620,1.2847092770382902,2.776279071772412,12.73037140704814,68.88011238059282,112.22452793530358,-13.302109526741534,19.75727039769432,-20.963171775999797,42.23852734198071,3,S01
11640,1.3042575301945931,2.508729066426084,12.938889122911824,59.52024225798947,111.03821091563769,-19.95472043893964,22.05730535934953,-24.260305599720905,40.02943449102217,3,S01
11660,1.2130514321549264,1.9969376096368376,13.584922705970044,40.121709550460835,81.17964914937485,-31.47673958537372,21.32647442284556,-19.95455376611423,41.151363191203124,3,S01
11680,0.31677601701604285,1.0901032828759678,13.153033423430331,20.26201679400572,57.72068395001873,-35.869947397625126,23.437629720969007,-16.557782835630153,41.98317867867863,3,S01
11700,0.5968628265358827,0.6541351028368814,13.159656738618017,15.17408405816283,31.478976887329754,-35.612089187606294,20.359493985320515,-14.391144133958278,39.86000391044864,3,S01
11720,0.0723406440379956,0.1727381085421747,12.108303389827364,-6.698529173830821,7.975543491245932,-35.84952837369532,23.70900406951516,-14.404343008148587,37.46441937340326,3,S01
11740,0.029078268307487873,-0.16075702066265218,11.241389554375608,-11.79374315020723,-2.3963726327275703,-27.18808292302054,20.668664514592464,-8.685272230727799,37.119239879942725,3,S01
11760,0.18662120125618262,-0.6111131840668333,10.68491406248782,-17.93355147900067,-17.852648763702813,-18.501523450267005,22.79492949769402,-8.298286733398065,35.70149493781237,3,S01
11780,-0.2805949513903968,-1.179857772638732,10.09839157353188,-24.973307595351038,-42.52132868555263,-4.903000086907559,23.726642605464576,-10.3507939998953,32.34619489601082,3,S01
11800,-0.46098691133948144,-1.8558808721024886,9.378122611247788,-48.736401248423135,-75.12982457919317,20.028233021317977,24.730111489760365,-7.58182201781462,31.886974578279627,3,S01
11820,-0.9541400483372456,-2.4822950427703216,9.275359309306252,-61.212801594948985,-100.77640681976511,27.884444509305172,26.123484977380233,-6.049859328746134,33.817106615574644,3,S01
11840,-1.1092095768265198,-2.8996743213057674,8.848591127787445,-79.59792941302011,-116.57189452246877,31.31495287362314,24.143617290945393,-5.72267784077134,35.19470108577735,3,S01
11860,-1.398651561623401,-2.69685936364317,9.342260719492234,-84.04669255409243,-105.6369283697686,44.90643743371968,26.370647145077065,-3.395164608515208,36.069887125658255,3,S01
11880,-0.6388619123578073,-1.5408047621782983,9.644714292240712,-46.51675009539804,-62.22353748822279,44.45815616930694,28.49898717712497,-4.057911063221483,36.67994127639642,3,S01
11900,-0.09584670742613802,-0.3231985725448524,10.007652469523956,-13.710173108488178,-14.93962067765984,33.34227753824907,30.400394227593527,-4.309579183360955,37.936866848447046,3,S01
11920,0.6915107275575861,1.0821118554422657,10.623047571589714,27.74449200195909,39.533805718859455,17.30070365922459,30.74961817390248,-7.251687119060076,37.00066756253568,3,S01
11940,1.482210121890846,2.076462355895363,12.083424013075112,56.882713960799414,94.47167276828382,11.793086287561495,30.345515467030076,-6.437509107816728,43.59178542951706,3,S01
11960,1.5861570650903685,2.898950251838175,12.59056469548999,65.77192838211816,112.25889090837548,-2.103946214562676,33.274043839065186,-8.98733980778019,41.34830719776428,3,S01
11980,1.0629868976432315,2.581731410054124,13.35100888823662,70.2289926678013,118.94577994146148,-12.171742605424685,34.052125555703086,-8.763816075075972,41.39693333308984,3,S01
12000,0.5631603192989603,2.034771803472834,13.2224544304935,37.6567993690139,88.3145065504539,-34.12116445860935,33.940633636174184,-10.03361403360754,42.38034158450654,3,S01
12020,0.38109427485850356,1.4280060316937515,13.420218416243504,23.828692393109392,64.55500386847925,-44.423647722329626,38.01065974204866,-11.308614385727399,40.49770377604014,3,S01
12040,0.23987526360397535,0.8492814846953725,12.568776219625917,6.617496932096327,32.92142579654885,-36.12340299829884,36.39141870392062,-13.481881192756685,38.6653985812382,3,S01
12060,0.2778416632449473,0.124980303921081,12.107894963610715,4.357095937166844,7.517324297399985,-45.08007293765002,35.65361992088863,-16.22124138486088,39.59715683914367,3,S01
12080,0.24403263108324158,-0.18200349953125516,11.105806604045055,-1.1186758970428459,-9.370041092872409,-31.473770525888163,36.81004081943312,-18.114697502235003,36.80798424076134,3,S01
12100,0.06771687375843455,-0.8800638417113913,10.736396900030497,-7.498864077988117,-26.5047983392034,-22.54628614595331,36.381677485712025,-19.312294316049876,35.91743771451538,3,S01
12120,-0.11957810067500224,-0.9039758375137501,10.076130560709991,-23.286360519552993,-36.94881570419439,-2.771959195278541,36.47555305700227,-21.131306170526365,32.731322265076955,3,S01
12140,-0.6579964561159374,-1.7748074912205907,9.344195785365404,-46.608548026030604,-71.89181031845537,12.83897704016424,36.897791506873126,-21.557481110685018,32.636486614088774,3,S01
12160,-0.9844299001511337,-2.5602795924139974,9.289256865649019,-60.575293273054875,-102.31523933797055,27.55344657012813,35.541980239149474,-20.278754197759646,32.88638065179221,3,S01
12180,-1.0595690141117697,-3.017932634685101,8.91182970379065,-77.57489655299553,-113.53029168839859,30.736033516681157,36.17547388336555,-28.519887451629923,36.727171318263736,3,S01
12200,-1.2686963996423017,-3.012398820726909,9.236722582155842,-66.43989883900505,-107.62485802983115,27.00922667528554,34.186039431011245,-28.29087925070192,36.529887580245806,3,S01
12220,-0.9184172163097565,-1.8297986874968521,9.594442630763307,-49.22883058016094,-69.65323756614245,38.26122856121586,33.5631315393676,-27.628801300495116,36.43090954211258,3,S01
12240,-0.009659021027471168,-0.5245329821739371,10.074094417196523,-11.704746607306365,-13.855484631369498,40.731560435779194,34.23204133562399,-30.097207115897227,36.84585522261728,3,S01
12260,0.3787682117147889,0.8961657983265434,10.883270217487736,24.361604712580814,37.90143099048824,28.7034003556869,32.58338524779671,-26.515493715594644,38.67977845419218,3,S01
12280,1.3503585751890335,2.0506607820958798,11.85773170680801,50.21996580566159,85.76993985859366,17.344955783307093,28.02770595362128,-31.721477496215257,42.64744190897102,3,S01
12300,1.4671070170340448,2.7340167340140176,12.45570903945646,66.41392393299195,109.4730702357485,-12.133787133981363,28.779093357171007,-36.5190692008417,38.806703065026355,3,S01
12320,1.4259238445256608,2.5805249243453687,13.03015083245511,74.92326562710103,109.0918867459842,-17.349065288536675,28.480032254827865,-29.401558900914072,40.51050179446386,3,S01
12340,0.7423355410985577,2.0591637024746787,13.578670821637655,50.373097011062,92.50088067640009,-27.44293781048943,27.271451158099996,-26.39567995320227,41.72507049158277,3,S01
12360,0.6287484769560103,1.2913783291398542,13.389500813852269,22.20251882584225,55.48536726875497,-34.21407970962553,25.572008260188234,-31.90664817030528,40.39961186198253,3,S01
12380,0.1491830119081041,0.466907733232732,12.96132056479161,6.948889956066895,34.22949648281197,-49.00518001065027,24.867895280748765,-27.178989012499155,41.52168968130781,3,S01
12400,-0.11783629536392473,-0.0023894274126075032,12.197013103755342,-3.481582721630313,11.0109567752504,-36.03102670040896,25.928560163919702,-26.897075869734405,36.28068637639527,3,S01
12420,0.3522723232628481,-0.19565705389965146,11.592146410494392,-3.09558796494822,-1.768216712692683,-28.98775874580709,21.984887989058457,-25.681268282884016,36.10312674448877,3,S01
12440,-0.03871201418326195,-0.5892248480524431,10.456352036437996,-10.03469983654265,-25.3556943551257,-7.863382467608057,22.528258839249702,-26.280398061053344,35.652282953113584,3,S01
12460,0.025249404171928072,-1.3205046470361463,10.224969884258293,-20.07576014129673,-37.64972043019373,-7.312180057121965,20.904822037097716,-22.99266187469898,30.324244211961247,3,S01
12480,-0.43828797361019434,-1.5779453306341704,9.825792025686098,-49.397569227515206,-80.91569861363485,12.987108083468426,19.969743022316933,-20.273641384546664,33.2274830205882,3,S01
12500,-0.9356306765576196,-2.7427649828091956,9.090138861380591,-67.38190745397844,-98.35441719491567,33.007809677840065,20.13860942564534,-18.914302144566637,32.47554540482966,3,S01
12520,-1.050197661415762,-2.7768982600530037,9.178048580648866,-76.36199784936551,-109.05225993912731,40.64278080293305,22.478987972123495,-15.605345986866679,33.76542288052828,3,S01
12540,-1.029193399493557,-2.782669585014977,9.375503843301406,-76.21736676307333,-103.63915932983244,43.7334101032332,21.572130210947773,-14.368213627046945,36.02470623260613,3,S01
12560,-0.6642010156226257,-1.7904168902644777,9.508731871235163,-42.477394139722264,-75.33686580909307,41.812973696416584,22.7242877060078,-13.491423735827647,36.099957621153884,3,S01
12580,-0.07762225527680247,-0.41640103848199245,9.998027329421266,-21.583383864675564,-9.919511151109347,35.71706342466306,21.186914458987424,-12.985185438774238,38.81245085160927,3,S01
12600,0.7250491929417153,1.1045450012372402,10.989233359089,27.238245597214124,31.99404352158017,19.563136994612137,21.26616698045072,-8.351038625452112,39.26269408544414,3,S01
12620,0.9628095460252706,2.197537713502249,11.74825969200868,48.253875610865904,84.45767130283338,14.106218713396265,22.130189174528184,-6.664207815215091,39.64103530665415,3,S01
12640,1.3401131121507261,2.7644423697920257,12.514387798198408,74.93162534642786,107.78564365074368,-9.093271503905411,21.82042325249328,-8.821733030572855,43.30479235306651,3,S01
12660,1.4423091305654818,2.8118470962425377,13.046786695592,65.49630053764146,104.44071538899334,-16.371941275775956,25.031557870935984,-5.811228323389588,42.90214351344542,3,S01
12680,0.8819638048027744,2.2688163283345433,13.19761961805028,53.514476379806986,81.81651358169614,-35.18400032506366,24.698530229832897,-5.06593243267285,43.96022184912331,3,S01
12700,0.7888946242166245,1.3202373790497137,13.128250395544839,29.979014252797615,59.605237933739915,-41.90096628032065,27.388392218492747,-4.12063134635048,43.6730303008301,3,S01
12720,0.15478080180942966,0.7536603129639641,12.89895443909336,10.18884177142239,31.971067252455736,-48.703053887835246,26.18792744242682,-2.4947793773523532,39.56621078583285,3,S01
12740,0.31086271165477175,0.23538969645556018,12.1900619231355,2.035986974970365,13.927732628628137,-29.09452091693282,28.417926489351817,-6.50690261675075,37.483536240399815,3,S01
12760,0.04957185467137176,-0.31705465868806526,11.42603672328607,-4.080325086982569,-12.024545662128926,-21.50854538422546,28.572823846227244,-2.080578447182268,36.726124186114795,3,S01
12780,0.19845472319275648,-0.34334260864135,10.59556286591424,-10.771975326085965,-20.00714913162839,-22.333667058059376,32.414420263716956,-2.6705322448070303,35.267037271620566,3,S01
12800,-0.12265976787168203,-1.5943025600959198,10.137113823736055,-24.342443562850328,-43.1277263582215,-5.948492290509215,33.4078076968183,-8.348284407355266,33.513148480450184,3,S01
12820,-0.41998863502886663,-1.6888235681578208,9.724080487221451,-43.00053839830738,-83.87370154118355,13.950592462290233,33.79901752195644,-7.1034926028299,33.37533447114349,3,S01
12840,-0.9020958578891239,-2.7756027461721207,9.120240077687711,-63.44128525304013,-101.63067787593207,22.959319426425076,35.81082239326173,-7.4890621742161585,33.99832907940255,3,S01
12860,-1.114103956524558,-3.011859900271417,8.930850824080006,-74.48289186260294,-117.05069945114552,36.435790441542395,33.48888484267417,-7.983299116337158,34.264472435059545,3,S01
12880,-1.4147070480082222,-2.677363882253545,9.46516466273354,-77.16588066964088,-98.89121753166098,32.774298803036835,34.64600249334282,-11.283824466651005,33.79647353795404,3,S01
12900,-0.6274822944542525,-1.7897626668749957,9.487479204682872,-37.943215248908835,-74.40848179511941,38.39710595314544,36.53353769252938,-15.995255157795967,34.494573218585586,3,S01
12920,-0.033329984267373075,-0.3835398574769811,9.899403081479631,-11.226599278699155,-22.53362725502517,33.387497865195094,35.402259026452434,-15.097024580997202,37.615998142534444,3,S01
12940,0.4982775018697505,1.1545084982560723,11.182399170332562,26.635903270912724,48.804095661120094,16.43906028998616,35.37431883465277,-15.349735223516154,40.602769639365164,3,S01
12960,0.8949391117368046,1.8506144983025905,11.641777470705046,52.18950503306986,79.45455505376604,14.947797590148623,37.62694082992962,-16.296470022371594,39.799395674682174,3,S01
12980,1.5662325273731674,2.594363703598142,12.66744872324213,75.90402426978135,112.79307372532533,-5.908882093422478,34.20839820927047,-19.79649873949642,42.83633415215448,3,S01
13000,1.3413420638943883,2.877280688079999,12.984789613138187,72.21276590235787,109.17689053838865,-20.252219719228677,33.918065623047795,-20.83658420019581,40.583047725002004,3,S01
13020,0.9453546128629723,2.1164909063174524,13.527457394515615,46.77146787988733,84.7768585539784,-29.07829772630097,36.24413450401948,-26.084024254732782,38.61966274418469,3,S01
13040,0.5916562526963337,1.1145321778534862,13.448544063265222,26.96755960007383,59.95541677930271,-35.39268271613413,32.860769898086296,-26.45248436726712,40.32439190860264,3,S01
13060,0.1427607699981001,0.8669881459277495,12.851882193240062,6.096763863833437,28.743520944356437,-33.397195369741944,34.38640199423393,-27.115005882046667,38.805381696731466,3,S01
13080,0.44644363356877714,0.04599424335890742,11.895917783180012,4.083050329458813,14.266881865723374,-42.95280993452847,34.0952188869135,-31.585691571951138,39.86873139289519,3,S01
13100,0.1703505146541371,-0.3240234861062102,11.494711362767251,-4.831789093976593,-1.68960101508754,-32.020004175415735,31.495438115967602,-30.706101161222264,37.8298483769443,3,S01
13120,0.05143300569267423,-0.6504754875770997,10.9550273310064,-15.334937125795154,-21.433513650096614,-14.427998103739395,31.198707075263194,-30.39549015230865,34.134101985219516,3,S01
13140,-0.08761332890067955,-0.9400553139456591,9.94889833546939,-18.21079553942051,-45.483815133407525,0.17659464383725243,30.103075901547882,-31.143666942066307,32.509815111536575,3,S01
13160,-0.46775765266085434,-1.7991339459054465,9.426311756954686,-44.26285887714299,-73.34150355332834,12.33698309197077,26.02884184584044,-28.160499184147312,31.078649541777125,3,S01
13180,-0.8908448956952995,-2.485691871313629,9.235207125837178,-61.48703753132855,-104.48488230907482,25.53379575202242,30.15373792471337,-31.65282278583692,33.90816530513666,3,S01
13200,-1.207493545142273,-2.782987869890297,9.212937469180067,-75.82200416981603,-109.13495983047395,36.02918059710066,25.72073805919895,-31.048356779715004,34.56131088433724,3,S01
