timestamp,ax,ay,az,gx,gy,gz,mx,my,mz,label,subject_id
0,0.12086761144735662,-0.044988404559156765,10.142447068229114,-4.889605809366677,-2.1063989378776915,0.1304040144512682,29.608461923745132,-16.784901151403844,37.752976868736255,1,S01
20,0.12178968884517277,-0.05341846167811342,10.148673727873891,-4.534624569012422,-1.739064266084752,1.493655721836939,28.665086165098927,-16.04095272962742,37.855547695488916,1,S01
40,0.13200323969635375,-0.0557201690590103,10.144692920173837,-3.4676152566747707,-0.2694373716057855,0.1352732503255687,29.180198735056422,-16.81234413688996,38.23867270848784,1,S01
60,0.12831046169804908,-0.04096077620965785,10.16249967635098,-4.541440061072496,-1.9334552847369428,1.1364187340319352,29.7684676059392,-16.23145044500164,37.95407882507508,1,S01
80,0.1330843729413343,-0.06613432938277754,10.156705454126968,-3.618506343768654,-0.6104268149203818,1.639511443199071,28.759032192836887,-16.203617954247996,36.87111727848806,1,S01
100,0.13512401113123373,-0.03015016757295505,10.14247621916775,-3.6478263794698815,-0.5124189398226289,1.5442446118136228,29.386159728674674,-16.101646112416766,37.50845526948362,1,S01
120,0.15487903660160687,-0.01931452594735298,10.14335314146,-4.61096509270615,-1.7178437948192404,0.5752576591205147,29.46550942476543,-16.588188618789765,37.97506047028938,1,S01
140,0.15315181114728665,-0.023182530097804813,10.139394600314697,-4.656831540949476,-0.8648551667871771,1.0006010782247505,29.790207648898082,-16.289964963503664,38.17138652296147,1,S01
160,0.16228622099427195,-0.024125972211571936,10.161286155863491,-4.293512463962028,-1.7445409546331374,0.7568879471965417,29.36425714265114,-16.343512283695787,37.78234458133816,1,S01
180,0.16772299331208243,-0.02301834152996307,10.147750420096905,-3.929972366728171,-1.3436048438901418,1.369838366999191,29.384982639153055,-16.366254982853157,37.41238683617517,1,S01
200,0.16626757350367646,-0.028476573751238833,10.147839005695033,-4.558678935874773,-1.0848745727396891,0.7043026681637138,29.67979529985124,-15.948208412457479,37.63605955973655,1,S01
220,0.16565832678959896,-0.031793293735741655,10.144035523325021,-4.468456265532634,-1.3080028336563858,1.6197662603235652,29.24662837945503,-16.393011905735456,37.694765150488976,1,S01
240,0.16815541476857795,-0.022668809133838126,10.155275270806571,-3.858234256346952,-0.11957855759937108,-0.12962705913029182,29.64008534359968,-16.506679461521802,37.505459776908786,1,S01
260,0.16796805086767164,-0.017561147876551754,10.13420326817378,-4.663235959601233,-1.0687116078957932,0.6883106181508666,29.098734593488803,-16.461104053905053,38.485952294641244,1,S01
280,0.17744223588869618,-0.008464508036021938,10.156534357686382,-4.684732501393488,-1.923293355388426,0.5205378253273677,28.897379819993656,-15.846888362456122,37.59800185458969,1,S01
300,0.18880505828182748,-0.035197455789582534,10.15259045350247,-3.45890080635212,-0.6185250500375876,1.3620498227266875,29.769440333077483,-16.245137851224275,37.93154917096212,1,S01
320,0.18624998261284323,-0.012107857101436185,10.149861056949375,-3.6692228270762337,-1.1739019217663387,0.8734845859598575,29.71834823500874,-15.747239762974885,37.04472660714476,1,S01
340,0.177688441338669,-0.022146303582191565,10.163987170348946,-3.8811805397521666,-1.1591786851893864,0.7925347526978591,29.057382452726856,-16.080071612343424,37.81043145035844,1,S01
360,0.15889895601274467,-0.023340026655989415,10.137624437149881,-4.425113668690347,-1.78600950011265,1.2071035444074303,29.048156748675808,-16.21738060047999,38.07238590406355,1,S01
380,0.1731914918800484,-0.02281773341391264,10.145721776563189,-4.813052563696555,-1.7349644172778884,1.6880238409053625,29.062425491610586,-16.794664873148086,38.101176205462586,1,S01
400,0.16736473513174743,-0.024766235779268855,10.15318818019499,-3.5052253565405618,-1.3424056478441773,0.5254629941148018,30.017084172258862,-15.79953792655881,38.15582448419662,1,S01
420,0.1861912703249468,-0.028724552541870535,10.139284715223038,-4.407484510342483,-1.2186499565073705,0.8596129521454359,29.301964742684564,-16.673210152767382,37.84372869333459,1,S01
440,0.17737370758430582,-0.02906996125802363,10.136436110893513,-3.758690252177104,-0.9747784852478658,2.2303009072252,30.05566245015342,-16.487550643379645,37.55690165623308,1,S01
460,0.17657886454307725,-0.027869729299464865,10.155452809295555,-4.758794697173401,-0.0765176969371113,1.1074597678521885,29.051291018433798,-16.79592511709118,37.97542878992229,1,S01
480,0.1596321429758876,-0.03865403328074192,10.150720725232674,-4.207075541260007,-1.5549119265669469,0.19696765255591603,29.607036630578662,-16.58472322176791,37.80420137838805,1,S01
500,0.1657337791334237,-0.0465521338212663,10.147739212524952,-3.352264071868875,0.2117960146052178,0.5815512248145179,28.90171986504015,-16.884842241935083,38.09358060223101,1,S01
520,0.17471003110224875,-0.040161582917253864,10.144772293693473,-4.4394730603059145,-1.04550540148621,1.1251420822258258,29.01469232229556,-16.626966517028997,37.75173270593139,1,S01
540,0.15914293926207923,-0.045094777064865976,10.136364166079789,-4.189582824128429,-0.8603521867723335,0.4579131438960915,30.187493752476122,-16.24269393865908,37.82793354341219,1,S01
560,0.16957968885549657,-0.04705715655330592,10.141906516735641,-3.920655474095395,-0.5152142431866841,0.31156320393817705,29.229246219572815,-16.403709747037187,37.59522184215257,1,S01
580,0.16881582769895748,-0.058437546020435965,10.139976482509807,-4.480466314314805,-1.9061550187385428,1.2978965395189968,29.856443671242502,-16.772034976774307,37.271029878147885,1,S01
600,0.17890027792391713,-0.07428513064217711,10.134193660635711,-3.9159402234869654,0.7888608493542137,1.3065548236426103,29.0860367058027,-16.93908619547954,37.90999198044271,1,S01
620,0.17212339223589251,-0.0592378668675936,10.139779882239736,-4.098780510189116,-1.4815783441758152,1.9687492934981994,29.58009688853251,-16.58386552359337,38.408267208750615,1,S01
640,0.16011804623758075,-0.07422055701672817,10.143622177375745,-3.742220299566709,-0.44672499492735795,0.34796607681962455,29.47168626865665,-16.84872022663281,37.15601912135071,1,S01
660,0.16498603829769568,-0.06135079878413349,10.144433267908209,-4.352623121629151,-0.5502391178808507,1.0090072154431344,29.717191620410553,-16.470507990746015,37.749468507159264,1,S01
680,0.163996665627813,-0.09687007050471234,10.133608072300529,-4.281554016229582,-0.5575345994198181,0.9247638231279235,29.090084766032117,-17.35350371868376,37.70692395578886,1,S01
700,0.15960873402552198,-0.06644236651421218,10.158727318065456,-4.62197970694469,-0.23725371859332067,1.2306189263528595,29.401174492840568,-16.619154847788195,38.50657295839296,1,S01
720,0.1498290092202995,-0.07230162101453312,10.134957259384926,-4.425273412395154,-1.3534547841269498,-0.1198412620007765,28.975589331187894,-16.69206864612956,37.92172169895439,1,S01
740,0.1471673148234261,-0.08832299207207053,10.122747061832383,-3.5584115715705424,-1.6439515201714157,1.0532731515722,29.750992602634767,-16.37307330962718,37.42579105169409,1,S01
760,0.13910937573323773,-0.0832659244990016,10.143780011540503,-4.175851057509535,-1.0438340873992777,1.0203359715683131,29.10131024556051,-16.38389573291912,37.42963908636458,1,S01
780,0.12229629988587282,-0.09218337034881942,10.144511113072413,-4.531058849181011,-0.259777346123261,0.27389233970348625,29.669766114492386,-16.132452930184392,38.131263146839444,1,S01
800,0.12991472563313747,-0.09004200534064738,10.134306060537762,-4.580867185109221,-0.384742669478064,-0.11445213976614643,29.088705491546623,-16.648093896277224,38.14316681266434,1,S01
820,0.12009197705030611,-0.11136620602076777,10.14763933818634,-4.447741903303631,-1.5054768616566472,0.2785639960360451,29.29962893551925,-15.741396083115468,38.42319843241278,1,S01
840,0.1252435595642905,-0.10269155673832682,10.154184291436607,-4.8555636040064325,-0.8684339864130626,0.4781411581756599,29.18092360379551,-16.683506614833856,38.26026316179301,1,S01
860,0.1079245817313054,-0.0871837186084814,10.130050313913602,-3.4087229292537713,-1.6219271891416893,0.48704007463588816,29.5213264191349,-16.50129785914443,38.25632715186954,1,S01
880,0.11651596579129492,-0.11410521160296307,10.133247054771275,-3.837666279249921,-1.6001125530937235,1.5770318110926882,29.800038953195898,-16.2017296153282,38.13181167172076,1,S01
900,0.09819622856686898,-0.12982533128368295,10.151511763798498,-3.825796341193149,-2.157000541253053,0.15867791430723716,29.370551107601667,-16.139925966638557,37.876762127266666,1,S01
920,0.10990901534845265,-0.13134485987278355,10.149130656080745,-4.226639586185134,-1.1554751818530462,0.6669600618909787,29.649366670415006,-16.789564105420958,37.79215922910051,1,S01
940,0.10529236396619869,-0.1174648171960812,10.149138140791301,-4.556415962669309,-1.5959743541462488,0.7733222477713577,28.94014826988534,-17.251914355760622,37.38516798611423,1,S01
960,0.08920491548103396,-0.1232928638386912,10.143250119067874,-3.9074080011052676,-0.5130573801780817,0.305636720451782,29.718874056827463,-16.07178465500332,37.90486580134629,1,S01
980,0.09522588893346375,-0.11735459254062167,10.15142380840754,-4.568483360336931,-1.965607265657015,-0.18962051389635337,29.158751030491427,-16.671420378111364,38.37854071506041,1,S01
1000,0.07662445633134818,-0.12961421606518453,10.163096154603018,-4.252818270392924,-0.37439356818113423,0.5974241989748978,29.683475368589985,-16.218996035726697,38.237643816149486,1,S01
1020,0.0717570765713251,-0.1277189000152999,10.139809351670946,-3.882030040178028,-1.3661046127959093,0.2938508000835869,29.59595357786583,-16.84637315253143,38.4231293934177,1,S01
1040,0.06615115604507531,-0.11958736549357543,10.168160819889446,-3.8318173307702486,-1.7103869759617738,1.2555722709407124,29.681243564265042,-16.552623105994815,37.96694240638881,1,S01
1060,0.0705354582563057,-0.11935811396155253,10.12694502370402,-3.992443645507733,-1.0370131253192176,0.6661511854790606,29.822119401423677,-16.727447042965565,38.02713659588079,1,S01
1080,0.07137028694761162,-0.1061103606815761,10.126751648688915,-3.748310158753464,-0.9277946762831432,1.4638104392001132,28.951714352918973,-16.03691708078525,37.948330838725965,1,S01
1100,0.05658752346215353,-0.11963854622221448,10.138568680655439,-4.06493846642735,-1.4717268765618312,0.03779913229696019,29.093936935887598,-16.238530897480672,37.17454604650403,1,S01
1120,0.06861964382001239,-0.09971569207642292,10.152810945311256,-4.280282545657643,-1.6194028879608833,0.9005919112968719,28.942491896800888,-17.320858701869632,37.869451941433375,1,S01
1140,0.045748355392334,-0.1012537197540257,10.137202231479357,-4.945362555419563,-1.4102490645619927,0.23613077533675542,29.427352427328042,-15.740536167862162,38.29084288059145,1,S01
1160,0.057616964445582924,-0.09476499882903816,10.141641401452517,-4.294368774947354,-1.8562186711340822,0.8255044563533193,29.520265612109657,-16.166824401205727,38.13003832216688,1,S01
1180,0.04454183400609632,-0.10902466420741691,10.144310875430838,-4.1770412802340005,-1.3120023592999004,1.1152247734076215,29.16101133405781,-16.671620814568993,38.278695898927225,1,S01
1200,0.049947018936434974,-0.10632553455783415,10.151133721944461,-4.2579024947197235,-1.5902217176304048,-0.8964452107302691,29.110621355193466,-17.10008446090912,37.52263907509522,1,S01
1220,0.04073377935816694,-0.09920530967645796,10.144854423013431,-4.874513432702191,-1.5194499309332599,1.0441788818860338,29.25671448967899,-16.263827762351855,37.561485763301626,1,S01
1240,0.046915456749942554,-0.09669448733394315,10.159985954704423,-4.357724478316931,-0.7894017565182281,0.03865689175362974,29.858768033112064,-16.74775347653248,38.11681470339394,1,S01
1260,0.03396615887156716,-0.09021180165309244,10.16727878516919,-5.3425145358494275,-0.8551985293223072,0.4925920269542887,29.11185086181619,-16.24966132397386,38.19164417986904,1,S01
1280,0.02170870663151571,-0.08646787243106403,10.126491126372214,-4.560026312875661,-1.5285517957636987,0.7426203483209337,29.68428056761213,-17.314324066764886,37.878763662588426,1,S01
1300,0.033575584936042915,-0.08237258018319457,10.141535298043971,-3.7496623515515597,-1.8231740269159706,0.27918937060671506,29.394636429274968,-16.404907035873872,38.025895799978386,1,S01
1320,0.018693314621414964,-0.08505712728723742,10.15333741898068,-4.714675618261783,-1.9143069629056402,0.3177445026087014,29.653143678005545,-15.776700526994246,38.233594002763866,1,S01
1340,0.013623727709776864,-0.0822528814636973,10.153651386597572,-4.650894375051263,-0.7037691859844801,0.7815165383352289,29.08884777349879,-17.63030229525163,37.28143864486359,1,S01
1360,0.024647246579612564,-0.06111635204304953,10.155318079255508,-4.955512347862301,-1.207723400809505,0.6462659094857972,29.514146660624025,-16.45173767729092,38.75447940266189,1,S01
1380,0.03408401967254229,-0.08393779510560159,10.145292617533709,-4.654730632692328,-1.7331154372977262,-0.2721670155808523,29.398879313363405,-16.63692609843968,38.47472304302562,1,S01
1400,0.027478791374753245,-0.069399202556321,10.144936917442921,-4.361477556305515,-1.7261038153050696,-0.684931860375854,29.609454803588015,-16.92377535889908,38.17534691192961,1,S01
1420,0.03239047000483837,-0.05579990809473841,10.15452318111604,-4.805215002179288,-2.1765613792856824,-1.1397557696454803,29.656490490901593,-16.922505930789594,37.866844263950526,1,S01
1440,0.02505013422534802,-0.05646438795551566,10.159260453155532,-4.985754794569395,-1.306506692032595,1.1678464744763866,29.04906026751447,-16.772975620549857,37.974244355410896,1,S01
1460,0.02505020452898206,-0.05481514765489729,10.135052663036882,-5.462343301560495,-1.1458884738241566,-0.013975594740589403,29.21189291756847,-16.688175424889614,37.59053533565873,1,S01
1480,0.04646597440175608,-0.03696567758552966,10.114754791967599,-4.331810222036992,-1.2055734310932504,0.48930872491355404,28.832374094315696,-16.62027954899869,38.127949999641814,1,S01
1500,0.019201066297875505,-0.0470294714892527,10.147299234421798,-4.774026072305008,-1.1123733765306092,0.9520337657933893,29.114213078652057,-16.63368852853613,37.878256396710704,1,S01
1520,0.01806637220862635,-0.033078118127645946,10.157609089957742,-5.231305907984616,-1.3911496251435935,-0.28751695371078323,29.97313075531108,-15.901388104584987,38.316991267456025,1,S01
1540,0.021248897243938372,-0.039401566067852514,10.136960864470675,-4.090898724417584,-1.6789713232414698,0.3496078982321109,30.16661821046857,-16.31830222076237,38.404582639317255,1,S01
1560,0.048018223275350644,-0.04122773297211328,10.138619399317465,-4.182124115690497,-1.4523994657368113,0.03557032595336551,29.866052231437163,-15.976931361760089,37.60568861611,1,S01
1580,0.031323110561173276,-0.03633105868217406,10.14174197431203,-4.725614669647322,-0.6014439525042348,-0.20641656366412253,29.205865873951126,-15.895563079758766,38.225220351388835,1,S01
1600,0.049363329137432306,-0.02515702464661901,10.141077561634518,-4.8212468023662876,-0.8436521535375245,0.10582377146995314,29.43011395658957,-16.703363653060286,37.97544313442775,1,S01
1620,0.029568948094470873,-0.03041074809757214,10.156824683642746,-4.211635417051616,-0.31260975575156036,0.8793036602525538,29.580028400858073,-15.742133596259748,37.68108332901072,1,S01
1640,0.03586327145791171,-0.028374912597896533,10.156032128256951,-5.429692818100985,-1.5680233649723128,0.4644751683032968,29.41385579032846,-16.08422859139857,38.353101126110104,1,S01
1660,0.023284357486940743,-0.01158409081578695,10.124849187397144,-3.470589285656912,-0.1740789610315081,0.04947628816349925,29.68945773572764,-16.882884554305214,38.28385518878984,1,S01
1680,0.037929229046328755,-0.014128624700969712,10.157882294815048,-4.241014922952127,-2.538364237064883,-0.011706659457381807,29.353438830011616,-16.390422182043636,37.68029118805231,1,S01
1700,0.05329363377763354,-0.012702738118741605,10.142374975708188,-4.459352457073316,-1.3610629195995456,0.515644532506287,29.473240849184677,-16.080714533294746,37.15430723508725,1,S01
1720,0.05984932386676264,-0.025478491955757146,10.149883524288065,-3.8987152699433327,-2.2003910405047984,0.22397717382515492,29.2992985238003,-16.950759268955835,37.97736140901972,1,S01
1740,0.0652577271658098,-0.03322013593195247,10.159358310183725,-4.347291848498012,-2.944496758413582,0.3522626368097486,28.776858304922232,-17.269344093741843,37.980885225350555,1,S01
1760,0.0685667433564181,-0.019672835849366833,10.151301906463353,-4.903481753051254,-0.980602048256353,-1.0373121821104143,29.987540118165082,-15.459011970692512,38.50175884079732,1,S01
1780,0.06582818025817613,-0.010996710600990826,10.143336795435143,-4.189422114278982,-0.8926780782755834,0.6523690213823876,29.44301242931755,-16.430167424942976,37.770305730773266,1,S01
1800,0.07789801358941428,-0.009187173669658544,10.12730894343038,-4.4462371929509406,-0.7330818287595111,0.16126056952563028,29.743726050162024,-16.259269455417027,37.68467616227392,1,S01
1820,0.08467407250166754,-0.019603570380606547,10.149887548413025,-4.893576190185294,-0.6106850552862575,0.5388754609939638,29.739333586277287,-16.246323072678905,37.82970172030007,1,S01
1840,0.0843647102197396,-0.02932597595279894,10.142098410255999,-4.175468640429888,-2.177575730687965,0.4689655729427613,29.546015112760802,-17.053911312579473,38.402009657519244,1,S01
1860,0.08269273712658341,-0.030814438939420388,10.152186222375661,-3.2617147510051714,-1.1868555265413459,-0.05991716767008337,29.49815708491834,-17.07598674393377,37.961348408408135,1,S01
1880,0.08487284664430544,-0.039671765964491464,10.136071356787939,-4.1978479456966165,-0.6541071047016742,0.7661825092818718,29.157816057816277,-17.03929883776515,38.02360252409018,1,S01
1900,0.09160161006056819,-0.04264805710251608,10.12737194667198,-3.7290588247174004,-1.0361218698366084,0.30398999579583785,28.933982981817884,-15.849285528550668,38.48102814873829,1,S01
1920,0.0863783651643439,-0.02990444965961061,10.150495496581891,-3.5079662155361016,-0.7249621282924786,0.5521631023076222,29.5959089837226,-16.62519289160649,37.568669763884685,1,S01
1940,0.11826803722308064,-0.030439762016810652,10.147125182437113,-3.7381048442307416,-0.9081597195415534,1.133433072540745,29.38555972665162,-16.176977725552156,37.81427636145267,1,S01
1960,0.11175810078893955,-0.051911490134496766,10.13017486316835,-3.9511700616885292,-0.7359624128207098,0.7455066462326585,29.25012210202696,-16.572602127986826,36.765477631806476,1,S01
1980,0.11061475868121878,-0.043420109157430824,10.148547186528122,-3.959837451657192,-1.4216268118329842,0.42819981347408553,29.16602385670749,-16.119849816601956,37.93636097744217,1,S01
2000,0.12992405592283554,-0.06218159977587466,10.141472505308574,-4.2048663815373315,-2.4007675228173095,0.8168722120430534,29.333287630183733,-17.114102458616497,38.21455340239124,1,S01
2020,0.12060714147554871,-0.05887304941810859,10.153937198587505,-4.831746990623057,-0.7355367141364072,0.6550687039335439,29.438419122384587,-16.174481215909463,37.299073168082806,1,S01
2040,0.1497501922823743,-0.05986962966542769,10.15836903530273,-2.667992761461962,-0.43131399225030487,0.7001129807350286,29.682029535195547,-17.24383363431309,37.947964631236395,1,S01
2060,0.12864970514527968,-0.07853900256877,10.146149062405396,-4.752858198060271,-1.1698077257208246,-0.1674924325812972,30.29450389266313,-17.238291239864026,37.745652508554386,1,S01
2080,0.13700933028505585,-0.0799208073541183,10.154545613613108,-3.801544826930138,-0.4957105287387147,0.8012384307738329,29.035713279068805,-16.325857944691563,38.078477094809195,1,S01
2100,0.1391058734540655,-0.07820269259927545,10.142043442873833,-2.6529830166415413,-1.439511978808233,0.43339236638639356,28.84378471580072,-17.419418921819393,38.02080184217628,1,S01
2120,0.15941781206057554,-0.09505743139355445,10.153233488925297,-3.945750142747375,-1.1260635765726357,0.46054050821767445,29.751002309035062,-16.58277481881023,37.704149438440574,1,S01
2140,0.1570631016950299,-0.07883481855275538,10.144565689543839,-3.5150689769146037,-0.4035075225352791,1.2656940357745239,29.470583547872305,-16.202635695806876,37.443359539223074,1,S01
2160,0.1533739945693228,-0.09933593895596203,10.132732784721135,-4.276893451879187,-0.24418230668803442,0.3499374819783211,30.11702618720442,-16.543676763225236,37.32153736307429,1,S01
2180,0.17498795194029396,-0.09191089635988434,10.152043037000244,-5.056494460109802,-1.1503583557845727,0.7674180767475605,29.18156319994331,-15.938379907310562,38.5573764374402,1,S01
2200,0.16031165612162873,-0.10885983909150887,10.136945692006815,-4.327726547256063,-0.49172417243426436,0.26901462280063615,29.53886083737358,-15.808665867018945,38.0302342568314,1,S01
2220,0.17600367212795046,-0.09474332233208183,10.134300731698326,-4.566019999719133,-1.6431223801452668,1.014527349002153,29.887117548424243,-16.09853572493889,38.14163351176087,1,S01
2240,0.14370911142468693,-0.10104105383965704,10.153950156004216,-3.6119283901074697,-0.8189510371491544,1.4959899438550361,29.1124502444366,-16.76123419960848,37.65029002875511,1,S01
2260,0.19256216329231857,-0.09191705386649648,10.134453568784538,-4.74936859503454,-1.2956128343626103,1.9769268150169208,29.63468349962942,-16.418411446825033,38.116185275189586,1,S01
2280,0.18053894075631616,-0.10648116827396034,10.136282601086734,-2.9651760382955104,-0.06335890611224282,-0.11883474630379465,29.457507340267657,-16.28420582397215,37.5873075028756,1,S01
2300,0.17549316509119106,-0.10534155654080038,10.151057697876013,-4.266433972817104,-1.5878763380158862,0.9504092767620753,29.294290921124016,-16.684144421548815,38.150701230310034,1,S01
2320,0.16336209765202936,-0.10857969954314176,10.164398383796838,-3.9742155793210108,-1.4021567121678076,0.9229228587955989,29.266106811881976,-15.747869933912463,37.19354214914534,1,S01
2340,0.16320534930599528,-0.09251456852107195,10.151380373304672,-4.297090631060311,-1.5161714655538647,1.1517762793047228,30.145832241395663,-17.033092346336616,37.64433437532072,1,S01
2360,0.17454012734514887,-0.12683961890923318,10.149958636978708,-3.3305559904481985,-1.2325648779543608,0.6540636833563943,28.941917901249056,-16.093452838416006,38.14736618221858,1,S01
2380,0.17309716084067983,-0.12757371043794802,10.137839505041729,-2.9607976809870564,-0.5856972334097226,1.624005037190614,28.98752449482576,-16.409921561820838,37.933438781706826,1,S01
2400,0.17894055560792413,-0.1057076598520705,10.14938546150933,-3.5285967606806365,-0.3419746438261866,0.44974602507070793,29.36460907717989,-16.549814560135978,38.81040713594389,1,S01
2420,0.17935605144757757,-0.11365178083064022,10.131374622089943,-4.015058763131114,-0.8804135755383469,1.201078322555861,28.655038262507027,-17.07602563916737,38.5369410991073,1,S01
2440,0.1827925036844979,-0.14380741901538235,10.144212192779014,-3.8053775465458637,-0.7810806632508231,-0.03882001309226679,29.03406532679443,-17.139248561099635,37.988428778476795,1,S01
2460,0.16109309530706972,-0.1255100681880603,10.148924265695493,-3.7529435429248372,-2.509108300597769,0.649264678737854,29.49793095308556,-15.933701082945793,38.129431242649844,1,S01
2480,0.17679037132607522,-0.12205529336962175,10.154985922666402,-5.0420832007782375,-1.1524265325572762,1.0531117212521142,29.255502715424058,-16.566117058916298,38.082237512778335,1,S01
2500,0.1786066068685288,-0.13107489629794153,10.137338293923015,-3.8482374552816223,-0.22519519949321465,1.4496071529870629,29.70887603799011,-16.51987908129612,37.637631057157876,1,S01
2520,0.17713689017639248,-0.12150522844098327,10.147190423837031,-4.378697413804842,0.24513693900843259,1.1005021645267972,29.461107994996567,-16.620503534844076,37.782476263752734,1,S01
2540,0.17072569853969383,-0.11309386193452636,10.136573487848706,-4.152118353612526,-1.2449967484331028,0.4959840500707937,29.840270145360016,-17.537341040040694,38.29938548152784,1,S01
2560,0.1886331495024754,-0.11462579673466336,10.132436936023574,-2.9545823300539906,-1.7876165532543915,0.8635859216912387,28.752381931080514,-17.0630670321746,37.25602871006708,1,S01
2580,0.17635014453882564,-0.10303177942033839,10.1599639894519,-3.4307685672008184,-0.1384220866484711,0.2907052954883784,29.261122602408417,-17.16970044586882,38.17611461330679,1,S01
2600,0.18563373359588106,-0.10216994298666479,10.139034220311208,-3.619402404698906,-1.2295190377305538,1.0644564240083407,28.71241316651344,-16.81091780225448,37.62260372954276,1,S01
2620,0.1606781451413118,-0.09655646855414764,10.13629592833623,-4.362414198911342,-1.5545843021994352,0.27069326925226395,29.735339864777917,-16.906588892726994,37.90666434805158,1,S01
2640,0.17685592593557473,-0.1086682449274912,10.156675946986859,-4.5691133229286995,-1.5760536792760456,-0.23176262878525056,29.253515499899805,-16.5003398313431,37.13308676121735,1,S01
2660,0.15609219684227094,-0.08070956370509479,10.129153820546469,-3.9311331384863393,-1.137979297107544,0.9978377621089118,29.76885484166824,-16.81861167804331,37.79733502686635,1,S01
2680,0.1566688060540598,-0.10404953706667774,10.147432612203966,-4.331819948368705,-0.6311738084374862,0.6176602613341037,29.862570307750506,-16.094335747228335,38.131511031300064,1,S01
2700,0.16891782851223278,-0.08241509751769696,10.158652615112569,-3.685865003442786,-0.9295485266142747,0.8736342490491289,29.231522662461813,-17.18202681970331,37.824355331105814,1,S01
2720,0.15986859819216667,-0.07678891326434917,10.163968803755322,-3.648152813349985,-0.5787671775366937,0.1319499062006585,29.693452829429102,-16.47538498527866,38.055311393721325,1,S01
2740,0.15701072418604187,-0.08220033523036792,10.13687278359054,-4.694516492671245,-1.0454648517526557,0.3155209608655679,29.18505241693143,-16.34654270737685,38.073684386443155,1,S01
2760,0.1385079546230592,-0.08349605704214708,10.152014416238305,-4.442032780064169,-0.8115989845804459,1.0015901563536758,29.841819044864145,-16.760823256731566,38.2162932626622,1,S01
2780,0.11988538588376052,-0.07740158118460572,10.146223577565944,-4.591236721128546,-1.3807054184245995,1.5044506489541702,29.638662377523243,-17.20934242361873,37.85448767549695,1,S01
2800,0.14279030480619778,-0.06612728090535111,10.15990967704116,-4.503470361499377,-1.7632818031686763,-0.06491328485854508,29.13594236028362,-16.53094150504584,38.2053989057379,1,S01
2820,0.1166996412668982,-0.04881908499981946,10.151128868270217,-3.679491073664072,-1.8231467554309289,0.294983979946537,29.03985720842949,-15.571381500090036,37.3515144051632,1,S01
2840,0.11856279982865019,-0.06453164461226804,10.147960197706146,-4.101849877779179,-1.7937584095067858,0.17091205258412695,28.74955886499959,-16.587655543167394,38.25047667619642,1,S01
2860,0.11365187021413073,-0.05771545525330717,10.152250138998197,-4.214610356647623,0.2953167547094442,-0.3804718858039241,29.348166689649005,-16.151340317757104,37.74493452005107,1,S01
2880,0.11940124933786195,-0.046911853813301506,10.13718957326809,-4.440041922701224,-0.7899330601567451,-0.6962539437140377,29.49063717942383,-16.43067931413463,38.15501469706454,1,S01
2900,0.08912518916251494,-0.042207309543174705,10.141294877675044,-3.857132015946674,-1.2257284678163687,0.8206414507829084,28.727661881126796,-16.19014306877642,38.10946006868687,1,S01
2920,0.0862853652831054,-0.038450862717110144,10.15532923063857,-4.061817641390411,-1.3110465256356727,-0.20229913626270746,28.74757504173468,-15.813390272907824,37.994317445295366,1,S01
2940,0.10723684137099068,-0.05527245620384275,10.142525343767916,-4.253194323971379,-1.3852599747249867,1.3582939008353008,29.451906358971325,-16.536307668872517,37.21579798492976,1,S01
2960,0.07580607764818006,-0.047997914149788726,10.151072792204783,-4.4532464288256595,-1.5201386860470043,1.40871153364994,28.98596486709796,-17.212779655499318,37.22013934334674,1,S01
2980,0.08310925974507555,-0.038668942355817096,10.139048411607098,-5.144111473210617,-0.8988722321851373,1.3083943511364118,28.758267701244097,-16.087627118090793,37.910760640966245,1,S01
3000,0.09101729594935178,-0.03090952266151241,10.152907461802666,-4.7455220676408185,-1.1918369860587867,0.08869269127042012,29.272577265037423,-15.940923110126315,37.7789099203687,1,S01
3020,0.08665718934893525,-0.04432978256460859,10.145781636728277,-3.205165316336804,-1.0255536552509297,0.29701180377746095,29.55198777683994,-17.104406200531734,38.00054029049003,1,S01
3040,0.08203026741031369,-0.03332146928564951,10.147387592521948,-4.50405601698199,-2.214254411257854,-0.8628673457361516,29.010333926055807,-16.034107263367446,38.53037956358133,1,S01
3060,0.06861356999652901,-0.01367932814574864,10.13518001863382,-4.501934114313885,-1.4140824050488818,-0.19408940399816688,29.150174868507918,-16.329459039826396,37.14399279644571,1,S01
3080,0.05006248809659155,-0.01895513673848078,10.136348572910928,-4.2696657757402665,-2.1227945144773344,-0.24704471460923771,29.342866457192642,-16.034299628363414,37.962854563273744,1,S01
3100,0.060527365817164336,-0.009047255927298346,10.13917671644868,-3.6359455847990994,-1.9057159679169855,-0.35506561360163025,28.75592303043074,-16.948551660393917,37.532523711142225,1,S01
3120,0.05977833813701367,-0.03808174451416999,10.147851466583509,-4.142597667635926,-1.1931666510674754,0.8308532548315697,29.257776854090494,-16.656277750613533,37.722828545290824,1,S01
3140,0.044289429259737,-0.01658263302337437,10.17172575137517,-4.451955288543763,-1.8938318915753196,0.994760662742926,29.256344835779423,-17.067074214902263,38.1544168108725,1,S01
3160,0.05492155815740518,-0.023769686494931837,10.145427963689684,-4.1755126625263115,-2.0076269032707317,0.49902036900736013,29.43054028207325,-16.502044883948017,37.51359729630845,1,S01
3180,0.051216680371401195,-0.02869141133034417,10.145570925685101,-4.654511831121964,-1.010319331033888,0.1360323117590535,29.275003428937232,-16.757756308166613,38.403358183121284,1,S01
3200,0.040042305554075855,-0.02504989307570011,10.144530020257493,-4.955227496927369,-1.3784978886472128,0.5470001702396411,28.414051879494583,-16.579716448978445,38.54887413645606,1,S01
3220,0.030142831025052497,-0.01743290214816156,10.152594057209757,-4.809881759868744,-1.37117513393523,-0.2543873353351619,29.43785473896548,-16.26640883872858,38.221588266558605,1,S01
3240,0.022629370668119028,-0.0315698073587596,10.13469295800137,-4.530296078262063,-1.2942729789853713,0.9718583569340236,29.54476619580388,-16.14137848266846,38.122955614566315,1,S01
3260,0.020537955005920608,-0.02723837731796873,10.14713574984741,-4.7675223824438175,-1.518712546543295,1.0458808603498055,29.33099226656022,-16.17416321757846,37.73278266366402,1,S01
3280,0.04048078208306376,-0.030429098328669614,10.140479713412653,-3.5339826021125162,-2.3135840595896564,0.22024602116641323,29.04412146664651,-16.064974352444693,37.56354087395383,1,S01
3300,0.02660051597569346,-0.045825881922274374,10.156531637372025,-4.152224794203303,-1.8162342790618682,0.8676991856049054,29.518067517484745,-16.629296014093505,37.03544672968709,1,S01
3320,0.04477460364717282,-0.030225684246837914,10.155629916575288,-4.645457487885932,-1.5100330160812354,0.8136942424338737,29.40278652494195,-16.491956779008824,37.93903680983908,1,S01
3340,0.04163418509057361,-0.034842287130968805,10.143172733581936,-5.261023234794596,-1.348132557439888,0.12077645203999837,28.956418952951687,-16.506255886231333,37.892673819766415,1,S01
3360,0.014656253141497627,-0.05430243158340588,10.156395783128938,-5.674204396321942,-1.587177886678255,0.2098237070959118,28.29250736570078,-15.839172987504957,38.45230230527282,1,S01
3380,0.0124308129856871,-0.04992262546661115,10.149008556913401,-5.013614509540287,-2.0968811819537976,0.20332296610055794,29.238818815364677,-16.221842984477476,38.07102953662601,1,S01
3400,0.012893682563725042,-0.05275101950585276,10.156817020085219,-4.659077156921139,-1.2414202365809088,0.04967761789205383,29.589287959368253,-16.254091970888442,37.57471957704173,1,S01
3420,0.028095943849997446,-0.05845247541202753,10.143936723187572,-4.197879854712076,-1.4189543543710013,-0.17133937572724334,27.98325510529624,-16.550338817646942,37.84067633264625,1,S01
3440,0.004714539826969982,-0.06701744974737783,10.139052921507163,-5.536357502118523,-1.7408092502915766,0.32376523670037183,28.820419711477154,-16.90573916687515,37.96632437176426,1,S01
3460,0.017263006315091686,-0.06716889753450539,10.142569746801223,-4.309485054594211,-2.1540238950855612,0.2738063966093759,29.39402487337609,-16.11591511984475,37.65215810796342,1,S01
3480,0.013843756825138248,-0.06176728452455809,10.12442074837463,-4.418296056636741,-1.2087697453166126,1.1668812596810323,29.531172283792483,-16.4934763141405,38.03608982600744,1,S01
3500,0.015153893349196881,-0.0782407636307396,10.140960178658158,-4.718192946499589,-1.2847086254853621,-0.5069211497858995,29.248613338207885,-16.748142416660016,38.375334942699745,1,S01
3520,0.011583851690241814,-0.06921696517203914,10.148989051887943,-4.137386708420108,-1.5429498045508752,0.0890996578840414,29.283088671641174,-17.414667794072145,37.66791804970884,1,S01
3540,0.02516640740317508,-0.08292295238691615,10.148260022451268,-4.137827293538484,-1.1365899978281337,0.13866018010940218,29.199543654892118,-16.73042382454122,37.88809441469964,1,S01
3560,0.033690818744735535,-0.09102078605521104,10.120736658498604,-4.613945111740813,-1.885179240390087,0.06354396092302006,29.72694240565641,-16.938111682509984,37.44918015016698,1,S01
3580,0.039788800205422796,-0.07792075328265814,10.148738626832031,-4.708631086335076,-2.101411720386716,0.19793241443348586,29.71383862335979,-16.939997388422977,37.58376497641091,1,S01
3600,0.03026221421247098,-0.10737115775721265,10.142676886550968,-4.766153948885366,-1.2110062223642324,0.1784030574875376,29.51887334945822,-16.493863005167476,38.098957826579515,1,S01
3620,0.043910827657331127,-0.09432830760801449,10.145581958559188,-3.874790370373185,-0.8004774372474837,1.2982678207522635,29.23095647997883,-16.467193526888636,38.2677439713477,1,S01
3640,0.05901065531868239,-0.1061773923661044,10.15052001600361,-4.38280047136042,-1.8389385025756448,-0.011137115789895069,29.174144471609335,-16.23366382120416,37.612575150776884,1,S01
3660,0.04620528166573504,-0.11285691744104029,10.133807463940839,-3.4630103499354457,-1.73101987252514,-0.8677241192085575,29.32705687111282,-16.24232737917701,37.64910775706857,1,S01
3680,0.03692994869900516,-0.11420403874080942,10.150430971990504,-4.205585038230421,-1.2319035005091419,0.30754756168298886,29.607594503542757,-16.084690701925545,37.74152162776393,1,S01
3700,0.036571992801429684,-0.11356124746053953,10.125499311803921,-4.168989248619566,-1.247870029859758,0.5066727129397135,29.52723465200062,-16.835411166917737,38.64363656900158,1,S01
3720,0.07363065861623282,-0.11382698616657885,10.160895881676296,-4.538191764606674,-1.476615869860058,0.904191199813582,29.48740090592405,-17.31279479957648,37.46968467620787,1,S01
3740,0.042945928933368016,-0.1120499005733751,10.147028588753956,-4.0198224438718935,-0.8259645294764146,0.9470159470895988,28.998314402291843,-16.281914083249905,37.99307451863279,1,S01
3760,0.08152499714704564,-0.11014132158180778,10.12701219447519,-3.4460263467279297,-2.0404434807721263,1.025749398915603,29.58748014919161,-16.014937222833087,38.309976358936325,1,S01
3780,0.07037959536974972,-0.09780074101348815,10.13627820613927,-4.755155695061535,-2.297928045114182,0.944003591262645,29.260790326204926,-16.227693193596842,37.61785983965057,1,S01
3800,0.07822097940519196,-0.1200280204058114,10.158524769286352,-3.7045545025137674,-0.3644746974220878,0.4293364787266366,29.243828529463844,-16.78637558609205,37.85541352459518,1,S01
3820,0.07814814122992625,-0.11103584370741504,10.13841725973597,-3.805855418294061,-2.4144023061372915,0.39571786576003926,29.785985173388667,-15.95136662620604,36.973902997749086,1,S01
3840,0.07859389049485115,-0.10536177922712113,10.126881949347018,-3.716001214499828,-1.209933647469723,0.5499249140818286,29.282615232084375,-16.592697412486736,37.9333557118397,1,S01
3860,0.07232295408667049,-0.10665242466526273,10.1505578985729,-3.4603362134545455,-0.552201502121461,0.1450462878438264,29.44797973116577,-15.887492508383446,38.376022283194956,1,S01
3880,0.07102903035818722,-0.11086025680298273,10.140453982340755,-4.713574610053472,-1.000787289531121,0.6184500921561166,29.225355619024853,-16.363433134480886,38.735784088833455,1,S01
3900,0.07420939126463674,-0.12656254383762097,10.137525726037783,-4.462291983901261,-0.22872371441784134,1.1044224712688648,29.228129453642094,-16.875309986448315,37.33474518553138,1,S01
3920,0.0891564963723803,-0.10529664060347674,10.123095157633543,-4.537703063585996,-1.076058057242268,1.151540521427508,29.484359544437897,-15.900284832145195,37.713512642267496,1,S01
3940,0.10165667195622853,-0.11836949808890793,10.146341853992821,-4.397719767203946,-2.214421290783868,0.4570681041920734,29.19338296080992,-15.967226387588648,38.27025118928515,1,S01
3960,0.10109331057276014,-0.099528171281666,10.142622090417097,-4.3758681540793605,-1.1728298658634888,-0.3904586252795912,29.119631528948542,-15.979463337985118,37.71091022492703,1,S01
3980,0.11572270027997725,-0.11697647033456551,10.145073265491856,-3.9219502347613595,-1.345993971089568,0.949935558131937,29.894345497653404,-17.469374720624636,37.86756643444283,1,S01
4000,0.13363598807360294,-0.11343934457494516,10.139890212526344,-3.3758597231379435,-0.14863038843504928,0.3016862042591847,28.528149397479492,-16.956686994366045,37.8480112903883,1,S01
4020,0.12557670436179713,-0.1059486674305666,10.162243797332662,-4.6758793197286295,-1.0792473874656434,0.2546882301693112,29.66958380095346,-17.086925079158135,37.65824351568747,1,S01
4040,0.13247807980201667,-0.09598197041047793,10.14992780721641,-4.999685417810925,-0.6227607510271886,0.7468430195697976,29.75463456994451,-16.63671937990686,37.907561034670806,1,S01
4060,0.15395922559543251,-0.09677040297251945,10.130447516027685,-3.119933917783097,-0.763710408032531,0.9259733709586189,29.17707014249629,-15.819207108631755,37.94143866740772,1,S01
4080,0.1292065584432359,-0.1094082568624495,10.1325675079296,-4.645993129648671,-1.4293057833368694,0.4411402172750595,28.58724166105492,-15.866611491457913,38.20695651406987,1,S01
4100,0.13927940666082295,-0.09181794240531772,10.134405190676732,-3.5960239131536564,-1.1636300490436837,0.8382221795294096,29.429319707524687,-16.204037479850218,38.36009869012458,1,S01
4120,0.142684981896387,-0.09129593661346039,10.116950982416965,-4.220315596143912,-0.8704806445694818,0.5981202209868471,29.405671581067416,-16.562837577376747,37.95867264761716,1,S01
4140,0.13500984695577797,-0.08031243293048163,10.14156582361746,-4.220798097147595,-0.3883192211837774,0.2303974109441999,28.86235600817588,-16.393976177467877,37.95424669983848,1,S01
4160,0.17330039197081115,-0.07084140624239194,10.140429629564261,-3.761570345382933,-1.0959964664443018,1.8107962364475085,29.984464901703138,-16.243950195663857,37.885732162525244,1,S01
4180,0.12576320914360312,-0.09134141447706662,10.149191067798736,-3.9336103903764834,-0.6933881326918134,0.4126469393581571,29.279324551017915,-16.5437207339782,37.97631010730398,1,S01
4200,0.15433563476532283,-0.07502652425706427,10.142305708131643,-4.097992307286256,-1.08917490271304,0.8678174085981529,29.350621259928744,-16.7003149069416,37.57074372942077,1,S01
4220,0.1805725299328374,-0.07556030803791801,10.153916985795354,-3.470536140082891,-1.0241613386054795,0.32866412814669144,29.702924157289313,-15.786658692158833,37.98772979550694,1,S01
4240,0.16959259598723708,-0.07931905215136953,10.155309724155547,-4.239438962484717,-0.8923308393382918,0.2701618843055253,29.292016040476696,-16.17583019527776,38.2599487467469,1,S01
4260,0.1782927367908897,-0.06959894471921203,10.136435738226211,-3.4940475972894056,-1.6654637550161255,0.2990427334735446,28.272995459046438,-16.941266731407755,37.661430633997746,1,S01
4280,0.17234850254801976,-0.052964163278121985,10.138457320703859,-4.068137435249815,-1.4941332999885681,-0.23926022497208776,28.850369041617146,-16.49971410917878,37.495038840838326,1,S01
4300,0.1787262047937424,-0.058412990229240916,10.153611198260547,-3.9919738449807074,-0.9007821313893799,0.9747835315624948,29.14489879699847,-16.771769220532327,37.67008012868273,1,S01
4320,0.18716244314086417,-0.054378273129350695,10.158601435623856,-4.407953741250239,-0.18002362139424632,0.11276467551719493,29.157812558299764,-17.443799660007723,37.74183297832103,1,S01
4340,0.17675738651960782,-0.05272420969427527,10.145004850262241,-3.524579101844996,-0.7686694432249803,1.1609767966473088,30.27699032735007,-15.963699550484614,37.79447165764896,1,S01
4360,0.17429683145920757,-0.047323963001348925,10.148904233561401,-2.7947290284488204,-0.4315089114680264,1.1592157338347167,29.04422557225122,-16.309091784581753,38.776944535998574,1,S01
4380,0.17542882293071832,-0.03445450688959702,10.14432305135059,-4.182705896553107,-0.15591394636422296,0.9179634310742084,28.650932280761765,-16.451845081623393,37.4486409628075,1,S01
4400,0.17504430708943283,-0.049375646566351676,10.155795672622471,-4.440772537972793,-1.1123509923018782,1.3680578727622557,29.42099440856658,-16.958849648244627,37.49540799319025,1,S01
4420,0.1949434924575851,-0.004351029827556183,10.135533365143877,-3.6180617761304017,-1.1864939948536486,0.6128703944792364,29.587353629785433,-16.41611097486293,37.35813264004375,1,S01
4440,0.1846923020699045,-0.015315484069276283,10.146243650640624,-4.027849723122068,-1.3641427117079084,0.8317845368928845,29.48885876611335,-16.135892412123617,38.1743433895374,1,S01
4460,0.16945446396884484,-0.012812718180366334,10.150926605701493,-3.6075071901881843,-1.530751318131276,0.8230859523226028,30.036752077141745,-16.214848875273745,37.735933443827356,1,S01
4480,0.19155777227034831,-0.0229550086417939,10.118483375978366,-3.2707167230371326,-0.9101352533846518,1.3187550828775767,29.651035914224742,-16.3496536080968,37.729256869471,1,S01
4500,0.19020061192392457,-0.028824509776027032,10.150728738463403,-3.413606861648953,-1.2381561802824566,-0.05945617155727401,29.169153961917058,-16.424821991278577,37.57864480199502,1,S01
4520,0.1670407099479515,-0.011812510969938808,10.141176731395221,-4.321386532971125,-1.5357431968021593,1.7676985762691921,29.83531917122263,-16.34596611316173,37.00819749182218,1,S01
4540,0.18051842126655027,-0.008809951458792507,10.1490220349718,-3.941485089733935,-1.6452161920098218,-0.13648534875826102,29.339491680051196,-16.221749587916122,37.288638408747374,1,S01
4560,0.19046094998354363,-0.01882049176062113,10.159737932221548,-3.8678897117569977,-0.793293214433898,0.9148071527222416,29.446465379185632,-16.554937764902224,37.85965565698021,1,S01
4580,0.17107834536684835,-0.0167576686052563,10.136753804698134,-3.7543390123377636,-0.7641044615112836,1.6214684458332282,28.607544987544554,-17.173580146809933,37.563718369134875,1,S01
4600,0.18094502418481562,-0.001331950356909306,10.13141279725053,-4.180852959417773,-0.6297227439691284,0.8624814143359624,28.93221106519987,-17.0710529001178,38.69125264650884,1,S01
4620,0.16011742258485795,-0.013145138296217981,10.13942171513083,-4.641390518321399,-0.9595660263539134,1.0113119959465142,29.391885927879827,-15.66601342218594,38.160644237792845,1,S01
4640,0.15809707504910286,-0.017864057913866478,10.160555358426436,-3.1785615606305258,-1.7638890869510613,-0.12558330792351868,28.76043068411412,-15.466571528796411,37.10212598790071,1,S01
4660,0.15895866476775197,-0.02460454049610753,10.141273224254455,-3.7084839341917077,-1.4350021545889557,0.9445112180455302,29.694881456731906,-16.98744007760004,37.51490788601988,1,S01
4680,0.1609104432729396,-0.028653375559195553,10.148950518274187,-3.814865288539302,-1.040763881975389,0.8284110391920724,28.479903098467602,-16.972940128714953,38.39056619364064,1,S01
4700,0.1542713255346597,-0.03809131342840388,10.15818645163396,-3.945530146071432,-0.6472345369398295,0.9854734751425367,29.37797975763991,-17.13118987885312,38.45695522929621,1,S01
4720,0.13009927609658775,-0.029570780135456783,10.137535091690532,-4.690386159180594,-1.6464830633326115,1.0256934008129241,29.595239698074344,-15.982780635984566,37.56176479031998,1,S01
4740,0.12721354127669543,-0.045346679204985516,10.137176167045794,-4.475690847999856,-0.9593775206158323,1.606027198348877,29.412107183806214,-16.77926147256165,37.74119347680294,1,S01
4760,0.15560033645206042,-0.040214562433359455,10.154146867898879,-3.6152672922870486,-1.6898682884349492,0.26226108399866743,29.607725828183376,-15.954297194027442,37.87612760714186,1,S01
4780,0.13557234599222387,-0.030103870389493054,10.155986611923286,-4.190171980068306,-0.7059954460728166,0.6633794101384561,29.087295780280332,-17.088556137827993,38.17221718579124,1,S01
4800,0.13201855271351826,-0.049494564856869906,10.132959787280214,-3.591925387334571,-1.1768670843538174,0.870371363975645,29.179456702356113,-16.394218943627617,37.63884142806334,1,S01
4820,0.11295074996791134,-0.04869287016592387,10.159743619246596,-4.757866385192107,-1.4785856800536494,-0.1589006995757164,28.834602003548543,-17.027741408946532,38.38674298178321,1,S01
4840,0.12026020324975005,-0.03934837538617943,10.14400524421251,-4.7648168591499385,-0.5278284681752001,0.6871380964488281,29.1537285512617,-16.842173876305964,37.370769672156285,1,S01
4860,0.12476555052071883,-0.06197264129421283,10.146930813987415,-3.5327016527742527,-0.9579325321212798,0.9947502947663185,28.682919179458235,-16.21161098413913,37.71157031209373,1,S01
4880,0.10142482283285512,-0.05985688302065828,10.156337737091196,-3.3585660386278557,-0.7381443566487902,0.8633500579838954,30.386310362656737,-16.638072480717543,37.79169591416836,1,S01
4900,0.12777188638698653,-0.05794866033911476,10.119652202039758,-3.5962249508152833,-0.7870213709153939,1.6802443150472302,29.586042254568,-17.101644997850972,37.720430461580335,1,S01
4920,0.1045342123009758,-0.0792901108570127,10.138708792186987,-5.102358986707664,-1.0903666053837386,1.0950333913841517,29.878151757659026,-16.64881711713452,37.69606461985757,1,S01
4940,0.0979890549623057,-0.07231763393300582,10.135177996430379,-4.959214432627668,-0.9870726825807654,0.8444578239385954,29.273042827611278,-16.878779359074564,37.560682549338225,1,S01
4960,0.10249533476755208,-0.08579529626238028,10.146408748620084,-3.265039680031539,-2.138383980279995,1.3780365295096126,29.097274761477628,-16.39351898146209,37.59045103722535,1,S01
4980,0.08555593043979617,-0.07767371454195011,10.155254957460444,-3.3329827871179276,-1.7352469708243552,0.30203636764571157,29.418010038084315,-16.208716359147797,36.90240378563897,1,S01
5000,0.06495362057851364,-0.07322653395894801,10.158566911681264,-4.392980880237822,-1.5960557821643133,0.39142198484235374,28.74373568815681,-15.995162341931508,38.047519016989064,1,S01
5020,0.06746546071354358,-0.07102662319366641,10.145469357308624,-4.255132165939605,-1.4738500093037,1.5176038449319114,29.208599060895008,-16.41956031938993,38.13560777032682,1,S01
5040,0.0611374520636118,-0.08766836643803738,10.151631669573826,-4.3838989596289295,-0.981938000167629,0.6251525455012009,29.347406486829218,-16.46466494613798,38.23882234318957,1,S01
5060,0.05916712119372834,-0.08354494215420182,10.153013955368312,-3.707602320754082,-0.9666062026303274,0.02579007345787121,30.03707886049028,-16.925841028957013,37.90881488003566,1,S01
5080,0.05448238401651313,-0.07971602811135763,10.15431945238673,-3.7971765027785676,-0.9340136111614051,-0.05356430894602204,29.441561014924375,-16.229064146458843,37.949844833270674,1,S01
5100,0.05398525200377025,-0.09913925580317455,10.145367298261629,-4.4655991488105125,-1.6111492958663924,-0.15993475062061668,29.59193380465699,-16.99929534869237,38.566303073036,1,S01
5120,0.05710002921164605,-0.1140571979144476,10.145250591039536,-3.9212323110434975,-1.0584737836780436,0.9998662152482113,29.37177557863057,-16.1676185356574,37.73850848711868,1,S01
5140,0.03089061458630213,-0.08910818306892479,10.155342758829534,-3.9169971917869204,-1.7740250797121888,0.18075786739844368,29.38920321694014,-16.952011650655077,37.10486462415653,1,S01
5160,0.06060366122421055,-0.09924259473233485,10.153893818736067,-4.3038354403182035,-1.0872190941432676,0.32815383993378966,29.199870950717767,-16.40572658027833,38.71105964522218,1,S01
5180,0.040883511603948854,-0.11202824578439945,10.150163271156615,-4.756721995696173,-1.5499183247517627,0.0727531367698303,28.890787997212172,-16.073379168795192,37.35263183697263,1,S01
5200,0.040981974633822894,-0.11953259836144126,10.146404056920934,-4.2457016186002186,-1.6169442038861335,-0.026338272360222015,29.147183085138977,-16.499903946631534,37.561357710494285,1,S01
5220,0.03956975990570984,-0.13423875798612528,10.152198389754007,-4.74621203200243,-1.7000540767822172,1.285165482660307,29.562171622964513,-16.49169751306445,38.2445690579825,1,S01
5240,0.007390707315361372,-0.12460885873576719,10.169726560299567,-4.663747002149464,-1.546220800245151,-0.027049762292732038,29.222659617279174,-16.48273600035012,38.146671089279366,1,S01
5260,0.04669994658064114,-0.13269515047569774,10.141024858639874,-4.050117760826239,-1.4570828290408226,0.12045492936245294,28.77036970698847,-16.131313492898485,37.81182330194762,1,S01
5280,0.039108646138094866,-0.12085506760274264,10.169574494632998,-4.597876794252096,-0.8950112330545446,0.2542034432521636,29.282050536896698,-16.66158451348887,37.484258704860366,1,S01
5300,0.0395884290597486,-0.12001048030968467,10.145369433814658,-4.228980163116644,-0.48396288488538275,0.3601645605535646,29.054943488600728,-16.19024341088525,38.230750087670536,1,S01
5320,0.026507205383897656,-0.113381309795928,10.16688934295126,-4.291047645754923,-1.8627577385553977,0.9169744267999462,29.52007155601227,-16.764115445143993,37.97053137007845,1,S01
5340,0.022993138850450665,-0.1320450456421278,10.13327930605812,-5.377459048668536,-1.5860258244269954,0.12848585179937555,29.467094788362406,-16.207874315876637,38.22703357813399,1,S01
5360,0.038294080457564716,-0.1367976565743919,10.139749644184862,-4.2041849201760435,-1.737439518471139,-0.15204957697737254,29.661874363092313,-16.61797825946504,38.245153971595954,1,S01
5380,0.01451788552003662,-0.10324783513975394,10.148457394084035,-4.3215136647655195,-1.9364813610464444,0.49169856938610323,29.810255578440785,-17.182092703947383,38.2166396702435,1,S01
5400,0.021788495124427487,-0.08962151686633112,10.139734241695992,-4.703751902715618,-0.98704259460632,-0.04734226490018145,29.674112893360693,-15.861119369280443,37.75401761181131,1,S01
5420,0.017415716596237363,-0.10784195509701927,10.163630874786135,-4.0887787820971155,-2.2923066460769386,-0.15223989275442718,29.418908371675418,-16.725740093569712,37.81148103929284,1,S01
5440,0.019599362667084924,-0.12309385750280469,10.130084260245763,-4.642198151181209,-1.6457188233943159,0.611669511968477,29.158677155250103,-16.114135782698888,37.69150491578428,1,S01
5460,0.02768432800833852,-0.10210770355178482,10.143865387047518,-3.5850589004993845,-2.6800156718258332,-0.2547145861857596,29.702740483511356,-16.359676126989477,38.2488045252877,1,S01
5480,0.027439112775443114,-0.10956703363270832,10.141710638500234,-4.615143389762295,-2.3938716691943176,0.42994167646597314,28.92223027700651,-16.532665695951593,38.47296469306133,1,S01
5500,0.024400565438761082,-0.09281344260064289,10.135813167837263,-4.875309283424975,-1.3285898420154678,0.03265549301635118,29.97338061580128,-16.934179765076237,37.7776572283057,1,S01
5520,0.03355849117313918,-0.08859791213732814,10.14527206117513,-4.195587853091356,-0.7446243160471036,0.5524063824509615,28.876907867155282,-15.79436816088668,38.19437178504137,1,S01
5540,0.023995074675885977,-0.09317465201233693,10.149661692625367,-4.0852674865371,-1.5127748797733633,0.36666967407303785,29.125943148667123,-16.59397102273296,37.85021540826077,1,S01
5560,0.012958858904527554,-0.08756513929304788,10.147438162982782,-4.937803733039459,-1.8583462012364418,0.49346898696299746,29.923162008939087,-16.409995111685173,37.68900522568068,1,S01
5580,0.038478863459974484,-0.09059457924726493,10.13774596564632,-4.19764565390805,-1.796512275383726,0.11509927750554821,29.660742325448307,-16.84103424092005,38.00031072192096,1,S01
5600,0.032865449432466984,-0.07359681794031543,10.132395092908968,-3.874486666516221,-1.009051845535494,0.1610140614553084,29.246024040500107,-16.65277823571718,37.208663141186676,1,S01
5620,0.024471800105785674,-0.08006770355253162,10.146557373903056,-4.459894800853998,-1.8145440901733196,0.22178713639192804,29.976927197006063,-16.78822187634139,37.4807264417288,1,S01
5640,0.04171765157932112,-0.05417003407081068,10.15184976360555,-4.461697777714168,-1.870397876886528,0.3576355645202462,29.256770940115846,-16.273818314266393,37.712274881085555,1,S01
5660,0.04563452318898317,-0.07503664262073872,10.15001173949266,-4.026330273880668,-0.7576252200353925,-0.5106587784294424,28.904971677603843,-16.468841370992976,37.86950815107342,1,S01
5680,0.05348375644551037,-0.07914001939927937,10.176377418009274,-5.108602761989883,-1.4185926166768974,1.3692259110971319,29.102350123488442,-16.513840961972612,37.92696247853269,1,S01
5700,0.05744948346499509,-0.05194989430107789,10.165373257952396,-5.250034998057867,-1.8143248090393138,0.6434824565975983,29.507153981910935,-16.01451119781374,37.826851581189345,1,S01
5720,0.060221136670488735,-0.04382291027450761,10.14079352896031,-4.902223129289293,-0.9985297338830776,0.9297322362208548,29.235841011943066,-15.624712910862767,38.955451645899075,1,S01
5740,0.07985284773836099,-0.05357681051048778,10.146436146000157,-4.746399769048623,-1.6113113685787552,0.8656556735612155,29.262579014740147,-16.39257380986195,37.50315337764026,1,S01
5760,0.06318134724577573,-0.05170872511413259,10.14355842163456,-3.4319247803662445,-1.0292371280634125,-0.06311839508084016,30.04251766253955,-16.61897069202005,38.30767186527302,1,S01
5780,0.06005006539233805,-0.026461188653028246,10.121603398669752,-4.462000248601057,-1.1137810117601985,0.531921782410338,28.876491573826076,-16.694129195674304,37.56463287041636,1,S01
5800,0.06656531348368509,-0.05022170127209362,10.150736716067819,-3.5248008365906265,-1.0904642982580726,0.35208919284340445,29.538710374371917,-16.55646583524006,37.79364087591274,1,S01
5820,0.06838985720675617,-0.04200301110943643,10.15073596477663,-4.1128499784461185,-1.4407032509104964,0.8329418462441494,29.087777919114753,-16.777398603790992,37.77657153269977,1,S01
5840,0.0765034786775858,-0.04863687367200081,10.148942618151562,-3.7258861387452757,-0.986414613633323,0.9942304151512866,29.063395377881886,-16.200326927628954,38.26515200485899,1,S01
5860,0.07897843428542199,-0.04659430781088653,10.14526231535747,-3.7459177849150356,-1.2332893761590917,0.7845389908024543,28.966340034694614,-16.99778723705822,38.001972532098534,1,S01
5880,0.06641854586972501,-0.039532493302454896,10.163037544636305,-4.1607460553573326,-0.5518965649804715,0.04069858207476662,28.93580426110268,-16.465664992330453,38.45278804647769,1,S01
5900,0.10351734590646303,-0.017908683130395002,10.132395379831982,-4.1901592127031595,-1.3372143431094536,0.17112613481799988,29.51082832017229,-16.370239355966454,38.48304380773069,1,S01
5920,0.11545669868477121,-0.02295977832634994,10.143726757461831,-4.572258519167859,-1.3728440042630536,0.7273198423813789,28.833955845536753,-16.691860447689145,38.49768067561593,1,S01
5940,0.10675964366732804,-0.014416331294243419,10.147572332438548,-4.313531061245026,-1.3311841148360302,-0.24919331898818586,29.363814558495505,-16.349074059617436,37.7274915629388,1,S01
5960,0.10461249895020748,-0.0022308783936653837,10.149562552483182,-3.8303030214442226,-1.4010511275871882,1.3435737164864143,29.074974927405737,-16.44332406271279,37.70233575928661,1,S01
5980,0.10328721892781205,-0.030889600357343137,10.143372888192411,-4.906031849557023,-1.4011132490096698,-0.04799720669808727,29.098833242508615,-16.78095812435199,38.22347593436195,1,S01
6000,0.12829268671214955,-0.015099740845484114,10.155975839273605,-4.171143594991915,-0.7407983053817928,1.465399234713653,29.64488361114493,-16.693928333237864,37.51570536030456,1,S01
6020,0.10294816346023737,-0.018406946706210986,10.149445326670635,-4.086130719792595,-0.48665820907333146,0.7350825144701643,29.555016114194164,-16.20415186765788,37.67022557202892,1,S01
6040,0.12939326417584762,-0.027140296557525076,10.13533552516511,-3.8923166954162842,-1.5029068878664968,0.2884756150287384,29.167332553595433,-16.524547066895114,37.86870669506485,1,S01
6060,0.13721051238879547,-0.018469678730297014,10.153531870374323,-3.970084717929608,-1.718216233322307,0.5900432068536745,29.405898258566232,-16.238155833515027,38.066422246946615,1,S01
6080,0.13498850388940545,-0.015317553918873288,10.14909574761085,-4.77824945260605,-0.42713491313851204,-0.496387680037374,29.593513022475616,-16.08174972448559,37.98630593887312,1,S01
6100,0.137443652728017,-0.004565990904432479,10.151362637762311,-4.410150992921745,-1.9686922141249086,0.9871112933555837,29.20236902563251,-16.38948382692257,37.956485700632896,1,S01
6120,0.14455370768695217,-0.032435718842642375,10.151565253980918,-4.26185136782014,-0.5929055294032568,0.2985135595332775,29.531391501363494,-16.93854225278138,36.917637925986305,1,S01
6140,0.1426741457288722,-0.02471388108127355,10.145610863046594,-4.185755798643242,-1.382071232602798,0.5728177319660296,29.751153711358285,-15.32271506090257,37.73564499908792,1,S01
6160,0.14485148818338328,-0.021301268695362703,10.133017788403466,-3.7349506488505986,-0.882994462488546,-0.15610712419923256,29.085604592409172,-16.33897122275163,38.09897514624455,1,S01
6180,0.1663950323612321,-0.037783262029842744,10.158598991115728,-4.018144231710554,-1.6781901692098602,-0.01810999208034214,29.378801517828904,-16.33743122977159,38.01172426610225,1,S01
6200,0.1794884039489943,-0.048996211890187685,10.14127876925253,-3.9682771126421295,-1.0371436521279191,1.6454843001353128,29.124501110891718,-16.704043659326477,37.54269733934716,1,S01
6220,0.16668669575222778,-0.025201680472177627,10.155220437439139,-5.088377929837552,-1.4591787241275345,0.8087104046701561,29.169589175081345,-16.186587743518395,38.09510520668028,1,S01
6240,0.16039312980800535,-0.040218857239383246,10.148343467453934,-3.9591273795261595,-0.6294819793724966,1.097638501194059,29.614433524908776,-16.525651923346366,37.83280057234147,1,S01
6260,0.1743401341093122,-0.05251964381700525,10.148637785204784,-4.448147900359716,-0.4231037488936049,1.3358587000676585,29.49969673689362,-16.24536405885857,37.609323413763704,1,S01
6280,0.16817994455855884,-0.0458099050874637,10.148611630456445,-3.822940677240489,-0.5791513263868953,0.9746801030698242,29.571206314374034,-16.811113895311628,37.703031676923835,1,S01
6300,0.16915954822081847,-0.07000491936957026,10.134349844390512,-4.106001268376149,-0.632863612738739,1.251867346720375,29.285043967949676,-16.479314047724955,37.705500389403845,1,S01
6320,0.18183260041755214,-0.04352208702096791,10.130232316724989,-4.163660879991088,-1.2643056841918225,0.24420443548343562,28.575510200451998,-16.234340885104423,38.30752778433857,1,S01
6340,0.18175082645781213,-0.07958161816501677,10.160604832418015,-3.5563350888322884,-0.8072673823171131,1.0516705912821736,29.53839247764356,-16.537566258792104,38.212883674511346,1,S01
6360,0.17062918269365898,-0.0541137489572446,10.125796624812043,-3.4277492309927906,-1.407896459949872,0.15333556198539378,29.17969954099386,-16.815972545128442,38.140364907080404,1,S01
6380,0.16761735660045307,-0.07656299734693961,10.144764851892003,-3.893219233216328,-0.8670946946224501,0.6441604282245539,29.453250249874817,-16.19157717093294,38.393860616564105,1,S01
6400,0.1539855234159337,-0.07269857578545338,10.15208663648286,-4.220636773557617,-1.3726052176974601,0.8154546486958377,29.561018543378914,-17.294471383389165,37.376623016013944,1,S01
6420,0.14911409583882818,-0.0840892304929982,10.137332538501886,-4.215246735096843,-0.6791122387409638,0.3191117882293287,29.647447937546897,-16.690519101513072,38.09569735282375,1,S01
6440,0.1874735310083226,-0.10059245669280474,10.15593716631091,-4.3958271227936105,-0.9499030515420211,0.855456184603655,29.544722064055104,-16.74083337012315,37.57962178624525,1,S01
6460,0.1688898219927826,-0.10466333675448121,10.146556755198093,-3.8296762887500453,-1.092435026412044,0.6207725241629978,29.71555442075561,-15.841641768025628,38.40622271212174,1,S01
6480,0.17360360791480872,-0.09892428593521077,10.152822444035806,-4.3548026864479565,-0.9747992461176755,0.3829875309662268,29.145857655486388,-16.23437479372152,37.97088300056165,1,S01
6500,0.17336678858033244,-0.10728665880488181,10.137676611564238,-3.2750000107663615,-0.1549746326306265,1.5249623002399852,29.79300874253641,-16.683209707748485,37.33401254281965,1,S01
6520,0.17685122190108715,-0.08814683361944808,10.129229667930426,-4.13164101289572,-0.6763511126896125,1.215212560862518,29.999304285682015,-16.385308083709567,38.67834030080605,1,S01
6540,0.16504858923746207,-0.11403293426493091,10.147867255544757,-3.669319329462922,-0.8154906274517403,0.27725236296679767,28.32802760671928,-16.583639219831312,38.64522235181001,1,S01
6560,0.1732921366368999,-0.12011867189084113,10.14923324668046,-4.537586458185482,-0.8339340355825022,1.7557457255083304,28.7471433891256,-16.38768466134383,37.86014903535676,1,S01
6580,0.15941219050697927,-0.11467473879508915,10.144418986565185,-3.328774358013732,-1.9040382346327964,1.0457377558497583,29.42365265339506,-16.565791823604588,37.20374766965809,1,S01
6600,0.15258647910986284,-0.12047048742763712,10.139140085413736,-4.07548132801288,-1.7690036316168065,0.9830930306153816,29.535648495989566,-16.388735450112293,37.36828516713625,1,S01
6620,0.1689649658083638,-0.10652035940612643,10.13358702985221,-3.7204225843237992,-0.16123416680511293,0.7630938979312138,29.560922901443934,-16.02881907509613,37.672604609455085,1,S01
6640,0.16479322552541,-0.1185395818068393,10.136220672593284,-4.114037458428257,-1.258235444104657,1.0100984220991438,29.135683177581814,-16.28427695823732,37.44520102200929,1,S01
6660,0.14702241770361316,-0.12250309535272572,10.129035119570393,-4.185963254333892,-0.5715515336839642,1.6887176440844578,29.823844255842868,-16.199487001136852,37.621297794170765,1,S01
6680,0.15411854414297738,-0.1311515273033305,10.138989978196424,-4.481443140680934,-1.290295661106544,0.18978777078006226,29.045650014794752,-15.894892191862924,38.28901232031297,1,S01
6700,0.16308052409146692,-0.1401105604286927,10.144811126635584,-3.5687610867895927,-1.261932316333318,0.7270305160686423,29.812264714308924,-17.13789152844975,37.96048009085705,1,S01
6720,0.1570461160666484,-0.13744949127739253,10.133364373546204,-4.1543041513084376,-0.4994168687095466,1.6254731806196285,29.248676030867156,-16.537396413303334,37.55881166701453,1,S01
6740,0.1313438698421715,-0.12353353379526484,10.152868126626089,-3.803726064766137,-1.9542382367799767,0.8272554495429352,29.47190035013331,-16.560833797711272,37.436372017947946,1,S01
6760,0.1408697703298599,-0.1302990206037625,10.162625407916432,-4.179216102759809,-0.793131325610461,0.6417984863723057,29.63720454018544,-15.98035534127697,37.292398387451605,1,S01
6780,0.13240450364306566,-0.12241997612995267,10.127112925715753,-3.5503629459711656,-1.0480703433046088,1.1699027453424233,29.26320386944237,-17.376600675613496,38.63856336910189,1,S01
6800,0.12973806884469857,-0.11880739435846964,10.142978567351529,-4.6999578519877945,-1.7044839387335755,0.715087172398183,29.308747237660285,-16.121647100585193,37.91395252848559,1,S01
6820,0.08887537268469141,-0.12730151402482143,10.144118949959596,-3.519323500159211,-1.4628174734703467,0.19292900999779317,29.805905718426896,-16.53163774990562,37.738056185714086,1,S01
6840,0.12454876806748164,-0.1097344430920117,10.146825407595685,-3.3236570954919147,-0.3891930309288373,0.27481425765215384,29.456607162106106,-16.52169903866062,37.48695694139206,1,S01
6860,0.12352629377626298,-0.09889030552290523,10.141325371594053,-5.109284920746573,-0.9197595436927168,1.2276018640370536,29.1978735209317,-15.885272212538151,38.21613001888591,1,S01
6880,0.11433536666367358,-0.11780729791131542,10.150121502184128,-3.971857468495925,-1.1336021288348388,0.3816265880509683,28.99743704731532,-16.472514048954437,37.78563176417639,1,S01
6900,0.1048471350783167,-0.11115205139932834,10.142555613400951,-3.950848156618723,-1.6876672523859393,0.19537412509772356,29.45209087018889,-16.486992993167362,37.29394284378069,1,S01
6920,0.10515490939100061,-0.12243607275232825,10.179135636198195,-4.6395908415276725,-1.8523246566343254,0.276116615323852,29.64926583191837,-16.151076648783665,37.69973327862752,1,S01
6940,0.07895883912130418,-0.092359240806856,10.123068147904279,-4.141265828065407,-1.2706605918190659,0.361402060952278,30.048400658944384,-17.20690796977479,37.56186635919133,1,S01
6960,0.07259730870869682,-0.09620516532405701,10.151437580556795,-4.316923118225713,-1.0077698009248242,0.5765354653567102,29.116902152964517,-16.707483885989113,38.17406851048979,1,S01
6980,0.07677533450223174,-0.07738625079038015,10.14719651747374,-4.483371248114859,-1.5478066200323972,0.15397003539823784,29.316798939809374,-16.161508568728998,37.967436699634376,1,S01
7000,0.07143132086918463,-0.09418282766561721,10.145539294769872,-4.8014769911739315,-1.9748042109064587,-0.1171731209216672,29.2221264837795,-16.223631413062208,38.15604690770841,1,S01
7020,0.07654388031800857,-0.08453877719372088,10.142415411645532,-4.2755640906392856,-0.8122208767826511,0.9576041885830333,29.59657964668376,-15.9907253151385,37.325342911671896,1,S01
7040,0.058607266733809164,-0.07929187044324386,10.146544273307148,-3.6033385329494525,-0.6535821779528032,0.606156831684348,29.850392853236965,-16.63590121456496,38.02742545102765,1,S01
7060,0.061133771061291906,-0.0702698957251603,10.15259564454738,-5.487021964642382,-1.6410233622587125,0.20900761971007742,29.28692918943304,-16.40234201761348,38.07021793138769,1,S01
7080,0.06606679551280985,-0.06135584457652002,10.144065292851616,-4.5351900919275785,-0.46959904095166094,0.8801516427685,29.28732167735184,-16.467462727508668,37.91966174043078,1,S01
7100,0.0565909559420538,-0.04977550506866185,10.145417626666319,-4.0897620029449815,-2.0813257073021165,0.7945195203661936,29.250970051557637,-16.730133519204088,37.975866805826435,1,S01
7120,0.028353179682692506,-0.059960275310608456,10.153026462028887,-4.376755932963738,-1.6466705835420428,0.8883260160795609,29.895199735727108,-16.002236426022016,37.98456834381412,1,S01
7140,0.035459439887245287,-0.08240449382459901,10.14604659655479,-3.6495490414195473,-0.5140195678547579,0.7157898898888185,29.38183291138312,-16.135505850991596,38.629728928870456,1,S01
7160,0.035810679086376085,-0.05453604833649155,10.133332795538346,-3.7556051237671926,-1.3260768533204539,0.9273698737810343,29.508599897150518,-16.7277298692472,38.01592921657219,1,S01
7180,0.048335442234202615,-0.057613272755929874,10.158861270657399,-4.7913551960589364,-1.36922552713477,0.28979272355154784,29.20200997974545,-17.120910120197426,38.64598600690217,1,S01
7200,0.035252947995198625,-0.040347445352508414,10.147379514801129,-4.7485579537375395,-1.3738702122194357,1.1543188720986606,28.759415029292363,-15.801297756430175,38.47477778793187,1,S01
7220,0.03383594098442916,-0.04855167306385369,10.155539609862432,-4.647234372414539,-1.7271375523662535,-0.12118137167728993,29.188257229047856,-16.724689083964478,37.35995570816094,1,S01
7240,0.04299478186504941,-0.027470209513591033,10.137284140304818,-3.3598262771210172,-1.016087833453207,0.6282650831517113,29.189108660360652,-16.811671150074993,38.24440533936983,1,S01
7260,0.025682805355219412,-0.028159739371590775,10.159142127897379,-4.037805781629466,-0.824797134412323,0.745762203993622,29.218793623995243,-17.19785658305124,37.70607663512549,1,S01
7280,0.03887360301940272,-0.02178873294389367,10.134686946843118,-4.318040584071672,-1.0530295463116306,0.06755109676687465,29.569289034906294,-16.68491244753828,37.53833290841188,1,S01
7300,0.02552206524086735,-0.026951301037963636,10.137979055698008,-5.0888473329972435,-2.6017855035556616,-0.2247659425437999,29.547966690057137,-17.146900307632514,37.11795256123382,1,S01
7320,0.040688844537205546,-0.009333821646060371,10.139268677360176,-4.76799740656204,-1.5102040124854308,-0.7571891377762411,29.63415655151138,-15.93014691745988,37.730353187902985,1,S01
7340,0.02015807288792347,-0.03319485621414397,10.146274814667063,-4.697832040676051,-1.7627860804092474,-0.28829267794718005,29.942798419527794,-16.790192173221442,38.14093805323638,1,S01
7360,0.01597826498921548,-0.02787219775833543,10.138115104368293,-4.767894182026268,-0.4496175610318267,-0.017003587442659618,29.40487776570948,-16.7793750090407,37.523635255974206,1,S01
7380,0.02346282113099031,-0.02794210779144244,10.141694608810763,-4.530889583758526,-1.4066732807708746,-0.06217315168569326,28.631742187397236,-16.47531780783467,37.887567174256844,1,S01
7400,0.0233385196963804,-0.021481416358611692,10.137526281394845,-4.589047405665372,-1.7067958026847205,0.693474822024654,28.777304357899585,-17.10008674569705,38.59401614051832,1,S01
7420,0.027250079177162823,-0.029404034450531642,10.151889603935084,-4.60703312441616,-1.4681840846317982,0.123168980042554,29.369178632898393,-16.121834128589207,37.456134936518374,1,S01
7440,0.023106572019148758,-0.015009450050468179,10.146695820184084,-4.70068920954059,-1.6285822313555829,0.13374203625750203,29.292399581892482,-16.91798114466645,37.12636003826809,1,S01
7460,0.021583702260557946,-0.02814970886951812,10.137228680457477,-4.4553943035874894,-2.1659420140186825,0.5839178813963548,29.62641333851109,-16.564548111438715,38.611282022123085,1,S01
7480,0.013677484698562267,0.002251454239997716,10.149874953499664,-4.709044869075329,-1.230104343610142,0.05541726231860655,30.026911596407977,-16.817945185068538,37.85640767640567,1,S01
7500,0.021463221163309856,-0.02516080316936109,10.131770500471244,-4.428335188663622,-1.3725952467779756,0.7422000168804992,29.737548920445615,-16.546136830561142,37.420769578521636,1,S01
7520,0.05205840736448502,-0.027444361487988143,10.151443147401693,-5.488726063930473,-2.1154413982540134,0.13261156861757933,30.23094008325079,-16.076329709518472,38.71996248245319,1,S01
7540,0.030030171104892228,-0.01896303128612572,10.154325739420074,-5.478979380963546,-1.0092191935280597,0.9132654848748782,29.577059020243365,-16.665822035847068,37.94962950691831,1,S01
7560,0.030454520689825487,-0.018174605774934745,10.143382118210273,-5.060936188563767,-1.931916867978456,0.1856111534425553,29.558417368267474,-16.06666992910141,37.62036050260171,1,S01
7580,0.043013132949204794,-0.0213193472532811,10.13840444977836,-3.779948479032412,-0.8907155111835326,-0.11009407687873196,29.218311287565328,-16.69445562660661,37.469485576666784,1,S01
7600,0.04422709194335889,-0.038223233509587375,10.143810305788753,-3.926995072441559,-1.1474362237489601,0.5269143342460225,29.71989499902003,-16.170051622202315,37.97692340252692,1,S01
7620,0.02110927062995084,-0.0438909465415286,10.146608637190258,-4.788153998186699,-0.9401834971870657,1.4330589084708798,29.83595824936142,-17.106010693589287,36.536377850557095,1,S01
7640,0.04657497162529572,-0.045586552401713595,10.139733545939322,-4.239370016442221,-1.4330266675460956,1.3370473026919827,29.131489661497795,-17.236741609108087,37.65366050047128,1,S01
7660,0.03201085721555448,-0.04673112510731918,10.152921397404203,-4.725035720046211,-1.0394676899508721,0.6664293135070906,29.93628218816396,-16.395328859004195,38.05348150665711,1,S01
7680,0.061581793550158206,-0.032269175771099015,10.146588601486389,-4.882460124281379,-1.879926221291048,-0.1744093662310543,30.28476727052929,-17.42147868673461,38.32689524459942,1,S01
7700,0.04912298926351433,-0.05962810876495664,10.167091242307807,-3.810200902058178,-1.3407663118726352,0.3448091156079658,28.926717915904316,-17.759790740116387,37.369274463340986,1,S01
7720,0.06318379884767357,-0.04756631956953221,10.146603917855337,-4.1366278842212205,-1.8433133313684495,0.6812794047133183,28.98456059223125,-17.033748659584134,38.044313533239944,1,S01
7740,0.04997909864031098,-0.07252524700407337,10.145230921899648,-3.675237905628678,-1.6194175780960358,-0.5817772453286293,29.50623924224373,-16.96652947380597,38.05491705495982,1,S01
7760,0.05485112145684295,-0.06157553517712151,10.139722908852777,-4.513312327630784,-1.244690703527635,0.8361504434081554,29.604499200054416,-17.183172180169947,37.88370335522243,1,S01
7780,0.06390991875707604,-0.04116849825583684,10.153889470540472,-5.024505268787373,-1.6309561327941386,-0.29956881921073797,29.37504766380522,-15.895942518965013,37.85717080077135,1,S01
7800,0.06956803632679151,-0.06536969103982615,10.151599846364402,-3.7396578627214905,-1.290432030615347,0.01472770235569465,29.51635181569982,-15.934779853953904,38.13411604104302,1,S01
7820,0.08197395248929111,-0.08280152181147833,10.137207982055813,-4.134534028516182,-2.277878952064474,2.0859262368422202,29.08616840759106,-16.14112578413351,38.60527010428623,1,S01
7840,0.07242787871614746,-0.07264498586545223,10.148850180422231,-4.357303425232502,-0.27591212835751033,0.6718613863988048,29.8084910731515,-16.295780332707512,37.533511843288785,1,S01
7860,0.06604758277278491,-0.08298137664486671,10.149728273684715,-4.778593203566737,-1.4300097065203203,-0.020998135705140752,29.382251326514428,-16.733213862357594,37.207081689362646,1,S01
7880,0.08606647818094956,-0.08953403152720463,10.160660642071184,-3.1911011471040736,-2.0224469191588508,0.8419807789402387,30.17325268136365,-16.88815972615801,38.173704698100586,1,S01
7900,0.0874081297373069,-0.09851618993315937,10.161381482558502,-4.316508434547095,-1.1347821448672115,0.8156044465010719,29.34772141534533,-16.614788281653176,38.73655724978331,1,S01
7920,0.09316450712437348,-0.10255274136574906,10.152389879465646,-3.7916387346869582,-2.088188716678445,0.2347297941107559,29.51104933282805,-16.074737296882887,38.29511292707787,1,S01
7940,0.09961955752784529,-0.09183144338996149,10.133379555030558,-4.410232442772066,-0.7565021141164023,-0.035534416278065306,29.283773601286153,-16.101959596280324,38.5547558056428,1,S01
7960,0.12396488656599539,-0.09154525916919368,10.138064683226954,-4.256614862640138,-0.4633559152280857,0.8036385093936624,28.964600421181952,-16.8766115423167,37.41223748157961,1,S01
7980,0.10675829743053745,-0.11431753542255962,10.153425939635833,-4.048356060360028,-1.1128501150033188,0.3432702097175651,29.88996880926128,-16.410910837269558,38.4416264757073,1,S01
8000,0.12552009770768738,-0.12319795838544584,10.144625167653457,-3.89091728320499,-1.1068439401913057,0.26102413084686166,29.803180780663634,-16.31152857996758,37.75815596438562,1,S01
8020,0.12706442686313182,-0.11178517939693888,10.161414028967876,-4.667106035946726,-1.5402583703751094,0.37352443691030784,29.232709688628905,-16.267006744764913,38.064276356929454,1,S01
8040,0.11816851230902099,-0.11495535036294399,10.136009156906434,-3.186799600902792,-0.9915507149681619,1.7382419421730178,28.998406101641415,-15.900916773732751,37.86850074404737,1,S01
8060,0.1309329970966158,-0.10159659828261232,10.151920402194115,-4.330770604072204,-1.0848039890957775,1.8615390736486468,29.87487949144761,-16.691035086766224,37.54915408202926,1,S01
8080,0.1331919621404693,-0.09578315681529617,10.155404394603039,-3.885929609778898,-1.477616979886502,0.6799251364148247,29.60950588100673,-16.497908363350128,38.1694610986008,1,S01
8100,0.12486770947652903,-0.09980116792765223,10.15064143501991,-3.402999895985955,-0.8367227251786622,0.7646001833910747,28.604239216908972,-16.548532544813636,37.941624654319114,1,S01
8120,0.13620891700950566,-0.12274649870721722,10.156395554761005,-4.544437903167758,-0.33373974372193405,1.186771303558054,29.01615270167559,-16.6920531621805,37.277614415434854,1,S01
8140,0.15282789869003963,-0.11865508652577,10.152466563243618,-4.207034962376317,-1.4879253114036382,1.0023866766829346,29.120884702100234,-16.586991706271917,37.82788892602967,1,S01
8160,0.1595011978111255,-0.12944260071526836,10.14154975719008,-5.049908960561283,-1.1583454302654286,0.7639006031135339,30.25011760012051,-16.629930174293946,37.641112386237054,1,S01
8180,0.14457801794256026,-0.11566224157394542,10.153261796090959,-3.958527194054462,-0.11811532210780351,1.0829254698638002,29.18601931430205,-16.74207681192499,38.14403834537871,1,S01
8200,0.1618557002831253,-0.13022064963278107,10.142117939601476,-3.7787836470683027,-1.0395342087539694,0.7100873415543949,29.13453074427294,-16.281656648954375,38.547329787403655,1,S01
8220,0.15326860830793246,-0.10238936231712717,10.15077915289794,-4.217319322728756,-0.9134831101175186,0.495143975848902,29.68064468435871,-16.733938431557537,38.67134927170275,1,S01
8240,0.16517084296802972,-0.1267999373540845,10.160938354448096,-4.042900976717388,-0.8036048162004871,1.5768585863952995,29.45631998885342,-16.388003714112557,37.866432012398086,1,S01
8260,0.15476889411287348,-0.10831207258236958,10.145154915444504,-4.0898465944280735,-0.8109267293583247,1.5911613943627474,28.918794873368824,-16.899977548366838,37.642131678416995,1,S01
8280,0.1721743416655404,-0.1113715489500294,10.145878874734217,-3.5653356670926515,-0.5555089002071432,1.1190771018517043,29.410377021726458,-16.213710793152806,38.11205597693768,1,S01
8300,0.16500619351145884,-0.08837396957826069,10.163545971822524,-4.307210183299426,-0.42570124682156996,0.9387986827908901,29.641136965683135,-16.19897370540926,38.128171047705514,1,S01
8320,0.17387814946665403,-0.10821459118643056,10.151880440054265,-4.190060891573117,-0.7962656502961256,1.1126362365761135,29.96952688310056,-16.34376657151312,37.452326875534375,1,S01
8340,0.17380974959740586,-0.10708899169772151,10.14455528687518,-4.539917736059164,-0.6051623398102954,0.3207054255895012,29.464109849690285,-16.42912878238426,37.82055095197213,1,S01
8360,0.1866744628573424,-0.10707055735264773,10.148065959508363,-3.474199698148955,-0.659422680894461,1.5352346998379218,28.82371752384412,-16.769860491694395,38.6185574652343,1,S01
8380,0.18038923437385596,-0.10403045750023832,10.150249641128937,-4.999474633849256,-0.7502606844941129,1.5067592622630996,29.073171929896702,-17.01064329131598,37.05519982029568,1,S01
8400,0.18910056624355778,-0.0788790485248771,10.14671265125823,-2.6958318506264867,-0.5623484362712753,1.148891573803686,29.133052326112736,-16.462534051490202,37.619793043761774,1,S01
8420,0.1988967483510075,-0.08386217624101337,10.16032791384683,-3.692054705016364,-1.1136450005628904,1.0274956433551847,29.07639207941675,-16.18196241101334,38.30495083665256,1,S01
8440,0.19329900348116402,-0.0789488783350027,10.146848418246563,-3.5573776403914676,-0.7034228229266447,0.2747541475942624,29.487825918617354,-16.16433373636682,38.00453631301387,1,S01
8460,0.18073550325365473,-0.06330305199497477,10.1429424882534,-4.654699816972908,-0.9131518007381555,0.8650361384947829,28.98572076724721,-16.399690107143666,37.85229258490047,1,S01
8480,0.16593969124058028,-0.07374981848750542,10.138470915582596,-3.520143540301418,-1.4617021253632214,0.25241239508450225,28.53422296483629,-16.449242355432233,37.84392814802567,1,S01
8500,0.16596582860731876,-0.08678666271687098,10.12756952741407,-4.019255655904294,0.14320203023064804,0.9446542559231765,29.4385529854077,-16.603295750411824,37.74639117122518,1,S01
8520,0.18989360812901823,-0.06659353000983073,10.156400804525546,-3.522409379321144,-0.26290361509076665,0.66488023952617,29.13881026142626,-16.739949634649726,37.68375363263667,1,S01
8540,0.17675054049502198,-0.05467261634559099,10.13459598629466,-4.00850322620057,-0.9897569124136651,0.11703167938287118,29.72849957201159,-16.02682169249561,38.44238155169481,1,S01
8560,0.1774287730442196,-0.06160585521886621,10.148914344026778,-3.6785089259533414,-1.2582362457975749,1.1663654180699181,29.365588726695897,-16.53471682311808,37.53007718796388,1,S01
8580,0.1658305783122806,-0.06417482518496329,10.126705068366109,-3.7909872102734137,-0.6290829924866175,1.0007888324929308,30.109975306032574,-16.241817888879346,37.21292470938093,1,S01
8600,0.15849656984838117,-0.05504086076724641,10.144445478765263,-4.62434358927258,-1.7283601233656243,0.9587097848354356,29.69832330820926,-16.581328355726164,37.62272897003737,1,S01
8620,0.16755501012928287,-0.03954660805806643,10.135206003259288,-4.103348673089076,-0.1981071666762073,1.1963306493973453,29.420898982306408,-16.76221733550036,38.31020889174077,1,S01
8640,0.16833130191393175,-0.03545978140788687,10.14574380184519,-4.243812565866562,-1.2715276775373723,0.6132931712659224,28.475204163508785,-16.250644996123526,37.99900375262972,1,S01
8660,0.14949336354146273,-0.03707595057037502,10.145358344467372,-3.9290768358323964,-0.14073905123399522,1.4740165378822239,29.041233232374097,-17.575552185260044,37.532261330903104,1,S01
8680,0.16421281219561307,-0.03637026278283508,10.146786703043858,-3.7789190788140044,-0.36175859571737656,0.5776129258608693,29.6461180130928,-17.47172539824123,37.69188401836384,1,S01
8700,0.12879213413652132,-0.02120692676423116,10.145193288631939,-3.8088704700417164,-1.0135269873502,1.1321613175058727,29.170853906054845,-16.27843093164966,37.58769510229592,1,S01
8720,0.14794438356267012,-0.03081779088214561,10.139880039157928,-5.18174869268923,-0.765903551091594,0.008813174438819904,29.32727910275116,-15.824502895656625,37.97820801870677,1,S01
8740,0.1479617641898776,-0.01729256522780545,10.145893475358221,-4.011233348754054,-0.5503684021389168,0.981466477100721,29.5150666484716,-17.25701357565777,38.177176006412715,1,S01
8760,0.14375847172813921,-0.02452031446653928,10.14357737135946,-4.918624749637981,-1.6910009313001728,0.9191663824853384,28.99895119764148,-16.962254880999453,37.842988157280054,1,S01
8780,0.1405592182844111,-0.03121304762847288,10.15642537477567,-4.456065648918717,-0.9018292784590648,0.3853643576073778,28.978601192469814,-16.863532263101277,38.22091779137149,1,S01
8800,0.13296878501478213,-0.019179461173598734,10.143837085160067,-4.005496761683778,-0.13889640349788324,0.9664011401856052,29.846228988174296,-17.027391950254213,38.180998346714695,1,S01
8820,0.12185468450796019,-0.0220274812785657,10.142450464568924,-4.421849360651109,-2.0155340323101867,-0.013634591270417773,28.985188537588833,-16.355651348062384,38.37670323630925,1,S01
8840,0.12324551779475897,-0.020190015306991847,10.148761043437252,-3.0135449328753134,-1.5085406700684962,0.5900263902733355,29.780555231403437,-16.186762784824644,37.209447778650585,1,S01
8860,0.1299022161629954,-0.029344371408014013,10.146977855217969,-3.9217534342084135,-1.939282980139301,-0.019185904406827436,29.1441955961758,-16.226374861766665,38.12049701953161,1,S01
8880,0.10074521011155924,-0.014369947484753842,10.150193507384222,-5.522303011756961,-0.5445867209014721,1.1572922290961323,29.46217286069328,-15.88333872352145,38.28383886663139,1,S01
8900,0.11832342905558776,-0.01421730969675506,10.15943965879885,-4.812070058386028,-1.0115774266936923,-0.5926357778049897,29.84689931714988,-16.117232248593282,38.01194013554599,1,S01
8920,0.11222034421030529,-0.025172501334735684,10.170998939590792,-4.692318130733967,-1.0033174344372306,0.5026132161704755,29.8907701693089,-16.58530174354567,37.964351901478345,1,S01
8940,0.08736548506627002,-0.03384727976466892,10.152684961688246,-3.9436702844716347,-1.0332002189823148,0.45150582364724723,29.39299985522777,-16.817405817617008,37.61527584399182,1,S01
8960,0.09228713370754926,-0.023812748128009785,10.156610624519226,-3.077374663395036,-1.4786998314717872,1.057578768458694,29.967117839929063,-16.07320026278039,37.532409119928964,1,S01
8980,0.07142590193824197,-0.010359771732933454,10.156865763665438,-3.712853708440054,-1.0453033745541742,0.960583861931464,29.6359825887316,-16.978378021651494,38.334346604920576,1,S01
9000,0.07398237147818468,-0.02084984402735933,10.148893134076808,-4.178025010527379,-1.5728888273246568,0.5754154074339436,29.258492088475474,-16.57015917197171,38.05834556063847,1,S01
9020,0.08193783653447223,-0.033962998518348095,10.135481344454497,-3.932790038863285,-2.1235021264178133,0.9007712845736822,29.92617945497725,-15.829483216424643,37.78474587984866,1,S01
9040,0.06466426262296969,-0.040881253653391667,10.133971712251059,-4.119650485779867,-1.4763538159149738,0.7550887595932407,29.908382081844557,-16.342941141579825,37.20362454736154,1,S01
9060,0.07905132670437551,-0.025785270381130487,10.143520355243998,-4.428996280593608,-1.9018610100506308,0.9783264473234258,28.65409434368481,-16.385349234440085,38.33305075444248,1,S01
9080,0.051993958322754434,-0.03403028612293102,10.133504761189293,-4.294680912201002,-1.7391752354850818,1.0074489616821638,29.68701651020946,-16.11725390973824,37.648811385560116,1,S01
9100,0.06712406511210187,-0.048356620442544504,10.13801298049601,-5.163341724574426,-1.9624873916531942,0.2925168813821936,29.404539924179844,-16.71820075808202,38.3804630555538,1,S01
9120,0.0396079825673541,-0.04050915245716201,10.152727075976959,-5.538223203230151,-1.6402935113717625,0.23076559237858513,28.897529653252025,-16.146771101699038,37.91885720044965,1,S01
9140,0.05261159403351829,-0.05816670272524887,10.162853576881105,-4.619078060167947,-0.733721840635835,0.15622676989424594,29.083861047296903,-15.6244326743875,38.1502000856273,1,S01
9160,0.03857849262604178,-0.08434164406132036,10.15488068574136,-4.953959246013455,-0.5899756231690643,0.8080741175551176,28.966870241334156,-16.894229954149008,37.81837523016872,1,S01
9180,0.02318081599355476,-0.057022069231545514,10.157127199920978,-4.4278577642267605,-0.8933440992241866,1.268729353770646,29.800114248496094,-17.57551754302895,37.373473538494366,1,S01
9200,0.03017833699041511,-0.05978573370196098,10.14468908123225,-4.765887306864517,-1.5704738662611941,-0.20564516398215404,29.304835523755248,-16.673144433043294,37.84890161473635,1,S01
9220,0.021324650335477743,-0.0673237664536727,10.161476078037538,-4.047404755316902,-1.808432756069125,-0.549773296921375,29.010353865685353,-16.41588840722566,37.92213780494809,1,S01
9240,0.030045024766478384,-0.07192158320289628,10.136825561375922,-4.566026813400019,-1.3068226309891962,0.6913579719359266,29.60647727591067,-16.257146631281493,37.054214052863465,1,S01
9260,0.033187859392341396,-0.08351270137756749,10.142800914421473,-4.5142300453222575,-0.7447551095543473,1.5961417900826464,28.65250283640841,-17.145101168527134,37.88861668648673,1,S01
9280,0.04247016801545654,-0.08028630942864151,10.13701234731049,-4.801389528699888,-2.078374223619406,0.22733663837385154,29.557149902363633,-16.674586630875467,37.94347536711809,1,S01
9300,0.02313716777339339,-0.10076221101649344,10.152235468376482,-3.931008414654576,-1.1830914304715172,0.737686542454405,29.51661246149572,-16.993523523950646,38.157053092888546,1,S01
9320,0.019854489032981468,-0.07526375594725132,10.15002268079033,-4.628170215694123,-0.9632663810347717,0.007524387152235912,29.389472844990074,-16.018970690402455,38.05621127867102,1,S01
9340,0.01803612664619668,-0.10529789839548792,10.151947928631378,-4.396675120142492,-1.5631207606343889,0.46258809195425754,28.91365918692516,-17.452620115214927,38.45829000896924,1,S01
9360,0.01058965976637391,-0.10169608205938872,10.135970385476462,-3.6622141803462824,-2.1067873268803847,1.111911697332872,29.04278645961821,-16.23622294176299,38.48453351621111,1,S01
9380,0.02069066852018704,-0.10848778989065955,10.145799485396621,-4.011965695653188,-2.2954141220843405,-0.12141396228484791,29.65823357621189,-17.025308730404223,37.99441313316935,1,S01
9400,-0.01126153591204733,-0.11251395501587466,10.152792853899653,-4.985057316738658,-1.1914498953621417,1.3382861525080116,29.051124874173947,-17.053626345389635,37.951918095463476,1,S01
9420,0.02133540892385931,-0.09649342176315706,10.153405602396557,-4.711595573851708,-0.9033071916194348,0.4195084683035124,29.857926680877714,-16.482328423407925,38.251271780182414,1,S01
9440,0.005191653108669161,-0.11375429096286946,10.135601900257285,-4.311719586622596,-1.0877823731244944,0.4989300521964234,29.28648891917495,-16.954117331493705,37.970702324038655,1,S01
9460,0.027086028148577662,-0.11293292907347,10.132515732259515,-3.1613942678134257,-1.3347837404897973,-0.10112544875550344,29.94508938862385,-17.10574601983305,37.30396857392001,1,S01
9480,0.01376208095737834,-0.11768250164835703,10.134023179332173,-4.51978985942379,-2.583941189261033,-0.727987811002823,29.038760857861906,-16.175338066411555,37.263386891444306,1,S01
9500,0.014220012597640955,-0.11524342999247153,10.135271322174217,-4.462493508070067,-1.231121012680231,1.0906179783097758,29.368797978145643,-16.465825888692493,37.811825194291934,1,S01
9520,0.02929136324232874,-0.12954135607045153,10.135428632585313,-5.3315782012031105,-0.9431134704969804,0.2874961539175715,29.48004243746817,-16.304076552760737,37.34150086775582,1,S01
9540,0.01974749561248189,-0.13096064971909624,10.1530077509079,-3.53306221664531,-0.6379468665707297,-0.027688218289072752,29.37629103071993,-16.814784999432646,37.834125892959456,1,S01
9560,0.03527979274459339,-0.14369463093120144,10.131423158943678,-3.995760407766814,-1.4478753520571326,-0.588973162507262,29.59057244169042,-16.830746753394706,37.98597239796044,1,S01
9580,0.04162817503392011,-0.10963600823308847,10.130792293565918,-5.010480349036675,-0.5778156428692038,0.6475113822329949,29.87745127674527,-16.376468001948588,37.84775478766438,1,S01
9600,0.03740330361268358,-0.09222882851463225,10.152719757071702,-4.57473326082092,-1.2241976039501519,0.25811668554448575,29.64582795448987,-16.704402806754466,37.54283166071797,1,S01
9620,0.043196716602916824,-0.11490956999814268,10.130788323722323,-5.612133255570809,-0.7471946445878024,0.673775015908018,29.305862935216577,-16.984833699301383,38.04120630272558,1,S01
9640,0.036457718526277036,-0.12645847256285653,10.140753381615585,-4.479012480315711,-1.947061586715524,0.6801922979318411,28.95362855539224,-16.883135332714087,38.17357214452076,1,S01
9660,0.0474292556719354,-0.11502180016232041,10.14841239404504,-4.377248063925882,-1.9832029993832954,0.02494205031279273,29.381193845786264,-16.92587146588,37.898901945140146,1,S01
9680,0.04772783951040398,-0.11214625472770574,10.157706193202714,-4.602466670817704,-1.6877527371569352,-0.1991413461322865,29.81385600151112,-15.817866476522337,38.01009946073333,1,S01
9700,0.048801050389067034,-0.12912680691589487,10.162013477843908,-3.614602651773996,-2.0178073853849083,0.11171686205585851,29.71057358666546,-16.49165646155211,38.12646522020724,1,S01
9720,0.05498759195141204,-0.1202712895671483,10.14376761402258,-3.7948366206084883,-1.3226607289765673,0.24370101319019677,29.503592517785332,-16.373008231907974,38.048397873947906,1,S01
9740,0.06580624679554803,-0.10407888124116077,10.15194087723214,-3.9702570118077145,-1.0422630756243028,1.3140431684572556,29.924587157605558,-16.53859115290625,37.488149814246654,1,S01
9760,0.06886569336129339,-0.11604479429068358,10.160113339897089,-4.089499779701454,-0.8562842076973664,0.35586709204186673,29.30401191494483,-15.964807835008262,37.232210669203624,1,S01
9780,0.062439544764462965,-0.08651418754288154,10.155764112334385,-4.615015598363798,-1.1587308066513389,0.5213588743338248,29.143262161145202,-16.524094094368717,37.65783413166125,1,S01
9800,0.06578881490485136,-0.10639389737240784,10.121572250411427,-3.985138906162908,-2.0309395782962536,-0.07267983641564146,29.213873610447138,-16.66640760030781,38.23889027853859,1,S01
9820,0.06239209331303525,-0.10746177871048444,10.147286851036723,-4.227238404488847,-1.3857978549635939,1.2215887886674759,29.753910664033114,-16.84511400128531,38.46692328613721,1,S01
9840,0.08021710149465425,-0.1044892181122655,10.145399922470476,-4.992323777999902,-0.9284018595054044,0.18096247817893535,28.944884205221584,-16.635928983092683,37.997342487257306,1,S01
9860,0.08818692348530917,-0.09730244660381245,10.149922346420144,-4.263160395025567,-1.4217247824697938,0.5565049576991196,29.4754854095514,-16.172246413397154,37.81500268677553,1,S01
9880,0.08326464349911969,-0.08766063752894819,10.137909426444192,-4.026608666383313,-1.4121555813275775,0.996488621118718,29.455243861190052,-16.255549153579043,37.3093900214101,1,S01
9900,0.09077681710865781,-0.0855957183632059,10.133139449189198,-4.157433597554329,-1.2469015985159628,0.5845636001228088,30.33163610444596,-16.090901256461624,37.81510215140813,1,S01
9920,0.08381017202625947,-0.0926928229873056,10.140926589612288,-4.765923365597366,-1.8355708392821444,-0.38631628408150653,29.435661306202945,-16.317122152886228,37.82865273181192,1,S01
9940,0.10856717445351637,-0.06705027542802322,10.151513083330858,-3.8116173016828436,-2.0134514905493477,0.45345780179864936,29.628328781067523,-17.018696982132255,38.20067863181293,1,S01
9960,0.1207636909513103,-0.06720699093481136,10.161677354157135,-4.526975675665096,-0.9482075781407491,1.0432920889347885,29.593017991757623,-17.034091766958852,38.46760061812043,1,S01
9980,0.12204757321699221,-0.061223864581507345,10.146982129008311,-4.107051510962043,-1.1078067790701271,0.18209319755962577,29.634299046435466,-16.4547490060331,38.302501153552946,1,S01
10000,0.11593914763266545,-0.03459967148404694,10.150425715003665,-3.467555272787776,-0.3916656786359587,1.51042807756453,29.1755823442739,-16.148017638619717,37.545855673417215,1,S01
10020,0.11946756197684387,-0.06062755744420983,10.142091815615963,-3.7196188110890795,-0.3359965321916568,0.5233576914214975,29.57906802439328,-16.353311442923403,37.17816378395178,1,S01
10040,0.14355869694266546,-0.05219831191734607,10.139989222372256,-3.2770813677142416,-0.8982252711307392,0.5437876610698306,28.944833442792838,-16.05044875264162,37.95910923075038,1,S01
10060,0.13767843693508458,-0.041062374555815774,10.14354793677055,-4.150902774110185,0.08889936577815338,0.9216901871235571,29.125513291438892,-16.32573076112621,37.56118372418325,1,S01
10080,0.13724036376699394,-0.051395244991538046,10.14727235231635,-3.669796832248184,-1.5890386682324005,0.6388584253797469,29.562725842560027,-16.667781534139394,37.903234424446545,1,S01
10100,0.14054402371063246,-0.031133630395571772,10.140774765813614,-3.619505230996898,-1.304987739903922,1.0398651240674628,29.482500836267004,-16.842343881058493,38.02872092785988,1,S01
10120,0.1607568027378667,-0.03558972817688166,10.157569197831474,-3.868842067236037,-0.1649916458829186,0.883237341138247,29.606792759671148,-16.400974047394172,37.82302765871394,1,S01
10140,0.1648642033026222,-0.034353431052982414,10.144453019375543,-3.7339966589850913,-1.6621772823863772,1.2607113956193037,28.925495532505703,-16.443525483770777,38.69115259032596,1,S01
10160,0.15494595823276572,-0.010046960075139132,10.146630731629424,-4.41384823001762,-1.2449050149945369,1.6425584827376847,29.944336277048837,-16.13912222274411,37.83889379393908,1,S01
10180,0.1608309555823519,-0.02639467006364256,10.148926775035607,-4.161919065126099,-1.3226738936718256,1.2311900606315094,29.84739058739188,-17.096208963649488,37.81489967690433,1,S01
10200,0.1729131709781061,-0.014345394350972207,10.142035407391795,-4.645746138268912,-0.8141951678597111,0.6153162335774764,28.895495952617722,-16.746466252952086,37.65631925082154,1,S01
10220,0.1707781510293439,-0.00936124107590773,10.146526320318893,-3.3805193819841413,-0.8778771487677506,0.9043034603046578,29.61477077718347,-16.633852327891958,37.872625181337796,1,S01
10240,0.1655831121890125,-0.030006895678960845,10.150179375731955,-4.153282967978997,-0.7291680521401798,0.8696979187976503,29.34572819441159,-16.919871582121843,37.151307167285424,1,S01
10260,0.1806529031906548,-0.05036406649746847,10.146273538292174,-4.405280386170286,-1.3906724998750306,1.8143330292919382,29.83422418626889,-16.408217029646234,37.084372138554215,1,S01
10280,0.17062232845690148,-0.006003740685150263,10.147471004076314,-3.5188400384447482,-1.052539412622725,0.12360944179220512,28.639645015439573,-16.083814496653513,37.90852433404429,1,S01
10300,0.16522017752924292,-0.024027007806025014,10.154691967310299,-4.154081989502917,0.08145031862900942,1.3815861717162452,29.141348835520475,-16.849306733248127,37.87536803825736,1,S01
10320,0.17457987310332185,-0.03529077398491332,10.138715135719965,-3.590249229368557,-1.5353669440224067,1.3691358625042027,29.837872958765512,-16.13585861987405,38.006579704840114,1,S01
10340,0.1784504223572408,-0.032012330743150234,10.146022391750114,-4.546138225339554,-0.942043803660386,0.777041105272162,29.40385914812592,-16.559641960291046,38.372854627096885,1,S01
10360,0.18135843620480388,-0.0071878691279149,10.156009568318677,-3.7067174191539736,0.20637948055526323,0.2862022019813561,30.27154328578648,-17.074689581693335,37.528058337965206,1,S01
10380,0.15895039498501742,-0.032713290332205755,10.152738985439097,-3.4490977708403494,-0.8785233129872918,0.5022148050061959,28.947626322279785,-16.68857198956944,38.1331617365988,1,S01
10400,0.1873323953519668,-0.026729627014251855,10.148099685294362,-4.300027592999704,-0.5780644951401039,0.6224803849538245,29.131240445434738,-16.166658655119615,38.185627558318,1,S01
10420,0.19686109686572764,-0.021153509815636982,10.143557772870198,-4.2884960072541345,-1.1580898518377758,1.7416810304056134,29.023813561366506,-16.425071665495874,37.79311295509618,1,S01
10440,0.18729197707786147,-0.03764356697264822,10.155568198587966,-3.0007600695769883,-0.3169206582164594,1.2876576434225666,29.58749630826227,-15.973714991755871,37.78687441208744,1,S01
10460,0.15688357997645952,-0.028171874950138273,10.152976269214415,-3.9896630950004224,-1.2956351678368985,1.2797946379845948,29.13084399388529,-16.076832896234695,37.50090079571534,1,S01
10480,0.20308129819187226,-0.03023148114533366,10.12954861506764,-3.735248867805921,-1.520787798500316,-0.6864935947895207,29.808047828654367,-16.510609716881255,37.79184033170694,1,S01
10500,0.18133145905349252,-0.0559507157989145,10.150031185524657,-3.7299316910923483,-1.1834422997160783,1.354185647319158,29.50734977924678,-16.123920901360897,38.49254480420806,1,S01
10520,0.17092619442654258,-0.04972891589475577,10.151643976841882,-3.2602833738515984,-1.3402672689750132,0.8666306520753899,29.178930398516236,-16.038146148569886,37.17601422492524,1,S01
10540,0.18006573619826116,-0.04784439844543395,10.138035964572001,-3.903021513543024,-1.7204154996477965,0.21783660717337927,28.942722148978678,-16.757563208092073,38.11729871159528,1,S01
10560,0.17753289487967178,-0.03135718758063446,10.143838613056486,-4.587050015410366,-0.31218570547244906,0.6281696682359341,29.60142008478228,-16.510135448226265,37.90016733631248,1,S01
10580,0.17418535835408985,-0.06545047808217716,10.143708490015355,-4.128868888853549,-0.5373046923307826,0.44524589409135523,29.08264233783119,-16.812923718259757,37.57869514642272,1,S01
10600,0.17286391262751621,-0.06747261743516698,10.131768102234235,-3.9117004433567755,-1.2858702409173626,0.26946141002715296,29.095267483269833,-16.554477318118085,38.725368783514504,1,S01
10620,0.18068927900819007,-0.0765730403179896,10.144650589130135,-4.237072072044181,-0.9414901127718502,1.4700054647838727,28.807133143904597,-16.231766620779933,37.8217378525973,1,S01
10640,0.1703917589582102,-0.04883848285082658,10.13876178374401,-3.9821348717828986,-1.370734293379624,0.2820555872077879,29.389141068325696,-15.990365832927115,37.67197176557626,1,S01
10660,0.15073532799849573,-0.07302815929694159,10.160653616161142,-4.732879307693308,0.5080438721350617,1.506407557888723,28.67714644192562,-17.17061325966181,37.78711441439115,1,S01
10680,0.16436563310617916,-0.07399453522525232,10.141091620539136,-3.8190767002767436,-1.2599454691477292,0.6392662357594954,29.317983721647703,-16.523273719938466,37.70939264763663,1,S01
10700,0.16437636108653111,-0.08491090701852412,10.124570585228614,-4.505451418186735,-1.4051314752331,0.8657409770327034,29.152854038728705,-16.932670517365104,37.84563484128884,1,S01
10720,0.1606407111300801,-0.08063225518232055,10.137225972580067,-4.857984747365597,-0.82168709948691,0.5666210002057075,29.089412574007227,-16.68002058752007,37.770084942457906,1,S01
10740,0.1413573802434864,-0.09496129025174031,10.162163265803155,-3.1534987827162024,-1.3495969403171304,0.7490915677798005,28.41041583466768,-16.652228276775524,37.44349824874939,1,S01
10760,0.14340271971901952,-0.08675243025077149,10.150897324501859,-3.9275814507647637,-1.3484736620109878,0.789214094137887,29.588882681772557,-16.701198764926993,38.69075692648718,1,S01
10780,0.14034307753637057,-0.09880064690538316,10.149452826681697,-4.394978156721098,-1.5008419506208108,1.014790071469108,29.094512437652714,-17.129851808024203,38.50604147704804,1,S01
10800,0.12211793538710143,-0.1007019588666624,10.141628725358231,-3.5242216833504987,-1.3321753459943952,1.1830717698999287,29.01046810316764,-16.863708122131797,37.66416354517835,1,S01
10820,0.11060167713231335,-0.09264530609717578,10.142484941876942,-4.496361004579062,-1.7609172573153846,0.6199498422387878,29.877578700377242,-15.694362404435065,37.95770377738856,1,S01
10840,0.11307716862502841,-0.1119959523181101,10.139533721098905,-3.404891508721727,-1.5207619518996283,0.16410722934944766,29.088285225032028,-16.90147085734977,37.995003942479066,1,S01
10860,0.12638016886259607,-0.12149077293266955,10.150528971539481,-4.031736702151372,-1.6822051409695866,0.18033781602941473,29.439057603333264,-16.234400605007043,37.58232553616815,1,S01
10880,0.09555269065465052,-0.11928494746786775,10.156539793558201,-3.7322330553938468,-1.2767889965653934,0.4442912330508427,28.91038313095925,-16.565703999905057,37.68952382306193,1,S01
10900,0.10792585894493975,-0.11670843030617455,10.139352909182481,-4.227496702314249,-1.5563474601291252,1.1899434207672837,29.438199983677656,-16.206377715742484,38.51499338806826,1,S01
10920,0.10162754650123117,-0.12984495367646998,10.14653430335152,-4.22450920183093,-1.7438386233858831,0.6098248982866098,29.49042256096617,-15.945833044688497,38.050251030094984,1,S01
10940,0.06875155574724898,-0.10607587876098554,10.144583956479922,-4.6726928158873156,-0.7486021731150319,-0.21464894720507988,29.095899096649937,-16.815885858190267,37.683308986443855,1,S01
10960,0.09942184561714296,-0.11383943684955757,10.145414301235483,-4.34179137678607,-1.6724767777983929,1.1237701242042648,29.22669554153345,-16.677762830092696,37.28199442686531,1,S01
10980,0.08290835092811963,-0.12113292440077353,10.155435878890477,-4.443124154190749,-1.6853875254697115,0.12108371388855421,29.21378477281876,-16.53565273440008,37.98329671081668,1,S01
11000,0.06570025833266827,-0.10471222092757368,10.160247665467969,-4.16061286132109,-1.5519272696061548,0.9732566943488243,29.26527234083059,-16.723890059335098,38.24800544902089,1,S01
11020,0.08658093782193423,-0.11660304955457601,10.15932223941718,-4.1923450802774695,-2.144713670742459,0.45583641449746204,28.705529605624662,-16.738292424826234,37.713661425091566,1,S01
11040,0.07052095167492463,-0.12235622261390672,10.14937543450109,-3.716357230317813,-1.2324097163264962,0.742483643017891,28.723789269280445,-16.172778594655696,37.53811515498466,1,S01
11060,0.06957648006968356,-0.11082875481490409,10.13876414270198,-4.679802877927682,-1.7298485575915996,0.9224407791178082,29.38066768133654,-16.686487494547134,38.07033984943314,1,S01
11080,0.0712484523100765,-0.136541089660013,10.156059601233713,-4.644267021319844,-1.274511711728658,-0.5548474289067545,29.296458445695514,-16.598373883751243,38.27518252280654,1,S01
11100,0.0684563838993387,-0.11502820806678771,10.140871023947104,-4.199690654143584,-1.960269649546986,-0.4031130059427116,29.480014275046784,-16.073428724013016,37.66580518084317,1,S01
11120,0.06519792722635785,-0.11381716612286688,10.146083514201736,-4.5277036779999795,-1.524868296963039,0.6330459452813081,29.77559247076209,-16.712496904001686,37.41598296288873,1,S01
11140,0.04457885366873304,-0.10891270192847016,10.156403273762754,-4.519986078367816,-1.119186160933473,0.44656274394847695,29.216074530378187,-16.98914377136029,38.246684817931786,1,S01
11160,0.0419751757188924,-0.10001059328775955,10.125797059217787,-5.175117624444031,-0.7316359813747666,0.3887603713500615,28.69255009341978,-16.272555125711023,38.557597114135916,1,S01
11180,0.03238978936564946,-0.09908113826813536,10.14697338216671,-4.781258665868679,-2.085401691440545,0.4958065491132076,29.10923470892333,-15.802263168567823,38.54864096700177,1,S01
11200,0.06084283622401701,-0.1260645123089456,10.135151758752775,-4.119607491192049,-1.1307987072679837,0.14566724399925668,29.551261408228864,-16.501884510672987,37.730983818462036,1,S01
11220,0.0378055250351863,-0.09871172189142807,10.13186610197056,-4.42546402784334,-1.5777301570282876,0.06496007468908116,29.063316687354828,-16.2091018173897,38.19236009064315,1,S01
11240,0.03431646797500154,-0.10190463891520679,10.154976917426703,-4.824154353309338,-0.7742850183798018,-0.4353601323954174,29.384977246103094,-17.14991737833558,37.90591516630167,1,S01
11260,0.027863076359519554,-0.10164312892177024,10.13916223778607,-4.315714006130219,-1.5349110996230222,0.6050537626257316,29.151724274556198,-15.923663079783827,38.398371733101044,1,S01
11280,0.020489848798947885,-0.10033487276196218,10.144606078474009,-3.433325561173513,-1.758304513624437,0.8915560444168751,29.57732584977088,-16.143902772420233,36.955426875335355,1,S01
11300,0.02413459338286285,-0.08410550703794605,10.155602618566517,-4.042665184041356,-1.6076104609300623,0.5869382963057606,29.109329335410834,-16.718753756413438,38.37993252125655,1,S01
11320,0.028265471572842885,-0.085033545403988,10.124395864753934,-4.696257609562675,-2.1192519788273882,0.9828710885820409,29.375338932675888,-16.389876834207143,38.410309280344194,1,S01
11340,0.022270841732727087,-0.07950808118335137,10.16559777067506,-4.858257561017391,-1.4297384365662653,-0.0188255071375254,29.435319812811223,-17.017631655459446,38.255365738885686,1,S01
11360,0.0008040710630694003,-0.07727453027313053,10.143886188388612,-4.240865313098882,-2.210254539626364,-0.5362366975716052,29.312045529725186,-16.506569618245827,38.002469617824715,1,S01
11380,0.03696465667610782,-0.06609824850611731,10.140624794665783,-4.652734956924958,-1.2283744761158935,-0.11335253467722328,29.519557154156036,-16.587098159287212,37.80457236385937,1,S01
11400,0.013808827830385867,-0.05311584315879368,10.14026424332555,-3.5120623948972405,-1.5931509655476235,0.587145758092377,29.229248436450288,-16.87304716950086,37.988940121201246,1,S01
11420,0.02502658260438763,-0.07830606759698455,10.146878856412288,-4.228364975401723,-1.028448900005475,-0.05760633224254297,29.3670099669542,-16.35319110685717,37.48905499394651,1,S01
11440,0.026595316552886786,-0.05230811573567998,10.145755741139576,-4.99733712699067,-0.9344999796411662,1.147437829467823,29.436562883964907,-16.041128005999916,38.366192340042815,1,S01
11460,0.003222107161946472,-0.0315074715461463,10.142914570237922,-4.308143310359922,-1.1665988899341182,-0.3493865273988802,29.245816931436128,-16.77487586040474,38.04126005140587,1,S01
11480,0.016740629483339264,-0.04957439868403378,10.151233991698922,-4.802985518351135,-2.048051438979588,-0.20600333949761596,29.343342513242384,-16.223110163768837,37.72211175450727,1,S01
11500,0.025500662404199487,-0.04104324538246834,10.14699406071783,-4.506927723896463,-1.704594185720763,0.23417082347583718,29.627396564410425,-16.02347711366098,37.96656560856586,1,S01
11520,0.020602464463037817,-0.02736347804834075,10.1557212193125,-4.990455397506166,-1.5685826557061175,-0.18333569037228836,29.415965430348386,-16.842798521333513,37.83489005196069,1,S01
11540,0.030478703595232526,-0.033086739680065695,10.133599453477673,-3.3362327870683934,-0.8003398548718779,0.9768753336572027,29.525096854820323,-16.168195793040717,37.752955899088,1,S01
11560,0.040521417621686186,-0.020854676876229973,10.155617795242035,-4.814816387149824,-1.9406126302923723,0.9747327863891578,29.556797935741734,-15.781710068364221,37.39814707121127,1,S01
11580,0.027662840387963114,-0.029047988640244868,10.144291932137586,-3.713776548896565,-0.5925769373709052,1.0666459475167707,29.04856389307496,-16.088932671531232,38.36263627965971,1,S01
11600,0.027694488710960696,-0.019934216133315606,10.146917341698265,-5.4842816381018515,-1.4000138357392609,0.9390884111268245,29.27993251744894,-16.263210960898554,38.20688449577191,1,S01
11620,0.02320018450528928,-0.010486013751440933,10.135972100099993,-4.424088532599308,-1.9323016401165773,0.19935826600113593,30.09756207873588,-16.103359242781522,38.305347460374776,1,S01
11640,0.04414901937371054,-0.018158227693979262,10.143272911712327,-4.989763340376223,-1.897318185163335,0.19847137387365144,29.551456868175546,-16.74822552865193,37.678414615729345,1,S01
11660,0.03951581410242642,-0.01615613483878412,10.135318609805097,-4.861374150786853,-2.2309276525834614,1.546077469027404,29.194089797110546,-16.868222257929943,37.682440396826564,1,S01
11680,0.05265834058708533,-0.040724575412406996,10.128265954617342,-4.6935147072729775,-1.4624105344298182,0.3473384055977558,28.91400268911546,-16.631613071684853,38.555506679266024,1,S01
11700,0.03444799248928149,-0.031069737057417286,10.132418136270104,-3.762568820435234,-1.0548962434489961,-0.4750828036662885,29.83141531371214,-17.100973461127523,37.91960099739746,1,S01
11720,0.05962657479254621,-0.02331821224849289,10.154772523157634,-4.299555605271726,-0.9641568345783844,0.909188260810845,29.330299474953584,-15.98107642101844,37.40317537541081,1,S01
11740,0.04959462894957766,-0.029356170977055875,10.128175277995874,-3.8976581185942267,-1.3890170373219901,0.19617773663976817,29.76985977089967,-16.842047026949615,38.043329388771134,1,S01
11760,0.04154546436392869,-0.030720493537561157,10.158444402958894,-4.077099712154417,-1.5547387724946404,0.2930200116498062,29.531801986452262,-17.188526725556102,37.688338042980845,1,S01
11780,0.07388759890996904,-0.0157536258168594,10.138038890923143,-4.610589438230926,-0.45946894950946016,-0.04078301210145174,29.532900470600243,-16.744663085493038,38.42552026731115,1,S01
11800,0.07083321354401344,-0.028903297355534527,10.140156332120199,-3.941913898665894,-0.4441771650640417,0.5639510802598464,29.671481706232534,-15.726072179201864,37.975438967853464,1,S01
11820,0.07481524123814164,-0.017099173879779404,10.153377154981792,-4.293518472873781,-1.5555979453619369,0.5750248211151893,29.70862429834782,-16.35275911210492,38.38947955835666,1,S01
11840,0.07590037133752384,-0.030135287294442543,10.127940740925961,-4.851532395651733,-2.3221703997139977,0.475323385592573,28.943842122778033,-16.216229685212795,38.3472001354241,1,S01
11860,0.07734031642918611,-0.02670823319755436,10.164094838425884,-5.09642964201938,-0.5823609895967935,0.7498175998398481,29.65234888325983,-16.64761605022469,38.195542160445775,1,S01
11880,0.08086021484298148,-0.03597689591159409,10.147259794836259,-3.9671635443084483,-0.5086733835016639,-0.0396992187784172,29.00821028640223,-16.32741359111519,37.84209226045199,1,S01
11900,0.10018124262729143,-0.03516282349167076,10.148246551935356,-4.422269018901013,-1.4319133305248317,1.2147187643973552,29.009424245762304,-16.32657450231071,38.07834887900581,1,S01
11920,0.1037549976294587,-0.03973887859698008,10.149963805150572,-3.5062025630675713,-1.0469306467551898,0.5744448524378306,28.980219384281853,-16.036655838376266,37.78067224845356,1,S01
11940,0.10201928425263022,-0.046508801274173624,10.149334091417305,-4.115551420732929,-1.4208730272889343,0.7855375525744415,29.403508072704685,-16.924134828858403,38.130248151537856,1,S01
11960,0.10879527383815346,-0.043523641783062506,10.129458804925573,-4.464101118425674,-1.2549909446355232,1.4213079000879072,29.17877179150998,-16.374792310618098,37.951539573998815,1,S01
11980,0.12891251532873324,-0.05491978858001663,10.145786569556366,-4.159936930671739,-1.5289507929676822,0.263580888514578,29.44018519730329,-16.600028876738357,37.81542455079112,1,S01
12000,0.13042357228904458,-0.04473133468479988,10.146601275924533,-3.994110039815659,-1.1196756437631383,0.2942630737558649,29.153688212797075,-16.36320547946174,37.75242181709749,1,S01
12020,0.10708479365821923,-0.053441165983740005,10.148776016539887,-4.561971379822417,-0.909096433257758,1.4625606533224285,29.233556733081922,-16.54350010504036,37.47451798364392,1,S01
12040,0.1370416114436902,-0.047900823427571085,10.141415349577978,-4.19400169089106,-1.015381160043398,0.024765088591501505,29.761082432370518,-17.213673468826933,37.54693103814417,1,S01
12060,0.11148388221024065,-0.070009535805425,10.14240793299729,-4.489743349502927,-0.2805019108954371,0.5996369266873967,29.644686166588777,-16.868477560123615,37.67812579313179,1,S01
12080,0.12760701825047194,-0.0652408526875004,10.150077948810708,-3.882360052946246,-1.8921931521712798,1.322944617859195,28.967627452613957,-16.18717631745266,37.284402700607245,1,S01
12100,0.15271281898008898,-0.05187117374080845,10.161022616214119,-3.3612592945966724,-1.2857800843854321,0.34469969177733173,28.95635204805221,-17.272250920904455,37.43403230368151,1,S01
12120,0.1425284182478397,-0.08940963023541668,10.138466375771312,-4.753408681389634,-1.0842549320345594,0.899014063077074,28.608179298825096,-16.53896217335217,38.61201731527102,1,S01
12140,0.12462230181319121,-0.09558153742132347,10.13745699877991,-4.019749343722412,-1.8668840242026263,1.1241810906357736,28.738643414260597,-16.960871521794836,38.14531584886466,1,S01
12160,0.16011293793593445,-0.07538127279985145,10.147179885930907,-4.051062975672095,-0.3740045052398361,-0.14194348698232084,29.939753666686816,-16.360603009284382,38.48714063438011,1,S01
12180,0.15733568585484387,-0.09706875246323593,10.128114314274988,-3.2417289938123615,-0.3765173588612414,1.0561441758445165,29.224630667122018,-17.014475362577365,38.83074764875229,1,S01
12200,0.16017843265971132,-0.0801117555803818,10.156673118056506,-4.2427225472871575,-0.08514171565516127,1.2968151895014792,29.433747531488216,-15.95945802426747,37.217918497233505,1,S01
12220,0.16861122459531558,-0.09007445419432653,10.151384564443589,-4.4852942907108,0.46883713560081275,0.989527992928181,29.679111169303564,-17.146858154431357,38.25506999290739,1,S01
12240,0.17437570288326876,-0.09705174511675824,10.136209843878435,-4.445086083172028,-1.038680983687661,1.6022365256468625,28.92750010453736,-16.398956392161075,37.26289582392005,1,S01
12260,0.1712096442246716,-0.10941190006329181,10.131500597523475,-4.187759452646062,-2.116384321857316,0.69005669512737,29.325954921492865,-16.241461877994723,38.13489246623296,1,S01
12280,0.16817274405825064,-0.10408908774843911,10.132419426885267,-3.9835574872284623,-0.966058242355641,0.9211456883312912,29.251081564050565,-17.08194804437079,38.16835446738601,1,S01
12300,0.1811936713706171,-0.1137862984419715,10.160633415076902,-3.6550769926719013,-0.9480822391637261,0.7556069879818373,29.564646337829984,-16.475244064568226,37.144965278010666,1,S01
12320,0.17822405596640115,-0.10570645025141187,10.157416877993025,-4.560632323346876,-0.8291802360366776,1.0160198920988979,28.679773036013042,-17.157244420634356,38.03159277486906,1,S01
12340,0.18656177248701203,-0.10631944464792834,10.152646787278178,-4.3855216514648925,-1.0593674198474095,0.7137481400789205,29.506102268938495,-16.312369508970974,38.03726610386534,1,S01
12360,0.18501323641270806,-0.1273573460134832,10.139198586031272,-3.658834053635246,-1.5407667320181522,0.2169945730449499,29.37622148861071,-16.352456762433384,37.53785544474201,1,S01
12380,0.18382514245911943,-0.12559663476142946,10.153695563332857,-2.23576589096799,-0.8320701815393213,1.270636692852401,30.193011678594672,-16.942065068740888,37.71053833968507,1,S01
12400,0.16911204995320872,-0.1278188476736174,10.141918333159378,-3.8149388652686733,0.1546051859962343,1.2855096242046509,29.450530178178585,-16.550382257279942,37.447338173948864,1,S01
12420,0.1686465052629419,-0.12084960682162808,10.14819431757144,-3.611867984822868,-0.5942197601335231,1.3066834641266194,29.906068265258206,-16.743775466941543,38.269871709420634,1,S01
12440,0.1711710332720305,-0.11503194120335511,10.145227805092786,-3.694911290287977,-0.7796301597182869,0.864327719095056,29.459217918917396,-16.525578063665133,37.45526299629046,1,S01
12460,0.1637939350432976,-0.11921523929329648,10.127918229263305,-3.5743540828212987,-1.0226407395505608,1.2379099464817747,29.570675572410337,-16.648765460455333,37.845023305908114,1,S01
12480,0.1954229293587821,-0.10996354737840651,10.139419882624091,-3.5026702530923277,-1.2295515267096362,0.16010470396721427,29.730125511680924,-16.661917227544098,38.31904429131838,1,S01
12500,0.18721793128063932,-0.12031319620331307,10.128440652396824,-3.9336866406539026,-0.5828276246648671,1.2422636135990008,29.047399404194234,-16.803085184171877,38.15622447097775,1,S01
12520,0.1946128460792275,-0.11164789746373441,10.16803727543102,-4.533705035163002,-0.6356133944120683,1.2791456258370064,29.002277439801674,-16.42502463661807,38.05665703150994,1,S01
12540,0.17792804263718343,-0.11883787501162141,10.144548567130064,-2.9797399334566315,-0.6565248666289241,1.1694263664110824,29.623129847030626,-16.734190955355857,38.34407119155757,1,S01
12560,0.18027379603801752,-0.10541143423493787,10.126906340210244,-4.468765675248906,-2.028800255468185,1.5218058797009153,29.47589679589509,-15.759577215476353,38.72104967556601,1,S01
12580,0.16421910913902407,-0.10518417109735002,10.14377599301417,-2.8236568089663026,-0.8906972290804318,0.5689071356789386,29.166308561444016,-17.37826312250577,37.12618432316743,1,S01
12600,0.17620970858571594,-0.09323460222858335,10.146718888876277,-3.610456478368352,-0.1354000107810429,0.4314649135121866,29.262390788512416,-15.225374672124866,37.65392694031878,1,S01
12620,0.1737817898438871,-0.09988933547682304,10.137861042083342,-4.329878058309922,-0.4844896152199949,0.5820019588863975,29.19580290333395,-16.74755157371744,38.15475029587995,1,S01
12640,0.15568257717171727,-0.11828527302904361,10.131194977178872,-4.180797963059663,-1.0296777049273733,1.7641700828697342,29.363671351974734,-16.29319156973212,37.55340465647137,1,S01
12660,0.15726116060500936,-0.09101424132880284,10.152587513517691,-3.480532542172486,-1.6327053627103325,0.29438986105720355,29.72985197246232,-16.63342643077329,38.035209692651705,1,S01
12680,0.14141266231604904,-0.08786561175614843,10.130576109193962,-3.878776507401863,-0.9413409221667878,0.613507424132781,29.546476548372592,-17.025114957771407,38.199462763881556,1,S01
12700,0.14759506179504361,-0.08579426197738957,10.13750707401411,-4.984585435985576,-1.900369101171405,1.5479783198190735,29.237868017223832,-16.629907827808,37.3932967343476,1,S01
12720,0.15585788863689198,-0.07739400792735811,10.146193579016675,-3.6905868188897255,-1.232445920876971,0.359057294459108,29.5331822228891,-17.143286752844325,38.0897217126175,1,S01
12740,0.14595076026116455,-0.06817542809667952,10.143830106329608,-4.054026096331215,-0.30760048115242633,1.2535280661499275,29.024924270405922,-16.91139299883032,37.91781137083969,1,S01
12760,0.14590700718444727,-0.07894281575851773,10.137584846171718,-4.0195917012469815,-1.3305921019630644,1.1401377693322394,29.63491718860997,-16.57545714832849,38.21968184101404,1,S01
12780,0.1391270923206422,-0.04978995566308299,10.148881399387081,-3.7358805302208977,-0.5154539921020797,0.41628190069758414,29.795581803987346,-16.57753381085065,37.9115767497455,1,S01
12800,0.12864502989816615,-0.06474808247079877,10.155702099719699,-4.703415547951216,-0.2379095194805958,0.8259818987381489,28.87646493614299,-16.439050152613795,37.93603379411391,1,S01
12820,0.11807321192173387,-0.0572223695501635,10.141122631872971,-2.9499411170912158,-1.357539002747295,1.4323081051737612,29.62816340156346,-16.48856843027562,37.61869739244239,1,S01
12840,0.11060168718335472,-0.058002534845728385,10.154255595721688,-4.503238661467378,-1.415007475762114,1.051419962476722,29.359969497726045,-17.434171243739357,38.29368617915304,1,S01
12860,0.11834742294379662,-0.0816319056791161,10.141306531162112,-3.6192245804267573,-0.8145619196519298,1.0529590595302738,29.254180882431935,-16.08685249058491,38.38522675371454,1,S01
12880,0.1177712722192117,-0.04823154705297749,10.140377814807396,-3.3901366821117818,-0.5518825390890115,1.4263021117442012,29.771738004581085,-16.743071733154167,37.389328915761695,1,S01
