timestamp,ax,ay,az,gx,gy,gz,mx,my,mz,label,subject_id
0,0.10065261385958509,-0.0635431769447978,10.15084920987145,-4.678528411420193,-0.9300035675126191,0.2564032199455636,28.714958357566356,-15.32417527582289,37.91493641142549,0,S01
20,0.10237369344770554,-0.06889462169096104,10.144429907882214,-3.9520553056569363,-0.597028140774281,0.5899258898842419,29.259797204239053,-16.26738452063355,37.765473365767015,0,S01
40,0.09814448083038786,-0.05920266785383934,10.152334921979712,-3.609384959458274,-1.6424602702643678,0.9014547047674786,29.394276075248907,-16.534738159929894,37.66257806962079,0,S01
60,0.09735650770581332,-0.06846603198970404,10.148059100962744,-4.193538368771419,-0.9945123308396091,0.5781609318545403,29.05143486319695,-16.983492232009496,37.17895969752031,0,S01
80,0.09832099130148085,-0.06888086466773419,10.150600551698115,-4.298407918622439,-0.9044596398971376,0.609632338516208,29.258735660255564,-16.209852778112847,37.85503484453592,0,S01
100,0.10129378136349476,-0.07056993280229558,10.155343969922205,-4.895831063463838,-1.5764112036531748,0.49021738400401593,29.019184948105462,-16.029794702248648,36.77145792885387,0,S01
120,0.10218818018355229,-0.062067228572252955,10.148085358495544,-4.147598771948721,-0.9423870797704463,0.5091644069445845,28.821602982419794,-16.319159268542833,37.79466663615174,0,S01
140,0.10900271736304457,-0.0498199307421985,10.138805972370447,-3.9817468528482935,-1.4212190211839864,-0.1244919154501426,28.999008380692988,-16.034387375813097,38.250625349340254,0,S01
160,0.10141007617813586,-0.053802980783148616,10.148274887069583,-4.236976403560205,-1.4247323158010476,0.8361338645279079,29.35054292019469,-16.266682979735563,37.86356120293566,0,S01
180,0.1078074897563891,-0.05887464805793713,10.142311088405153,-4.270767436442113,-1.541511693660699,0.7872676540484803,28.71770117164431,-16.61357005917246,38.43954482503483,0,S01
200,0.09777732133958522,-0.056966593447776034,10.144988171598325,-3.772675442656109,-0.8557015019991399,0.7922525115662675,29.27668668921601,-16.6703871661403,37.5632802272372,0,S01
220,0.10389079767297522,-0.062013952954960455,10.15106974690068,-3.9442768299271305,-1.2373344547147849,0.5868854378982322,28.61190770233153,-16.140667060231536,37.33463481535706,0,S01
240,0.08393342290181782,-0.05858752742868027,10.141682582988478,-4.237540911042652,-0.7569815764448964,0.4253452013069462,28.707738777211055,-16.5908053702427,37.263265881484124,0,S01
260,0.09075363949175087,-0.06595505734179664,10.142893987510032,-3.9183778354890326,-1.3824506445207125,0.963266404388011,28.50114335096957,-16.28498065651408,37.97706063192333,0,S01
280,0.1049563954436933,-0.05787241548362732,10.137907244127446,-4.252992467658429,-1.0458665931505586,0.3499673344752461,29.51448127092511,-16.699006724749754,36.90676161927928,0,S01
300,0.10227662564378652,-0.05112207307830925,10.142919403181217,-3.846503778682374,-1.3391438635523436,0.6580548457163902,29.528735212558693,-16.3448901920831,37.63488197987562,0,S01
320,0.09622606929451623,-0.06709232564228809,10.15114099024821,-4.42781627791771,-1.6215746832094402,1.0670800033093772,28.802121954610737,-15.95179215305488,37.536291133219265,0,S01
340,0.08815652957180445,-0.05758181949498907,10.147513601961677,-4.222183392579982,-1.3863072808418642,0.43748422162715334,29.827682126604056,-16.1832188111546,38.060742676520825,0,S01
360,0.10246091016426519,-0.04929040929104035,10.146924474012222,-4.111447072143782,-1.293259647451065,1.0000208945256033,29.33654522380346,-17.293865235417577,37.62003577375303,0,S01
380,0.0920628864334692,-0.060958807387081274,10.136699496820833,-4.164168830059653,-0.9396399036821871,0.11061890104596628,29.185501668950224,-16.207721240975424,37.58363984902017,0,S01
400,0.09725589879356117,-0.055010420142276195,10.14946758374462,-4.217526315427182,-1.184105549239346,0.43148104329304693,29.347978057642955,-16.495736765874305,38.090392166560854,0,S01
420,0.0980602462650273,-0.054692877599692775,10.14685055747307,-4.659256446819354,-1.185998291428317,0.6770521824406613,29.29596094006961,-16.500056548226162,37.255766981083326,0,S01
440,0.09704199968566307,-0.04992387972496877,10.143225031491617,-4.158486665110538,-1.6672926331952687,0.8211705839058723,27.957810896970752,-15.181689416908918,37.54524199091743,0,S01
460,0.10112342208840916,-0.0478376077887112,10.150942914318966,-4.24483896592446,-1.3800201830320236,0.2458281563388252,29.15658812964447,-16.702101232778638,38.27115629772798,0,S01
480,0.09115201308434141,-0.04612872538030852,10.144317559454802,-3.800680111462477,-1.3195534723077043,0.29388485224110167,28.537535119413906,-16.85691389006199,38.45873120631064,0,S01
500,0.08473044758691137,-0.05230864716281869,10.148832191411218,-4.167914717358717,-1.6806788532582408,0.7828443873908133,29.8330935568073,-17.08556097895825,38.097099478249945,0,S01
520,0.10292712351160217,-0.05916488564670479,10.161634383037374,-4.382640732682103,-1.3988016518713102,0.6302034877936019,29.06825467713851,-16.13041716375702,37.804149578135146,0,S01
540,0.10082798230639951,-0.049368048113434794,10.150040674412825,-4.252277615822341,-0.917575433486792,0.553107972764154,29.757477271285012,-16.0912945261773,37.426933394581994,0,S01
560,0.09026331140260638,-0.04595561510770332,10.137676308558499,-4.459674884317471,-1.0369325370292632,0.9049805347037236,29.355485526332306,-16.569940051288427,37.80308828001517,0,S01
580,0.10112278970321217,-0.06090412066032899,10.147660727222284,-3.843215966251665,-1.422199794514998,1.2809521982837704,28.71322879894208,-17.309961080502546,37.186378627132335,0,S01
600,0.10036819358008554,-0.0443840479602477,10.151539689883732,-4.410680977230874,-1.2525883871954258,0.2692716769413882,29.76559375025075,-16.74150117090165,37.73114642615337,0,S01
620,0.10038406875254821,-0.05425870238789354,10.14464130648232,-3.9308500344625044,-1.3752439138391974,0.5985858419548616,29.14361468574172,-16.3071368101934,37.48560804664071,0,S01
640,0.10410578001606346,-0.05201610565164007,10.142773626924043,-4.929687746135597,-1.1008155077680282,0.8150556894097043,29.046669289697583,-15.731547807424295,38.044067542636384,0,S01
660,0.10342910758467407,-0.05414566427832074,10.155921399224546,-4.462328674322792,-1.4900665981500512,0.9387331628859246,29.78095805475939,-16.692836783769803,37.775129436902006,0,S01
680,0.09673961980130809,-0.056755320627734536,10.141872232187167,-4.266157467870896,-1.4531117798551687,0.3171521329017528,28.69824247111771,-16.412271931673345,38.22669906048921,0,S01
700,0.09008832462580695,-0.05188328074293689,10.148700652161615,-4.709965885110541,-1.2685265317812011,0.5066703647089151,28.843861668638418,-16.894485911165354,37.74841338697584,0,S01
720,0.10863771474892345,-0.04664404786769327,10.140398467912878,-3.952768526476258,-1.4702217452284776,0.7921900484218719,29.11439261942756,-16.078548601176106,38.014683458592486,0,S01
740,0.09471566373170195,-0.05040219021264517,10.145940179343372,-3.9918866249586586,-1.1625664478153408,0.5160220088304303,28.964141449284032,-16.921474195835067,36.976094324765455,0,S01
760,0.09820412767303252,-0.04023375665495059,10.144091772467819,-3.768638718939525,-1.403841884631989,0.4408419143192059,29.69605920752545,-17.399681173046254,37.4863304238478,0,S01
780,0.0979125067890042,-0.049517228433323526,10.14377135621776,-3.7659531349430955,-0.38931193301435507,0.511679748755255,28.617977345365073,-15.827850512851853,37.16663381540737,0,S01
800,0.101394116325431,-0.04861127354591328,10.150474753694333,-4.247989462993972,-1.1475719914412725,-0.15615858021717444,29.189836592031806,-17.25192931480951,37.39716891488415,0,S01
820,0.09730209301128681,-0.04234091827255277,10.145483910316992,-4.1806251706995505,-1.2857690150330823,0.49343097504117983,28.71579425006188,-16.392185640454077,37.90773158859516,0,S01
840,0.09935980043090716,-0.055697070841726044,10.152703489154623,-4.3302338635875195,-0.9834719317026739,0.4964175167058047,28.934976299221496,-16.771809651797568,36.93651090172729,0,S01
860,0.0998445917710896,-0.043728252213676086,10.150902753124656,-4.538504153304687,-1.0108356241464285,1.0330617689321908,29.85955596543397,-15.970079783772244,37.542643011912425,0,S01
880,0.10136554270142117,-0.053124213316457655,10.146205598516259,-3.8630069905078597,-2.027226715259772,0.5349769362731986,29.36986481620093,-15.745216176707023,37.787416488606,0,S01
900,0.10070734366814652,-0.05113406885857526,10.156965003875387,-3.9537672305628195,-0.454294537263092,0.3560019770088399,29.341266927523215,-16.4228350523737,37.74840696380677,0,S01
920,0.09534159725672123,-0.05337173099171638,10.153458315300998,-4.125934716985925,-1.2904139429005472,0.7628995583684609,29.109555245194585,-15.778993540104631,38.273130463186966,0,S01
940,0.10720768008490618,-0.05212903748967833,10.148509221724716,-3.9842290321873857,-1.2561827595822623,0.06655024879684368,29.57614750545969,-16.78712093141931,36.88329458276971,0,S01
960,0.1000685979149367,-0.05035677386461963,10.141695700739053,-4.027237413391385,-1.5756943213831112,0.8431586444437102,28.673970019444937,-16.396665884318253,38.09371581135125,0,S01
980,0.10839299935368768,-0.051710295119445554,10.15266551505181,-3.91567067851408,-0.9244974241564226,0.724250090671837,29.108306427500075,-16.67154114815039,37.63340785353972,0,S01
1000,0.0979424524751318,-0.04647335080313579,10.143153750880687,-3.9848971043717967,-1.354329361898113,1.0132540622979582,28.82468161813603,-16.472380093147457,37.238868109669184,0,S01
1020,0.08877306470640237,-0.0481083088391292,10.139843136621023,-4.427780758556517,-1.5216673302616213,0.7725332430495063,29.220110401263117,-16.939915006538914,37.537014346624936,0,S01
1040,0.10375375649524593,-0.06019590268128361,10.1366308219519,-4.235473982499438,-1.1979600978098495,0.918373247101222,28.99780120664851,-16.82140686954625,38.27170672581571,0,S01
1060,0.09698175116107134,-0.05708257483655064,10.13928816078596,-3.834348205509769,-0.6567766819765904,0.7193999464118692,28.366389502022272,-15.567340230675967,38.18575360278528,0,S01
1080,0.09913066619663055,-0.056603414358008336,10.142556973655083,-3.339460294482926,-1.630962432685282,1.107712854350727,28.63394476298429,-16.374356198044186,37.2978458218531,0,S01
1100,0.11349153719355376,-0.04779446036032609,10.149693151487376,-4.095550349975464,-1.5108676224221638,-0.1409798369027916,29.146712815315947,-16.368161877431383,37.55500492159364,0,S01
1120,0.10342403061483467,-0.0536053830197009,10.151792204479511,-3.728239289789043,-1.0264173437062778,0.7785306809967485,29.530675070453707,-16.497650631494903,37.903202077463625,0,S01
1140,0.09763247842107182,-0.047786776475938,10.134819526945194,-3.8223667782423565,-0.7994035982325862,0.8900809649487725,28.94347684555092,-16.26395831904782,37.58054206172402,0,S01
1160,0.10830047728683305,-0.05673565604663652,10.150481655765258,-3.994486587057364,-0.9078266586612966,1.3370994455119232,29.738625524085943,-16.735784422435763,37.58506893404665,0,S01
1180,0.09376612294855635,-0.05246494583300561,10.15133834152991,-4.405129048250993,-1.386429836141799,0.7766476309348184,29.96101728985752,-16.3547742627605,37.45735817606534,0,S01
1200,0.10384379225071727,-0.0481711673005451,10.14295577212848,-3.757835975177628,-1.1802576285751556,0.25496955099760915,28.822848663199743,-17.010205575589488,37.242457016701216,0,S01
1220,0.10810854669392034,-0.052681248893278326,10.132211317008412,-4.678157528517465,-1.129888087677652,0.07029778135392961,29.326687487654564,-17.1108328149487,37.8546801516749,0,S01
1240,0.09599955769837114,-0.05348525979100727,10.142330251171261,-4.681065630628895,-0.944040502677152,0.1586362142058375,29.319658010375708,-16.02237167039483,37.37637878893207,0,S01
1260,0.0995291263478818,-0.06232848561511954,10.14122531166042,-4.39581116128833,-0.6151311917041933,0.008890599098374086,29.099669602644745,-15.076382109497612,37.62063269474446,0,S01
1280,0.09589088586003752,-0.059598909371537945,10.14614411290659,-3.937845750094781,-1.1265897883368132,0.5528544545664208,29.016933823683882,-16.792979557931957,37.701912831060284,0,S01
1300,0.09119781152000003,-0.05346558228870143,10.143281424347938,-4.041143748786267,-1.2666130410104541,0.6291924208561686,29.745557237608317,-16.627342021215895,38.04608093152076,0,S01
1320,0.09733821768689171,-0.06282971547425084,10.140587626091307,-4.474472536422714,-1.1776155904926866,0.7602836246031208,29.873808064284855,-16.19016263521693,37.47724595262105,0,S01
1340,0.10766743266001111,-0.06400196182113829,10.151664473142503,-4.20150606848317,-0.7018648284857968,0.9266321014454643,28.14679383878359,-16.58069194958107,37.54954997141035,0,S01
1360,0.09060754514718676,-0.05598412192921219,10.154250091209102,-3.649244040800739,-0.8630956073346474,0.6124031699755179,29.369158359345874,-16.697140139221894,36.93318812265698,0,S01
1380,0.09889025076114694,-0.06416778625146968,10.148708968148663,-4.304894879935504,-1.4939889230316012,0.41731037343646515,28.951350684896248,-16.10358882700963,37.34654708359451,0,S01
1400,0.09305469086790696,-0.06315422799932657,10.146475752935947,-4.164197272629064,-0.7950672406107895,0.7742907172510594,29.232205228178064,-15.90718957688753,37.42877403236344,0,S01
1420,0.1054055795090681,-0.061976887360959534,10.14693117963828,-4.12894716178452,-1.1051932302338359,1.2036520373537205,28.967659151115395,-17.03898331857348,37.64969225337635,0,S01
1440,0.09827586678487565,-0.0732206774184072,10.133356438413449,-4.3698117867813036,-1.3325748335098244,0.6112339411716744,29.906999961723592,-16.71508201156057,37.69274667813021,0,S01
1460,0.09306770882378063,-0.0616648683255475,10.145661461310032,-4.411514857251571,-1.1860680257633036,0.5439318922996459,28.868052036668463,-16.907487079157878,38.0215121016044,0,S01
1480,0.10247178614076807,-0.06454405246065999,10.143998207534965,-4.592046737900234,-1.2180967053863117,0.4905661165555048,28.826691055754264,-15.837204265576133,37.58338899648093,0,S01
1500,0.09740663555666758,-0.07198379236644974,10.15064358678323,-4.008898080911977,-1.0778862989551947,0.8501491691667357,29.382720516626595,-17.56113199474581,37.82629744515649,0,S01
1520,0.09847632077895581,-0.0737857359954996,10.162064043514354,-4.059614350306941,-0.9748441740349094,0.8116898577976923,28.408179365003786,-17.101271525185425,37.99372724371509,0,S01
1540,0.09852578303736739,-0.06609890067177018,10.157925324702928,-4.03589609808827,-1.3532081816958494,0.8185000210276432,28.283780301825885,-16.85965936624944,37.35664131639981,0,S01
1560,0.09183095305454206,-0.07188625897424882,10.148316622207604,-4.683262648130323,-1.166464505073118,0.19316376226051585,29.40792561333943,-16.132332836097554,37.0977604520619,0,S01
1580,0.10820151115199184,-0.06894262130123638,10.13466235760749,-4.331688877980763,-1.0271722485795385,0.7598121569316509,29.070697173467206,-15.880291069526153,36.79934408521875,0,S01
1600,0.09755357409717294,-0.0655262520457141,10.1402329309452,-3.53989964787117,-1.1331267509630512,0.2934011064880173,29.162344282259273,-17.22296171565803,38.01711272462271,0,S01
1620,0.10360119031795852,-0.05835566745014384,10.14827223481779,-3.927754892485125,-1.536798896206177,0.8084434361700786,28.753382962191388,-15.94909006873513,37.47351679431197,0,S01
1640,0.0912993649406105,-0.06625901485867458,10.148648920655793,-3.864043598345005,-0.7391430358181492,1.343149713533399,29.004978113037897,-16.597223161847122,37.74180706510769,0,S01
1660,0.0926648909832386,-0.0698209288572718,10.144275811530742,-4.076510173270761,-1.2310534531059187,0.41623723962180104,28.612520958505215,-15.738836943246959,37.39328859706499,0,S01
1680,0.09641228809119423,-0.0675238018561446,10.145752355815139,-4.613342709995243,-1.4219675650222239,0.38707604036693954,29.655994128762973,-15.87892376848197,37.42397957875573,0,S01
1700,0.0961967813881293,-0.07165942295493027,10.139437563994212,-4.057044022502668,-0.3656217145374434,0.6396128452456344,29.175900743425675,-16.82794132021997,37.54080690890926,0,S01
1720,0.09663423715601353,-0.07747169102045158,10.150240685768408,-4.520635930671634,-1.3175098894144017,1.2576668007520717,29.669205661950542,-15.723152972747155,37.31341226284828,0,S01
1740,0.10336827213936146,-0.06676784882964429,10.139991281397553,-4.514247699123772,-1.7524370806304455,0.4640658836976068,29.398738095301876,-16.82193434235739,37.707163536946695,0,S01
1760,0.10004419844064497,-0.07115007359396429,10.149539234960828,-4.292717571895171,-1.1694971820768711,0.5850059735728288,28.71464176252273,-16.287020707029292,37.96846401284894,0,S01
1780,0.10115472884470708,-0.08121314508261394,10.14355367584239,-4.445039748193647,-1.7419869958208403,0.37390376791722507,29.795101212188246,-16.35953291503373,36.82803356087655,0,S01
1800,0.09897731042611414,-0.07588425508792117,10.137095265363758,-4.177794924884092,-1.3176563632122578,0.6665656160322561,29.152191910205694,-16.368183013419454,37.66388660145147,0,S01
1820,0.11033448532716643,-0.06922523349126732,10.151222371586831,-4.4489517425083,-1.0886770417807419,0.8162792320866117,29.02130339306977,-16.67767669272543,38.02940398577974,0,S01
1840,0.09877936907716961,-0.07686935304699913,10.149572548693657,-4.4408739963030195,-1.5000120831597754,0.8949961486867697,29.419267915484955,-16.385050799797092,38.37289103555282,0,S01
1860,0.10482116963667072,-0.08393588938584164,10.136239551269481,-4.319445924509463,-1.5082798460371998,0.326346472109139,28.450013435837217,-16.610901116207316,37.06696842913777,0,S01
1880,0.10738448513904243,-0.08374068794238951,10.141393690951334,-4.130761743995567,-0.9519041587157213,0.39370072394723865,29.02971377100296,-16.56498774303221,37.51989293371844,0,S01
1900,0.09886201091949262,-0.07671311471645471,10.15103247120542,-3.9759478609851664,-1.2951549647010838,0.6744410964399619,30.01983179306985,-16.537447306990636,37.50231968618378,0,S01
1920,0.10998880850340995,-0.07500586223701958,10.146634162852697,-3.836599115737656,-1.1164705872552851,0.4923299106873172,29.206332777953836,-16.216433193822006,37.9580094747891,0,S01
1940,0.10870748271661565,-0.08334567393006692,10.153694827222695,-4.030915560382609,-1.3587451545021958,0.2641609165501828,28.3529021146674,-17.01541641016722,37.58741676610983,0,S01
1960,0.10590482892850502,-0.0845227975522612,10.149280979094605,-4.945148281454167,-1.165326494431434,0.01846908064896935,28.949445471658557,-16.745606353047382,38.048855997227236,0,S01
1980,0.09978295837491251,-0.082583765932885,10.153787072788166,-3.8233907081862992,-1.2819831179862506,0.15280355580123434,28.812951902823333,-16.74029953013404,37.507835455943734,0,S01
2000,0.10608575193799544,-0.08735056767731422,10.156045765730493,-3.695591369453008,-1.059936051380949,0.7344072424109084,29.252681612788734,-16.450943999026062,37.34083507622997,0,S01
2020,0.10577718910170145,-0.08536840513687065,10.142066420639253,-4.192078136011967,-1.373176966962319,0.5843838733012997,29.250945547088573,-16.74214594000145,38.21600447682925,0,S01
2040,0.0947061072822619,-0.07256180462921952,10.147466766893361,-3.7249831444324513,-1.5656736129059214,0.5091548484520155,30.03325144843091,-17.10415621343799,37.71848997298607,0,S01
2060,0.0933435316324761,-0.0733725240911407,10.144777068505142,-4.106350638766077,-1.4787323839543458,0.6099160567195807,28.7596870245762,-16.841746109118812,38.007923658966234,0,S01
2080,0.09743950219872322,-0.07912308699665527,10.155079428299677,-3.995701030701625,-1.181248814336394,1.1519045717958403,29.377559418172268,-16.543598689195974,37.192790338590775,0,S01
2100,0.10181091898116952,-0.08206243864467261,10.147050202762397,-4.2296791839466135,-1.2159675032129686,0.4534268184885155,29.8898587595738,-16.280436224431444,37.71195713180285,0,S01
2120,0.10329203399299894,-0.08858796000602018,10.146654495951138,-4.222553274648712,-1.0976165836712142,1.083450895239624,29.269735137473916,-16.419154667010904,38.00900674407847,0,S01
2140,0.10240346028843748,-0.0958143833589607,10.144970595088894,-4.216188151297227,-1.2111217160409533,0.6408043042939402,29.47306780722562,-16.751006282979162,38.03272766472466,0,S01
2160,0.09815563543536786,-0.08001485683363854,10.143125649548395,-4.075729806763152,-1.1002379132097757,0.5843179253715337,29.591629577624797,-16.487396322541244,37.085730633869574,0,S01
2180,0.09356273822828676,-0.08960605993984877,10.153107298611948,-4.02432606612588,-1.182754671080136,0.6206856988582222,29.123413776737223,-17.08172753358268,37.648606708445676,0,S01
2200,0.10271927898798451,-0.08055650989578492,10.142814710747093,-4.186312908371566,-1.2862184500262566,0.863486127320534,27.98973248056826,-16.360945908462117,37.90782778261652,0,S01
2220,0.10063356327006721,-0.08502181507693941,10.14931081643595,-4.1798857955086435,-0.9507802137891385,0.5812879621411122,29.138075275370287,-15.220542933722884,37.97916966477704,0,S01
2240,0.10574029692177705,-0.08315419791338122,10.148683555783059,-3.8086904599343145,-1.2389615195946304,1.1865211329602836,29.872624293860845,-16.212547998371488,37.69242763479949,0,S01
2260,0.09895839962132488,-0.0863238528686536,10.152346343581009,-4.091129167277148,-1.383200601346042,0.6475193141320971,29.27221710631808,-16.149854151132175,36.91071543226213,0,S01
2280,0.10650996534003666,-0.0971501191995503,10.139279859995575,-4.438485520131641,-1.5387528663699155,0.16347202930850646,29.43245810256759,-16.078805577865737,37.94290216081751,0,S01
2300,0.11256711341483659,-0.09316543001390773,10.139533401335079,-4.621557304930823,-0.8903627760800235,0.6022444296090026,29.08954819626342,-16.556669667617033,37.263069553822646,0,S01
2320,0.10293051601213953,-0.08463854709331073,10.156329468462443,-3.7664472883731266,-1.441684761172155,0.5624689291370947,29.529767284596844,-15.84978810254636,37.24855398198048,0,S01
2340,0.10185289055047679,-0.0803644749174944,10.153843230348032,-4.217147564822107,-0.6488791834479397,0.887456133655826,28.744709263452084,-17.005247846106077,38.37175397622993,0,S01
2360,0.09797008913942509,-0.08851306481485759,10.154582808124731,-3.433237279033912,-1.4370696364038533,0.5378403429892277,29.576526637694975,-16.7636556899294,38.06852412553209,0,S01
2380,0.1078289556375055,-0.08585939968280316,10.147710302246281,-4.287907909476027,-1.0200992116192737,1.2389212060359083,29.047090896968033,-15.992837236361527,37.92981620075485,0,S01
2400,0.09235688001720986,-0.08531716484762447,10.150825640275682,-4.317721359666293,-1.1899375391083105,1.166300102743991,29.941977046329765,-16.03512190687123,36.96706282661565,0,S01
2420,0.09961917496734146,-0.09614881523905106,10.140993970177334,-4.133750020962827,-1.0717121328893515,0.5698877227599827,28.485038026008112,-16.76961874349287,38.340196536517695,0,S01
2440,0.09789635249836162,-0.08433107983069812,10.153968658191957,-4.443181954925852,-1.6890680103669566,0.5987693441686519,28.385478363115514,-16.820611600777326,36.91339133613199,0,S01
2460,0.1066923515499206,-0.09004710771529312,10.144323181583394,-4.0075326900279356,-1.0649309041200388,0.8821333085048091,28.853331074135273,-16.567312842914262,37.963900729131645,0,S01
2480,0.1038189609634713,-0.09321665493480459,10.138613820457412,-3.9689234106586913,-1.1125985649658394,0.8660534967276616,29.021272667005853,-15.491443515148784,37.57093322523522,0,S01
2500,0.10274173761590241,-0.08871381528967302,10.144230713920868,-4.425637826757389,-1.3195376921196416,0.5570539029819819,29.65419047414722,-16.88891452130072,37.46971398564102,0,S01
2520,0.10650716045341528,-0.09651312969411689,10.156768171974091,-3.7555526898361022,-1.0873177547006847,0.8541382097160183,29.03802298728157,-16.013658471101834,37.60760326057991,0,S01
2540,0.10162132223408686,-0.08938302848559708,10.152584840859992,-3.663142445649544,-1.1991878030333587,0.4401051966693166,28.513078828625765,-16.307219474313833,37.77943896391749,0,S01
2560,0.09586897545926643,-0.09173590216212525,10.147219198220311,-3.905645330641877,-1.2503204538158326,0.7623884974773105,29.759395402198983,-16.48440659249634,37.26850662973431,0,S01
2580,0.08928348110915581,-0.09421084028868028,10.152208453540913,-4.252769456152691,-1.4118481811605634,0.4703936274647794,29.260130096103545,-16.95470810160078,37.58562985430915,0,S01
2600,0.09682553558570026,-0.08744279052770972,10.13577449750614,-3.899416726853099,-1.2376375422025203,0.39262478015229585,29.272812236288697,-17.289269095996623,37.345795937859,0,S01
2620,0.10382920286649824,-0.09060065415173471,10.146011914927163,-4.286588644362989,-1.8029045077720882,0.6344967254352969,29.168673202825268,-15.755418742215221,38.201411789337,0,S01
2640,0.09420141543972413,-0.0833152429115085,10.139867151616619,-3.9779443464401685,-1.2513150854916377,1.1904685196804594,29.290853741092764,-16.762883563247964,37.37095224847831,0,S01
2660,0.10509776684728635,-0.08754976987160568,10.139883302788906,-4.203182014955495,-1.0474045782190586,0.5119533196258811,28.63465351872111,-15.994504900283534,37.92043142657794,0,S01
2680,0.09679294287835345,-0.088581998823514,10.156511784879344,-4.327133988727738,-1.2178282271468297,1.0494110024159324,29.814939941633174,-16.471561112849407,36.98833769946397,0,S01
2700,0.10310099213166002,-0.08963651809400561,10.151180325756865,-4.109317216676318,-0.857904851558389,0.6644730027486914,28.765189175185906,-16.627026603824635,36.74129509745209,0,S01
2720,0.08720802984443651,-0.09549852833658826,10.148700294119896,-4.027654953793778,-1.287841958430103,0.4415932621814118,29.43014820210438,-16.413533743051197,37.596891108961515,0,S01
2740,0.1048785309129027,-0.07359345912185716,10.149984255450478,-4.166441305865733,-1.111178322794118,0.21579351519908063,29.450591568249425,-16.318522460671808,38.199991101583265,0,S01
2760,0.09767591287253692,-0.07880997115108204,10.141406450927244,-4.317284177248178,-1.0262517151762216,0.7361642152924113,29.0995198964813,-15.759609438229559,37.489960853840444,0,S01
2780,0.10208876540783166,-0.087116835438428,10.148449375487179,-3.9596841056890746,-1.218274803888552,0.7372452115633448,29.276260484477227,-16.3123506025605,37.978356896594,0,S01
2800,0.09757050656555603,-0.08243246719020625,10.140505892324457,-3.8637441400426455,-1.8106786497383789,0.5412038024513792,28.669594397875514,-16.5441347167271,37.4595549409611,0,S01
2820,0.09369324167957639,-0.09018766880830692,10.143925363756413,-4.123472639906885,-1.3722156408528838,0.9644029382401955,28.648447336174197,-15.54529064374506,38.14436808044312,0,S01
2840,0.1047838682096755,-0.08266513336574227,10.137980729428662,-4.331846752323717,-1.4981161451830547,1.2061355703323118,29.172820707814672,-16.197526284439395,37.800225280379415,0,S01
2860,0.09992033927940999,-0.0827176732824027,10.145176505099053,-4.498000601542989,-1.3537090539034708,0.9454424312882794,29.788566384615986,-16.0602637477339,37.22456826911804,0,S01
2880,0.10332478977275049,-0.0790964559361018,10.148697201327368,-4.387375642953893,-1.2013682201546698,0.8024470735769846,29.204124108632048,-16.941745526287427,37.98464039460778,0,S01
2900,0.10315812724118366,-0.08721322768062749,10.148176555804058,-4.331706592855868,-1.9968370581625265,0.6964013482342237,29.18023109767348,-16.304318666958622,37.645463345261994,0,S01
2920,0.09355421223026529,-0.08204717091805909,10.146449936739984,-4.9300404178535135,-1.7088446706515183,0.6741684819803515,29.91735125573035,-16.059130835273592,37.97059243467172,0,S01
2940,0.10222473791484919,-0.08033542659253004,10.143623983710999,-4.468372477302864,-1.6042097479334125,0.30936561111392963,28.773375974083415,-16.499483100148424,37.42096397635509,0,S01
2960,0.09367242957554717,-0.08360603997390595,10.147071277216567,-4.593391120680815,-1.2394705336447143,1.31823674281185,28.53147408204475,-16.13785356535448,37.73395843232623,0,S01
2980,0.10859902532895627,-0.08324504247293489,10.149476306934975,-4.520957667855595,-1.0348779877647942,0.5773683037149382,29.36344091382045,-16.873807768990886,38.199313914824955,0,S01
3000,0.09811936224137988,-0.08144299081578357,10.151088095257759,-4.076327181098082,-0.8859810661938108,0.21805654639550226,28.518641511166294,-16.307986203323043,37.92651642645732,0,S01
3020,0.10382290429975172,-0.07820251413625472,10.143427429060694,-4.714299653150372,-0.6253749680967552,0.6625629090114656,29.34092921500419,-16.97318430480231,37.617582908667636,0,S01
3040,0.09146608140890239,-0.08534728504660567,10.14293950089206,-4.1097161608526,-1.0905485848972463,0.7564000072586439,29.152054808021028,-16.71583171404667,37.74139934231304,0,S01
3060,0.1084234538593809,-0.07606380037546924,10.150902779819809,-4.167585694481397,-1.1107198060839667,0.24865460327343902,28.144696395406623,-16.113049992060535,37.77878920952986,0,S01
3080,0.10804743312182122,-0.07425786292799309,10.141396183050286,-4.419780006648887,-1.2253914445482141,0.3215401610161645,29.262845788485468,-16.31012798348103,37.96296822634943,0,S01
3100,0.10578567692453751,-0.07673117214279132,10.147018627936756,-3.9407571855752974,-1.3375556202518077,0.5061753544348035,29.50413051334357,-16.186566625628373,37.79620743127211,0,S01
3120,0.09496289130496682,-0.08022134929845676,10.141451892966241,-4.545281589426276,-1.267449727242587,0.3321545812196753,29.34182868867137,-17.075446770271974,38.475330181417945,0,S01
3140,0.09489055603555577,-0.06857021652479704,10.15221908141648,-4.203678253860678,-1.301451312982707,0.5944183155426971,29.212593494215938,-16.840495621209243,38.07842270893268,0,S01
3160,0.09841874774892413,-0.07326822232124894,10.137478514340705,-4.330848339072384,-1.3429344523591913,0.2423465351079519,29.30576335245019,-16.230764963248742,37.70959929596187,0,S01
3180,0.10242623205717916,-0.06932429673130776,10.150468909386381,-4.310453865977934,-0.7653170932866813,1.2682634990357349,28.679191520325332,-16.07787371557302,37.61914101963677,0,S01
3200,0.10056625596056412,-0.08134425988235323,10.145881865691823,-4.11155936094332,-0.9369288656524648,-0.05708291917723618,29.411026708364716,-16.05803335597506,37.3471508151722,0,S01
3220,0.09367360463160475,-0.0700767804686254,10.143201217030606,-4.286397672173189,-1.423498124727588,0.3354044783544773,29.1789419170391,-16.010498082298007,37.20669776546558,0,S01
3240,0.10209037957477043,-0.0676934215781178,10.143127477863226,-3.4539862765519347,-1.0075582550903122,1.038508518045591,29.042081795877337,-16.823467975309143,37.955114560681096,0,S01
3260,0.08909008252102414,-0.06549128029312429,10.149843404651122,-4.864444952132265,-1.3869522244930148,0.973919656052344,28.841395905465152,-17.22771628693229,37.47086332077327,0,S01
3280,0.09604612713530145,-0.06428012664720133,10.134596986199705,-3.92223052486899,-0.9683861355906456,0.37282890291297177,28.717547960149663,-16.17017698134548,36.59402251060634,0,S01
3300,0.10505811843176747,-0.06812152393382485,10.145481795873234,-4.426198671488523,-1.3913376202273102,0.20606044880571783,29.15742662495859,-16.906912650735602,37.635865407005646,0,S01
3320,0.08988214424744821,-0.07414533145731601,10.139530337412305,-4.381393915135325,-0.9862694142356432,0.17751586524084917,29.429746609435917,-15.797840251171827,38.05647641507975,0,S01
3340,0.09332686871973725,-0.06458502317596783,10.140379679028523,-4.149889838590424,-1.3565423631712263,0.39045919982962196,28.974603442910794,-15.519510528656257,37.701879318551306,0,S01
3360,0.10685592437123978,-0.06976003705322492,10.149925000582774,-3.9164555254397855,-0.8215828492768713,0.6133045774479831,29.08127610266595,-16.61277836731015,37.538117623814024,0,S01
3380,0.0969293939496365,-0.05883264768500377,10.142650070063242,-3.9694343546225923,-0.9850246478667886,0.9474563238287956,28.669791304446377,-15.888891687977113,38.05879287068926,0,S01
3400,0.10149013641516005,-0.06759101016494225,10.14924547683457,-4.35303450362354,-0.7887928571503026,0.4147878650764254,28.712876737869074,-15.948812715071277,37.40221595908659,0,S01
3420,0.09897786321403297,-0.06084307827938255,10.150476353759348,-4.743974220840472,-1.602448627642256,0.5907229867175681,29.19220043006864,-15.984779208122069,37.63275518767539,0,S01
3440,0.10300790668668773,-0.0638396345139815,10.145400559185855,-3.761613652540712,-1.1891833568272505,1.038152036850934,29.071611414163865,-15.741140642992084,37.92916761955129,0,S01
3460,0.09849555823076478,-0.06003558544414796,10.147862916420182,-4.313342410107886,-1.1276168245427258,0.9418999936344079,29.62452403782536,-16.414269798848686,37.295340033667046,0,S01
3480,0.10227828361356835,-0.06087956756602388,10.143675912196946,-3.8788535982965926,-1.5114071834757532,0.4437268467499599,29.581611127905582,-16.232535603930142,37.564103372850425,0,S01
3500,0.09734238562487796,-0.06872196514100179,10.148252139221784,-4.550809169735794,-1.0434942725729128,0.8041965264035189,29.278359580490086,-16.34699508488042,37.119748102776086,0,S01
3520,0.098729436202323,-0.06921957193173593,10.14296458958009,-4.323583106501675,-1.3907089596646336,0.05053730260033873,28.749319390637144,-16.063211327529743,37.85606067992754,0,S01
3540,0.10517257578212724,-0.05413075979258007,10.134890290453315,-4.046266771885168,-1.3232154559808564,1.087634275172341,29.27280206518178,-16.66884890296615,37.01326553690234,0,S01
3560,0.1029333735418298,-0.05140835325488852,10.141824656246875,-4.079252677455865,-1.3720295975859589,0.8864567628028474,29.717033543296672,-16.17704087543614,38.45677501045302,0,S01
3580,0.10036484008308494,-0.07106799233451715,10.142380795744032,-3.4806288846366735,-2.247577954478148,0.7331198302693115,28.981526965752302,-16.188857696897067,37.79135661895088,0,S01
3600,0.10351327793715256,-0.06167933423555851,10.148148469118606,-4.034604503596626,-1.1210337180950516,0.9771894264970241,29.449038970792305,-16.390122686849026,37.93442717456002,0,S01
3620,0.09424693306227717,-0.054390948837112874,10.134677957149917,-4.325507692704239,-0.9356139692201747,0.996110124871816,28.757413757064523,-16.339480996678674,36.991250725796064,0,S01
3640,0.09840742106867188,-0.05905039238369891,10.150757967594352,-4.147539932633858,-1.5521040132253467,0.07982705474309493,28.902267769046745,-16.95027130070079,37.668252416285256,0,S01
3660,0.10711224497170704,-0.058845152515474966,10.138420775519654,-4.601219026076667,-1.2358706831025734,0.8266459729691915,28.37993036146413,-17.106574573768377,38.224623901468725,0,S01
3680,0.09583043021172549,-0.0559531454303683,10.14701233616467,-4.4477525594030105,-1.099783762925484,0.4331798656412864,29.738587392784307,-16.304616700646797,37.75555338871488,0,S01
3700,0.0984412049133824,-0.06100812201940911,10.144993737289658,-4.396013998718369,-1.13056570932948,0.8533538204656194,29.57238924918137,-16.215675963719047,37.57203250497581,0,S01
3720,0.09696578750068571,-0.0631107369767014,10.146238048020068,-4.157855536935302,-1.0107276112806627,0.8699159436641919,30.301352167102667,-16.47014662600624,38.05260618813188,0,S01
3740,0.10551592707415487,-0.0569561730242386,10.143741173610858,-4.375281525390521,-1.0211889727713808,1.4083277393061726,29.35393406367196,-16.35117586379748,37.98888230415155,0,S01
3760,0.09843546207737695,-0.0549964406784528,10.149927605948243,-4.206709737721058,-0.8767917191862705,0.7430602425375684,29.450405744980863,-16.887938298944647,38.31934780683329,0,S01
3780,0.10373477724522098,-0.04796146654161365,10.140876878508477,-4.5601771480657725,-0.7507455960846188,0.4191414422046059,29.541157722488293,-16.956229986282587,37.56171615923702,0,S01
3800,0.10311989030868686,-0.05980791798960966,10.14526600827969,-3.974775521898018,-0.7646816833263437,0.4129460613437854,28.82456984239044,-16.110144677152235,37.72636643626494,0,S01
3820,0.09475499899438992,-0.05847823737322379,10.148336874318678,-4.601585367037179,-1.257192248364966,0.4677629025449016,29.899291405948496,-16.913799066570775,37.627345638708185,0,S01
3840,0.10173880529212041,-0.05919774614329204,10.1440733706357,-4.592980492075992,-0.9135314486261532,0.3825982160473302,29.33230576184722,-17.444837600838397,37.929196619209335,0,S01
3860,0.10324543784440503,-0.060147693232937914,10.14431391908086,-4.019935851441493,-1.2435192368130288,0.4354807738721163,28.839515796820503,-16.565204726154015,37.49747959466207,0,S01
3880,0.1014435160168547,-0.05622730259239863,10.153207221141493,-4.404988329753891,-1.6190130524933175,-0.1180843495426086,29.820363922813762,-16.590427743820232,37.30802264161552,0,S01
3900,0.10329333750465486,-0.0546599035084729,10.139114834212585,-3.9374906568574817,-1.090370999888639,0.6187124356908364,29.26016410786913,-16.53428549785575,37.2389546651355,0,S01
3920,0.09761075145912254,-0.05433301431807962,10.147397228087943,-4.563520507969049,-1.3826764015748265,0.11417240082544383,29.089776879523072,-17.175895107996595,38.21311148585665,0,S01
3940,0.09931717145828163,-0.0472917622033684,10.149403424742271,-4.187129027366581,-1.7400980797471952,0.9214085096178276,29.543577821488107,-16.392358077793148,37.96011770126242,0,S01
3960,0.09447935859429134,-0.05196666929118718,10.135145455526612,-3.719335338589224,-1.2560966371174742,0.21485904782595133,29.849214967524674,-16.71374961292581,38.13832607002673,0,S01
3980,0.09429397062557639,-0.055273715977403826,10.149396762290486,-4.2742540969906635,-0.534114052090467,1.0947686996700634,28.44149198257722,-16.988919190934418,37.96800446776526,0,S01
4000,0.09755797609456754,-0.044891362658988195,10.149343769958577,-3.7672414249772115,-1.002500332940777,0.8886122212821973,28.705724266850574,-17.84789917843249,37.6970675870626,0,S01
4020,0.10073095692451109,-0.05338374457970382,10.142153668352556,-3.6718084061279015,-1.4393526104793137,0.8962659056865927,29.781489858971042,-16.259210686276386,37.73944334264338,0,S01
4040,0.1038827232343611,-0.052579378041000706,10.154226090501565,-3.8108791926915875,-1.2587598203564252,0.7312943848941668,29.239617597372284,-16.59895833053328,37.141805482173794,0,S01
4060,0.1031158467611279,-0.05348933610477271,10.149675531844107,-4.4824881549607145,-1.4235253248693764,1.2288988629121258,28.9425978771063,-16.24764049741396,37.799339331051506,0,S01
4080,0.09798538186486214,-0.04748255596141846,10.147627397448002,-4.073424928371074,-0.5419055528456752,0.30914473845554735,29.27497399442653,-16.735266665926808,37.45589271839879,0,S01
4100,0.09362474307651418,-0.0470739025837162,10.142705542595936,-3.811709424058159,-1.2684584054488488,0.6824960057652152,28.46984429898521,-16.793218424433466,37.7879514356618,0,S01
4120,0.09187504283467436,-0.043106933951293544,10.145832370472078,-4.263615155902019,-1.1385965831492015,0.7628781961510811,28.476910231761693,-16.759105733531932,37.454604846438734,0,S01
4140,0.10710695393947355,-0.05378499284598956,10.145826480268576,-4.455437840746087,-0.8260788592289331,0.5766131431629443,29.198235997466085,-16.373996115432725,37.747781701163596,0,S01
4160,0.09761825060753646,-0.051613455081707185,10.156709188698333,-4.540796328172731,-1.0206964309637119,0.510805294602978,29.29571734340499,-16.603800999264706,37.32093603408358,0,S01
4180,0.0972654719766385,-0.04450751863497659,10.147007449390234,-3.8688770868830096,-0.651088756037561,0.9717147133893628,29.171154322196905,-16.421536862460542,37.807882579185595,0,S01
4200,0.10076277573684869,-0.04214639244149236,10.146969235913929,-4.503904282554689,-1.3728752371727135,0.1693345568947085,29.86089728851721,-17.081452094779145,38.17904750386021,0,S01
4220,0.09506967832192884,-0.05503853376088391,10.151386810323462,-4.023239313538765,-1.1573272587068733,0.8250697046535442,29.533742006214077,-16.84291376767768,36.709734044233215,0,S01
4240,0.09847689869634224,-0.05552339191109629,10.147071324336121,-4.121665707144729,-1.775206368113793,0.6380750829337486,29.407890028692837,-15.828770014869429,38.79051082677085,0,S01
4260,0.10324785674834075,-0.05278861570345586,10.147826165101607,-3.939678368963361,-1.0552315766032607,0.9148499097429965,29.172733365718557,-16.306732229070725,37.800891902592795,0,S01
4280,0.09969455591485075,-0.05332286146313907,10.148619861867077,-4.31004466731995,-1.4630860109502335,0.6369004276642624,28.483186227795343,-16.6722132443526,38.27752062463075,0,S01
4300,0.10113844251868875,-0.043093315357747755,10.142152140514222,-4.56799118453068,-1.027372390800164,0.11121998027073399,29.218355334410774,-16.174573400536552,37.42183547777629,0,S01
4320,0.10509218366141897,-0.04849727650799984,10.147973895951365,-3.887745026981219,-1.7124666874758205,1.0269839190828023,28.979764768667007,-16.778898367222737,37.69588151862502,0,S01
4340,0.10325407168166656,-0.052241096085835936,10.144151077844397,-4.027153531851456,-0.8050891466553666,0.8841878425389802,29.523745753831335,-17.140943698317407,38.07734957676759,0,S01
4360,0.09985116406449138,-0.057859747859882404,10.141540950675028,-4.438015696085916,-1.7682987001595336,0.3221869888219748,29.528064228797245,-16.619854486877486,36.36066911244799,0,S01
4380,0.10331464737655753,-0.04565569181436803,10.14912625454862,-3.8968071079817954,-1.680428323901411,0.71331429172378,29.383924928133993,-16.93070848298303,38.41240611194894,0,S01
4400,0.09732725392062247,-0.05643093967601664,10.142150808333772,-4.162469478616828,-1.3894548033713279,0.6098961729982072,29.008663625607376,-16.81689049478637,37.1806331559953,0,S01
4420,0.0948994296784465,-0.046372629065319956,10.152634024802646,-4.565302533865022,-1.0823512906263677,1.1288997810529824,29.484716573083837,-16.303200433109012,37.08307753924617,0,S01
4440,0.09591334421411754,-0.047066978103574415,10.14614186089669,-4.1563636936906905,-1.3293709091897268,0.819010058542937,29.958838320665844,-16.481060987230062,37.93415548902111,0,S01
4460,0.10220236811711378,-0.05804060698999321,10.152306180768894,-3.898984130425999,-0.8000368223949464,0.7613912528006623,29.253402309821883,-17.21552119342266,37.92885600138043,0,S01
4480,0.1031357764292927,-0.04647378152609655,10.147891655589262,-3.3713476972398313,-0.8421381073671996,0.6950802638523174,28.77506177174118,-15.57468775882705,37.27159196214253,0,S01
4500,0.10037208004833334,-0.05621781782049048,10.144109085803192,-3.4700453957292305,-1.3740598866137193,0.7552497418027855,28.746431506848232,-17.06867145500781,38.13606662788144,0,S01
4520,0.10234509362350501,-0.06154454690702417,10.137338272349695,-4.102537594426084,-1.5037098742312023,0.28263901153725846,29.589209844520024,-16.05817455458642,38.36089690546059,0,S01
4540,0.10198671828154832,-0.056678395226467455,10.14916262566243,-4.301081540699423,-0.7391446211080951,1.0960082720325188,29.22859809293074,-16.545859646892538,37.51278657964514,0,S01
4560,0.10829119814336496,-0.058698780987467045,10.143724441643027,-4.311438538674452,-1.1508265056127482,-0.31105450526428735,29.246869749110985,-16.71479541733885,37.489168145035364,0,S01
4580,0.10612638762616113,-0.05052894242568602,10.148813091115933,-4.929388803873886,-0.670084645220377,0.8010744344853392,28.694138831056286,-16.056667396535296,37.275414600174436,0,S01
4600,0.1027042165130605,-0.059408412268811064,10.13904845003826,-4.3444691275149765,-1.184098784534579,0.05934478265836585,28.5092804396466,-16.934221937098698,37.00179024620194,0,S01
4620,0.09169551252549797,-0.0684521447687358,10.146772752341924,-3.971378846178321,-1.0225909924971543,1.544733800570722,28.794166935079954,-16.782125077603716,38.155532923362784,0,S01
4640,0.09879581340137261,-0.05861917765142739,10.145117507871559,-3.906934911492696,-0.8872769076611204,0.374500270891848,29.566657447751368,-17.069563997634777,37.80687584045029,0,S01
4660,0.09995252172580475,-0.061803122712155205,10.143959477951165,-4.089068379181731,-1.1883553639869873,0.6906344192024603,29.121726772862548,-16.53311952669336,37.939629649106834,0,S01
4680,0.10451386389815294,-0.05424260854130479,10.142110246212274,-4.405770323748907,-0.9243332139266562,0.27947702048486894,29.115776291678287,-16.144160957677293,38.09894481493062,0,S01
4700,0.09845017989273383,-0.06622131927673401,10.145766229376006,-4.33582170402789,-1.4448600591600802,1.0661492399490848,28.49341867825374,-16.791421017876345,38.221248198045274,0,S01
4720,0.10378310345426356,-0.05407175529093357,10.147387179304292,-4.946040198304212,-0.7795995730250511,0.37407215554127826,29.992120420406412,-16.650018261156433,38.1340902468499,0,S01
4740,0.10392480816585739,-0.06303883991748963,10.13856340491775,-4.05848878281035,-1.0806856043591957,0.2867549062227843,28.92437892246163,-16.675492045766674,37.74820113907544,0,S01
4760,0.10933577153280771,-0.06366860789436721,10.152075737185358,-4.395407349883682,-1.260886245625009,0.2590507272309207,29.515643958512733,-16.451338415303955,37.74029504216284,0,S01
4780,0.10970864763518152,-0.058105322700212035,10.146924244460937,-3.7932808559092988,-1.1484803616405181,0.6693040842861717,29.012912543386022,-15.873219917586262,37.95699214548382,0,S01
4800,0.1028674088011471,-0.06251429107419312,10.148741117174287,-3.770527715023069,-1.2306883648059301,1.0207682379525125,29.13152513620903,-16.72120980547538,36.789057426269075,0,S01
4820,0.09531787812498989,-0.062002479488706956,10.140091657767176,-3.8071761467608156,-1.5732105849445381,0.37981092787266324,29.140860701276186,-16.354419936676898,37.679469831096405,0,S01
4840,0.09893994909103489,-0.05505363440013037,10.138651369086109,-4.430530681469767,-1.2375872584843837,0.5639163173512024,29.272516771943344,-16.912485516325887,38.338924499903406,0,S01
4860,0.10659921793131917,-0.06696270267375266,10.137974892847117,-4.3682460342736285,-0.43510771705395357,0.08688227091514433,28.61451141908699,-17.020985414025134,38.1432628984922,0,S01
4880,0.10226198723658601,-0.06696920548684364,10.151021821498247,-4.063350614135578,-0.7677971967362026,0.7055490563379365,29.136866030824887,-15.866117102229639,37.92919788958371,0,S01
4900,0.09567865106998003,-0.06860936062878495,10.145702032833325,-4.3905790861084615,-1.8430406485019035,0.7457154864991491,28.984940380727384,-16.841656531074754,37.5937935262221,0,S01
4920,0.10031000595889795,-0.06822671226413636,10.145064400146659,-4.5768665593843485,-1.5700328174263902,0.7071500765218576,28.86417197073343,-16.501424859957446,37.34062982079111,0,S01
4940,0.09874316522991317,-0.07444117047191515,10.142556653118026,-4.248931888685841,-1.8852789761710724,0.3549853496987692,28.893456738275987,-16.902598513568215,37.84161726647514,0,S01
4960,0.11105568354771295,-0.07921877727121833,10.143961154603005,-4.246234810263002,-1.29353682769351,0.5312195212087681,28.54136531918245,-16.103051496947145,38.66649143146208,0,S01
4980,0.09673790013738946,-0.07352557420899065,10.144900023836229,-3.8620552570101445,-1.2372917155816432,0.08144062617919978,28.711627472095206,-15.5710066210047,37.263374952450626,0,S01
5000,0.09461815165634635,-0.07456901596996693,10.15223377805865,-4.05466037947861,-1.3821313198555418,0.08669820690368413,29.286893747946735,-15.522197076185837,36.93903416316249,0,S01
5020,0.09695310190411778,-0.06805776010463345,10.148003366499736,-4.299303825865911,-0.8416829258417848,0.5410221400886868,29.302380119359437,-16.80456544362229,37.588395104127684,0,S01
5040,0.10121650740252892,-0.07249924469545553,10.151864007873872,-4.028147674574666,-1.044741284933165,0.7447044117545494,28.850624945260236,-16.76751423682378,37.6437179140157,0,S01
5060,0.09930697770475953,-0.07062476424147822,10.142957553794362,-4.093950055963849,-1.2432818276674655,0.26342471023439384,29.833159029666195,-16.230123142865516,37.02756791233347,0,S01
5080,0.10242146434040154,-0.06916244391057248,10.146333534574541,-4.351746159021761,-1.2201338713750265,0.1583633922299098,29.471874501771698,-16.414909002653353,37.53830906190715,0,S01
5100,0.10233000332787577,-0.07359541127762563,10.147996350644501,-4.618194998386531,-1.4363170599284278,0.7374060948061358,29.583320507885997,-17.25992435443502,37.13157087037489,0,S01
5120,0.10366485644880355,-0.07515827803985974,10.14391452127489,-4.31623172610938,-1.2220674478354823,0.22128809921406423,29.755129870287345,-16.350222415094255,38.405321970657106,0,S01
5140,0.09072349406849808,-0.07684783723513518,10.147657921858741,-4.511229856795879,-1.555316939789721,1.132576175268082,29.049990696830836,-17.461268481275624,37.9947706228638,0,S01
5160,0.09807204500013982,-0.06940847191947623,10.158523099806912,-4.152424435162483,-0.8509434881112291,0.46430194781322004,28.826157185306062,-16.628027743683532,37.05233330698943,0,S01
5180,0.09292066483942403,-0.07026806894051196,10.146176328773942,-4.331841418809912,-1.2876638235977553,0.24204126642548052,29.407356863739803,-16.767064249653394,38.824944379887626,0,S01
5200,0.10358100706007022,-0.0781590251771957,10.150728741926704,-4.671673739958553,-1.1565173483191726,0.7068060321115504,29.56217047508383,-16.75172826494751,37.91605985038753,0,S01
5220,0.0959342350127268,-0.07722040686599674,10.149027182995354,-4.482651668058806,-1.3744047678318236,0.43176686962079996,29.017335554113796,-16.17696255009197,37.84128608045275,0,S01
5240,0.10052431325491362,-0.07877571826187268,10.149192545542604,-4.240005380710186,-1.309802547251905,0.9807807452133857,28.88137681323441,-16.938206615859574,37.52206022251316,0,S01
5260,0.10464662008662662,-0.07957033013164258,10.148029749085081,-4.421203458473718,-1.6373793106499483,0.483974888330004,29.565067148770602,-16.37459529831345,37.85853206082211,0,S01
5280,0.0958979380085343,-0.08006230387881655,10.145815270712378,-4.45242135841696,-1.7193078917136142,0.28352030998174044,28.900469438111546,-16.32565232161101,38.41339152644441,0,S01
5300,0.1015067268541545,-0.08833657006350491,10.150661467488517,-4.479861287029511,-0.841320672442855,0.7942921479515751,29.477439551178396,-16.99736229478114,38.141407086705996,0,S01
5320,0.10540005262275365,-0.08829535703874859,10.147103390401186,-4.030902120575585,-1.1027714293724233,0.71237850433828,28.931825211304872,-16.992551930382675,38.05543804847144,0,S01
5340,0.09590159715418597,-0.08003463217261315,10.146516734270167,-3.6677835554708667,-0.6338517902241938,0.914854400949141,29.385650226061806,-16.30350412938361,38.403318729592606,0,S01
5360,0.10768343786783056,-0.08762519424948116,10.152768935413995,-4.186965232105873,-0.9614508936148037,1.2314986733265223,29.98136502517362,-16.467819628074064,37.85613877177243,0,S01
5380,0.09989207722757174,-0.08260678604754737,10.147616098615487,-4.144678289348563,-1.3952405360385016,0.3651523401566371,29.120165232425435,-16.160550436424007,37.88387452942981,0,S01
5400,0.09544421848061879,-0.09082462006195978,10.145543918663025,-4.140258423960442,-0.6700585275540725,0.2782533288658571,29.427375012815716,-16.49077391441776,37.40736042680318,0,S01
5420,0.10460244552214866,-0.08213187943970907,10.150163722192671,-4.140205009866434,-1.6173291263287601,0.6318985054280741,29.25531040952572,-16.5706298103691,37.70600292805739,0,S01
5440,0.09778201498695036,-0.09044501635683808,10.137982032690386,-3.7204014165474564,-1.7265839822685505,0.15211537263067976,29.414546741574696,-16.34756666934718,37.110696989123944,0,S01
5460,0.10696385651854959,-0.08370919987140693,10.148011880393,-4.797591097646402,-0.9688153752827904,0.47555335502051127,28.5148824816367,-16.486737918061024,37.06916702556031,0,S01
5480,0.08826727883396925,-0.08261827795257932,10.137775899524806,-4.226455337597771,-1.201552377870502,1.0041313759086408,28.810358946256763,-15.826266405181466,37.367589927433585,0,S01
5500,0.09303315866555846,-0.0846301679051688,10.153725915278246,-3.9634528122164365,-1.239001572903149,0.8595500923559438,29.459354927327674,-15.7969890593309,37.945463337829025,0,S01
5520,0.10173230405557654,-0.08935714824692957,10.142257329020422,-4.141799984994306,-1.2262545360551997,0.8688549947105881,29.520733457453115,-17.012626148432318,37.419251799163256,0,S01
5540,0.09482967941745525,-0.08479231711196868,10.138297185812297,-4.751994405884591,-1.5775163766792604,0.7901025988857757,29.26038925842374,-16.537904617590026,37.82205485963755,0,S01
5560,0.10395850024689363,-0.07961681454536297,10.144590543981668,-4.1458178522843125,-1.4988862114107278,0.7614762883561678,29.439242393136304,-16.714180982110577,38.305451816471404,0,S01
5580,0.09602348538964393,-0.09365005233431004,10.149134755849643,-4.0790534316714275,-0.9722757221840597,0.3805552105550295,29.7810013204479,-16.734875962767312,37.22422844853256,0,S01
5600,0.10391736300303889,-0.08992681658735853,10.152885070187693,-4.375251749295701,-1.1922099229551166,0.8386370384941195,28.915435719762893,-16.922029432778892,37.73671497164428,0,S01
5620,0.09544507076260789,-0.08513608844566746,10.148880079313638,-4.049838844173803,-1.703141409779807,0.715617255787887,28.544891738178674,-17.04404092609105,37.58874471175717,0,S01
5640,0.0949142165753826,-0.08818209076082367,10.145997101306325,-3.9242881253905146,-1.544718420643389,0.9264850680515369,28.937781108472443,-16.63695669618083,37.135375186225886,0,S01
5660,0.0970875519944971,-0.09280941247611041,10.151457988985271,-4.095137399797719,-1.2416853040433988,0.535924360763304,29.412248824087925,-15.403210615630284,38.16228881141388,0,S01
5680,0.09966391745307103,-0.09189704379001376,10.144028849955983,-4.059143191110096,-1.575916015637921,0.5957120027267951,29.12176656729836,-16.663277303824472,37.04645881210219,0,S01
5700,0.09477213011027906,-0.08831515090745969,10.146341011061043,-4.4284555672216825,-0.9851819291165662,1.1518660722297838,29.622014264641454,-15.996392693293409,37.84649342076641,0,S01
5720,0.10185745685115913,-0.1001099391483263,10.147123319407843,-4.33073806625045,-0.7665514492721311,0.9930688433082606,29.6237999295334,-16.83327328631874,38.58214588752278,0,S01
5740,0.08998867787047027,-0.09716922638841828,10.139819733874054,-4.179051728086409,-1.3342983490945801,0.6582657069820038,29.65605254843173,-17.190456610574614,38.418995166576025,0,S01
5760,0.0995799921089266,-0.09200793048020664,10.14397144594648,-3.8988671078667183,-1.178633694407205,0.8699488361844159,30.01769536895796,-17.212301230372276,37.212313263929595,0,S01
5780,0.10555433292777265,-0.09132629867985655,10.147465475724212,-4.023466895411774,-1.0555314926942612,0.8098703245065211,29.475920873973003,-16.560884420106227,37.09113640909847,0,S01
5800,0.09330756465257507,-0.09807390818973158,10.154298094662684,-4.016860366819789,-0.858634373281657,1.04992411510069,29.630087234136024,-16.238146762518028,37.933938069457476,0,S01
5820,0.10135531292686384,-0.08233201412247673,10.140423039355177,-4.340300547135201,-1.2576117874230908,0.7029151957479738,29.599871576232005,-16.794546730126434,37.93757374800802,0,S01
5840,0.1038388540645449,-0.09169170289607939,10.143422811683571,-3.9779673883968445,-1.0326647078022637,0.9293731084260712,28.937882198532204,-16.748100480345286,36.914658146638345,0,S01
5860,0.10267022323229213,-0.07980779405548594,10.147658445675672,-4.404216161484471,-1.251186454920921,0.4829278781805,28.947131519000518,-15.703821954455506,38.25998347782729,0,S01
5880,0.09775618554021154,-0.09792563782556878,10.146256520970672,-4.357830496204187,-1.2621593792596606,0.6241442427334463,29.786009386301174,-16.844560533603396,37.72936521377215,0,S01
5900,0.1005651031463456,-0.09271298584703719,10.154615285108546,-4.319658973584317,-1.0310646159805397,0.6510781557367008,29.232222923435707,-16.597205653099365,37.192747860585534,0,S01
5920,0.08935769614132112,-0.08742949442099772,10.13781747900981,-3.630483751646892,-1.374216153851572,0.8525963291075329,29.245323571053664,-15.673956255767107,37.89855417677447,0,S01
5940,0.09307043433483699,-0.08562495094692665,10.145630013999709,-3.9118013162183303,-0.9059859978228344,0.4634058340871566,28.40985509034901,-16.15806617923831,38.42466271883427,0,S01
5960,0.08938890117148457,-0.09408050152986584,10.146581833090979,-4.40776623272945,-0.9712251337371556,0.5931525847887695,29.317477081611493,-16.747672865979474,38.59270601366896,0,S01
5980,0.09752765431906905,-0.08010032303291206,10.152981607253647,-3.7857520746264646,-1.4876836668765323,0.9276068597451229,29.075985649912205,-16.361834552782305,37.87643970085838,0,S01
6000,0.10236625532514071,-0.0780604214816096,10.142249820798796,-3.961459435265197,-1.23906912694428,0.060962710299509726,28.47246948336301,-15.705084723959583,38.28918749656629,0,S01
6020,0.10032208911006263,-0.0824467393469555,10.140428774519952,-3.8994896911955186,-1.1984138251057372,0.9298666942425453,28.991792565758495,-15.64138003894418,37.24737740377625,0,S01
6040,0.10751635875145471,-0.08656047537095303,10.145845939893585,-4.280551292479019,-1.0106197830881642,0.702343115141939,29.145182258757405,-15.850014659581403,37.6262461272227,0,S01
6060,0.10456018571958794,-0.0868383912703793,10.138070750648296,-4.135160939659864,-1.2920533326801564,0.516077421025766,29.103982216121867,-16.091309557318805,37.57999882825777,0,S01
6080,0.09595375803769751,-0.08160344688288465,10.151567078022993,-4.319873099840694,-1.4357649262628693,1.043219428994966,28.84475693010607,-16.00520450621306,38.26685305076008,0,S01
6100,0.0901158177475116,-0.08649575167217922,10.149508392822588,-3.9024832543815635,-1.1623998444511843,0.6285276693814905,28.577710430358135,-17.011709340886537,37.206424467529835,0,S01
6120,0.09755911143410717,-0.07896903981855839,10.149708565995077,-3.9774123530445875,-1.171583366354848,0.48780647752031747,28.63585426578096,-16.123952128297734,38.101396540637126,0,S01
6140,0.10114335435659356,-0.08163251207555816,10.139700558763922,-4.367813284678892,-1.2247681356757172,0.8283732295811903,29.346966962622787,-16.95317784480887,36.94382357831505,0,S01
6160,0.09118990015059994,-0.09067243141476883,10.147621924462221,-3.9772638610791,-1.3592676507125154,0.7081747675602066,29.186754298627758,-17.071403943043705,37.63787877174249,0,S01
6180,0.10245718667253095,-0.0866022756141071,10.145319592892875,-3.958862502593628,-0.9800757117536479,0.6526283609260128,29.52592651071551,-16.693489739371458,37.99171224785823,0,S01
6200,0.10474920998883061,-0.07695028616958591,10.150700386209836,-4.462510417330742,-1.445339034889614,0.758567850643469,29.481706364719805,-16.383135741125024,37.9347075705635,0,S01
6220,0.1082548310813724,-0.08635183221177964,10.146970194170164,-3.9689486665803675,-0.821412270969192,0.47827829381382825,29.58122225880754,-16.739867410923598,37.05755983894154,0,S01
6240,0.10059288479097934,-0.08433352663764015,10.150410681970838,-3.9321768482154824,-0.9651161545806528,0.5235699422571589,29.667774269891208,-16.379225738957178,37.12427797863465,0,S01
6260,0.09703186105663823,-0.07960677011304473,10.15103839063769,-4.287123502375968,-1.4134614535726868,-0.17968223631022207,29.4507965938829,-16.31708109380215,37.61157883684559,0,S01
6280,0.09691702435508692,-0.08189222148188358,10.143624278035222,-4.021012588628941,-1.2973050108383237,0.8333690089112857,29.78663635687929,-16.5504058405148,37.66107210732428,0,S01
6300,0.09585770664096989,-0.08219795678129371,10.148013711737468,-3.816434015758393,-1.1438022424751957,0.7297115204752209,28.654723273244088,-15.856144954831203,36.56756687746657,0,S01
6320,0.09802918383262493,-0.07296210729957515,10.13449100348046,-4.09943595031334,-1.135203457176424,0.4115060365039951,29.81263293113835,-16.506947113049456,37.63227767905056,0,S01
6340,0.10200090707320188,-0.0847848216199737,10.14612113228776,-4.374489371644999,-0.853580770681693,0.8731607940662225,28.656511747093703,-16.271824195181427,37.22136353391087,0,S01
6360,0.10334585917491569,-0.08541523377266566,10.145667274168517,-3.86139201591541,-0.9391639868646403,0.9359218317124918,28.69107616422173,-17.037431906572536,38.424105077728974,0,S01
6380,0.10099799272316629,-0.07680007728197495,10.143873076708452,-4.483400025226231,-0.9505078717873644,0.306379093956852,28.660464135885103,-15.894359872678013,37.54165958658115,0,S01
6400,0.09795407947398255,-0.08243287422478328,10.15174814344187,-4.067099375263719,-1.6128984902107688,0.49296094445158845,28.92590141505698,-16.508651704561245,38.002772209615486,0,S01
6420,0.09602457129015313,-0.08170763473372537,10.134738526849107,-4.169363153358755,-1.1936009219547334,0.7272553329295762,29.429617499173343,-16.93467110831542,37.48511973796968,0,S01
6440,0.09086804925701863,-0.06994179533659585,10.144256502816448,-4.394350756943436,-1.3766927782176426,0.2567579240635219,29.75315216534934,-16.855632397319738,37.177538001317096,0,S01
6460,0.09893190818370173,-0.0719000366821038,10.160046975875199,-4.35822820144269,-1.4171119288942609,1.20253534578173,29.64730218527225,-16.780414777621132,37.11808937026761,0,S01
6480,0.08941816936949165,-0.08401317223802453,10.153693382074309,-4.377272929647754,-1.0077126895648116,1.0051214605518157,29.436198981070422,-17.080961115835635,37.51163250658863,0,S01
6500,0.0997963039259167,-0.07710621572197941,10.14291171097461,-4.184482156659558,-0.6687812662544507,0.9047574324882678,29.577124662757175,-15.849843771801169,37.99774255805619,0,S01
6520,0.10076170729275218,-0.07780630978087336,10.151888731835527,-3.9190970048283615,-0.9156944108172791,0.8205200952623768,29.422612986648932,-17.020660856430567,37.987423148646116,0,S01
6540,0.10279786446259112,-0.06519421626426385,10.14860596045925,-3.959089346055349,-1.5956391983014595,0.804811038717741,29.37383460908072,-16.486642698816894,37.785885118215226,0,S01
6560,0.09383278500268848,-0.07317219092842697,10.14224528311915,-3.569290075836361,-0.9340699651048388,-0.041806840705781445,29.66252541071112,-16.908543229485836,37.40113731338641,0,S01
6580,0.10277775551644196,-0.07694723560853681,10.138987791587347,-4.199410769765825,-1.1292953585160754,0.38445364894793976,28.78090799290978,-16.85553662933194,37.98558052557984,0,S01
6600,0.09916332129894738,-0.07373506962710968,10.143930566997541,-3.8424145878519322,-1.2967670287684374,-0.1034911746398568,29.009472260265976,-16.44606738694982,37.31762118356899,0,S01
6620,0.09797405865624659,-0.06079243176016359,10.139151898752399,-4.659995361789888,-1.3158625697888333,0.3192249359772323,28.52385059419109,-17.030741045207392,37.868718046965355,0,S01
6640,0.09447435120550221,-0.06672730913982844,10.14342320993886,-4.667927477894783,-1.5292884031477838,1.2034086361601761,29.27919732645775,-16.577108029653424,37.15754366518215,0,S01
6660,0.09859760127279835,-0.06698079775770903,10.140337138464067,-4.240398877048277,-0.9774318770344104,0.35135501669197333,29.069317085327327,-16.723918794115455,37.47974986959112,0,S01
6680,0.10686004160826719,-0.06933475704767474,10.142856530000522,-4.031969852101086,-1.0475362403527606,0.4464144795224223,28.905070223084692,-16.388892233437748,36.778347952569206,0,S01
6700,0.09940234808035565,-0.06504083953165135,10.14737169031999,-4.236690385123203,-1.2315458081765152,0.9333922267939847,29.296963171158648,-16.622413408572125,38.14505291656963,0,S01
6720,0.10183457344514055,-0.06479824447460414,10.14834069222603,-3.780873652059682,-1.1481409772297106,0.6630336359890814,28.993353363333508,-16.10798580776155,37.78152840495476,0,S01
6740,0.09510804416933781,-0.06951421683812617,10.137699818569379,-4.594667064520157,-1.5518976933276214,0.7624902574981269,28.603841984622917,-16.988751458973283,38.072833093838234,0,S01
6760,0.10461532853084356,-0.059458462547331725,10.146056827498372,-3.727423178977263,-1.5917096328844385,0.8768007713084733,28.988008589807666,-16.313826379009676,38.030081627960485,0,S01
6780,0.10784640237680646,-0.07355183612048681,10.147058341271721,-4.331869449481579,-1.5799844644188314,0.7904449472719822,29.28646739325384,-15.206987322852367,37.94240821037543,0,S01
6800,0.10061394225794282,-0.06172460717858842,10.139134561808142,-3.8942757322194885,-1.1242005294975705,0.6319746165791874,29.7569516877025,-17.169892495881257,37.13278076958739,0,S01
6820,0.09403531974913154,-0.06768286547707214,10.145006309802469,-3.8324779659628647,-1.2575135847892867,0.45856118146832126,28.97565840431597,-17.04286204476005,36.77077769469224,0,S01
6840,0.093063938860545,-0.06377897788072655,10.145485369932924,-4.607463856727426,-1.5615972604567165,0.3564716479003319,29.70690024996572,-16.601450248472613,37.224005306395966,0,S01
6860,0.09958348461512512,-0.06815267606364005,10.135709542528069,-4.904852416621207,-1.3868652302114748,0.6105940348609428,28.678284820673582,-17.011650700681415,37.36444703307163,0,S01
6880,0.10672173753669373,-0.05516538065810242,10.145697135518642,-3.5062130485937884,-1.320816421367872,0.44628519561972346,29.177799521001702,-15.565126852472584,37.87949457278838,0,S01
6900,0.0940246131927698,-0.056804364130391055,10.143879728870992,-3.910585745268602,-1.1133668339374334,-0.018261949715221215,29.05588541468508,-16.148278761173046,37.924661225545535,0,S01
6920,0.09917314979377266,-0.06235281525591439,10.1459944378303,-4.87900450198824,-1.150534311872922,1.194224018473918,29.11005437959796,-17.236455651247013,38.31904241300833,0,S01
6940,0.10654631148393809,-0.057293630227852436,10.142915704459362,-4.231933568096322,-0.9236619592013402,0.7791398115852837,29.183752303817943,-16.143795964433668,36.955302916017345,0,S01
6960,0.10193205954419286,-0.05327507222938215,10.15165006408898,-3.794915422742737,-1.8107405044637934,0.13740431844704604,29.17217312991454,-15.817081853968407,37.89905076618577,0,S01
6980,0.10329469231643379,-0.060545486754749155,10.148271151890171,-4.19509943000466,-0.8708901975983498,1.0835411271165882,29.7187060511872,-15.507677174116246,37.95002993522405,0,S01
7000,0.0972241438301114,-0.056294112059646226,10.139497802121822,-4.475254615660176,-1.1777696910080344,0.9824513378680084,28.8977266438065,-16.308536277103386,38.32792105009882,0,S01
7020,0.0958619049791503,-0.05782828718358525,10.15058504193588,-4.0619573134702485,-1.4882760866275024,0.7270495876091858,29.102309437549152,-16.60337868831882,38.50458084131844,0,S01
7040,0.09742483292379911,-0.05331992491208368,10.143788852954382,-4.219317064602948,-1.4136477335378541,0.9123945338360973,28.73793608113708,-16.092898771343187,37.133674551071536,0,S01
7060,0.09638373004072935,-0.0579332540712228,10.14486803505502,-3.8675331051895663,-1.8925872447033898,0.8769340427986827,28.98923480786851,-16.984225462580696,37.270221905662154,0,S01
7080,0.09456997676253784,-0.051232781068411726,10.140596410126221,-4.21667357781194,-1.3436850495059158,0.5172763766771791,30.02302890615042,-16.786976889682343,37.8877801351331,0,S01
7100,0.09898051938952908,-0.04757499231548608,10.143913642977916,-4.844334922651036,-1.3457449601190232,0.7406763065594754,28.98511348975766,-16.180300380868317,37.571348805736555,0,S01
7120,0.09337650669506188,-0.04559684105982847,10.136797921826085,-3.873449673918969,-1.2201853561474898,0.24890545443457351,28.761832075253686,-16.20711105102193,37.55139222006447,0,S01
7140,0.09283237284886452,-0.04353744529926626,10.144237215156695,-4.240890981167732,-1.0428804804704614,0.36351661848466876,29.24757705669357,-15.099164557132518,37.58201932691107,0,S01
7160,0.1043475334504481,-0.06066633009753881,10.14281881936933,-3.81622652939928,-1.9074018169778117,0.5436785284575483,29.326938711738272,-17.269823824076724,37.60556679942302,0,S01
7180,0.0979183085340161,-0.05346685232267388,10.146698816060645,-4.003376071161125,-1.4159397453598157,0.08225329482105947,29.626087403078817,-16.47832390485143,37.406663725279365,0,S01
7200,0.10094342220409838,-0.05034372485721587,10.147106180344192,-4.331488948013336,-0.4938369191915085,0.3001825923964141,28.682101239341343,-16.43729350515558,38.012705903336524,0,S01
7220,0.09557449644274194,-0.046726200840494926,10.142114386914285,-3.7227526966761397,-0.7474619340454622,1.0091998677104561,29.681706089174092,-16.962608570236892,37.82145034857208,0,S01
7240,0.10673128484894297,-0.05006741011237223,10.157904016242773,-4.182440521625392,-0.967268267153633,0.5042283445713822,29.232690947791898,-16.755807463715232,37.69207336930924,0,S01
7260,0.10572441732428667,-0.044342443357290526,10.150270658728738,-4.200681024306967,-0.9913396734996747,0.595271795430895,29.4229935432426,-15.596991848853325,37.444760315900076,0,S01
7280,0.09978459264098036,-0.05932082269633025,10.145835387911749,-4.885436637361823,-1.0412290499406325,0.857227544388936,29.425214690597226,-16.504602848972212,38.046551400661556,0,S01
7300,0.10504477965384655,-0.04953655562739255,10.142492979325128,-4.405882767904025,-1.3865001043757788,-0.2751434377759385,29.744575177336607,-16.637143023524203,38.23698750686408,0,S01
7320,0.10241994524071486,-0.04984190671912708,10.139779928902774,-4.231814301350272,-1.404844248288358,0.2120770246605279,29.68734024283846,-16.78680820169238,38.459425693629925,0,S01
7340,0.11064966430567426,-0.05633236372231655,10.155528832885604,-4.734895719445766,-0.6123397961612151,0.47970388731268915,29.266351233829447,-16.124897600625985,37.913304993984234,0,S01
7360,0.1104500301564249,-0.04943980226776774,10.140215957234892,-4.088318968955182,-1.3484577146906411,0.36099141332638734,28.62103731208032,-15.939519123751145,37.595851070688305,0,S01
7380,0.10489236042892197,-0.05297225124906599,10.149785111770164,-4.501180070972579,-0.8926545527982742,0.8567393578359369,29.717521062462637,-16.0609254283956,38.377175875357054,0,S01
7400,0.09896196046865377,-0.04223873472654757,10.149251576067204,-3.8418664307156383,-1.0397724079816437,0.7457051414930291,29.468985118459436,-16.955890952247405,37.97899811838017,0,S01
7420,0.10256119761285772,-0.05958359250392607,10.145485477182524,-4.532180745368535,-1.427829254423184,0.3620316099163676,29.130472930887056,-16.77984309162617,37.71260872300619,0,S01
7440,0.09448208058196192,-0.048708200128486936,10.145771261208072,-4.387603033274867,-1.2119879752439149,0.2656522542030008,29.950770274096364,-16.393912045676373,37.81640566314098,0,S01
7460,0.10528034139895591,-0.05317060808492616,10.141214013608439,-4.49102964595798,-0.6750486979718746,0.8889079219872936,28.6656712187651,-16.67257684664622,38.24673928417411,0,S01
7480,0.09606616902998077,-0.05310733467854809,10.143981557525922,-5.257700073261407,-1.587197312486703,0.2351078907661398,29.246848115114023,-16.064387795517902,37.40411134091174,0,S01
7500,0.10408314682225872,-0.04189013296588448,10.137620164532033,-4.1954747265954575,-0.5477054044068121,0.6513787232885951,29.67819551387726,-17.586521422010527,37.79921774487192,0,S01
7520,0.10362285001230571,-0.04788786223423715,10.148602295516453,-4.125992673315177,-1.3082062155423355,0.8831207496068875,29.716980335423898,-16.394626087280315,38.49566181538115,0,S01
7540,0.0973821532621668,-0.045290285886849836,10.145410058665027,-4.334722426458183,-1.0947018161352173,0.6633718773884661,29.25673262068077,-17.297241598189075,37.542067576531835,0,S01
7560,0.0929178954557759,-0.059194115509891135,10.149959890531962,-3.2359467048733412,-1.369700743156693,0.5660183707821408,29.57564232432458,-16.523320357074667,37.76638913336523,0,S01
7580,0.09622480111085102,-0.05236603109995415,10.145941702065803,-4.645405188788914,-0.7109053274642634,0.4847888186473777,28.80583110571854,-16.56962861453958,37.56648530127439,0,S01
7600,0.10215196652011954,-0.05389887923547381,10.140143853743329,-4.167742568234762,-1.5196486411580215,0.3322646766631173,28.604270411788864,-16.31416573421975,37.52654313295864,0,S01
7620,0.09899568385883364,-0.0488544583691088,10.14572244076971,-4.040135075892039,-1.3131876001843183,0.3190016924628481,29.142605183223797,-16.74342558818885,37.761790561118865,0,S01
7640,0.10229226312660926,-0.05009367360815347,10.144517434284031,-3.884847744373114,-1.744658598072708,1.0501759577483334,29.15739591179084,-17.323631010868024,37.68869439486028,0,S01
7660,0.10154822395313635,-0.05670631573647735,10.13497025888802,-4.368528603891699,-1.400719403521809,0.6615106928802944,29.556505989471813,-17.126302192874036,37.07575924976789,0,S01
7680,0.0969423226043856,-0.05473761321185774,10.14323040607453,-4.49739199115784,-1.8956427764520312,0.80270764596086,29.202093758108894,-16.637476977072918,37.89555531485147,0,S01
7700,0.1059413085817802,-0.0545663565882188,10.138841330586098,-4.408153513697603,-0.8293812339788542,1.2268412859486282,28.81096571161388,-16.202158272206688,37.92481353271754,0,S01
7720,0.10233415609441007,-0.044791536978848696,10.151890146909132,-3.7255757263586577,-1.5483925046470717,0.7665820369561878,28.791830306917177,-17.246121515181773,37.34144907840536,0,S01
7740,0.0965984224830354,-0.04982053999845736,10.145368753608047,-3.359506271486652,-1.3464193467967804,0.8311247845873116,29.452197098610103,-16.16085600368332,37.77567576812077,0,S01
7760,0.10117259108580734,-0.052819774158887625,10.150869768051795,-4.507584437961722,-1.2096621041233693,1.011800811282097,28.57903426395138,-16.261130437439576,37.701512683767255,0,S01
7780,0.10666005079115277,-0.06197389909257255,10.149345033386751,-4.224026498758646,-1.5898110848284843,0.42356793380328406,28.978033193202805,-16.122975222380962,38.444379454204054,0,S01
7800,0.09718041844979877,-0.05215750858241548,10.144119784075597,-4.627821888533196,-1.5534914577672199,0.31278887899732616,29.49019139502281,-16.928136816188093,37.29913123061098,0,S01
7820,0.1006994892641239,-0.05153695811064266,10.154837371222497,-4.679962748198251,-1.5631999612515484,0.6865264766772301,29.599030023062948,-16.518454919022854,37.38882301430535,0,S01
7840,0.09887597698294372,-0.06176085643352629,10.147377002025864,-4.1408239340199,-1.0409101955231763,0.6153315079261377,28.552221773828048,-16.74744470318023,37.7358061711228,0,S01
7860,0.11063557180758239,-0.060768201796685316,10.145508395658647,-3.81406249441137,-1.3630860359659835,1.0228832207220173,30.256633067194343,-16.596988294461145,38.01376580385839,0,S01
7880,0.09991620027369146,-0.06056884429142338,10.15165968996811,-4.2312179545345625,-1.2003810658867033,0.604160464963137,28.936161370809423,-15.527365648074035,37.454622139951994,0,S01
7900,0.09543822867241358,-0.04611560012868173,10.149573128801762,-3.820137906803867,-0.7509192399039049,0.619604375683106,29.137318292420495,-16.138642158103863,37.41823781767506,0,S01
7920,0.09903361959639498,-0.057229806743700345,10.135039184566388,-4.38634089282144,-0.9931234819462189,0.720255427337555,28.58368442215446,-16.513161948246733,37.9544730203445,0,S01
7940,0.10514082136699966,-0.0570417131559541,10.143954152601577,-4.108370370862509,-1.54937336033907,0.4449322910776009,28.799119502026013,-16.563778522152607,37.28888162790655,0,S01
7960,0.09861695600470735,-0.05555757226252989,10.148142742809423,-4.653472296122624,-0.8919315209566975,-0.007495089636562757,28.68925933087769,-16.945241151317603,37.7944103802908,0,S01
7980,0.09999931963003729,-0.055778422097328834,10.149349939395567,-4.5777081770228465,-1.5531792652593674,1.0229370301825698,29.237118830128388,-15.911601991640087,37.52818502860953,0,S01
8000,0.10754349454131898,-0.06466689952304294,10.143828361973224,-4.618115843779577,-1.3368654233413693,0.2781114970917751,29.389584084988574,-17.064857792217147,37.96538710802032,0,S01
8020,0.09779236686891907,-0.06972353991290094,10.143226121642778,-4.306407704085717,-0.7780513263986137,0.6938365848287601,29.26111190161211,-16.62312600663094,37.820602238076575,0,S01
8040,0.10054562489043656,-0.06523388644233738,10.145474527954528,-3.976501429604594,-1.1676839728233337,0.5236509405274267,28.822380205386857,-17.119492310703496,36.98852865082194,0,S01
8060,0.11250598519437369,-0.06612840548815539,10.142422713838759,-4.389321059334571,-1.416113131456682,0.8338920934633653,29.16348296118128,-16.372399302893015,37.65031061892869,0,S01
8080,0.10501076968611196,-0.049780814716020576,10.14335820757969,-4.54449171663718,-1.346705505892875,0.41111014230711584,29.525576671242465,-16.84616377244843,37.417751680493396,0,S01
8100,0.09435931065373222,-0.06904821068441565,10.147239582024815,-4.093949211222919,-0.7527160266450772,0.2620831216206199,29.92077837375837,-16.110811614816335,37.21198033287572,0,S01
8120,0.09603284856141679,-0.06256502531860317,10.160215641819365,-4.082435728682729,-1.2893679226367973,0.012884355965710248,29.949553128301474,-17.049848296229953,37.08093160194246,0,S01
8140,0.09950412728346103,-0.06017584016533252,10.143663392167554,-4.680470133577602,-1.0213433273708756,0.6284492236787615,28.877115844539983,-15.979931494957382,37.37200864205317,0,S01
8160,0.10031852498774255,-0.059998319854938156,10.152062172671926,-4.54931118725592,-1.1459087639921712,0.4668216713063603,29.495999050912086,-17.306804549517267,37.758022108417656,0,S01
8180,0.09720857988822422,-0.0659811708594682,10.147691763338205,-4.250609104816367,-0.8767139890333305,0.6437544654760049,29.016745800304186,-16.75553193322086,37.72993545863868,0,S01
8200,0.09009084517119782,-0.06406170134936236,10.149027325018336,-4.618707863154673,-1.7606631991067188,0.16773034264118825,28.655384176469514,-16.369239799394407,37.51722878499643,0,S01
8220,0.09446925611919116,-0.07468048004716439,10.145010540654326,-4.517809033203686,-0.8504600004780767,0.15561454210862913,29.385001331433926,-16.33804752528585,37.71584653441215,0,S01
8240,0.10018108826988001,-0.07099234846407425,10.149756579156731,-4.082442673177693,-0.9741308154397403,0.7024484621751604,29.56522890613275,-16.477921998582055,36.895211034400376,0,S01
8260,0.10739309890201612,-0.06547147142356743,10.13825544757945,-4.10506508071498,-1.292748914663277,0.9200146724547216,29.19230656999286,-16.134718718871273,37.73311064835435,0,S01
8280,0.10379420613668712,-0.07424401384365938,10.147161597251607,-4.204269623390789,-1.3666516810270568,0.6319567209631036,28.806014697969356,-16.36424532963613,37.869594692618186,0,S01
8300,0.09591244322418888,-0.0697797429687327,10.1541730875562,-4.05619823738505,-1.1102814935923204,0.5040500895787657,28.82672612083862,-15.540878866898975,37.93470156450482,0,S01
8320,0.10375608400745615,-0.06763029108254053,10.147735294690518,-4.028116725311905,-1.11361020861897,0.7253959385641187,29.1886292599715,-16.363730801457876,37.264626853529315,0,S01
8340,0.10494884285024539,-0.07054301029368551,10.147675204231817,-4.191754645472537,-1.246614189372962,1.1022409318831476,29.344516721376348,-16.82334240338628,37.41908928787528,0,S01
8360,0.08588377395968934,-0.08166242418869331,10.144518107681145,-4.46608917848977,-1.2339898499655844,0.7404135109731431,29.523382273527915,-16.261351507524758,37.45540826634225,0,S01
8380,0.09100167462205953,-0.06872261809561098,10.144721978820439,-4.0896898862517554,-1.3869277574901044,0.8880766163103454,29.442996218271798,-16.393919821416567,38.009665413449156,0,S01
8400,0.09984957860163572,-0.0810767532871768,10.153055776607042,-3.819443594571647,-1.1822887289400632,0.8725785946684289,29.010326545361636,-16.669610778047495,37.40866961330826,0,S01
8420,0.09575214264012483,-0.07552266403820804,10.145794716513599,-4.317217964867798,-1.1999030584761212,0.2612347486796574,29.41997751019114,-16.206939808060177,37.53998914290739,0,S01
8440,0.09831164419868078,-0.06980038652463492,10.143616178905416,-4.253409381099201,-1.5554627691416376,0.6776714941865634,29.417668873535685,-16.38440751506464,36.808301153339514,0,S01
8460,0.10523431488184773,-0.08275740421087249,10.140789112041887,-3.7387667710842294,-1.1886463080028242,0.6532173256799113,29.190895921935475,-16.986267221641903,38.47745452694076,0,S01
8480,0.09860443064121553,-0.07898118416390182,10.139288988387353,-4.337083354028949,-0.7486705299172883,1.338213133351093,29.424274304830142,-15.995833771727868,37.33921118536271,0,S01
8500,0.10301657589672109,-0.07239759461274677,10.146024704871131,-4.316469569877644,-1.2685266138391724,0.48303607915121544,29.21713953174117,-16.425250567554016,37.87816848290197,0,S01
8520,0.10139712438468153,-0.08559958456786607,10.150210166538864,-4.08099576583196,-1.0867724526122866,0.734131931221988,28.81809846438352,-16.7910566391624,37.811014850288366,0,S01
8540,0.10209291938069445,-0.07869496919446828,10.150194370640028,-4.2970243039052365,-1.1125258835663707,0.445014038622756,29.46354156494145,-16.629650362883766,37.96940161959564,0,S01
8560,0.08949283898107158,-0.0780304581171972,10.146042301602128,-4.118021156020507,-1.436351807520612,0.9071774233827543,28.932595469030428,-16.307418045655325,37.167963352283856,0,S01
8580,0.09852971258832906,-0.07273422408324859,10.15166488380276,-4.308459971912961,-1.1049768058785505,0.06312140329560412,29.075912496943392,-17.00798934350233,37.746374579061886,0,S01
8600,0.09034694498244528,-0.08428960232165467,10.14552563879929,-3.942782097518771,-1.9097150893658115,0.41785951060136894,29.58006973642407,-15.64902916905251,37.376387822328454,0,S01
8620,0.09822878254829971,-0.0787974022878017,10.154699038864457,-4.350372672822448,-0.9511507343052998,-0.013599212570460817,28.55142642265365,-15.912291391219796,37.734359642138315,0,S01
8640,0.09860186023866542,-0.08217908763913367,10.160577315438093,-4.444320174514137,-0.8862763034100469,0.5236835120929404,28.604332473762625,-16.531382232953632,37.2880049085115,0,S01
8660,0.10778941711063485,-0.08865455357421073,10.145157629587082,-4.385321797509352,-1.3172195624889318,0.509152432499868,28.55974019662282,-15.492513407901678,37.904317305962245,0,S01
8680,0.10295058843537801,-0.07829004208487392,10.140478790402627,-4.250639429318961,-1.0451212738730566,0.17355039324479588,28.93575434503168,-15.901740196440096,37.68181037261203,0,S01
8700,0.09156676981178997,-0.08895490604387439,10.14093043372681,-3.984801612400563,-0.5694812119514212,0.4724700895911355,28.389281165894463,-16.06460051920802,38.13373747109153,0,S01
8720,0.09643798415694534,-0.08352035907361989,10.153189175626396,-4.944724043266718,-1.1413626557801242,0.6750859098849596,29.10129035219636,-16.065396502964447,37.3348005747592,0,S01
8740,0.09901048925066602,-0.0897701994151688,10.143213431235448,-4.735277476153604,-1.099653942121024,0.2505854039224909,28.79053456210569,-17.167953241156667,37.016584183649094,0,S01
8760,0.09915454204268376,-0.08730377280933795,10.141870929301952,-3.8508526382592363,-1.3500921829831265,0.25408866832895205,28.817457080842242,-16.464459445158557,37.153771469505294,0,S01
8780,0.0992929468654178,-0.07836203282291586,10.147478015965904,-4.412515284988475,-1.3518774945228695,0.7075742221631618,29.165083352678835,-16.749872542130774,38.290448055020114,0,S01
8800,0.09588594690381107,-0.08684404111312488,10.14855530039504,-4.43071388689315,-1.148272395641848,1.1904048985961393,29.756611115718073,-16.399618972587973,38.08800984427546,0,S01
8820,0.10610630946341008,-0.0913410808559782,10.145492403295831,-4.468137077669795,-1.3590856495977075,0.2770086050818257,29.15834586407629,-16.6963207969465,38.16394426572421,0,S01
8840,0.11009622179701926,-0.09608381795781328,10.146362317965135,-4.41140904519321,-0.8420804544893674,0.460840172834033,29.204592110599155,-16.54802628500675,38.130608905087634,0,S01
8860,0.09248816863761235,-0.0834079175786483,10.140981754321144,-3.901672886503049,-1.5499541705944078,0.8748463470783789,29.4498521202029,-16.657020042864453,37.87984796578849,0,S01
8880,0.09427931827458527,-0.08718002306534282,10.137792824610719,-3.6378403418623986,-0.8579326771551159,0.01819100132508722,28.549412232883654,-16.73893775765461,37.7478527586456,0,S01
8900,0.10301909588698377,-0.09227668648440263,10.150928100773518,-4.339519276303894,-0.9633601031591904,0.6796305176048462,29.35919641389496,-17.57524464381295,37.591261064926215,0,S01
8920,0.10492405713651289,-0.08503580351514498,10.148050066044133,-4.552491297445902,-1.0494327749167112,0.14127776096036582,29.423304474434687,-16.79544936875216,38.439234613217096,0,S01
8940,0.10026671949095703,-0.07963041029054034,10.1402397328382,-3.9984588664354135,-1.0830022714948853,0.440980792229621,29.66947715532843,-16.739423185988173,37.72940737703653,0,S01
8960,0.09375640046632054,-0.09077707695957986,10.144613480515375,-3.7440558232894476,-1.534956806803544,0.213370881071326,29.501536500968434,-15.72700306760323,37.48517854820579,0,S01
8980,0.0970486349814544,-0.08774568414486199,10.146177106010319,-3.4673979946848723,-1.2213228711069812,0.9692123921741052,29.093737314965292,-16.143546013755547,37.47249494990601,0,S01
9000,0.08689625507205019,-0.09325910420603249,10.14991989514074,-4.626239270215152,-1.1007716026282282,0.8835291716812259,29.118636681652454,-17.07642353675901,38.26778673997432,0,S01
9020,0.09749315818297455,-0.09636493632524065,10.146572400140952,-4.115570603415114,-1.1893200561418102,0.3685957737978067,29.410264134910644,-16.177124266478213,37.23800760230444,0,S01
9040,0.10685057728016867,-0.10275238895398581,10.139633255769633,-4.461386892104335,-1.4905339185162854,0.04300635086858451,29.24654827679401,-16.52765909940384,37.984748050914256,0,S01
9060,0.10019639830165247,-0.09008159580524158,10.147877075151595,-4.061972198593144,-1.4246983980444947,0.6050372863809987,29.026912578210233,-16.334513130272434,37.82911067024972,0,S01
9080,0.09692931278242,-0.09090669898195117,10.1668142444132,-3.9706343099470573,-1.2940562900490142,0.7868295917101982,29.3096753123127,-16.71343116554356,38.13948774143828,0,S01
9100,0.09851573232155382,-0.09461880130728495,10.15007276540511,-3.938470499193551,-1.2954169417433044,0.4396913358685196,29.89687165602333,-16.701885969486245,37.029431915817725,0,S01
9120,0.10462382545203033,-0.0892185628270236,10.154600879656957,-4.077511463454777,-1.5373238105206748,0.681928725012487,29.007574392667944,-15.863776461013495,37.443263369576336,0,S01
9140,0.10007811848530383,-0.09373611578704172,10.157147202923271,-3.71400845060633,-1.3696429435223574,0.6833878326044849,29.057976468804057,-16.58200583081892,37.329794810016786,0,S01
9160,0.10088618848407119,-0.09352044895188591,10.143462162139677,-3.863924237530402,-1.6801157231417898,0.5626026425323017,29.41302201631602,-17.491594101175444,37.45615796611018,0,S01
9180,0.09534910147709887,-0.09077676297072801,10.144995017895294,-4.496727120231171,-1.464670160351084,0.6215852790243588,29.306576840874133,-16.273300787083212,37.630639474263944,0,S01
9200,0.10485979969760628,-0.10001649153297804,10.149173439081157,-3.863691069788434,-0.8726983399487589,0.3747793584664705,29.3309520136039,-16.30804810060702,38.27376248054209,0,S01
9220,0.1018493352466091,-0.08777916310019582,10.149957603099379,-3.8009951112470968,-1.307959725515387,0.5019125417327203,29.07026409257018,-16.26093045909999,37.46016674071907,0,S01
9240,0.10099076676045789,-0.08632459457386543,10.142323261519614,-3.5842001780074497,-0.9215689886586576,0.8424369972200393,29.457710616258687,-16.989367959755356,37.103353342269116,0,S01
9260,0.09207795808402099,-0.10048043478252708,10.145956564151872,-4.236494236861666,-0.8727017234408416,0.7270892515784442,29.66474344317582,-17.330899909443165,37.54199374756856,0,S01
9280,0.09873292063279808,-0.0932794699494357,10.139228768937553,-3.6613853522086384,-0.9287403270836744,0.16385613159580958,29.316085256972812,-17.085433368154085,36.94523904046733,0,S01
9300,0.10573432828631052,-0.09424839111975764,10.14912318950684,-4.393980617324079,-1.4504868636766401,1.0473046925074208,29.570897878736996,-17.646773280757877,37.54145948012488,0,S01
9320,0.10046535787157483,-0.08906696173864781,10.144696231205138,-4.555603834969147,-0.9379058984651351,0.8447413871770227,28.48522801156245,-17.03239821870652,37.61615201911024,0,S01
9340,0.08539533464016194,-0.08571087109959485,10.149612422823301,-4.161368697261055,-1.6306074581789423,0.8655944634409433,29.522891922953292,-15.342920262822007,37.434943642915805,0,S01
9360,0.10692655399469518,-0.07854477336088912,10.14499021677145,-4.492874883234383,-1.0227137897442908,0.5081091241934481,29.376595810295626,-16.695226149083222,37.335774915787255,0,S01
9380,0.10499282215982696,-0.0840546703731182,10.144947843319319,-3.6994736418972245,-1.2058992675751126,0.5858281298223944,29.595256277480424,-16.246077354462127,37.10895992127409,0,S01
9400,0.11065220036966288,-0.08643363715963538,10.1504509498149,-4.370409868847429,-1.9114658225176258,0.25100130692051603,29.69794220822527,-16.051090115338255,37.98033615329383,0,S01
9420,0.10106908371887706,-0.08046501126751089,10.147193819766157,-3.8540571216212087,-1.5253033127485274,0.2564767391000389,30.32614723341903,-16.699960234018363,38.15058251082486,0,S01
9440,0.10447827067360606,-0.08053554899586325,10.140987657109633,-3.6077212701875965,-1.025516435915622,0.13097296910831657,28.97094635027932,-16.548671906177116,37.288370116936406,0,S01
9460,0.10405790534502729,-0.08082345460644187,10.144878611119823,-4.419191940183772,-1.4173410075805195,0.6892307958790513,28.67131724561708,-17.208768439749363,38.255955652571515,0,S01
9480,0.10178781536344328,-0.08475911944461192,10.149669408922179,-4.064692411126799,-1.0016614814262643,0.453417113697585,29.85455875435165,-16.575927878242993,36.94328557169204,0,S01
9500,0.1006755037525082,-0.08481006666216456,10.139431777731817,-3.878341799231647,-1.42745147082175,0.14197873404389383,28.762841680786337,-16.826847591664887,38.24095341451173,0,S01
9520,0.09981977583771828,-0.08578564478965293,10.146125776988224,-4.253943648803276,-1.2579523810908493,0.7753296177152023,29.265490913445024,-16.757475369482698,37.642156170063224,0,S01
9540,0.1029824723340999,-0.07641643543173945,10.149532965857716,-4.824726499176875,-1.2484842929385296,0.7394471353107891,29.996028827690743,-16.74211169635074,37.641376315011286,0,S01
9560,0.09888103377903532,-0.07867104365924675,10.144838812197277,-4.01506948161422,-1.5267503606670043,0.8290012608845647,28.716517843732152,-16.73787349028781,37.78512788863609,0,S01
9580,0.09817125137396057,-0.08550282440218172,10.139422642652004,-3.943717278761246,-0.955684477380388,0.5134710443227035,29.395009120029595,-16.458517297787665,37.49280930839987,0,S01
9600,0.0963706663791693,-0.08809755880314799,10.151521469969175,-3.601669874769453,-1.1902212691260874,0.6803750287089674,28.835161259950958,-17.159367026858583,38.37781655800734,0,S01
9620,0.09037538710262011,-0.08218693309649477,10.143997175936246,-3.831630909666636,-1.2843857977459918,0.23438745402066596,29.393449429069967,-16.66117027300888,37.209307274252005,0,S01
9640,0.1145021291775003,-0.07786869111240821,10.144757863377992,-3.6701419354546205,-1.0091915934762477,0.9338805511094808,29.36967302611851,-16.158456156653244,37.82518368303349,0,S01
9660,0.08952652752184373,-0.08630334229236646,10.142349231083122,-4.215930577274991,-1.1159594326474462,0.8354034275436798,28.876602164411846,-16.66306991208472,37.6736631683666,0,S01
9680,0.09336945969537913,-0.07710422720013997,10.135510220202992,-4.276298320575262,-1.4314790438565002,0.8027827769709018,29.188883767902034,-16.948853779270458,37.706712223022876,0,S01
9700,0.10719028354413047,-0.08401942757677743,10.151065259882484,-3.5436694438842866,-1.2291724839973288,0.1637821795336698,28.80916891838668,-16.579813462623285,38.29043527959947,0,S01
9720,0.09336308769100317,-0.0734831444226512,10.144709995127084,-4.0692428264755875,-1.2003822192030973,0.29524695566385056,29.462030839998558,-17.732404455480992,36.954363324203406,0,S01
9740,0.0972369450358829,-0.07113870923629173,10.141072014489458,-4.6224371100987,-1.3048411808243472,0.2600519334969141,29.098484033915014,-16.326464435594303,37.50470858650235,0,S01
9760,0.0983242009752116,-0.08519635194107286,10.145194706232095,-4.304580836233421,-0.5174929788775716,0.5243376496211855,28.640511591150588,-16.44835079270718,38.13149335362547,0,S01
9780,0.09699462826334129,-0.057968424261169424,10.143355065132246,-4.752840637901658,-0.9923027968011289,0.802881639916651,29.221962380769167,-16.77186749088866,37.204339453712244,0,S01
9800,0.10424433217447296,-0.07380447264680007,10.148740070428222,-3.9923509920605236,-0.7366107026311359,0.9410281992136397,28.94713206358008,-16.90663052451973,37.41718331132534,0,S01
9820,0.10104677070363279,-0.07765608554307155,10.146650952578684,-4.1691705806114285,-1.3540251231009353,0.6280241015886779,29.317816119100318,-16.584805882935047,37.96029301313478,0,S01
9840,0.10257300205010376,-0.07749506631739111,10.138502972049205,-4.416872359032885,-0.6072241270920828,-0.08639692583860059,28.947533152668154,-17.356206117885662,37.36311412238609,0,S01
9860,0.09142198790516881,-0.07063191961150082,10.13518374693504,-3.8758669872692066,-1.1675453808482907,1.1606690996413311,29.11732816438343,-16.9406808168592,37.3108585120274,0,S01
9880,0.10294906831140369,-0.07591938830500268,10.146938469792392,-4.503194724735149,-1.4043941323589086,0.471643238668202,28.90466412896412,-16.171679347733562,37.56718006137918,0,S01
9900,0.09939081774398527,-0.07192640376324391,10.144204815294678,-4.825790794177113,-1.2127491013300067,0.717269274037859,28.859122592519373,-17.31977067675468,36.96286563026855,0,S01
9920,0.10197708757689652,-0.07068599483740798,10.154359360303596,-4.378410716309522,-1.5693385009211083,1.0634563448400092,28.88526750692617,-16.96846688252487,38.524669480791545,0,S01
9940,0.10816046411060676,-0.0665318857998796,10.141476626634459,-4.711806874430859,-1.2835140230985065,0.49135009238504596,28.47864054319418,-16.698417215332604,38.05491696366475,0,S01
9960,0.09456076851589587,-0.0657644064471503,10.136563752017109,-4.262465146100902,-1.1115136745223764,0.4188944611064983,29.971450484037717,-16.871324690606897,37.61157120244235,0,S01
9980,0.10427222477187095,-0.07329073326339737,10.1412504091916,-3.9438641165724975,-1.4295104124161533,0.682036320525404,28.36656076712147,-16.382374383242357,37.97996232730549,0,S01
10000,0.10040903900322165,-0.06870906766890994,10.146152535014442,-4.292902973680003,-1.5824648904211411,0.5909637386071261,29.310451428290175,-16.699891319253346,37.33582119443186,0,S01
10020,0.0951203339849498,-0.07175300583544485,10.142732910959717,-4.773210819892032,-0.9649814948575206,0.5633390179376809,29.759262364658813,-16.86480629980168,37.50491992674296,0,S01
10040,0.10426079251876207,-0.06729734528620336,10.14249759110206,-4.704141517655227,-1.1741831137113503,0.3270342720115138,29.616204529296013,-16.414299287022168,37.25419793609541,0,S01
10060,0.11012455088622052,-0.06792009084856385,10.149465348672058,-4.243696700322958,-1.683286032899225,0.06418880431754515,29.07410734885461,-16.172043202268974,37.71519160845424,0,S01
10080,0.10002260846598211,-0.06294649482495479,10.148899213502055,-4.02834507932679,-1.042252738665105,-0.02775312386240536,29.089223564153976,-17.053692116376897,37.298489893625074,0,S01
10100,0.1024294375570305,-0.06559743639798636,10.150368420021312,-4.594824295769311,-1.2248073353377644,0.44740081907017176,28.770904814386224,-16.801713797100057,38.400938309541026,0,S01
10120,0.11022851001320083,-0.06487139631289182,10.146617618125296,-4.132974833346451,-1.1593441557875421,1.0255931873573234,28.932873963230183,-16.777330973867386,37.59424138601121,0,S01
10140,0.09905272013604863,-0.06579944767137322,10.142746678035266,-4.298163612905029,-1.1814883198489752,1.3145782744263246,29.222851909788993,-16.85115820417612,38.206650985561815,0,S01
10160,0.10683142614253043,-0.05998735183389951,10.146674446928703,-4.082257018932948,-0.46995974795714746,0.5010226230379885,29.905438982006075,-15.619376253008674,37.776311027921565,0,S01
10180,0.10715184778263839,-0.06255916124656986,10.14530482431521,-4.337424498447199,-1.5888524059050613,0.3940674961457966,28.87747696768868,-17.59705145910432,37.58768697720241,0,S01
10200,0.09680359842737989,-0.05934439169371677,10.15281181418042,-4.329950929797486,-0.8136262683069486,0.6347565812240032,28.455273588276874,-16.420519380993213,36.70578651988351,0,S01
10220,0.1010729852808229,-0.06084053249700881,10.150993412022345,-4.069112866308647,-0.9855673789993663,0.4787719856031886,29.496643176145724,-16.277163167975694,37.54966629135358,0,S01
10240,0.09476798682782335,-0.06453971193853036,10.145926867130392,-4.438178115713726,-1.3434749447199053,0.1304053404494458,29.291148914352597,-16.671693906616756,36.82967076513752,0,S01
10260,0.10067069361716816,-0.05978288201962905,10.14627370247677,-3.8818312830531383,-0.9631884425324213,0.5992999639458472,29.1815809884746,-16.451767646698833,38.507740073672885,0,S01
10280,0.09266302907649805,-0.05067035218378597,10.14751977991028,-4.255312568461038,-1.1448508882380826,0.6608292980663505,30.006107870395127,-16.376941565287037,37.39874770285122,0,S01
10300,0.10247083789256317,-0.05528586272218833,10.142531192992394,-4.01766143656264,-1.2773459970522063,0.7588917968693751,29.871384826753918,-15.603920389044209,37.39471916527562,0,S01
10320,0.08983797107457474,-0.05064098811133416,10.146218605108054,-4.296062055148981,-1.2716211368354355,0.5696917423948062,29.718686178798922,-16.97118791604251,38.39313417981176,0,S01
10340,0.09114654727457841,-0.06212225741861339,10.140649078323905,-3.5949193046524184,-1.3543839794635517,0.8563958733718,30.137703446307032,-16.52841562968598,37.824731944827356,0,S01
10360,0.09054045080054324,-0.051379922248559515,10.156309197569986,-4.313610182374558,-1.6588157752896733,1.14537198403606,28.800455968801035,-16.3608771346087,37.28885858527054,0,S01
10380,0.09859065084362592,-0.05169485645933976,10.138272810030971,-4.4615655549894555,-1.4485101798034818,-0.10000251409665106,28.745160455317638,-15.476180886114907,37.933973905243704,0,S01
10400,0.09410835904111411,-0.05313271113219652,10.151195020476942,-4.015054931548874,-0.952747478253074,1.2667220227301246,29.221526357923153,-16.865002758598017,37.69871227603433,0,S01
10420,0.09380601974627012,-0.05173464582384223,10.139497205764293,-4.234181131248794,-1.9496011302858662,0.48488481980844805,29.24543809740105,-17.167145346734163,37.86308727327477,0,S01
10440,0.09952552069309353,-0.05566572452650517,10.142242616647387,-4.367273185766683,-0.9549082793057089,0.6042974263361782,29.50370747203958,-16.473273244173555,37.25594442201497,0,S01
10460,0.1103804520218286,-0.06350319773206062,10.143383650103273,-3.8162821910727263,-0.9197646180074021,0.5210581221216289,29.783412016286302,-17.318222290301964,37.165959041256315,0,S01
10480,0.09876061046845666,-0.0426434980715108,10.14603105276875,-4.119098894622254,-1.4278381299829521,0.40694166157042766,29.409885758162844,-16.731724376958233,38.28084886974695,0,S01
10500,0.10622351766021895,-0.049296705910887806,10.142152479733069,-4.098002228369685,-1.0389779348343937,0.6201421235365288,28.817268575165016,-16.11096254500802,37.322055083249886,0,S01
10520,0.10506983859257782,-0.052456122841027644,10.142877942868944,-4.2428391762780056,-0.9516805196298727,0.5363636397804885,28.384774433530808,-15.997311665028095,38.1077126845209,0,S01
10540,0.10429072234167105,-0.05436250389781054,10.143376468061161,-3.7689157254582897,-1.3916541794135329,0.6531907202915553,29.253860533470142,-16.177282535915225,37.17005064535231,0,S01
10560,0.09719133720221372,-0.05117980962676946,10.137162294626911,-4.408027786417945,-1.7097030325206546,0.7814020477763861,29.166768373076422,-16.770053456736996,37.34886474086416,0,S01
10580,0.10357471240361768,-0.05433976697013421,10.140436062632356,-4.075735341798135,-0.8798414608544405,0.8246180685596256,28.735344038565078,-16.378212282547427,37.46438069133851,0,S01
10600,0.10703276364315095,-0.04295809467792218,10.146738452064023,-3.925957699076799,-1.4939539179874568,0.5142118489581463,29.091095163386093,-16.550793815009975,37.34433545684883,0,S01
10620,0.09751703569000823,-0.06052919778711908,10.14469386755795,-4.105993070943151,-1.0698740061925893,0.8105671135998559,29.038509372377714,-16.121519001616093,38.06625588495656,0,S01
10640,0.0937432504296763,-0.04899105558582688,10.139053821154132,-4.572887756811822,-1.006254559128945,0.31446210953594433,29.15201253637682,-16.01936143247689,37.582598065502346,0,S01
10660,0.10637200899114473,-0.04604272448766777,10.147676419832598,-3.7437066075416277,-1.18743842587576,0.9850372468687254,29.456792100671773,-17.243227685284847,37.84576872775337,0,S01
10680,0.10299777343634631,-0.05081725572616959,10.143618713306982,-4.282250415115637,-1.1808340841592448,0.7681931163025328,28.87846036641416,-16.572515906211798,37.78687485024242,0,S01
10700,0.09559781862839721,-0.04492490305239025,10.149390821425778,-4.7688391707938855,-1.1894502344365259,0.7525014922710309,29.282175231626287,-15.524503007124833,37.650896901805055,0,S01
10720,0.10533933037218776,-0.050805771919508344,10.14757256829265,-4.079162089233217,-1.281579094918502,0.6234826126209465,29.10248623684728,-16.70720724651595,37.349242542886145,0,S01
10740,0.10001973790444622,-0.04871178118747644,10.139457092487527,-4.053768976993061,-0.7491668859248358,0.8278300212392073,29.304552991139282,-17.02872821720262,37.35384731819084,0,S01
10760,0.09743462499550051,-0.047772678252699805,10.14240491219585,-4.1425142834499775,-1.0391999629862982,0.7904403566457551,28.92378312901547,-15.313103526333755,37.15994969493684,0,S01
10780,0.0948771818146841,-0.045899754597757726,10.145658988072764,-3.9781860300641254,-0.6761602052598222,0.6648546052720693,29.599977580920477,-16.46693444967913,37.36045428929653,0,S01
10800,0.10530903673326643,-0.04332356512327141,10.145204090678872,-4.131850765034253,-1.0849922012004973,0.06819959185847924,29.06333874093546,-16.21838432262316,36.94827479980936,0,S01
10820,0.10318020666992081,-0.05988068567256894,10.149380871064391,-4.2261469131260325,-1.3203809011144494,1.2063121728245696,29.045313834888653,-16.76847249632217,36.97517525393919,0,S01
10840,0.09818076252833782,-0.049092648037887515,10.144434981161984,-4.022902070865003,-1.2055208954781955,0.8695887640666606,28.756818842883156,-16.204908375989824,37.49024976480749,0,S01
10860,0.08986071565619334,-0.05407824554809765,10.133856916675462,-3.7270376857657848,-0.7431376470784197,1.0650395560210755,29.30711967432417,-16.734482721635437,37.5516517609987,0,S01
10880,0.10214598883016798,-0.054217268572181385,10.149101552845144,-4.350560954833094,-1.244731160675443,-0.2021102901487707,28.58927251375306,-16.375247951029674,38.04286742985883,0,S01
10900,0.10351618415459089,-0.04428399586433007,10.15175093955332,-4.068180802608607,-1.2990688769848435,0.15788454785987155,29.38950263911403,-15.751463076924509,37.98811063979424,0,S01
10920,0.10276465055676214,-0.04479996136159613,10.151986037777258,-4.352545064660763,-0.8094683653770182,0.5278812045300456,29.51952436976945,-16.999126068543053,37.383307509990146,0,S01
10940,0.1026564534444894,-0.05420554149592917,10.153418407033216,-3.8751412590022625,-1.555462480842567,0.5328688185840859,29.76765672819977,-16.526596930986422,38.614729742033504,0,S01
10960,0.09420111124112894,-0.04593569852097477,10.13937332429934,-4.361159874842975,-0.7765657403694723,0.919140430149012,29.674117325577825,-17.231673108533307,37.56544545861755,0,S01
10980,0.1023584297107418,-0.05003481103483036,10.149117752167257,-4.207508323769785,-1.704201821172353,0.8434056492848154,29.232915915410302,-16.558267639428294,38.22675230112822,0,S01
11000,0.10361619820011692,-0.05465463947276639,10.149159058404189,-3.7496480451806598,-1.4024171700722206,0.841431331273511,28.733032717560523,-17.072645024915975,37.182129180117926,0,S01
11020,0.09921516207184264,-0.0554710539030803,10.142328330117781,-4.1919971629118065,-1.2087506400065777,0.38456494406349556,29.00182102549029,-16.61809249419853,37.58003438003617,0,S01
11040,0.09890283536774351,-0.05463552825659305,10.149160833633191,-3.837137122906073,-1.3486366085712551,0.24362169025527586,28.9812197994944,-16.804311483726604,38.20724072444571,0,S01
11060,0.0929541009624301,-0.04643578891441681,10.146506216999919,-4.5043475116991,-0.9544214801390959,-0.1685133610564985,29.53197389010006,-16.729856555365835,37.01429440293307,0,S01
11080,0.09861719949509763,-0.05044027639435662,10.148251453840262,-3.738166778661661,-0.9323124257713008,0.022434453363068485,29.866527920447844,-16.29282192884969,37.81896944500794,0,S01
11100,0.0921330592850961,-0.054776755565865,10.145629011740295,-3.9875280301106772,-1.4093195963047604,1.3288565385069,29.05312194865672,-16.937165210364547,37.62733215028197,0,S01
11120,0.09583648333492185,-0.04906513119364575,10.139868655364534,-3.877192652861425,-0.8488571367904515,0.40319784230759637,28.210455205854952,-16.368162036464334,36.93919029816416,0,S01
11140,0.10053922067311497,-0.0617735243664121,10.14397935539504,-4.423125157145631,-1.291719432660965,0.8071250728396215,28.720417020752492,-17.483375212565726,38.41481389715361,0,S01
11160,0.10219775334954173,-0.05947285032673996,10.149906762323521,-3.9402205549111553,-1.1053445478017208,0.37821196556379816,29.503040912155683,-16.858907493576304,37.77262358164702,0,S01
11180,0.09998874636782458,-0.053705421645016786,10.151648971481066,-3.917010077160606,-1.466676751868261,0.7895999585632026,28.003954712089453,-16.324063750618567,38.17551459555134,0,S01
11200,0.10097044702394248,-0.05171361306565293,10.137692267834991,-4.096599250710632,-0.8826156567724293,0.7036746895857908,29.02351091571513,-16.720659220238787,37.67345284628503,0,S01
11220,0.10315725167944473,-0.05580682092558081,10.145241396047387,-4.51463118952026,-0.709750643726627,0.36721128422367966,28.64963059340339,-15.940958190973912,37.41850880877432,0,S01
11240,0.09410086700243395,-0.050976671252522435,10.151897333331876,-4.066780242905693,-1.0724987366983352,0.7298386947201606,29.27472460202314,-16.118422808341812,38.04758150625233,0,S01
11260,0.10443583700868994,-0.06254914871724525,10.15018962385406,-4.069568639013574,-1.3145089248807147,0.9367019275191473,29.137494423225842,-16.640651295693164,37.525325112753805,0,S01
11280,0.09750803474409238,-0.053186220050881895,10.14115494658784,-5.059313420354734,-1.1153109647733284,0.9840319479017772,29.169310509466868,-16.444111342604465,37.68934547269054,0,S01
11300,0.11025272252368191,-0.051345172275692026,10.145350899558292,-3.9098726606396195,-1.5748087171541187,0.9279223852032603,29.282990527068115,-16.471199351956468,37.66053023479738,0,S01
11320,0.09587082241814264,-0.05966986227415144,10.142859394590927,-3.8287539981881213,-1.6262563428541006,0.43291536791985874,29.832246593929376,-17.2393313274914,37.40503809238095,0,S01
11340,0.10187082434328923,-0.061141241055806636,10.14837615864772,-4.516712933338738,-1.369881946502374,0.5370210290659025,29.187067131797377,-16.18128150688176,37.205683964570255,0,S01
11360,0.10361580728237,-0.060642222065908115,10.134467251369594,-3.259290655239433,-1.2372567399475256,0.9656553135010804,29.231250028313365,-15.599151218377981,37.89619854336507,0,S01
11380,0.10629805027027206,-0.06122279151578759,10.148986533598901,-4.74210872381624,-0.9695964334366021,0.7310900012871759,28.670231478021186,-16.278279200145512,37.724664632774456,0,S01
11400,0.09880742801624873,-0.05856710120346117,10.143551700851425,-4.057196842009575,-0.8592848455046854,0.2530392657919796,29.117997972729547,-16.81495354707205,38.162787167001866,0,S01
11420,0.10699151316775309,-0.07245131342829862,10.145529226736144,-4.370644703014317,-0.9755554056191987,0.34292835829374196,28.77476699168432,-16.313152181497088,37.80457832172142,0,S01
11440,0.09102228079243715,-0.07177510970861783,10.148007287291874,-4.075716241558973,-1.3415758013517363,0.9077300282626876,29.167610165002287,-17.34481719653548,37.719729616927005,0,S01
11460,0.09812265645917555,-0.06954744144301332,10.148082029136075,-3.8462616882506637,-1.0364801828419241,0.39713002441070505,28.792707670034318,-16.7724109043103,37.84522384226283,0,S01
11480,0.08893093214339014,-0.07069224693276017,10.142836572797075,-3.6305615909356153,-1.24469934154626,0.8792561502095522,29.210614090361634,-15.99127353184687,38.161511957939176,0,S01
11500,0.09605158830545332,-0.06585774282151137,10.154295733594351,-4.199747084723803,-1.3455559834381439,0.5392314529274874,29.527343142083723,-16.384645842928347,37.21043082115287,0,S01
11520,0.09300023040000475,-0.06612701717255223,10.144389743588707,-3.961943142360792,-1.1666098893286039,0.5922358624166658,29.435647308595144,-15.891144092538958,38.32225343416287,0,S01
11540,0.09682024474478026,-0.070325424577987,10.13880217463371,-3.9038763777958096,-1.0658289379860149,0.820848491308613,28.396723260199256,-16.316996987829782,37.63076378739432,0,S01
11560,0.09357566321080824,-0.06955370432386548,10.142778670293769,-3.876197661649898,-1.271277893908693,0.6761102430743501,28.423435005213175,-17.2582779999221,37.823937380163954,0,S01
11580,0.09646463114869232,-0.07699177217739413,10.150300686534589,-3.6860604323837047,-1.0187891753622718,0.6269607495682942,28.87328670410577,-15.596070618143251,37.140183839996986,0,S01
11600,0.10363736327169687,-0.06274632521261389,10.144065932621793,-4.177636305908894,-1.1516425973887208,0.5503070015597405,28.767805157812738,-16.086143186501104,37.327008820416125,0,S01
11620,0.10206169905148431,-0.07207585465219916,10.152853890962696,-4.500658183882264,-0.6131074699110195,0.39240878042916816,28.96170985900535,-16.093506719229666,37.78826027499522,0,S01
11640,0.10860366409040745,-0.0630850088715714,10.142077702999858,-4.0336190230662705,-1.3079782084915637,0.9963250450201968,29.173335223403544,-16.80417753362678,37.14407931183618,0,S01
11660,0.09994641897549005,-0.0767184963835926,10.142824666385492,-4.508216245044579,-1.0664672748234758,0.7982233378273415,28.705230770984443,-17.154522481935814,37.900933708987544,0,S01
11680,0.10166640950608467,-0.07410018027143105,10.148643678195075,-4.4200300555867535,-1.4081526165492873,1.0333561288796647,28.751748359592032,-16.160522621073653,37.648018642143555,0,S01
11700,0.10323969701672987,-0.07157888383715787,10.137393708348577,-4.09775648054703,-1.0383378820817264,1.034737249533539,29.27613957733795,-16.346268978502355,38.49430525535549,0,S01
11720,0.09724527818922848,-0.0756992670991431,10.139448869944903,-4.7205487108790365,-1.7334954697193954,0.3782736449266229,28.9311740976887,-16.39306753496824,37.463266797939006,0,S01
11740,0.10244407976530306,-0.07024645857595613,10.13993501204039,-3.678830309175434,-1.124888042680206,0.8002767639411552,29.32335605951566,-16.794351140513225,37.55286268898501,0,S01
11760,0.09972768322231454,-0.08406490630768923,10.139569408652715,-4.341261395379086,-1.3369629766422546,0.40922754444863146,28.89003251336135,-16.29135580325633,37.98028314236087,0,S01
11780,0.10049573312998206,-0.07099752725041385,10.131055967666562,-3.933320772115769,-0.8678304314014361,0.48317330430414723,29.0424862667368,-17.169103802599103,37.236478480363985,0,S01
11800,0.10715192492854686,-0.07285461164231136,10.14582486129884,-4.8843660073023845,-0.927273819330964,0.25135718664845424,29.31303862143882,-16.909209470230323,38.274130233155184,0,S01
11820,0.10162687296958721,-0.08499000500761172,10.14960500535015,-3.8647096355952133,-1.122184453524845,0.3116623122389132,29.01421097125463,-16.007965806572482,38.057480167982995,0,S01
11840,0.0900021738448444,-0.07621482751894354,10.151907839155148,-4.422667006604185,-1.0749060891939046,0.2472046000979521,29.276133639531544,-16.07284260808819,38.21992300467568,0,S01
11860,0.09278206625855265,-0.08129080596935644,10.137000517325099,-4.304510348507317,-0.9450428101874386,1.1076036760574541,29.502200721017985,-16.485830989919247,37.04365146334621,0,S01
11880,0.10407561841940022,-0.0902425417719514,10.142412502936766,-4.0987192639992305,-1.1044613067161015,1.393170201528764,29.88913303553793,-16.077685046036603,37.31453176699548,0,S01
11900,0.10707766213313581,-0.0895558936972936,10.141742246223664,-4.0823883591025645,-1.3246123069846047,0.690901565249533,28.91893679226109,-17.259394190405605,37.981808304237056,0,S01
11920,0.10983659984443073,-0.08082505106302676,10.14862782815166,-4.564653170216446,-1.2648289612806654,0.22855280294845476,29.615975688244536,-16.34183329631982,37.84033267212303,0,S01
11940,0.09766000794485277,-0.08639956095548379,10.140673672469127,-4.765917031707801,-0.5397938433443995,1.191202169117144,29.225784932008104,-16.878000876433898,37.81823435259031,0,S01
11960,0.09431157045047771,-0.07826128823456752,10.152192511866618,-4.213185543838284,-1.478815420390912,0.47960697167827515,29.54867785507996,-16.053001580851483,37.6531374858426,0,S01
11980,0.09768239545034964,-0.08430882309843009,10.14060086745521,-4.550304707768922,-1.4183496270363563,0.22078109234990817,29.477544545929234,-17.473079812934877,37.361137091994934,0,S01
12000,0.10751188238058235,-0.08751424295030272,10.142446594300575,-4.337088130634493,-1.5471635524277647,0.4409498335466242,29.36661199596908,-16.55996413079296,37.192539187795404,0,S01
12020,0.09224278932215414,-0.08694597247468767,10.146626052106422,-4.517623661581452,-1.2047838935449142,0.7896395057721867,29.10637093311203,-17.21079907828196,37.44027044756571,0,S01
12040,0.10227849091653456,-0.07879654226399573,10.148389192179964,-3.884549249941942,-1.796765964044841,0.9155617273976393,28.883757455172116,-15.98321756779452,37.909946776918,0,S01
12060,0.10712556133573421,-0.0850168597505656,10.143072734471273,-3.9289640911042247,-1.4129855056568241,0.9354124634714865,29.312575844221552,-16.17455982577389,37.87175733035464,0,S01
12080,0.10963838357882283,-0.07868902959318866,10.146800775915032,-4.496575027709805,-0.5474776199433519,0.26933591861380646,29.014983104407698,-15.88886992123242,37.70581599186521,0,S01
12100,0.09719215330957458,-0.0783075800638208,10.144658454569772,-4.686487520491428,-1.7318152424614484,0.8168378939987108,29.395289887048666,-16.67797066808567,38.11073106242338,0,S01
12120,0.112229280473594,-0.08518566978057743,10.149748558905305,-4.154396719313733,-1.6001024937041475,0.41208798061492163,29.234007417341317,-15.8826123129721,37.16324831687957,0,S01
12140,0.09990088432129011,-0.09050504539846668,10.139177181610322,-4.191625572247121,-1.4170022945535412,0.612792786169501,30.05243775047958,-17.84248638477792,37.960560727431336,0,S01
12160,0.09290476965637556,-0.08427969320912834,10.136255457910146,-4.183443461338816,-1.0636235498711204,0.4683282136794803,29.163017296086252,-16.46145785398256,36.93307036036031,0,S01
12180,0.09721809805608023,-0.08837977823578907,10.148520231034732,-4.150201759929097,-1.436227663442458,0.05579447079074806,28.86482189371347,-15.807504221432268,38.27648551988127,0,S01
12200,0.0949337373571104,-0.09285753839840646,10.148067074386802,-4.378949296365656,-0.6892864553493587,0.7511572735435781,29.433357721416204,-16.692767734749463,37.70543414847114,0,S01
12220,0.1083333693541699,-0.08257837034828443,10.14323784180445,-3.822459548288748,-1.5493720458232543,0.5479157142033926,28.476874044683818,-16.39685628964745,37.57095959612764,0,S01
12240,0.09875118333830749,-0.09254095753969611,10.136704621506526,-4.22468060966343,-1.0197003029942693,0.7635700612027712,29.108045063236514,-15.833452132325256,37.229144899063606,0,S01
12260,0.10724878598225747,-0.08667908682209222,10.146256267347018,-3.9878675774042827,-1.0109181955191995,0.3582913258731758,29.197137366524636,-15.977454066901213,37.662175132569416,0,S01
12280,0.09933292729692704,-0.09054392968998555,10.147183664050084,-3.949896656450397,-1.1796327225580054,0.18541819477114851,28.872600658796355,-16.378637483028783,37.36546183278942,0,S01
12300,0.09683145074065676,-0.09465904998127025,10.1498905016734,-4.49077369323695,-1.4508201162984133,0.8670459602697851,28.864307787960005,-15.577284503246249,38.70361225220235,0,S01
12320,0.11146188818747552,-0.08655515818071209,10.147395328405008,-4.328957253674526,-1.1768778339011445,0.9507354089125613,29.726917100153308,-16.53482063826304,38.047867741530496,0,S01
12340,0.09871772322652365,-0.09255161454132826,10.139806552357307,-3.3906264465490943,-0.8548854737450697,1.1330578804782485,28.918449827019785,-16.972350497954565,37.18611705870873,0,S01
12360,0.09855202144940566,-0.0958816496931417,10.142407045545182,-4.811526581379144,-1.3658458039535866,0.7178067158009054,28.892154534632397,-16.217224564099954,37.24166313025685,0,S01
12380,0.10452501260491132,-0.1014188951689097,10.153410599109508,-4.643582444947472,-1.1761863811688007,0.5751044674674247,29.58185853089777,-17.060408846711603,37.3351001349726,0,S01
12400,0.09715710124047365,-0.09123131933673465,10.135464103355057,-4.129589889154874,-1.3138027213651433,0.643242914522074,29.112077038684582,-17.09416514117074,37.531724295976446,0,S01
12420,0.10473824924458758,-0.09014094293697288,10.148920334230636,-4.199948320767039,-1.3042724266977073,0.533333373965293,29.790938573563793,-15.626357410520026,37.61494316792065,0,S01
12440,0.09617308168276482,-0.091091197443406,10.148469755194585,-3.91759798367108,-1.4163516459441141,0.9067471323671706,29.29133774792459,-16.300524635472605,37.95791896895152,0,S01
12460,0.09855894427868792,-0.09023024131498493,10.14859871947705,-4.756774799316545,-1.5861443532201975,0.6516214828038701,28.92590947899062,-16.491272805684265,38.13439688876644,0,S01
12480,0.10800991095290749,-0.0921685279336294,10.146306361263653,-3.9376742348697404,-1.4106487022630994,0.36675138955971526,28.299605706198765,-16.349905037094878,38.20322899799333,0,S01
12500,0.10229642876107613,-0.08783057695337232,10.14350218489656,-3.9454427433802777,-1.4182593224254392,0.3301509484660011,29.32969125478563,-16.26450670750947,37.79447254630154,0,S01
12520,0.09918538881051436,-0.08765496016735264,10.146912545999752,-4.6034324641284385,-0.7017420796482827,0.5059528073064717,28.84049706956837,-17.3763997828372,37.4685344775832,0,S01
12540,0.10273640070563016,-0.0964974211038088,10.150023144252268,-4.362964950222182,-0.8799197741553513,0.3650091919016144,28.516192007245007,-15.429232905929815,37.365080526356955,0,S01
12560,0.09448337785550784,-0.09021515539156878,10.140574197866535,-4.1731324201658975,-0.7896253235037214,0.25461909929521176,29.233736311460415,-16.154898658956874,38.22313779837598,0,S01
12580,0.09983234774535744,-0.0872652037787853,10.14593324373881,-4.245218746994085,-1.0064866570268616,0.6639010866267028,29.341507226910732,-16.85250245272726,37.28447416726686,0,S01
12600,0.09177419494875738,-0.0909534727061441,10.147717232697708,-4.374648286515624,-1.4017582062807654,0.4241889742429312,28.893068828818688,-15.800954885745142,37.966593365939424,0,S01
12620,0.10301045621823973,-0.09086014061698211,10.152926176055416,-4.241818479324226,-0.8842690580156127,0.5246333119215215,29.374012959089345,-16.60278537322035,37.75995330717017,0,S01
12640,0.10786609631273802,-0.0889710308293283,10.147779962450393,-4.13259682522591,-1.22642086762057,0.643684720315553,28.548374532128552,-16.292131334951897,37.476973615534206,0,S01
12660,0.09728968842472947,-0.08648725197460735,10.136977006527054,-4.037330959801834,-1.6668359508267194,0.04543617111940801,29.375275434257794,-16.587006108814677,37.371287944039146,0,S01
12680,0.0982509099291007,-0.09166914213173236,10.149487415612551,-4.834366489287734,-0.8163923785806652,1.0713627701107857,29.484224134075465,-15.983407996372836,37.50815317421619,0,S01
12700,0.09469213777879272,-0.08357796385204139,10.137517571682897,-4.4143783011826505,-1.1475294067876909,0.12605182384238256,29.120343415266774,-17.332962157983566,37.55586417786074,0,S01
12720,0.0996873993101074,-0.08043639218229057,10.137499628962138,-3.862229796444509,-1.5040701452295278,-0.05201476011858808,29.806573178699693,-16.59329429075549,38.09930776977532,0,S01
12740,0.10560283284582554,-0.08182102430126932,10.143954068977807,-4.347321959740424,-1.2764417855221035,0.18615220706301944,29.258971750878885,-17.12287143182164,37.71618194999627,0,S01
12760,0.10444362751150697,-0.08365720660052132,10.141257422828161,-3.7639348738578415,-1.222775702747739,0.6174633704898972,28.48593621825758,-16.046032331394315,36.87218529934114,0,S01
12780,0.09890164435217864,-0.08910126950242934,10.140415615747578,-3.909666037907414,-0.8437507418844765,0.18642758170002938,28.889729327917024,-16.074901218764815,38.10868170689417,0,S01
12800,0.10060660383486116,-0.0885980584740969,10.135979283919475,-4.154400000438966,-1.4482269303250463,0.393475238943473,28.197764667311446,-16.919513158171306,38.01562467316508,0,S01
12820,0.09637229831550806,-0.08917313640052003,10.152973931283578,-4.443175347322249,-1.2596916831346512,0.8285105429681066,28.71471785831531,-15.772120569692591,37.839456992834855,0,S01
12840,0.0990284241356098,-0.08666673042217587,10.143441911787537,-4.179410675448814,-0.9294193265343953,1.2313960183899886,29.409565351898515,-16.906962395297157,38.1552767755416,0,S01
12860,0.10301551917175178,-0.07910069677885623,10.152017153300411,-4.056662164382651,-1.1824962233403522,0.5232064491477462,30.049966096646674,-16.88474711044924,37.99415376379891,0,S01
12880,0.0979490970038716,-0.08819458895681458,10.144648780665873,-4.154830717830984,-1.439123477495717,0.9287690964808835,29.049222959457463,-17.117268407994366,38.058406170295534,0,S01
12900,0.09421093309920907,-0.08591946679610953,10.148711717811775,-4.357614264384611,-1.2213572835933948,1.5272811247856,29.100438774550383,-16.806368243632164,38.65797239427613,0,S01
12920,0.10390755743078572,-0.08261342856250442,10.141139202910551,-3.756408318170908,-1.6447527469777983,0.5536852477668623,29.240548953991397,-16.116046363944395,37.59532129906872,0,S01
