timestamp,ax,ay,az,gx,gy,gz,mx,my,mz,label,subject_id
0,0.1,-0.07,10.145759109311742,-4.2,-1.2,0.6,29.299407115218735,-17.004000445432055,38.89183699546401,6,S01
20,0.1,-0.07,10.145759109311742,-4.2,-1.2,0.6,28.97358824127032,-17.11951294401161,38.69578364641369,6,S01
40,0.1,-0.07,10.145759109311742,-4.2,-1.2,0.6,29.770088984589844,-16.981203353223126,37.79383575230097,6,S01
60,0.1,-0.07,10.145759109311742,-4.2,-1.2,0.6,28.650473847029975,-15.973374542736861,38.08251198578552,6,S01
80,0.1,-0.07,10.145759109311742,-4.2,-1.2,0.6,29.18314142203016,-16.656319656935743,37.12517131300596,6,S01
100,0.1,-0.07,10.145759109311742,-4.2,-1.2,0.6,30.07530743779699,-16.735879947880715,37.535857904522075,6,S01
120,0.1,-0.07,10.145759109311742,-4.2,-1.2,0.6,29.309007473593777,-16.761934867159336,37.53154441012839,6,S01
140,0.1,-0.07,10.145759109311742,-4.2,-1.2,0.6,29.326699330410527,-16.581449515116596,37.51045494300347,6,S01
160,0.1,-0.07,10.145759109311742,-4.2,-1.2,0.6,29.498507978824154,-15.914845516202712,37.62191356422728,6,S01
180,0.1,-0.07,10.145759109311742,-4.2,-1.2,0.6,28.634829298646853,-16.286469973496033,38.84731327885813,6,S01
200,0.1,-0.07,10.145759109311742,-4.2,-1.2,0.6,29.185065801022006,-16.561602721303913,38.12621291988047,6,S01
220,0.1,-0.07,10.145759109311742,-4.2,-1.2,0.6,28.998093112820495,-16.939254697029043,38.47254769363938,6,S01
240,0.1,-0.07,10.145759109311742,-4.2,-1.2,0.6,29.1184434379922,-16.597904683811656,37.5087133655237,6,S01
260,0.1,-0.07,10.145759109311742,-4.2,-1.2,0.6,29.27031698544197,-16.72269633929671,37.68775856772168,6,S01
280,0.1,-0.07,10.145759109311742,-4.2,-1.2,0.6,29.531472122738112,-15.44116628137181,37.5907027153162,6,S01
300,0.1,-0.07,10.145759109311742,-4.2,-1.2,0.6,29.110659189377568,-16.755328306146666,37.98627168621895,6,S01
320,0.1,-0.07,10.145759109311742,-4.2,-1.2,0.6,29.336585605707374,-17.27841260911948,37.93460836796408,6,S01
340,0.1,-0.07,10.145759109311742,-4.2,-1.2,0.6,30.087554049962765,-16.02818715065135,37.95718566586483,6,S01
360,0.1,-0.07,10.145759109311742,-4.2,-1.2,0.6,29.172283409763228,-16.040719259717186,37.18656721111761,6,S01
380,0.1,-0.07,10.145759109311742,-4.2,-1.2,0.6,29.593353612874683,-16.9567295185075,36.480911883050034,6,S01
400,0.1,-0.07,10.145759109311742,-4.2,-1.2,0.6,29.442380092632707,-16.601398380602365,36.98415332552987,6,S01
420,0.1,-0.07,10.145759109311742,-4.2,-1.2,0.6,29.960198050490668,-17.43059673871288,37.21334746566403,6,S01
440,0.1,-0.07,10.145759109311742,-4.2,-1.2,0.6,29.177976618641928,-16.70842168772714,36.61272343599236,6,S01
460,0.1,-0.07,10.145759109311742,-4.2,-1.2,0.6,29.16789347828796,-15.881118167903068,38.47409722007835,6,S01
480,0.1,-0.07,10.145759109311742,-4.2,-1.2,0.6,28.785679918120557,-16.814283247715075,38.07286629126539,6,S01
500,0.1,-0.07,10.145759109311742,-4.2,-1.2,0.6,29.359056797204982,-16.877492216833645,37.60936299468767,6,S01
520,0.1,-0.07,10.145759109311742,-4.2,-1.2,0.6,29.667666239664086,-16.779136232602024,37.80426867468577,6,S01
540,0.1,-0.07,10.145759109311742,-4.2,-1.2,0.6,28.922328863414418,-16.668475186295737,37.99612847347766,6,S01
560,0.1,-0.07,10.145759109311742,-4.2,-1.2,0.6,29.26888891976622,-16.710008942896906,38.31598630771427,6,S01
580,0.1,-0.07,10.145759109311742,-4.2,-1.2,0.6,29.126846266874473,-16.551789734588034,37.670865429078106,6,S01
600,0.1,-0.07,10.145759109311742,-4.2,-1.2,0.6,29.47100929551151,-16.010072784058657,36.87050718459522,6,S01
620,0.1,-0.07,10.145759109311742,-4.2,-1.2,0.6,29.98885096435509,-16.790019837725396,37.24539620600256,6,S01
640,0.1,-0.07,10.145759109311742,-4.2,-1.2,0.6,29.546861277821286,-16.657526602672917,37.57766556404679,6,S01
660,0.1,-0.07,10.145759109311742,-4.2,-1.2,0.6,29.083196238440614,-17.594487498583007,38.018174488601396,6,S01
680,0.1,-0.07,10.145759109311742,-4.2,-1.2,0.6,29.219377229413162,-16.32407046786133,36.936072233622205,6,S01
700,0.1,-0.07,10.145759109311742,-4.2,-1.2,0.6,29.51856692934326,-16.542541668351195,37.82531959580243,6,S01
720,0.1,-0.07,10.145759109311742,-4.2,-1.2,0.6,28.8667386801085,-16.52282739048809,37.3793083294473,6,S01
740,0.1,-0.07,10.145759109311742,-4.2,-1.2,0.6,29.31961600281077,-17.394329430551295,37.33942232541965,6,S01
760,0.1,-0.07,10.145759109311742,-4.2,-1.2,0.6,30.047835253304026,-16.29497943296708,37.362264509222356,6,S01
780,0.1,-0.07,10.145759109311742,-4.2,-1.2,0.6,29.99645584347433,-16.061674849709267,38.02753861946961,6,S01
800,0.1,-0.07,10.145759109311742,-4.2,-1.2,0.6,29.328226144949234,-16.961239573908344,37.771678704091805,6,S01
820,0.1,-0.07,10.145759109311742,-4.2,-1.2,0.6,29.619782432154512,-16.959381983037943,37.31064665880977,6,S01
840,0.1,-0.07,10.145759109311742,-4.2,-1.2,0.6,29.12314238933592,-16.750929227904738,37.95129928253597,6,S01
860,0.1,-0.07,10.145759109311742,-4.2,-1.2,0.6,29.058038919931715,-17.100648188540422,37.583656812804506,6,S01
880,0.1,-0.07,10.145759109311742,-4.2,-1.2,0.6,30.212464795328472,-17.436503103356287,38.28033234875631,6,S01
900,0.1,-0.07,10.145759109311742,-4.2,-1.2,0.6,29.39145927066397,-15.600987754001563,38.20544870431374,6,S01
920,0.1,-0.07,10.145759109311742,-4.2,-1.2,0.6,29.182437988634007,-16.007843159177533,37.83458633567112,6,S01
940,0.1,-0.07,10.145759109311742,-4.2,-1.2,0.6,29.139950744558483,-15.98148859190898,38.615895442758436,6,S01
960,0.1,-0.07,10.145759109311742,-4.2,-1.2,0.6,28.796650257570146,-16.56621534103507,37.88956511117886,6,S01
980,0.1,-0.07,10.145759109311742,-4.2,-1.2,0.6,28.802701850780878,-17.04158224560063,37.248009214454335,6,S01
1000,0.1,-0.07,10.145759109311742,-4.2,-1.2,0.6,28.28570925174707,-16.11875652638262,37.20524041767746,6,S01
1020,0.1,-0.07,10.145759109311742,-4.2,-1.2,0.6,29.571799604699304,-17.465167390058678,38.147976177203034,6,S01
1040,0.1,-0.07,10.145759109311742,-4.2,-1.2,0.6,29.238363291496135,-15.528620354309911,37.896786867013724,6,S01
1060,0.1,-0.07,10.145759109311742,-4.2,-1.2,0.6,29.602318156302857,-16.51909530463981,38.83133848799748,6,S01
1080,0.1,-0.07,10.145759109311742,-4.2,-1.2,0.6,28.49791422305469,-15.356362642970426,38.267611199565266,6,S01
1100,0.1,-0.07,10.145759109311742,-4.2,-1.2,0.6,28.589442672384873,-15.295131584138556,37.92344040125701,6,S01
1120,0.1,-0.07,10.145759109311742,-4.2,-1.2,0.6,29.701397157970852,-16.62858198165792,38.400403080808964,6,S01
1140,0.1,-0.07,10.145759109311742,-4.2,-1.2,0.6,29.66192504459624,-17.701920824078897,37.488723440180905,6,S01
1160,0.1,-0.07,10.145759109311742,-4.2,-1.2,0.6,28.06622232022043,-15.54950976767955,38.1643206780812,6,S01
1180,0.1,-0.07,10.145759109311742,-4.2,-1.2,0.6,29.473593359084436,-16.29302114796038,38.608723256909464,6,S01
1200,0.1,-0.07,10.145759109311742,-4.2,-1.2,0.6,29.542864267314698,-16.733365031524826,37.80603009789604,6,S01
1220,0.1,-0.07,10.145759109311742,-4.2,-1.2,0.6,29.30083510485106,-15.808288749976796,38.24358798957853,6,S01
1240,0.1,-0.07,10.145759109311742,-4.2,-1.2,0.6,29.47497276912509,-16.996454967082816,38.13097297088685,6,S01
1260,0.1,-0.07,10.145759109311742,-4.2,-1.2,0.6,29.2150638433849,-16.038052589139948,38.39804681379648,6,S01
1280,0.1,-0.07,10.145759109311742,-4.2,-1.2,0.6,29.0074885361323,-16.23057972466679,37.55846986440364,6,S01
1300,0.1,-0.07,10.145759109311742,-4.2,-1.2,0.6,29.746469118565116,-15.640928370025545,38.47370502291824,6,S01
1320,0.1,-0.07,10.145759109311742,-4.2,-1.2,0.6,29.97693041989277,-16.490644922176998,37.60341101223707,6,S01
1340,0.1,-0.07,10.145759109311742,-4.2,-1.2,0.6,29.583185973937805,-15.567291966177496,38.02472012036816,6,S01
1360,0.1,-0.07,10.145759109311742,-4.2,-1.2,0.6,29.403551423938794,-16.99087648531463,38.00279280216348,6,S01
1380,0.1,-0.07,10.145759109311742,-4.2,-1.2,0.6,28.696402417947844,-16.30253796768226,38.121923374116584,6,S01
1400,0.1,-0.07,10.145759109311742,-4.2,-1.2,0.6,29.369198165075698,-16.868058821007587,37.338792865843274,6,S01
1420,0.1,-0.07,10.145759109311742,-4.2,-1.2,0.6,29.23284433864575,-16.399311715144115,38.641824514387686,6,S01
1440,0.1,-0.07,10.145759109311742,-4.2,-1.2,0.6,29.953268512845895,-17.163528994802597,38.0893455850386,6,S01
1460,0.1,-0.07,10.145759109311742,-4.2,-1.2,0.6,28.6828444574664,-16.10434271080102,37.99840460143117,6,S01
1480,0.1,-0.07,10.145759109311742,-4.2,-1.2,0.6,29.723003887627026,-16.262876888801888,37.88110110313784,6,S01
1500,0.1,-0.07,10.145759109311742,-4.2,-1.2,0.6,29.494085308234446,-16.44204254985432,37.87607667295428,6,S01
1520,0.1,-0.07,10.145759109311742,-4.2,-1.2,0.6,29.40759618361872,-16.287875160605402,38.010986412767224,6,S01
1540,0.1,-0.07,10.145759109311742,-4.2,-1.2,0.6,29.366165015179476,-16.73852201096517,37.557050741228565,6,S01
1560,0.1,-0.07,10.145759109311742,-4.2,-1.2,0.6,29.27073246777202,-16.58007817348011,37.10335853998057,6,S01
1580,0.1,-0.07,10.145759109311742,-4.2,-1.2,0.6,29.15179394346382,-16.321664629872444,37.38162000052318,6,S01
1600,0.1,-0.07,10.145759109311742,-4.2,-1.2,0.6,29.44162399106842,-16.97636833981428,37.61701134273779,6,S01
1620,0.1,-0.07,10.145759109311742,-4.2,-1.2,0.6,29.70693698547977,-16.228119683310503,38.72867040911492,6,S01
1640,0.1,-0.07,10.145759109311742,-4.2,-1.2,0.6,29.500043347570678,-16.37274388606832,37.602759713108,6,S01
1660,0.1,-0.07,10.145759109311742,-4.2,-1.2,0.6,30.068967700791834,-16.654452047992564,37.84167472087108,6,S01
1680,0.1,-0.07,10.145759109311742,-4.2,-1.2,0.6,28.96825359108668,-17.281031642619517,37.99680737426574,6,S01
1700,0.1,-0.07,10.145759109311742,-4.2,-1.2,0.6,29.976517009494437,-17.05107570463553,37.89138157627755,6,S01
1720,0.1,-0.07,10.145759109311742,-4.2,-1.2,0.6,29.25836982417736,-16.570746492210027,38.579180298216485,6,S01
1740,0.1,-0.07,10.145759109311742,-4.2,-1.2,0.6,29.828778085474887,-16.69091403062724,38.38394584880107,6,S01
1760,0.1,-0.07,10.145759109311742,-4.2,-1.2,0.6,29.47559222804353,-16.711944763820526,37.68071999475745,6,S01
1780,0.1,-0.07,10.145759109311742,-4.2,-1.2,0.6,28.30775446636377,-16.737625488759676,38.00882238370523,6,S01
1800,0.1,-0.07,10.145759109311742,-4.2,-1.2,0.6,28.963405548075528,-16.762614364384007,37.13490967233398,6,S01
1820,0.1,-0.07,10.145759109311742,-4.2,-1.2,0.6,29.37573466297762,-16.755797443288824,38.49263737206922,6,S01
1840,0.1,-0.07,10.145759109311742,-4.2,-1.2,0.6,29.833196718177597,-16.878340902902373,37.934108202072096,6,S01
1860,0.1,-0.07,10.145759109311742,-4.2,-1.2,0.6,29.160581680238728,-16.397390672837076,37.81373411030541,6,S01
1880,0.1,-0.07,10.145759109311742,-4.2,-1.2,0.6,29.09580731394822,-16.632697029853922,38.203601773151924,6,S01
1900,0.1,-0.07,10.145759109311742,-4.2,-1.2,0.6,29.221491760919427,-17.267615190065143,37.80735939621154,6,S01
1920,0.1,-0.07,10.145759109311742,-4.2,-1.2,0.6,29.1629787171925,-16.684924756158463,37.38474175780707,6,S01
1940,0.1,-0.07,10.145759109311742,-4.2,-1.2,0.6,29.402959785640437,-16.976418034491335,37.32244907824665,6,S01
1960,0.1,-0.07,10.145759109311742,-4.2,-1.2,0.6,29.150059197014393,-16.083844249111497,37.86559199997448,6,S01
1980,0.1,-0.07,10.145759109311742,-4.2,-1.2,0.6,29.409288748481337,-16.946726200027904,38.61567058087861,6,S01
2000,0.1,-0.07,10.145759109311742,-4.2,-1.2,0.6,29.727767057602673,-16.78858787302893,36.220206483157234,6,S01
2020,0.1,-0.07,10.145759109311742,-4.2,-1.2,0.6,29.819840535719145,-15.963989623341703,37.58654154290373,6,S01
2040,0.1,-0.07,10.145759109311742,-4.2,-1.2,0.6,29.654021503511377,-15.735443338559097,38.624784069725926,6,S01
2060,0.1,-0.07,10.145759109311742,-4.2,-1.2,0.6,29.228406450946466,-15.746031012078356,37.57024042380851,6,S01
2080,0.1,-0.07,10.145759109311742,-4.2,-1.2,0.6,28.951402316005886,-16.457662746729632,38.13525141216398,6,S01
2100,0.1,-0.07,10.145759109311742,-4.2,-1.2,0.6,29.575328975017356,-16.434714036149398,37.29420685012741,6,S01
2120,0.1,-0.07,10.145759109311742,-4.2,-1.2,0.6,28.163564333492445,-16.39197429708891,38.3595978035563,6,S01
2140,0.1,-0.07,10.145759109311742,-4.2,-1.2,0.6,29.437919554831904,-17.155491270784076,37.628456753726134,6,S01
2160,0.1,-0.07,10.145759109311742,-4.2,-1.2,0.6,29.82566939418796,-16.611089678467383,38.42326718447615,6,S01
2180,0.1,-0.07,10.145759109311742,-4.2,-1.2,0.6,29.537721504544958,-16.183169875092204,37.33295397668283,6,S01
2200,0.1,-0.07,10.145759109311742,-4.2,-1.2,0.6,28.52988728759302,-16.561827197598156,38.63927928512411,6,S01
2220,0.1,-0.07,10.145759109311742,-4.2,-1.2,0.6,29.583552412226634,-16.702434469402526,36.914116942120415,6,S01
2240,0.1,-0.07,10.145759109311742,-4.2,-1.2,0.6,29.897847581502532,-16.499834960287902,37.108997560153426,6,S01
2260,0.1,-0.07,10.145759109311742,-4.2,-1.2,0.6,29.333402956450538,-16.670200724834686,38.174983371274784,6,S01
2280,0.1,-0.07,10.145759109311742,-4.2,-1.2,0.6,29.458636042830413,-16.632639410851915,36.9052853634227,6,S01
2300,0.1,-0.07,10.145759109311742,-4.2,-1.2,0.6,29.456503745605865,-16.34856454873842,37.83178146538605,6,S01
2320,0.1,-0.07,10.145759109311742,-4.2,-1.2,0.6,28.408069059358514,-16.901273664200463,37.98379582003309,6,S01
2340,0.1,-0.07,10.145759109311742,-4.2,-1.2,0.6,29.85821994852602,-16.522085863738788,37.69282155453206,6,S01
2360,0.1,-0.07,10.145759109311742,-4.2,-1.2,0.6,29.534693686535842,-16.359729899136184,37.32646484873229,6,S01
2380,0.1,-0.07,10.145759109311742,-4.2,-1.2,0.6,28.287593974092907,-16.609311399739227,36.77223854916844,6,S01
2400,0.1,-0.07,10.145759109311742,-4.2,-1.2,0.6,29.587921945315475,-16.474571232146513,37.80037063788778,6,S01
2420,0.1,-0.07,10.145759109311742,-4.2,-1.2,0.6,29.21909606177228,-16.47060757749582,37.83015577828726,6,S01
2440,0.1,-0.07,10.145759109311742,-4.2,-1.2,0.6,28.590808063142024,-15.489444418381666,37.24830919233695,6,S01
2460,0.1,-0.07,10.145759109311742,-4.2,-1.2,0.6,28.989267412925255,-16.81968613088518,38.65893513744211,6,S01
2480,0.1,-0.07,10.145759109311742,-4.2,-1.2,0.6,29.037546545599113,-16.056171052508674,37.89319596181359,6,S01
2500,0.1,-0.07,10.145759109311742,-4.2,-1.2,0.6,28.724710423619836,-16.311353013604766,36.94934815663493,6,S01
2520,0.1,-0.07,10.145759109311742,-4.2,-1.2,0.6,28.388386704834605,-16.184623174662327,37.40279143017452,6,S01
2540,0.1,-0.07,10.145759109311742,-4.2,-1.2,0.6,28.810515714098102,-16.467379061916247,37.90813338967949,6,S01
2560,0.1,-0.07,10.145759109311742,-4.2,-1.2,0.6,29.09045968740285,-16.303965959953928,37.176507499979245,6,S01
2580,0.1,-0.07,10.145759109311742,-4.2,-1.2,0.6,29.551777733303528,-17.152452619100124,37.75328268236501,6,S01
2600,0.1,-0.07,10.145759109311742,-4.2,-1.2,0.6,28.760260294993348,-16.35904980746641,37.36328284984126,6,S01
2620,0.1,-0.07,10.145759109311742,-4.2,-1.2,0.6,28.83977914985496,-16.624245312585266,37.96313465969439,6,S01
2640,0.1,-0.07,10.145759109311742,-4.2,-1.2,0.6,29.696507707171452,-16.287968822587764,37.837957943978914,6,S01
2660,0.1,-0.07,10.145759109311742,-4.2,-1.2,0.6,29.51358092619727,-17.11133497264813,37.79616567724868,6,S01
2680,0.1,-0.07,10.145759109311742,-4.2,-1.2,0.6,29.152984392314707,-17.43353707218417,36.806180685316036,6,S01
2700,0.1,-0.07,10.145759109311742,-4.2,-1.2,0.6,28.862680534589586,-15.793740672728173,37.5068718319694,6,S01
2720,0.1,-0.07,10.145759109311742,-4.2,-1.2,0.6,29.85563047793169,-16.089541406205704,37.93497797248553,6,S01
2740,0.1,-0.07,10.145759109311742,-4.2,-1.2,0.6,29.202208946071554,-16.527731679319842,37.859820320106394,6,S01
2760,0.1,-0.07,10.145759109311742,-4.2,-1.2,0.6,28.65589950391926,-16.3217623688299,38.29613088446736,6,S01
2780,0.1,-0.07,10.145759109311742,-4.2,-1.2,0.6,28.817305862131967,-16.29661677913379,38.038456190264405,6,S01
2800,0.1,-0.07,10.145759109311742,-4.2,-1.2,0.6,29.450516124361894,-15.91183646473308,37.37230754102628,6,S01
2820,0.1,-0.07,10.145759109311742,-4.2,-1.2,0.6,29.33239502142516,-17.398055390488878,38.27544360628621,6,S01
2840,0.1,-0.07,10.145759109311742,-4.2,-1.2,0.6,28.984291627719394,-16.502460039464136,38.63828212083168,6,S01
2860,0.1,-0.07,10.145759109311742,-4.2,-1.2,0.6,29.687026431324494,-16.22533402649034,37.840396129093186,6,S01
2880,0.1,-0.07,10.145759109311742,-4.2,-1.2,0.6,29.668528475236847,-16.598944815126046,37.55577526639045,6,S01
2900,0.1,-0.07,10.145759109311742,-4.2,-1.2,0.6,28.96067642658683,-16.802008662876247,37.97967890869599,6,S01
2920,0.1,-0.07,10.145759109311742,-4.2,-1.2,0.6,30.15160038238531,-15.514982371218634,38.126818199878066,6,S01
2940,0.1,-0.07,10.145759109311742,-4.2,-1.2,0.6,29.013031756108436,-16.516081964678527,37.82543922710861,6,S01
2960,0.1,-0.07,10.145759109311742,-4.2,-1.2,0.6,29.609470177151614,-17.165652077745555,37.59024934230471,6,S01
2980,0.1,-0.07,10.145759109311742,-4.2,-1.2,0.6,28.586422725101087,-16.851707291380876,37.28454773214582,6,S01
3000,2.112072434607646,3.8982539682539685,8.62754048582996,145.8,78.8,0.6,29.391256411743804,-16.79648402671774,37.639346134180954,6,S01
3020,2.0139425040255814,3.7426565045727114,8.7159546554895,137.06468003763732,74.89835396005712,0.6,29.019644424316777,-16.62657036774595,38.083443187631666,6,S01
3040,1.9205984266317093,3.5931601047088724,8.799219984741159,128.83806550757365,71.18699344287676,0.6,29.832611187496877,-15.734339429635915,37.45183793809591,6,S01
3060,1.8318067936117863,3.449525542528403,8.877636318707584,121.0905317116908,67.65663811400462,0.6,28.74984932980167,-16.210055005725216,36.59729427611275,6,S01
3080,1.7473455796337662,3.3115229720881403,8.95148604089086,113.79417915998302,64.29846024623855,0.6,28.563812246231958,-17.24703951680211,37.18416280218717,6,S01
3100,1.6670035876688227,3.1789315598332615,9.02103509005812,106.92273310225768,61.10406264571239,0.6,29.491477713377016,-15.972705504316666,37.79150525106024,6,S01
3120,1.5905799208887685,3.051539131216482,9.086533917908353,100.45144891065465,58.065457654537425,0.6,29.304213854219697,-16.632096904415878,37.63459301580879,6,S01
3140,1.517883480319343,2.929141831173514,9.148218390969044,94.3570229722585,55.17504717749707,0.6,29.771741800733857,-17.167366141049637,37.085435920581155,6,S01
3160,1.448732486993238,2.811543797911472,9.206310639970434,88.61750877092112,52.42560368285115,0.6,30.247668804427107,-16.335721914835446,37.61925470954689,6,S01
3180,1.3829540274079948,2.6985568494882184,9.261019859756088,83.21223785609844,49.81025212974186,0.6,29.160486371022348,-17.26593158431616,38.27422725920789,6,S01
3200,1.32038362115218,2.5900001826811088,9.312543062610285,78.12174541410397,47.32245277701067,0.6,29.088750468782635,-16.84186933641383,38.38034709445337,6,S01
3220,1.2608648096186854,2.48570008366326,9.361065787715033,73.32770017375488,44.95598483043893,0.6,29.315832609868018,-16.29794932084124,37.89916012888438,6,S01
3240,1.2042487647767133,2.3854896500243687,9.406762769291541,68.81283839399575,42.70493088752212,0.6,28.842167659404005,-16.525421144091737,38.595641243665185,6,S01
3260,1.1503939170241773,2.2892085236912476,9.449798565832152,64.56090169578353,40.56366214088128,0.6,29.809340318623867,-15.659616855150436,37.31380183938159,6,S01
3280,1.0991656011899589,2.196702634320694,9.490328152688644,60.55657851436196,38.52682430331276,0.6,29.935728108997072,-16.244255355517886,37.749649299520875,6,S01
3300,1.0504357198008345,2.1078239527540736,9.528497480150913,56.78544896108986,36.589324219281174,0.6,29.364084742821504,-16.44619978303276,38.25126175601256,6,S01
3320,1.0040824227710696,2.0224302541390817,9.56444399902564,53.23393289626681,34.74631712937772,0.6,29.431982566894085,-17.87295050910708,37.73301822249182,6,S01
3340,0.9599898027137358,1.9403848903396408,9.598297155607675,49.889241025961745,32.993194555898135,0.6,28.57507451902978,-16.912458434703748,37.22688721789191,6,S01
3360,0.9180476051118694,1.8615565712697288,9.63017885782651,46.73932884674086,31.32557277924793,0.6,29.38621375789216,-16.08247573545237,37.20287575542405,6,S01
3380,0.878150952624751,1.785819154801227,9.660203914246502,43.77285327244559,29.7392818763601,0.6,29.212656542377513,-16.089091887938068,38.03720654464997,6,S01
3400,0.8402000828399242,1.7130514449096093,9.688480447501718,40.979131786830315,28.230355293715387,0.6,28.921575154902637,-16.877256981065596,37.45797946817759,6,S01
3420,0.8041000988152018,1.6431369977344432,9.715110283654194,38.348103974965554,26.795019928892426,0.6,29.235924151260473,-16.587825145059853,37.17649421219358,6,S01
3440,0.7697607317868803,1.5759639352443704,9.740189318877759,35.87029529487755,25.429686695846364,0.6,29.136980296214446,-16.16318761864644,38.03069721263211,6,S01
3460,0.7370961154508114,1.5114247662083893,9.763807864787818,33.53678295896347,24.130941550324263,0.6,28.632514685550426,-16.894855376382544,37.6683043701026,6,S01
3480,0.7060245712519158,1.4494162141869527,9.786050973660748,31.339163802318264,22.895536952976173,0.6,28.64297851491868,-15.878585533435377,37.54896599816715,6,S01
3500,0.6764684041452517,1.3898390522676283,9.806998744713923,29.269524022264473,21.72038374881521,0.6,29.401961002376666,-15.570131227801932,37.524347031841856,6,S01
3520,0.6483537083179327,1.3325979442808735,9.826726612549447,27.32041068011471,20.602543442721007,0.6,29.305558545236554,-17.296030162647583,38.782197092783576,6,S01
3540,0.6216101823860996,1.2776012922418218,9.845305618800179,25.484804862542198,19.53922085167132,0.6,29.092582808625874,-17.17558374274059,37.41060828716501,6,S01
3560,0.5961709536048421,1.224761089773966,9.86280266795636,23.756096405911496,18.52775711532852,0.6,29.186658202935387,-17.01738975344889,38.185952614069386,6,S01
3580,0.5719724106515044,1.1739927812801798,9.879280768294032,22.12806009254953,17.565623047503813,0.6,29.08589856651136,-15.780485455925184,37.22126430273577,6,S01
3600,0.5489540445642451,1.1252151266357227,9.894799258772895,20.59483323323798,16.650412811874386,0.6,28.87515707207835,-15.15604667101987,37.5499875174323,6,S01
3620,0.5270582974381148,1.0783500711867087,9.909414022720652,19.150894555199596,15.779837906139445,0.6,29.33390040210557,-17.095094763059024,37.73857626996482,6,S01
3640,0.5062304185003127,1.0333226208460085,9.923177689073356,17.791044319552523,14.951721439572431,0.6,29.250372284514068,-16.99847655082839,37.67109171318111,6,S01
3660,0.48641832720473666,0.9900607220867077,9.936139821896418,16.510385596633924,14.163992689660331,0.6,30.08992385773454,-17.14277824574593,37.33485664563614,6,S01
3680,0.4675724830034903,0.9484951466410947,9.948347098868787,15.304306631763886,13.414681924218774,0.6,29.78981667476602,-16.356369108002617,38.57385691847194,6,S01
3700,0.4496457614697086,0.9085593807206607,9.959843479373003,14.168464237947287,12.701915476035612,0.6,29.360614570584776,-16.109278817324657,38.320497125996546,6,S01
3720,0.43259333646194476,0.8701895185798483,9.970670362796463,13.09876815570938,12.023911057726924,0.6,30.09388220208609,-16.357661598898247,37.81959055239214,6,S01
3740,0.41637256803546807,0.8333241602532251,9.980866737613932,12.091366323743696,11.37897330509021,0.6,29.19383758477897,-16.672564550004807,37.17361790554091,6,S01
3760,0.40094289582019127,0.7979043133024395,9.990469321788153,11.142631007330621,10.765489537810806,0.6,29.15758388582206,-16.33075821555208,37.90804172181911,6,S01
3780,0.38626573759861893,0.763873298415733,9.99951269499419,10.249145734573954,10.181925726921088,0.6,28.876705415704933,-16.56408956326687,38.62965168774045,6,S01
3800,0.24203432905338776,6.997918651422413,7.270662925206073,-4.2,-1.2,0.6,29.709670286686286,-15.538760072480354,38.60488030859251,6,S01
3820,0.1242686192114425,6.93240322814653,7.5300819771992895,-4.2,-1.2,0.6,29.779968651633062,-16.452952348205557,37.08789059970661,6,S01
3840,0.2736404303425113,6.723526859036363,7.108744202541454,-4.2,-1.2,0.6,28.469645285280862,-16.562420010672696,38.35999461788686,6,S01
3860,0.07203959359548247,6.823187048952126,7.145640599906581,-4.2,-1.2,0.6,29.220352246888496,-16.667252039527106,37.788030170681786,6,S01
3880,-0.02248109446678008,6.630841727213087,6.813387754767227,-4.2,-1.2,0.6,29.340691228111663,-16.047947467392024,38.35750793640162,6,S01
3900,0.35056408050681354,6.288799003010123,7.201811360150446,-4.2,-1.2,0.6,29.072756425457243,-16.817814043691968,38.608902896794675,6,S01
3920,0.2962822233023561,6.717837311978248,6.771177444999067,-4.2,-1.2,0.6,29.43149335142965,-16.847247149934645,37.092762000315226,6,S01
3940,0.23424826274198204,6.774648754769106,6.865435180376562,-4.2,-1.2,0.6,29.51453772164716,-16.900509181702414,37.14523796112462,6,S01
3960,0.2866975666552519,6.832151987725986,7.311575244990317,-4.2,-1.2,0.6,29.043369396921783,-16.86657659905326,37.66328210723599,6,S01
3980,0.2525782091609239,7.085148515095751,7.260644417794405,-4.2,-1.2,0.6,29.383766792606522,-16.701447552842488,38.20957493009252,6,S01
4000,0.2729523628318213,7.019196284726496,7.079034107196166,-4.2,-1.2,0.6,29.168772794567236,-16.244165245154846,37.749913597368845,6,S01
4020,0.12723982555204427,6.8879903669824065,7.015439058862441,-4.2,-1.2,0.6,28.404166251258758,-15.677963078353526,37.58099003479074,6,S01
4040,0.24300176621469038,6.816228107228935,7.02469829780982,-4.2,-1.2,0.6,30.069741430910298,-17.506842585520975,37.51913919464255,6,S01
4060,0.23113228774836708,6.854417144529784,7.0059048989917105,-4.2,-1.2,0.6,29.07685294598733,-16.862905370539657,38.70075182382531,6,S01
4080,-0.27464227944426967,7.031290242196825,7.427291420379763,-4.2,-1.2,0.6,29.013617555631654,-16.571227937789594,38.56310230473207,6,S01
4100,-0.08417735596144138,6.751057388237105,6.89158855548686,-4.2,-1.2,0.6,29.210755404467747,-16.162454085264386,39.27133808359612,6,S01
4120,0.2551221234971395,6.764517671640829,7.322227452643023,-4.2,-1.2,0.6,29.780998416862023,-16.839145833835488,37.44061645073704,6,S01
4140,0.18852096642655847,6.964700209968528,7.3079133746912746,-4.2,-1.2,0.6,28.887056148281488,-15.467697159218073,37.4278024956161,6,S01
4160,0.34437997121245684,6.57064344439523,7.0710167295336905,-4.2,-1.2,0.6,29.738011294785572,-15.591353625839302,37.668721691650944,6,S01
4180,0.23954308295545357,6.990993863819007,7.18147015453645,-4.2,-1.2,0.6,28.48386761705056,-16.394017312493585,37.77963386228972,6,S01
4200,0.12091210348348932,6.6232024486037515,7.392673907001289,-4.2,-1.2,0.6,29.46081708745629,-17.28204894691777,37.209935695249015,6,S01
4220,0.07940199355169977,6.672177628901226,7.12509566582367,-4.2,-1.2,0.6,29.889573280838025,-16.460515501538215,37.55706051568011,6,S01
4240,0.23717910798815303,7.0568219499846165,7.267374606138901,-4.2,-1.2,0.6,29.75170293973195,-16.059749129294566,38.153168117821025,6,S01
4260,0.2795775219638407,6.860491964851907,7.063680517655849,-4.2,-1.2,0.6,29.37648174680924,-16.946726909189813,38.3665343508826,6,S01
4280,0.0957885645306956,6.959566214011095,6.989855358458674,-4.2,-1.2,0.6,29.39702035890292,-16.558347264526606,37.5194764554237,6,S01
4300,-0.17221609855267697,6.441591052309471,7.585269899341364,-4.2,-1.2,0.6,28.297737130849825,-16.292223036549405,37.724612660912406,6,S01
4320,0.2055448832919548,6.671067843457273,7.42136136298337,-4.2,-1.2,0.6,30.37972889007528,-16.113243609582888,37.63981096133627,6,S01
4340,0.4889972013634114,6.7198992474123935,7.185115932074013,-4.2,-1.2,0.6,28.956386916975504,-16.798357123793014,38.3475482656847,6,S01
4360,0.4671780352239129,6.720273576057008,7.337139872978665,-4.2,-1.2,0.6,29.93190143977026,-16.770045486780212,37.28564647556403,6,S01
4380,0.029089079982052846,6.765001889045037,7.253234887977196,-4.2,-1.2,0.6,29.72226908428969,-16.70248490414987,37.34905828632742,6,S01
4400,0.47178933253968447,6.959545564725417,7.219070966620032,-4.2,-1.2,0.6,29.497191668890665,-16.929547753755617,37.02041175285058,6,S01
4420,0.0743506600491558,6.523784573282455,7.1592022151892465,-4.2,-1.2,0.6,29.7455013846221,-16.48432405067963,37.9691068798636,6,S01
4440,0.21834744069657194,6.833407258213786,7.007081593492046,-4.2,-1.2,0.6,28.645123001860316,-16.31407538128132,37.46883290042281,6,S01
4460,0.32954562025656775,6.36911994212625,6.959178015952163,-4.2,-1.2,0.6,28.069906523199315,-15.796998161504312,38.080729232495095,6,S01
4480,0.36314454987667766,7.260106450956283,7.214924249395269,-4.2,-1.2,0.6,28.839703297522608,-15.318334754769904,38.34176770088199,6,S01
4500,0.348014920775675,6.8254872400272975,6.978031207930056,-4.2,-1.2,0.6,29.71117520279298,-15.68429119350122,37.77738235998809,6,S01
4520,0.13086602315917786,6.7871504708731605,7.128988321953735,-4.2,-1.2,0.6,28.872915549407,-15.77483199732741,37.68723828832215,6,S01
4540,-0.13904499167078854,6.317617582828268,7.370598382494071,-4.2,-1.2,0.6,28.497333539773493,-16.25403240246343,37.58768310701852,6,S01
4560,0.14511049735529527,6.607402225283343,7.123164766196244,-4.2,-1.2,0.6,28.47484562038988,-16.32585479549654,37.115424484801004,6,S01
4580,0.13351615921093102,6.564198384793414,7.1207520360916075,-4.2,-1.2,0.6,29.34587797733532,-15.865017676913507,38.116642844391016,6,S01
4600,-0.12389096985654818,6.774431219981662,6.944930238758566,-4.2,-1.2,0.6,29.50263012443416,-16.796591591748403,38.11915067465818,6,S01
4620,0.21922792231697363,6.72319052565093,6.674530946670153,-4.2,-1.2,0.6,28.894701053381873,-15.937104296351773,37.83246874079194,6,S01
4640,0.1411131257710958,6.675643197842981,7.137061265093127,-4.2,-1.2,0.6,29.25735667957721,-16.115703538303954,37.63953556651433,6,S01
4660,-0.0018182387464330263,6.996039528948149,7.250073893301833,-4.2,-1.2,0.6,28.55991038894728,-16.808749391975347,38.236017699320236,6,S01
4680,-0.026824570233318024,6.882107043856399,7.1284030210245275,-4.2,-1.2,0.6,28.96779758058939,-17.390020563535433,38.36750299155961,6,S01
4700,0.09423629877234779,6.6647195434150825,6.993777575511299,-4.2,-1.2,0.6,29.901677552757487,-16.507592033756087,37.78255024369738,6,S01
4720,0.03524970067855633,6.41134524543704,6.903752787730984,-4.2,-1.2,0.6,29.770466220015688,-16.182387875646032,38.3005828871617,6,S01
4740,0.20442200065736815,6.673353976977954,7.040425837713545,-4.2,-1.2,0.6,30.28819782754592,-16.446285317333544,37.489115360465284,6,S01
4760,-0.005205725825490601,6.667883330024016,7.0800418165948065,-4.2,-1.2,0.6,29.672859660355655,-16.446821290595985,38.5232177631578,6,S01
4780,0.007319480633108569,6.312395572374629,7.254288171251861,-4.2,-1.2,0.6,29.289955136314585,-17.504177768131402,38.45333046857864,6,S01
4800,0.0981898735724636,6.769840558182322,7.191280729847582,-4.2,-1.2,0.6,29.802521194703655,-16.710383060828207,37.894997085136794,6,S01
4820,0.12545540084358192,6.7600088069511415,7.193190265315642,-4.2,-1.2,0.6,28.948507221418662,-16.63012453708779,37.57141506133477,6,S01
4840,0.12233358575280046,6.72336948968206,7.1601097304557495,-4.2,-1.2,0.6,29.3966874180982,-16.592168038382958,38.39613939542402,6,S01
4860,0.09235686836937439,6.745986006958645,7.150271740595465,-4.2,-1.2,0.6,29.604856412128232,-17.49038417813933,38.19787789831863,6,S01
4880,0.09593243556678303,6.746128860932526,7.165027208385729,-4.2,-1.2,0.6,28.80960691360546,-15.893318800319992,37.44387742678593,6,S01
4900,0.11951987455969855,6.735512946953198,7.183236940311747,-4.2,-1.2,0.6,29.11325993201363,-16.195097901308905,36.92999932006046,6,S01
4920,0.09966092982259925,6.729674411248068,7.173714081671917,-4.2,-1.2,0.6,28.922646862348543,-15.90867866902461,37.89192423772918,6,S01
4940,0.10670013412832832,6.7551603754321,7.17338959596238,-4.2,-1.2,0.6,29.061544774763103,-16.446173431468324,37.70042132981099,6,S01
4960,0.10362559450759964,6.74215567463014,7.187154736760277,-4.2,-1.2,0.6,29.23475936475095,-15.855424630410951,38.091243476607204,6,S01
4980,0.09837713209640092,6.7405874914791815,7.171239371189633,-4.2,-1.2,0.6,28.839713195565587,-16.919642804703447,37.49373663073859,6,S01
5000,0.1028707417552037,6.760930980056473,7.194559083782917,-4.2,-1.2,0.6,28.32171200514434,-15.143978251461,38.15738017520521,6,S01
5020,0.09599524753276573,6.771505778263531,7.157004355512776,-4.2,-1.2,0.6,28.60743512465418,-17.51783997514611,37.69418778584441,6,S01
5040,0.08856934736512534,6.756741374808488,7.2043666038853855,-4.2,-1.2,0.6,28.972553570351142,-15.866971132463334,37.84258997648192,6,S01
5060,0.11647459826203961,6.73450473147088,7.196316388085686,-4.2,-1.2,0.6,29.458484663463448,-16.620916519910644,37.43083734503351,6,S01
5080,0.10717186062499023,6.737860876478836,7.156682690293577,-4.2,-1.2,0.6,28.83865630409386,-16.538107625598244,37.10986060424549,6,S01
5100,0.08754823596249564,6.759238256191133,7.194523298074641,-4.2,-1.2,0.6,30.09863754338623,-16.004165742682005,37.81365452017618,6,S01
5120,0.09847093055344909,6.709903894645828,7.177744160519867,-4.2,-1.2,0.6,29.157063856454283,-16.23030485599692,37.941511214066104,6,S01
5140,0.12300577432766757,6.715734569495408,7.193488109731885,-4.2,-1.2,0.6,29.099652013853156,-16.629669872733857,38.04536510356263,6,S01
5160,0.06366411695763839,6.746566992584345,7.174468145858008,-4.2,-1.2,0.6,28.49003788979553,-16.67193210527911,37.36769083079312,6,S01
5180,0.07719610500659818,6.735765315896004,7.180054041730572,-4.2,-1.2,0.6,28.376329392024097,-16.863673524986726,37.68209232065174,6,S01
5200,0.07125240184635984,6.730754114167521,7.170753610062183,-4.2,-1.2,0.6,29.950902436220424,-15.939424167453044,38.67847464576587,6,S01
5220,0.08350151975589945,6.7518544001745235,7.166328032733939,-4.2,-1.2,0.6,28.663238913445888,-17.524271291040158,37.220257139502756,6,S01
5240,0.09339454398924654,6.787970886758049,7.164662936277629,-4.2,-1.2,0.6,29.389107706292258,-15.979731889950827,38.10083707728838,6,S01
5260,0.08643537753622549,6.745314170912884,7.1690055301107565,-4.2,-1.2,0.6,28.139884816103354,-17.380621355993263,37.13184492801415,6,S01
5280,0.11703055881778468,6.729612164736543,7.161282208992937,-4.2,-1.2,0.6,29.304256102999688,-15.965623850737305,37.89786111898872,6,S01
5300,0.13016127197262412,6.744717651381945,7.1696938934640615,-4.2,-1.2,0.6,29.512262025495676,-16.753700702883492,38.15571182294007,6,S01
5320,0.09714974026893111,6.715156239947213,7.162004250996319,-4.2,-1.2,0.6,30.47831902536267,-16.3485319537155,38.59202558680928,6,S01
5340,0.1074389365250166,6.753725861827224,7.194397814367678,-4.2,-1.2,0.6,29.234341720485638,-17.490067418371023,37.69663298312741,6,S01
5360,0.14452591934551917,6.790428532462357,7.165597165588161,-4.2,-1.2,0.6,28.642431496204296,-15.694215534539286,37.84179119415019,6,S01
5380,0.08986636536247236,6.724901004051832,7.167495009881507,-4.2,-1.2,0.6,29.075945173683937,-16.40234537752034,37.78438626258369,6,S01
5400,0.10842256507281392,6.750003158514699,7.182927055587638,-4.2,-1.2,0.6,28.908279573890372,-17.718577395765003,37.08724045936219,6,S01
5420,0.08388635729557889,6.708797865499338,7.197900329782159,-4.2,-1.2,0.6,29.123298108492314,-16.674716988092932,37.989833586681854,6,S01
5440,0.08104878504194299,6.724061695878502,7.161055241149717,-4.2,-1.2,0.6,29.417404551337047,-15.931658437204016,37.57063762932963,6,S01
5460,0.11597653904292853,6.732865127097334,7.16161795867851,-4.2,-1.2,0.6,29.24538579706468,-16.49841694483964,37.346997313729766,6,S01
5480,0.09531355193583582,6.734939456579512,7.171834729600855,-4.2,-1.2,0.6,29.882504548256527,-16.887062037508343,37.32503437362515,6,S01
5500,0.1011815798307527,6.757547317818867,7.162198454863631,-4.2,-1.2,0.6,29.396311886072947,-16.443281234505527,38.541561012199324,6,S01
5520,0.11054267430527276,6.72995977467689,7.136702033024893,-4.2,-1.2,0.6,29.21822044551503,-16.17869097824344,37.80868941338929,6,S01
5540,0.08214224490876336,6.754094636550628,7.180752034277829,-4.2,-1.2,0.6,29.45788731378366,-16.875298563166673,38.14439242090809,6,S01
5560,0.06382664250180506,6.7487908497041085,7.159495084945615,-4.2,-1.2,0.6,30.069196145512226,-16.60858975755899,37.70785364473166,6,S01
5580,0.10253670475937013,6.74955617439031,7.162454352587868,-4.2,-1.2,0.6,29.27501192612954,-16.481353932767732,37.588987363724605,6,S01
5600,0.09982290506736752,6.724200296986921,7.177853511514162,-4.2,-1.2,0.6,29.25035563290201,-15.647623147629982,38.498313016868096,6,S01
5620,0.09008850422059538,6.700352795995055,7.143708454761956,-4.2,-1.2,0.6,30.53718477840319,-16.150975629794083,37.04768276609369,6,S01
5640,0.08615420953167645,6.769164463869958,7.156566589704932,-4.2,-1.2,0.6,29.47053376068241,-16.564633616571854,38.431614970881085,6,S01
5660,0.10710939860756781,6.749556262925187,7.193458572287605,-4.2,-1.2,0.6,29.900507026904446,-16.930109290275414,37.70312267800366,6,S01
5680,0.10987769304940695,6.764606728582462,7.168656511647294,-4.2,-1.2,0.6,29.13500012839308,-17.01557174472086,37.78475561597209,6,S01
5700,0.11759529964688084,6.756342049925791,7.143247223314075,-4.2,-1.2,0.6,29.953600710271413,-16.749085568473667,37.789273273554976,6,S01
5720,0.12865586228056697,6.726901067849027,7.114510841679531,-4.2,-1.2,0.6,29.304297095485488,-16.452437731076703,38.24698182126592,6,S01
5740,0.09271493806489646,6.7405044415638375,7.150284534560298,-4.2,-1.2,0.6,29.32371841054931,-16.36221925326186,38.51811143640937,6,S01
5760,0.0815971604325072,6.735013003688406,7.19648304456195,-4.2,-1.2,0.6,28.249708881854538,-16.27282536108963,36.99579902596833,6,S01
5780,0.08431541392827344,6.765522854199131,7.186543757771647,-4.2,-1.2,0.6,29.14436802843611,-16.577029622492496,37.7807760872877,6,S01
5800,0.0554253423824938,6.744383425836014,7.117370324827016,-4.2,-1.2,0.6,30.772021687467067,-17.579923075383924,37.1352643989535,6,S01
5820,0.08158081761013275,6.718034234729662,7.189396842349531,-4.2,-1.2,0.6,28.980998282474843,-16.123428957828033,37.28584703224134,6,S01
5840,0.12878988373741607,6.734458483025153,7.17154143950028,-4.2,-1.2,0.6,29.306730385709496,-16.75494567141197,37.58681732892801,6,S01
5860,0.09042392514906676,6.716672469603033,7.134333489028468,-4.2,-1.2,0.6,30.129927704144755,-17.174441266434485,37.031355673174545,6,S01
5880,0.06445428878568976,6.774929032738436,7.1646334460152685,-4.2,-1.2,0.6,29.45062271926147,-16.35877409240144,37.408183684780354,6,S01
5900,0.08097595911861796,6.7447308877764245,7.179099361225053,-4.2,-1.2,0.6,28.560317753670244,-16.806107253025047,37.911656899252776,6,S01
5920,0.110591642374156,6.754038066457434,7.1793278971014995,-4.2,-1.2,0.6,28.942791869308962,-16.913807756138628,37.83137761379539,6,S01
5940,0.13536587475472447,6.7106297224378775,7.159867005437932,-4.2,-1.2,0.6,29.32202843160424,-16.80426864658095,37.91606614935916,6,S01
5960,0.1271045507229668,6.748472429534378,7.150541250444183,-4.2,-1.2,0.6,29.853416333824086,-16.439828718852652,37.617406114077895,6,S01
5980,0.09266623537599107,6.705752245419642,7.16471338219177,-4.2,-1.2,0.6,29.519054175246303,-16.29016167905913,38.431976147140105,6,S01
6000,0.13144891298371775,6.770101816141137,7.197886467632236,-4.2,-1.2,0.6,29.83439265208218,-16.018773186737214,37.851005867765885,6,S01
6020,0.1352430528751337,6.70885946668417,7.182543935600182,-4.2,-1.2,0.6,29.593435995850754,-16.80423583431297,37.09456162216759,6,S01
6040,0.09492608298602791,6.764015180137084,7.144845287625617,-4.2,-1.2,0.6,29.40954692350443,-16.138055622104773,37.27706806753889,6,S01
6060,0.14272789529989882,6.733526723780854,7.1596983594559465,-4.2,-1.2,0.6,29.010200741356474,-16.609333476825817,37.98372210852053,6,S01
6080,0.11849783776044157,6.736356338720999,7.153207192517184,-4.2,-1.2,0.6,29.589452656323402,-15.973525294991697,37.351752952131655,6,S01
6100,0.08052005263612114,6.725035408576001,7.186483115073667,-4.2,-1.2,0.6,28.613985798622597,-16.50322842704655,38.83406066403749,6,S01
6120,0.09390334316448132,6.7134234698732005,7.150145780960073,-4.2,-1.2,0.6,29.365283424438843,-16.090753822955435,37.97949700476823,6,S01
6140,0.11233811586333799,6.736340569288955,7.170668691961006,-4.2,-1.2,0.6,29.351027005385898,-16.346204095831695,38.44269440540239,6,S01
6160,0.10162547365814532,6.7702323581333355,7.15120131348095,-4.2,-1.2,0.6,29.466647792338268,-16.52621787385108,38.054742625931695,6,S01
6180,0.08736169230939186,6.794912899860188,7.162055147282748,-4.2,-1.2,0.6,29.113139062202467,-16.694554190660288,37.79398912612262,6,S01
6200,0.09698789845820865,6.744242969304102,7.1645594313177865,-4.2,-1.2,0.6,29.299959510586685,-15.930359654074675,37.732265292845504,6,S01
6220,0.13282932565490874,6.757041944344712,7.176230660084366,-4.2,-1.2,0.6,29.86725336483424,-16.855170755901007,37.586329147289256,6,S01
6240,0.11759118637590824,6.7667752064454625,7.187604095573354,-4.2,-1.2,0.6,28.38346825861843,-15.91967187612323,37.73269707140473,6,S01
6260,0.08083274011284416,6.710624906157976,7.173757135593726,-4.2,-1.2,0.6,30.02835965725131,-17.11397477362717,37.46055973919631,6,S01
6280,0.1339415974922912,6.707926685176661,7.1671933681303654,-4.2,-1.2,0.6,29.430634176742284,-16.890727296719064,37.77770100147609,6,S01
6300,0.08609443256868919,6.773985062694053,7.182452906823462,-4.2,-1.2,0.6,29.178093446926386,-16.369439635639527,37.73858742283776,6,S01
6320,0.10330257016580686,6.701731954272811,7.190205240001943,-4.2,-1.2,0.6,29.269860626666038,-16.200119344499583,37.78761677523656,6,S01
6340,0.08709084405566012,6.754685094714225,7.175369581590018,-4.2,-1.2,0.6,28.7752420360495,-16.71461997252379,37.89960794033599,6,S01
6360,0.08162380131409191,6.734048005656275,7.202510049685907,-4.2,-1.2,0.6,29.46944797407227,-16.87805114354279,38.46211805106041,6,S01
6380,0.08263591270820635,6.766083063904403,7.176300239258209,-4.2,-1.2,0.6,28.37845910779262,-17.972578371798384,38.49947538771809,6,S01
6400,0.08098858856706197,6.7330806041623745,7.175821941450392,-4.2,-1.2,0.6,30.095243765561072,-16.689214807836223,38.42344760488792,6,S01
6420,0.1300745321494728,6.789697477173269,7.170990179561537,-4.2,-1.2,0.6,29.30797444297749,-16.146873570958473,37.393024919379144,6,S01
6440,0.11686207638577845,6.748353684448385,7.20319761195488,-4.2,-1.2,0.6,28.500714666513176,-16.33780335736131,37.49357666808723,6,S01
6460,0.1326878494563689,6.74460528318931,7.180053658286295,-4.2,-1.2,0.6,28.8872607371215,-17.015029599357508,36.46963090772332,6,S01
6480,0.12388577986296753,6.710878160417979,7.14831020935536,-4.2,-1.2,0.6,29.409892657381313,-15.935956180354756,37.63265856502998,6,S01
6500,0.09793507016659066,6.704226459183641,7.156176670415758,-4.2,-1.2,0.6,29.33886067207915,-16.709754621483043,37.20207253071448,6,S01
6520,0.11510952063282501,6.743245904505179,7.16901549691432,-4.2,-1.2,0.6,29.2648192622361,-17.054667519482717,37.674902779103036,6,S01
6540,0.09351533429563905,6.738268584421851,7.153514725095799,-4.2,-1.2,0.6,29.046609474402835,-16.770148452682697,37.61624846358429,6,S01
6560,0.13275919050411145,6.738062518053035,7.145403866267619,-4.2,-1.2,0.6,28.81244108133283,-16.500640784882272,37.481881899400605,6,S01
6580,0.11531523229763141,6.754499648378054,7.140384796295902,-4.2,-1.2,0.6,29.194561507455123,-15.457200697295885,38.47613100266589,6,S01
6600,0.0961395648704987,6.71385819470069,7.175789681014133,-4.2,-1.2,0.6,29.304047756182776,-16.032928325464788,38.4489396300559,6,S01
6620,0.10602761927254258,6.727239569550451,7.159222933734825,-4.2,-1.2,0.6,29.228016003357332,-16.157446803353437,37.67776398477839,6,S01
6640,0.1445512220799854,6.7076051371198675,7.18492640138789,-4.2,-1.2,0.6,28.68777642030092,-17.18528699613229,37.38071341115285,6,S01
6660,0.11432927967535658,6.785147063905962,7.175107195404531,-4.2,-1.2,0.6,29.059607882383727,-15.41967248020193,38.038802554483894,6,S01
6680,0.11306078462510284,6.691253541052937,7.212166050540055,-4.2,-1.2,0.6,28.945086607214154,-16.92479211199617,38.132842726361545,6,S01
6700,0.06829932761545962,6.713833663185631,7.186920405473447,-4.2,-1.2,0.6,29.44288069115757,-16.3006706435339,36.985953357774626,6,S01
6720,0.09022030712987342,6.764156153337529,7.1688807270497374,-4.2,-1.2,0.6,30.27039773589967,-17.15424908693221,36.8951643764806,6,S01
6740,0.10564567479894943,6.724710658907135,7.17645889042386,-4.2,-1.2,0.6,29.1876600094819,-16.611081765120744,38.13806762525399,6,S01
6760,0.0887319232236938,6.738561896998006,7.12565032726655,-4.2,-1.2,0.6,29.525388480429807,-15.986207489951072,38.15021058931389,6,S01
6780,0.13487027313473143,6.742197096817663,7.171305408660961,-4.2,-1.2,0.6,29.028969208344822,-16.250444857992868,36.41094750172715,6,S01
6800,0.11201335315785739,6.734072698457535,7.154366394857381,-4.2,-1.2,0.6,29.164819769375296,-16.80677885616085,38.4282269951709,6,S01
6820,0.09138886453246314,6.72876333538207,7.1249045977094285,-4.2,-1.2,0.6,29.62618390025983,-16.09441585497681,37.11401769919033,6,S01
6840,0.07511034696660404,6.777706469871441,7.168942325265522,-4.2,-1.2,0.6,29.216098875416787,-16.975268750691665,38.348972045971436,6,S01
6860,0.0939567096510758,6.729364515309381,7.171750936085141,-4.2,-1.2,0.6,28.922068720409115,-16.0379173543174,37.59409757544741,6,S01
6880,0.08219042569078762,6.764365424132601,7.160796703157183,-4.2,-1.2,0.6,29.49479334123078,-16.55629547255591,38.24006601339463,6,S01
6900,0.13550656080080414,6.709448486537269,7.162331340677096,-4.2,-1.2,0.6,30.557853566992627,-16.68312797533555,37.77303024837427,6,S01
6920,0.06410442245757021,6.736234839852756,7.172272775346688,-4.2,-1.2,0.6,29.756473847526486,-16.254748285979012,37.39601859829178,6,S01
6940,0.08920846383339992,6.748750560782276,7.143547862772628,-4.2,-1.2,0.6,29.38349136883696,-16.954779650058473,37.31720534690219,6,S01
6960,0.06796447059792134,6.736923775384288,7.165451818179516,-4.2,-1.2,0.6,29.403903505954997,-15.895724945658694,37.722434978535425,6,S01
6980,0.09108806753310515,6.720956348713533,7.184031121474608,-4.2,-1.2,0.6,28.719145205035325,-16.84594774987023,37.25501744660139,6,S01
7000,0.1093033049016881,6.709951949194944,7.1676043252721575,-4.2,-1.2,0.6,29.558564234659844,-17.292538043892,37.69285509842855,6,S01
7020,0.12114044097289084,6.747884481141412,7.172931054156376,-4.2,-1.2,0.6,28.582379082594233,-15.572084125649548,37.82661701950508,6,S01
7040,0.1015085630597315,6.735947994624865,7.18645994105644,-4.2,-1.2,0.6,29.257136491382067,-16.844992436923278,37.4371005310808,6,S01
7060,0.11343772066859417,6.750593250993269,7.199719075589342,-4.2,-1.2,0.6,28.92830972495179,-16.681923363200443,37.6292568571373,6,S01
7080,0.09802267823969425,6.716714078004474,7.166305916485855,-4.2,-1.2,0.6,29.921031102059782,-16.341667102322,38.46179586921486,6,S01
7100,0.08111362167522064,6.768385299356226,7.208921537437399,-4.2,-1.2,0.6,28.929150353976876,-16.467837995055554,37.215522598502524,6,S01
7120,0.10049175584486264,6.755299661604126,7.1698066470437976,-4.2,-1.2,0.6,29.631110546455968,-15.833552800684867,36.78640969483466,6,S01
7140,0.0938727866217346,6.75509620644297,7.159991651796401,-4.2,-1.2,0.6,29.30632739368618,-15.66074176677211,37.98317901432381,6,S01
7160,0.09561314781867117,6.751675747717345,7.124370378149749,-4.2,-1.2,0.6,29.876796049232148,-16.300265631334213,37.70209576361179,6,S01
7180,0.09684244150159596,6.7156991095846985,7.162341077952088,-4.2,-1.2,0.6,29.556994105124932,-15.556344778502307,36.782475469764286,6,S01
7200,0.13196412522230203,6.732052854479724,7.197025733225409,-4.2,-1.2,0.6,28.525032671164013,-16.834739615402427,37.900246441798856,6,S01
7220,0.1079966141033762,6.741745058406129,7.185791997261331,-4.2,-1.2,0.6,29.193121372253287,-16.498020403973115,37.563453872300784,6,S01
7240,0.09354122522772561,6.735589808645536,7.167483879718072,-4.2,-1.2,0.6,30.16737521666553,-16.655025221862765,38.16430093697566,6,S01
7260,0.11287532822308273,6.7147630736700075,7.15697306037054,-4.2,-1.2,0.6,29.23189752690012,-16.119495897368296,37.90197279493682,6,S01
7280,0.061405988282583125,6.741160748289994,7.168518578004244,-4.2,-1.2,0.6,28.707509876967055,-16.575107591514396,38.11089896159657,6,S01
7300,0.11470382363016192,6.727359687987879,7.176526022061687,-4.2,-1.2,0.6,29.06784532169714,-16.797046209483874,37.34340547782574,6,S01
7320,0.0894913148805456,6.737367338532234,7.215631323535664,-4.2,-1.2,0.6,29.0200310798969,-16.830174877212123,36.74624394641847,6,S01
7340,0.09769696961401575,6.739208424710056,7.152274838980018,-4.2,-1.2,0.6,29.50817921037725,-16.939041572748387,37.8032939664288,6,S01
7360,0.10550190050432996,6.750493935871333,7.123871051108684,-4.2,-1.2,0.6,29.435276810595084,-16.182719008006757,38.34524187013027,6,S01
7380,0.11308716071546618,6.746803817390504,7.16649696280222,-4.2,-1.2,0.6,30.393604445785773,-16.728305699238266,36.97623219257814,6,S01
7400,0.12547903336715152,6.756193539482178,7.151194595266501,-4.2,-1.2,0.6,29.410754890821046,-16.532123023537512,37.952560826811435,6,S01
7420,0.1075403869783269,6.746157621845198,7.176698593749013,-4.2,-1.2,0.6,29.76394687551852,-16.823225464562235,37.81704349955118,6,S01
7440,0.11588906935282496,6.722962176671846,7.168567409890218,-4.2,-1.2,0.6,29.878181639313528,-16.438036418419273,37.35589279435787,6,S01
7460,0.11172893522839669,6.708833155899226,7.175592568740849,-4.2,-1.2,0.6,29.1318774199664,-16.478874667573947,37.14969055087631,6,S01
7480,0.09697753890036721,6.763089710989928,7.178055379148513,-4.2,-1.2,0.6,29.644339990571606,-16.89838629134414,37.37717126906038,6,S01
7500,0.11409609068860795,6.740876092247558,7.163899862656904,-4.2,-1.2,0.6,30.170547312061423,-16.876304323006835,37.69307438987457,6,S01
7520,0.12198628267842426,6.787985043660366,7.131948494899211,-4.2,-1.2,0.6,29.506203811721353,-16.252240319630303,37.69197901922195,6,S01
7540,0.10950190238551911,6.719966461242092,7.195282728978014,-4.2,-1.2,0.6,29.354406638167067,-15.90345053398542,37.608533079596604,6,S01
7560,0.10249642702507836,6.726878906484527,7.1600479105338,-4.2,-1.2,0.6,28.929251822661346,-16.095066514992865,37.8510831392973,6,S01
7580,0.08902744290407134,6.777522141478388,7.143751729363184,-4.2,-1.2,0.6,29.627034201699743,-15.70782651547661,37.924599461812655,6,S01
7600,0.1077679435597054,6.719947747483489,7.170746800652933,-4.2,-1.2,0.6,29.05058610516736,-16.422674675907807,37.72494889574437,6,S01
7620,0.11819317748123329,6.749182090348872,7.174307320157296,-4.2,-1.2,0.6,29.155437072715944,-15.949893313164235,37.90841758844372,6,S01
7640,0.1176093272552643,6.705014994710452,7.15250275359168,-4.2,-1.2,0.6,29.15494750419075,-16.091091358264272,38.85628016706074,6,S01
7660,0.10801590751676995,6.739211299882183,7.134848819853085,-4.2,-1.2,0.6,29.632241099805967,-16.235265278968647,37.71962975619645,6,S01
7680,0.08268197742464398,6.742197919058022,7.145596234481399,-4.2,-1.2,0.6,28.90428232731877,-16.489126410593038,37.255798399909814,6,S01
7700,0.11569169818940828,6.727268434439354,7.163604035321139,-4.2,-1.2,0.6,29.07632188224265,-17.094330552693357,37.811665120853,6,S01
7720,0.09644881960716592,6.736501938035827,7.176476047745219,-4.2,-1.2,0.6,29.710826470163198,-16.131813089486947,37.454409519412025,6,S01
7740,0.11712504385581962,6.730626448733683,7.150912706972937,-4.2,-1.2,0.6,28.45280010260904,-16.944506954195383,38.04391700890677,6,S01
7760,0.09448383540321328,6.740996280491292,7.183470204516688,-4.2,-1.2,0.6,30.041690872413984,-16.846065782570363,37.88569067762904,6,S01
7780,0.08293421389827604,6.733988514641947,7.152220066934426,-4.2,-1.2,0.6,28.794602275512293,-15.964376273642289,37.2747161801824,6,S01
7800,0.10641336508163618,6.721684063102169,7.167979147894088,-4.2,-1.2,0.6,29.783742178435034,-16.70358094743429,37.310685280690706,6,S01
7820,0.10837057671621785,6.747640286593466,7.176881296508321,-4.2,-1.2,0.6,28.881715354672956,-16.03686580488525,38.810183211618174,6,S01
7840,0.10345192120355429,6.772770630899438,7.192576687871306,-4.2,-1.2,0.6,29.246997197238088,-16.760245032372183,38.85916330286206,6,S01
7860,0.09750516078771448,6.74418210644763,7.192493676294739,-4.2,-1.2,0.6,29.92621877197239,-15.983559460809026,38.63392892521605,6,S01
7880,0.1142566554360555,6.74685844823291,7.196645467515747,-4.2,-1.2,0.6,29.981710350726875,-17.0498876543232,37.74618875313043,6,S01
7900,0.11454341472311344,6.724060794490507,7.184746492658618,-4.2,-1.2,0.6,28.705585374330774,-15.792983626844341,37.28639435344485,6,S01
7920,0.08544331635879263,6.74208506112759,7.1355011509548225,-4.2,-1.2,0.6,29.450521515654394,-17.110667284670853,37.54428206581335,6,S01
7940,0.0775483861784454,6.720689517196716,7.179128042905041,-4.2,-1.2,0.6,28.66233375307796,-15.786054421990729,37.97110783419762,6,S01
7960,0.09941725565944817,6.757780095174006,7.165594057655306,-4.2,-1.2,0.6,29.961256466123434,-16.667943365331617,37.9275304268788,6,S01
7980,0.07320687302379808,6.725593214340204,7.168898261590389,-4.2,-1.2,0.6,29.809494315485562,-16.666250717236707,37.26456337026013,6,S01
8000,0.09170596561837262,6.733271877203181,7.155606654230896,-4.2,-1.2,0.6,29.11609059266166,-16.13630073268331,38.09658842809504,6,S01
8020,0.06655308249856012,6.75271759000513,7.147497129473189,-4.2,-1.2,0.6,28.984248730236494,-15.813482943443647,37.92396381346388,6,S01
8040,0.11096037996063707,6.776286469119559,7.191198896418929,-4.2,-1.2,0.6,29.876567852832444,-16.712755036839965,38.504646644284676,6,S01
8060,0.0850156385866195,6.737678499594047,7.165615334505364,-4.2,-1.2,0.6,29.75028063677523,-17.537832342659122,37.43043682235433,6,S01
8080,0.13430649322383587,6.732556242715995,7.153531244730641,-4.2,-1.2,0.6,29.387260914350126,-16.442884525347043,36.93164158358097,6,S01
8100,0.11638192484374107,6.757358339621286,7.1786758045276,-4.2,-1.2,0.6,29.967437860786983,-17.549703059571723,37.62491395265297,6,S01
8120,0.11705618441311,6.754497372978919,7.172916544565434,-4.2,-1.2,0.6,28.79921071227829,-16.73429182826986,37.995123176118035,6,S01
8140,0.09152251795741981,6.726548531863432,7.1406815430730965,-4.2,-1.2,0.6,29.359273538561062,-15.529390584050716,37.10612916530285,6,S01
8160,0.06997249795358645,6.73142687709734,7.1685174109553635,-4.2,-1.2,0.6,29.77295825476002,-17.19009152782143,37.66877116479046,6,S01
8180,0.09337999235382292,6.716888268510976,7.177978747566725,-4.2,-1.2,0.6,28.14507658142093,-16.569463709406378,38.43712017542865,6,S01
8200,0.10372688929361057,6.726298775233216,7.156887456568434,-4.2,-1.2,0.6,29.730435592772565,-16.66607256928046,38.00509405666903,6,S01
8220,0.11950415604922529,6.738696090045653,7.137623672848443,-4.2,-1.2,0.6,29.606663258710565,-17.349670076138608,37.82051663852178,6,S01
8240,0.1089003880207428,6.726209322483454,7.125524536391147,-4.2,-1.2,0.6,29.693716279595407,-15.548414451740584,37.60318168497366,6,S01
8260,0.09943984419814894,6.736078706113804,7.15700532794832,-4.2,-1.2,0.6,29.28269499102321,-17.451639278409203,37.06656706642743,6,S01
8280,0.08483570960482278,6.7443113549440135,7.138190986547474,-4.2,-1.2,0.6,29.574023093872402,-16.76982677178499,38.22269608305725,6,S01
8300,0.11595304265262273,6.742991991076517,7.200290840611773,-4.2,-1.2,0.6,29.506100683921545,-17.10334414815381,37.6679681447288,6,S01
8320,0.09749728832154193,6.698146697459226,7.185147527510497,-4.2,-1.2,0.6,29.337970907306566,-16.419183497595654,37.982958828293086,6,S01
8340,0.07248170246481551,6.7690023977187055,7.1783515547650465,-4.2,-1.2,0.6,29.03359820362172,-16.01427585994137,38.26687394117072,6,S01
8360,0.10642237597666501,6.72565125822335,7.140982682976888,-4.2,-1.2,0.6,28.972187588595425,-16.014475676894556,37.54035065477036,6,S01
8380,0.09154384667290841,6.727398492444781,7.198667416194306,-4.2,-1.2,0.6,28.98916140631368,-16.979192864863727,38.22894141331861,6,S01
8400,0.11729881523736657,6.7259366640576586,7.162581403698079,-4.2,-1.2,0.6,28.914521739880872,-16.071447284878417,37.30993882926738,6,S01
8420,0.13533351336737362,6.7274022140462355,7.19550443543527,-4.2,-1.2,0.6,30.016412934017364,-17.006183148327786,37.03422992567321,6,S01
8440,0.10583224756772985,6.741140449499382,7.203101413560305,-4.2,-1.2,0.6,29.599817455554774,-16.164223214008686,38.06363936478403,6,S01
8460,0.046786822881534545,6.716113235991061,7.138238171499671,-4.2,-1.2,0.6,30.404429295025007,-16.794274593515244,37.536675140016634,6,S01
8480,0.1185832715217367,6.743669124379343,7.140617984202325,-4.2,-1.2,0.6,28.56132415607764,-16.917248477555326,37.8015134092004,6,S01
8500,0.07165999983352495,6.726352109044909,7.18371293346815,-4.2,-1.2,0.6,29.03386198085956,-16.449784789085026,37.877137193976104,6,S01
8520,0.11500476535710558,6.735175338087046,7.195373933688049,-4.2,-1.2,0.6,28.845413340780937,-15.301044145207923,37.77944063636911,6,S01
8540,0.07846005040892712,6.692690822501697,7.166695162134122,-4.2,-1.2,0.6,28.881911132332842,-16.48037611911593,38.57412217672498,6,S01
8560,0.11364892673583996,6.70865423193494,7.170077440719415,-4.2,-1.2,0.6,29.35421816532279,-16.760432075370055,37.66108775083899,6,S01
8580,0.07517728642533926,6.781228447216618,7.206482057246883,-4.2,-1.2,0.6,29.74591867056267,-16.283518118646867,37.1684301785081,6,S01
8600,0.10643774166673954,6.780432038238385,7.20263848547904,-4.2,-1.2,0.6,29.29789261172093,-16.90232005582267,38.466562534800566,6,S01
8620,0.09122724843954487,6.729092385913978,7.1511668567271505,-4.2,-1.2,0.6,29.008513422002324,-16.910224528920985,37.67864914380256,6,S01
8640,0.1363214972500695,6.7295373937859955,7.162415546323819,-4.2,-1.2,0.6,28.77886635178623,-16.752914573041114,36.85271432156202,6,S01
8660,0.08759579251165603,6.728941767978736,7.179987240471045,-4.2,-1.2,0.6,29.06558517710739,-16.754803005189093,37.28180916963572,6,S01
8680,0.07521850857358722,6.746112740456132,7.174333482090728,-4.2,-1.2,0.6,28.758736549669006,-16.845735434347056,37.95244249621744,6,S01
8700,0.10691169319356936,6.746644691071621,7.177928695757172,-4.2,-1.2,0.6,29.32397409585918,-17.097425919937002,37.8141861905978,6,S01
8720,0.10330961723176312,6.73895075137035,7.137905324140799,-4.2,-1.2,0.6,28.410189421752236,-16.099224006661473,38.0281509401639,6,S01
8740,0.09104498881713494,6.7467408303645895,7.176835532870594,-4.2,-1.2,0.6,29.548054084435698,-15.86260501475497,38.15186087853946,6,S01
8760,0.09733517991354863,6.727542832024901,7.17459467276699,-4.2,-1.2,0.6,29.885163947592087,-17.130233383914593,37.75447058924275,6,S01
8780,0.08864888425184544,6.738388880308091,7.166226064759867,-4.2,-1.2,0.6,29.26079733164673,-17.7413489088542,38.50744361516728,6,S01
8800,0.1002345380847312,6.721828160497082,7.155779733146139,-4.2,-1.2,0.6,29.33023175017756,-15.88870865195006,38.006941328170406,6,S01
8820,0.094541959216207,6.741309486750416,7.191284226510743,-4.2,-1.2,0.6,29.400515786139657,-16.74154031123603,38.13869853076217,6,S01
8840,0.10935183842883071,6.734229596705773,7.160174827649527,-4.2,-1.2,0.6,29.87110960972661,-16.516272792437114,37.48857096177501,6,S01
8860,0.09223484455733658,6.72247335013691,7.17031651380806,-4.2,-1.2,0.6,29.756095105982812,-16.50649046470547,37.43761608966799,6,S01
8880,0.11103293822040625,6.714637467648941,7.18643000120104,-4.2,-1.2,0.6,28.92164010279466,-16.30625363554528,37.58257505922677,6,S01
8900,0.1025951887281003,6.7527686451790805,7.145915984799123,-4.2,-1.2,0.6,29.156277698103292,-17.339629055909164,37.16585370405716,6,S01
8920,0.09812038117836579,6.7393269295732585,7.1628240359519415,-4.2,-1.2,0.6,28.041315454230844,-17.05815569979945,37.139934030612025,6,S01
8940,0.07591418959194259,6.709693566100368,7.183458276136097,-4.2,-1.2,0.6,28.594890788926097,-15.93528238806077,37.694140819638825,6,S01
8960,0.10840600813388503,6.737082286258348,7.1474916529929695,-4.2,-1.2,0.6,29.054655386256513,-16.782040948528667,38.437681795154134,6,S01
8980,0.08982725984101711,6.7382667411270125,7.14193969483884,-4.2,-1.2,0.6,29.30366272874345,-16.031084922406208,37.462794015183626,6,S01
9000,0.1157833870071179,6.739708004426647,7.205925246009877,-4.2,-1.2,0.6,29.573682185372324,-16.55364049171088,38.060976784586934,6,S01
9020,0.10926001044130505,6.769904864902158,7.161364231363832,-4.2,-1.2,0.6,29.29716726069521,-16.497354223248365,37.93313080543227,6,S01
9040,0.09619934054647139,6.766171118057918,7.185665728782326,-4.2,-1.2,0.6,29.076144050365965,-15.832176474757382,38.1427480002402,6,S01
9060,0.1101237242144313,6.73568613625494,7.204779449283424,-4.2,-1.2,0.6,29.647444215713644,-16.61874328020017,36.89412335136915,6,S01
9080,0.11206145070713151,6.749450091963636,7.157775000394545,-4.2,-1.2,0.6,29.436926849104744,-16.249752425470913,37.75593694763386,6,S01
9100,0.09947033798451961,6.7144309275529706,7.186605711612558,-4.2,-1.2,0.6,28.891866765914745,-15.924341714087491,38.36297789371778,6,S01
9120,0.10763958051301561,6.739062891389697,7.179914273959467,-4.2,-1.2,0.6,29.614947778852855,-16.522462936471495,37.29656538670877,6,S01
9140,0.09818352150133322,6.713775714887337,7.160781115119598,-4.2,-1.2,0.6,28.659200079643618,-16.214182087100177,37.87396777464069,6,S01
9160,0.09451503185236652,6.716077132291592,7.183295877484464,-4.2,-1.2,0.6,28.789210122450537,-16.996089646776504,37.67859059760494,6,S01
9180,0.10333397837527951,6.735734841584162,7.191237620446284,-4.2,-1.2,0.6,28.91787700655559,-16.54131789052262,37.32944135984376,6,S01
9200,0.14047310366393773,6.758897276430857,7.176246368937336,-4.2,-1.2,0.6,29.42298586311339,-17.05001964888848,37.4456610417235,6,S01
9220,0.09956917097039826,6.70015958034241,7.160037737641897,-4.2,-1.2,0.6,29.169946844435614,-16.299814750622915,37.28852704689341,6,S01
9240,0.09839654350162343,6.72218192404343,7.1844348488764505,-4.2,-1.2,0.6,29.280945491546586,-17.113623058528646,37.88578727613442,6,S01
9260,0.11302959885474974,6.755594811178084,7.163800547518032,-4.2,-1.2,0.6,29.935427370347877,-17.18761222154427,37.601566750265945,6,S01
9280,0.05766753850482286,6.733955197715716,7.208823299301742,-4.2,-1.2,0.6,29.61159233058492,-15.859789445365807,38.20657882766639,6,S01
9300,0.11410307391287905,6.719682147095571,7.128023216111747,-4.2,-1.2,0.6,28.592784671131064,-15.468232991477997,38.093013404852336,6,S01
9320,0.03561377584760106,6.755727657643932,7.17795346433421,-4.2,-1.2,0.6,28.49611029266915,-16.629152603624362,38.52140144522903,6,S01
9340,0.10069041367384507,6.728504656502552,7.166431766631378,-4.2,-1.2,0.6,29.35082707167923,-17.149645897671324,37.60968477771548,6,S01
9360,0.09999374370400213,6.750792385506043,7.1591957029028634,-4.2,-1.2,0.6,29.280612204370584,-16.887696045322627,38.1589644303136,6,S01
9380,0.10414318562964062,6.699830047380473,7.193267597268613,-4.2,-1.2,0.6,29.664066921901924,-15.62782661816236,38.32822175339407,6,S01
9400,0.10777563816774942,6.752810034812826,7.178275601726723,-4.2,-1.2,0.6,28.452794231520443,-16.050209677519934,37.78678903027648,6,S01
9420,0.09546766831970589,6.72790355896535,7.15649130294455,-4.2,-1.2,0.6,29.411252879042056,-17.243350755416948,36.25445211266299,6,S01
9440,0.12164631455561788,6.711241518982303,7.153937277954914,-4.2,-1.2,0.6,28.78613596379658,-16.593699838770277,37.85502321480242,6,S01
9460,0.11624899643411707,6.753374271254303,7.171187224163763,-4.2,-1.2,0.6,28.791417814595583,-16.683792133765333,37.95649800288984,6,S01
9480,0.09019985337183298,6.734493133906097,7.133421089217998,-4.2,-1.2,0.6,29.555867807563867,-16.633616664318428,37.80593906210995,6,S01
9500,0.07866514013271189,6.7052517764503135,7.16191326311884,-4.2,-1.2,0.6,29.667711966559004,-16.422873680736075,36.802885874599916,6,S01
9520,0.09061918500612973,6.706083321122049,7.1206647409428845,-4.2,-1.2,0.6,29.426373418197844,-16.931137976542903,37.39485172504716,6,S01
9540,0.09724655519481218,6.739624396750953,7.17253643744306,-4.2,-1.2,0.6,29.17777527523839,-16.54015136874765,37.30324244425625,6,S01
9560,0.07909844623685185,6.7334928840838195,7.210556118900551,-4.2,-1.2,0.6,29.46170923317501,-15.747229387187556,37.13555598417032,6,S01
9580,0.09322770753594348,6.755224180841083,7.2052362311657285,-4.2,-1.2,0.6,28.863574668080112,-15.560628314438302,38.374455848079116,6,S01
9600,0.10940333905245768,6.761828699489413,7.172027040121283,-4.2,-1.2,0.6,30.134711880044353,-16.1591593434999,37.6584218509602,6,S01
9620,0.10007351034486466,6.714805105539986,7.167563690288706,-4.2,-1.2,0.6,30.03399887280431,-17.29955185782758,36.953519935325176,6,S01
9640,0.06053699385552697,6.7245355311834265,7.176872472965088,-4.2,-1.2,0.6,29.82065412385664,-16.748356676448932,37.625760534894724,6,S01
9660,0.06838329331348646,6.735989092094868,7.164009136478896,-4.2,-1.2,0.6,29.038392942504334,-16.482023900597795,38.314134041644586,6,S01
9680,0.08156363057970516,6.749494071607284,7.156932817280945,-4.2,-1.2,0.6,28.98888909155085,-16.222408451097095,37.29285286294537,6,S01
9700,0.1312469344691669,6.765428115096804,7.1761053260673,-4.2,-1.2,0.6,28.94708556535925,-15.826186482171822,37.78475338163918,6,S01
9720,0.10108848243405522,6.694165602324508,7.184265200022559,-4.2,-1.2,0.6,29.686998370189148,-16.854402165638227,37.84447955959944,6,S01
9740,0.056670868491085546,6.731933408270443,7.15697622094434,-4.2,-1.2,0.6,29.18578321577343,-17.282848522283572,36.83257748024624,6,S01
9760,0.09040059143275515,6.71537367586912,7.2069041065564665,-4.2,-1.2,0.6,29.77282352140139,-16.868507216359333,37.90128239407614,6,S01
9780,0.09058249138804168,6.7472716387088925,7.16408114478306,-4.2,-1.2,0.6,29.168629732902662,-16.305493464262447,38.06194992699443,6,S01
9800,0.09115154347509902,6.738231892382411,7.179793782962092,-4.2,-1.2,0.6,28.782410610821234,-16.36109091825527,39.325570914165965,6,S01
9820,0.09772316094351118,6.746063919247013,7.171272786566713,-4.2,-1.2,0.6,29.449583440474342,-16.88958053516972,37.74663622847869,6,S01
9840,0.06249416287647494,6.7251323410786785,7.142704376626146,-4.2,-1.2,0.6,29.792340322260582,-15.963834323482908,36.68312887947325,6,S01
9860,0.09620853234623258,6.751681549995172,7.158425081971362,-4.2,-1.2,0.6,29.378065582152658,-17.209012858804712,38.45562163646344,6,S01
9880,0.10162291702550687,6.752865788592199,7.176414950037615,-4.2,-1.2,0.6,29.03552466268583,-17.515718669722208,37.623783473710134,6,S01
9900,0.07230377719086499,6.761566649803274,7.179103260282655,-4.2,-1.2,0.6,29.088401625683055,-16.174205534252295,38.45183012172393,6,S01
9920,0.10141455651579795,6.754611088175116,7.218668795085436,-4.2,-1.2,0.6,29.54788895825486,-16.819602664077657,37.87500696684888,6,S01
9940,0.12022830168815238,6.738876454383627,7.167024182029354,-4.2,-1.2,0.6,29.00380017384241,-17.335724160092294,38.109582523543466,6,S01
9960,0.0931772257115109,6.768080534324412,7.146706177509017,-4.2,-1.2,0.6,29.646381415907705,-15.397697935763631,38.09481463849536,6,S01
9980,0.0947897102834088,6.745449296843968,7.197806265548425,-4.2,-1.2,0.6,29.511946000972042,-17.281657888819282,38.24006857049114,6,S01
10000,0.0915593764238177,6.758636524761702,7.177223460873274,-4.2,-1.2,0.6,29.849223390529247,-17.324342119445575,37.4537102022535,6,S01
10020,0.06942360834332499,6.749550569899982,7.161155049371134,-4.2,-1.2,0.6,29.825089681008606,-15.966866075256766,38.21530188515292,6,S01
10040,0.11543580610859987,6.712200703761754,7.191287350527205,-4.2,-1.2,0.6,28.4662999187877,-16.86816917424442,37.175208743854995,6,S01
10060,0.0912642779296632,6.724790102438707,7.19296988010299,-4.2,-1.2,0.6,29.67040177873097,-15.621839905951528,37.78033944299442,6,S01
10080,0.08594931489908239,6.729078097499683,7.15531614051619,-4.2,-1.2,0.6,28.907984713128485,-16.6268446033154,37.27580693428821,6,S01
10100,0.09490069427389675,6.742633150122053,7.173295430750108,-4.2,-1.2,0.6,29.08935397375642,-15.939261008830178,37.34077192113305,6,S01
10120,0.0700661337598173,6.740161017347541,7.179529660908119,-4.2,-1.2,0.6,28.65534048325643,-16.231369720382872,38.88073612632669,6,S01
10140,0.05672190352144047,6.775291941614821,7.187276644086632,-4.2,-1.2,0.6,29.042514799078248,-16.685487598087438,37.5935527978135,6,S01
10160,0.10126381001100974,6.7019801179873495,7.180170161432803,-4.2,-1.2,0.6,28.786032451042125,-16.293955704111685,38.090947500331694,6,S01
10180,0.10367150129667216,6.782088386411119,7.184664924044592,-4.2,-1.2,0.6,28.90120245741978,-15.900852855121645,37.151238767715334,6,S01
10200,0.09434653533732609,6.750257784352797,7.1886109541940915,-4.2,-1.2,0.6,28.471134899706936,-16.983013009100496,37.88791426958925,6,S01
10220,0.09543656341096873,6.73930316047118,7.153522703401064,-4.2,-1.2,0.6,29.71678597935524,-15.9807291193443,37.3252589011906,6,S01
10240,0.11869256400844841,6.75367657890625,7.178872516397941,-4.2,-1.2,0.6,29.35467548406102,-16.178798114391952,38.34440367350596,6,S01
10260,0.11508877348135432,6.730733343826139,7.16012038672112,-4.2,-1.2,0.6,30.041307022282105,-15.667656456255468,38.13565756756346,6,S01
10280,0.12051406788112631,6.713716478141867,7.163609790523691,-4.2,-1.2,0.6,29.711153615857928,-15.557629204203653,37.88213714796611,6,S01
10300,0.09688971871919826,6.738560627499304,7.150606287682302,-4.2,-1.2,0.6,29.473509615496372,-17.161064427815752,36.99388247585797,6,S01
10320,0.10282162670036016,6.735824013150623,7.149736865581554,-4.2,-1.2,0.6,29.17895356251904,-16.225784141170188,37.04119446728091,6,S01
10340,0.12302948938277292,6.7248685730511895,7.1764789067027435,-4.2,-1.2,0.6,30.35333942605661,-15.864899597236208,37.83467457068174,6,S01
10360,0.12830702342160488,6.734462974133721,7.133687269677668,-4.2,-1.2,0.6,28.947873074539608,-15.58578455209619,37.17109132072381,6,S01
10380,0.12704853208516112,6.707874192806058,7.171663144319169,-4.2,-1.2,0.6,29.814734784866886,-17.67033289223786,38.05690005397466,6,S01
10400,0.08022150627294103,6.726283538730539,7.194206367648773,-4.2,-1.2,0.6,29.468519247198415,-16.478799383320244,37.75721829667252,6,S01
10420,0.1159367067632072,6.75972927099732,7.1264283068882985,-4.2,-1.2,0.6,29.641199017345023,-16.365573248498745,37.38836069429364,6,S01
10440,0.09628415534315679,6.744587349366402,7.111426148277962,-4.2,-1.2,0.6,29.550710959533827,-17.36604788241096,37.88015937109318,6,S01
10460,0.12557231053211276,6.753926516300895,7.17552901705656,-4.2,-1.2,0.6,30.104863126290248,-16.402153261312588,37.79764958799245,6,S01
10480,0.11210471783556984,6.7728447462500005,7.154980788049281,-4.2,-1.2,0.6,28.859690288309086,-15.72446194642649,38.36041063326736,6,S01
10500,0.10685520538152188,6.730216417191418,7.156984064201823,-4.2,-1.2,0.6,28.85140209083314,-16.488869548937906,38.042284065612144,6,S01
10520,0.1005645231683779,6.759434616439825,7.149058204261344,-4.2,-1.2,0.6,28.927315037924686,-16.13332069703781,37.84393610686654,6,S01
10540,0.10186090571414232,6.727580525307401,7.142008442869405,-4.2,-1.2,0.6,28.617466103361977,-16.97250567373264,37.815208198347605,6,S01
10560,0.10586074955860317,6.732466611245941,7.165627593439758,-4.2,-1.2,0.6,28.626486718012735,-16.487744784189996,36.87822513699729,6,S01
10580,0.0989443328733824,6.766556416593641,7.183144707359999,-4.2,-1.2,0.6,28.689673414295175,-16.140510234987143,38.340997355681566,6,S01
10600,0.09913277281551733,6.778179834078413,7.1688561689172605,-4.2,-1.2,0.6,29.006703163911546,-16.451308862342415,36.94317575294971,6,S01
10620,0.08669938575792244,6.719179764694833,7.156244405339155,-4.2,-1.2,0.6,29.464057545847943,-16.771633051780128,38.522516882339644,6,S01
10640,0.11789808320163926,6.725493703011945,7.136361444567543,-4.2,-1.2,0.6,28.980033816867397,-16.392450432578155,38.2408093739466,6,S01
10660,0.08313396954236879,6.707672713319851,7.200449188622461,-4.2,-1.2,0.6,28.759519253224738,-16.99664163107904,37.88424877491743,6,S01
10680,0.09500684527042416,6.712139448259215,7.182814256830511,-4.2,-1.2,0.6,29.503334296301308,-17.02317780063398,37.8085496447201,6,S01
10700,0.12666963202476142,6.7642063239059205,7.179716421962684,-4.2,-1.2,0.6,29.51848129227384,-17.00032059686636,37.05130987586404,6,S01
10720,0.0858928742879731,6.74303066894462,7.188371277620383,-4.2,-1.2,0.6,29.569014645038443,-16.529161602358165,38.08289531676975,6,S01
10740,0.13124583584930577,6.743238268222626,7.144565788460139,-4.2,-1.2,0.6,29.228273253414507,-17.540676602298923,37.61186616470094,6,S01
10760,0.11697178182058134,6.707964460152953,7.178767757500251,-4.2,-1.2,0.6,29.427048015495465,-16.295518602058166,37.07907634743354,6,S01
10780,0.09129018236459718,6.7618036296219675,7.176207198287853,-4.2,-1.2,0.6,28.780313079919797,-16.80859325527488,37.62736122588964,6,S01
10800,0.1005919874801745,6.750358331268815,7.165434721972272,-4.2,-1.2,0.6,28.4838250927736,-16.5350025754583,37.81951487857086,6,S01
10820,0.10080782990299395,6.736000454266923,7.155809680274514,-4.2,-1.2,0.6,29.430620105165787,-16.746499467578985,37.35478101087367,6,S01
10840,0.09385177894445226,6.740028155956939,7.165778264006585,-4.2,-1.2,0.6,29.565617139667363,-15.541872741490819,38.27117275327061,6,S01
10860,0.05531227234512483,6.742419944353902,7.162641488043764,-4.2,-1.2,0.6,29.179812045577528,-16.535923460354997,37.13644064034245,6,S01
10880,0.09972355074894004,6.75818218239327,7.163018444926584,-4.2,-1.2,0.6,29.06342338226369,-16.850389475609987,37.42643494045557,6,S01
10900,0.10997744550294289,6.735605421949232,7.130566121281212,-4.2,-1.2,0.6,28.741679790986183,-15.973130504026914,38.68383777031784,6,S01
10920,0.08378857289437629,6.738437122851092,7.189992900445447,-4.2,-1.2,0.6,29.47157982428447,-17.00486339291286,37.454874605612716,6,S01
10940,0.0870590452783809,6.7419831607407,7.154534693874924,-4.2,-1.2,0.6,29.480559674034005,-16.38351893001432,38.13219902323486,6,S01
10960,0.053522416617813755,6.7661534335130495,7.184647219128926,-4.2,-1.2,0.6,29.969891572347485,-17.112849534191927,37.99973450228208,6,S01
10980,0.11852683747381687,6.784964852898446,7.137997276267259,-4.2,-1.2,0.6,29.67134381777575,-16.48377631168313,38.45254021528943,6,S01
11000,0.09509947146277099,6.751777782534272,7.152923818893522,-4.2,-1.2,0.6,28.776188284358334,-16.118533909973827,37.48085168789237,6,S01
11020,0.098593195424167,6.748590315331693,7.165752222688311,-4.2,-1.2,0.6,29.902907540136024,-16.454433138096924,37.7910823171911,6,S01
11040,0.1386210263267808,6.779078030639024,7.154305812463711,-4.2,-1.2,0.6,28.825512809066076,-16.94256150058144,37.13693371900489,6,S01
11060,0.12418157718605788,6.694149043878629,7.155798996678652,-4.2,-1.2,0.6,30.271146239694644,-16.088586841175534,37.59489172230789,6,S01
11080,0.10612136983889535,6.750479007057772,7.20136002936613,-4.2,-1.2,0.6,29.867486179848157,-16.720622096329468,37.48414817190803,6,S01
11100,0.07618261158999302,6.742910105718126,7.13583223685468,-4.2,-1.2,0.6,29.677781869050236,-16.340191303725945,37.158455594927204,6,S01
11120,0.1218582101962199,6.789591965111877,7.135544481176241,-4.2,-1.2,0.6,30.025033037461576,-16.38016218854613,38.534448390121504,6,S01
11140,0.07843095242981078,6.755068468309189,7.135982330431526,-4.2,-1.2,0.6,29.534787033553656,-16.604992963359855,37.675089246508584,6,S01
11160,0.11155263798934321,6.704787688253134,7.176143016982578,-4.2,-1.2,0.6,30.099992982540094,-16.36846281621199,37.442279473419546,6,S01
11180,0.1135824908282686,6.696183244807863,7.141002238846629,-4.2,-1.2,0.6,29.716618278178867,-16.443030048562193,37.28488567835457,6,S01
11200,0.06263021744532508,6.7665274528565345,7.17954966233186,-4.2,-1.2,0.6,29.409110002220626,-16.48276166681147,37.683677738137135,6,S01
11220,0.11977330847011898,6.7631705102377335,7.173605064256233,-4.2,-1.2,0.6,29.086837903503028,-17.295392398599365,37.52161587593637,6,S01
11240,0.12167421346947811,6.740417826374546,7.204437037752593,-4.2,-1.2,0.6,29.267234834949868,-16.49270449299334,37.391226271257786,6,S01
11260,0.10276292515326713,6.728614677432773,7.150717747677303,-4.2,-1.2,0.6,29.520454266185986,-16.572568084242807,38.39382809496949,6,S01
11280,0.09575111089098973,6.730175163597989,7.1635859564569895,-4.2,-1.2,0.6,29.508771499996143,-16.404859133885815,38.230186869260734,6,S01
11300,0.0939725789590686,6.726205728041363,7.18198212619959,-4.2,-1.2,0.6,29.138272361050234,-16.576633034993137,36.63271011940804,6,S01
11320,0.08059793396690944,6.7468754621807685,7.17165725628696,-4.2,-1.2,0.6,29.40935194883204,-15.578141931116008,37.697006598373434,6,S01
11340,0.11697321394683878,6.735266898734854,7.163599994432423,-4.2,-1.2,0.6,28.65548787754051,-15.349725978320425,37.86529921375941,6,S01
11360,0.10421141029214864,6.740867788771136,7.176457545263089,-4.2,-1.2,0.6,29.471663047983334,-17.17275797942845,38.007064236861396,6,S01
11380,0.10038438007910432,6.771854082645493,7.166377958341599,-4.2,-1.2,0.6,28.81388723987325,-17.32546862723142,37.67910398110482,6,S01
11400,0.1040135275129393,6.7315401043823675,7.169047917547952,-4.2,-1.2,0.6,29.61107296042306,-16.32097748345404,38.29606301693086,6,S01
11420,0.09644209255491965,6.753106066084887,7.131617923297385,-4.2,-1.2,0.6,29.126189718925545,-15.479453359032037,38.21095971033808,6,S01
11440,0.09444802750351243,6.716149367037653,7.162932844357402,-4.2,-1.2,0.6,29.343147128096845,-16.743622722624814,37.945537632584035,6,S01
11460,0.1125832581960348,6.73822145771862,7.14997082504904,-4.2,-1.2,0.6,29.053006928526532,-16.282819773527972,37.723578505812114,6,S01
11480,0.09374035439498578,6.742280867723794,7.163164612539709,-4.2,-1.2,0.6,28.333762096980458,-17.110363273205113,37.01343174350811,6,S01
11500,0.12864179828277156,6.725524233893262,7.147519073125659,-4.2,-1.2,0.6,29.831391254725496,-16.71046202742468,38.54273421565759,6,S01
11520,0.0787311020981278,6.734584439949239,7.189847220343501,-4.2,-1.2,0.6,29.37591960927943,-16.265052201610793,37.275328415507595,6,S01
11540,0.10904680841351988,6.750662444846737,7.181194228708245,-4.2,-1.2,0.6,28.789017240013678,-16.5299706162881,37.61867076752165,6,S01
11560,0.09447736047564799,6.760883407771786,7.1658965454505195,-4.2,-1.2,0.6,28.741564127721237,-15.950366393131425,37.6760964767407,6,S01
11580,0.10466486709327433,6.760002939618182,7.182430941135924,-4.2,-1.2,0.6,29.65243311547749,-17.063593590287127,37.649203626974995,6,S01
11600,0.1060105210907147,6.709291350692604,7.162472877482877,-4.2,-1.2,0.6,28.952590877161946,-15.745752413153488,37.6418652763035,6,S01
11620,0.10647188016979808,6.751228475013381,7.150432924439758,-4.2,-1.2,0.6,29.85255011013759,-15.552326194894102,36.857757222271026,6,S01
11640,0.12778052279639512,6.773394470890749,7.1354596083155215,-4.2,-1.2,0.6,28.697220181123654,-16.087989368754386,37.84014943682729,6,S01
11660,0.11408151636386436,6.742111629401007,7.162242203437472,-4.2,-1.2,0.6,28.863639808425933,-17.006973258418313,37.09515046735614,6,S01
11680,0.08162434589971497,6.751761759249705,7.181602754272766,-4.2,-1.2,0.6,30.670058919559757,-16.47542681052164,38.45275356562551,6,S01
11700,0.1018710639061423,6.704846535500668,7.143566431733357,-4.2,-1.2,0.6,29.06394465218392,-16.16717629121074,38.092185925752716,6,S01
11720,0.053887480826574574,6.745290423209879,7.162271931028004,-4.2,-1.2,0.6,29.397111929057786,-16.52381933107729,37.76390849306173,6,S01
11740,0.10126961699084404,6.774257890174368,7.173926803090866,-4.2,-1.2,0.6,28.732364113372,-16.511327938981246,37.900163087984915,6,S01
11760,0.09111950033940143,6.762996329801483,7.183713991565809,-4.2,-1.2,0.6,29.531849918098665,-15.928572338149058,37.93000545931684,6,S01
11780,0.13072783519416784,6.734571524843038,7.126353822510429,-4.2,-1.2,0.6,29.517974739917474,-16.119539415297922,37.72788198319283,6,S01
11800,0.11442706280478801,6.746044170673626,7.178011469955156,-4.2,-1.2,0.6,29.685332295804972,-16.414065158128103,37.84308715718967,6,S01
11820,0.12045219314179566,6.744233956454404,7.152714029265646,-4.2,-1.2,0.6,28.81757078505471,-17.591554853649733,38.19288681986716,6,S01
11840,0.1294891957018605,6.731909038837618,7.134537008231997,-4.2,-1.2,0.6,29.6538497840823,-16.370901674022065,37.4966538361567,6,S01
11860,0.13551013266962572,6.713198258132388,7.18251351816488,-4.2,-1.2,0.6,30.130987433841582,-15.600174316631213,38.26115815689671,6,S01
11880,0.05411589365331319,6.7613966813322595,7.160002744078182,-4.2,-1.2,0.6,29.422097378771785,-16.82379073685033,38.20232003466088,6,S01
11900,0.08233492632429058,6.700338478254372,7.137073749489529,-4.2,-1.2,0.6,29.120014856347403,-15.715202452666299,38.06012729445392,6,S01
11920,0.076380524464407,6.749664801653217,7.1416921482018525,-4.2,-1.2,0.6,28.876295381161622,-16.22437575738423,38.35454991946504,6,S01
11940,0.10568908852933939,6.749484562843979,7.204908585521566,-4.2,-1.2,0.6,29.051445762890076,-16.835598033416254,37.7250096703528,6,S01
11960,0.09766672578302203,6.740915117943751,7.164935820573592,-4.2,-1.2,0.6,29.364294908836673,-15.598887079187872,37.116478679930296,6,S01
11980,0.045557113663551134,6.742144115362754,7.165251319204349,-4.2,-1.2,0.6,30.210644915350056,-16.536093884255166,37.70470950142374,6,S01
12000,0.11472756426079833,6.751290552622976,7.168876355426788,-4.2,-1.2,0.6,29.223879183592857,-15.984689250182404,38.022004132556916,6,S01
12020,0.078284006710719,6.750228806732106,7.166674462804305,-4.2,-1.2,0.6,29.33376882530759,-16.664165019616984,37.95377931595476,6,S01
12040,0.07165874970856201,6.728587524916435,7.122910586740111,-4.2,-1.2,0.6,29.569825630913865,-15.881590046974134,38.344651055509,6,S01
12060,0.07626114642026316,6.736894916236624,7.162252541968835,-4.2,-1.2,0.6,28.951744132226654,-17.27362264203275,37.86895666061877,6,S01
12080,0.09310990131414619,6.753825753381392,7.155578489204785,-4.2,-1.2,0.6,28.496493510063328,-16.42291095929522,38.38441893531899,6,S01
12100,0.10105177747085271,6.734321927771151,7.179484000477985,-4.2,-1.2,0.6,29.87235933142687,-17.15455184617768,37.90467853638804,6,S01
12120,0.11057342534486549,6.762120024969747,7.166481326595704,-4.2,-1.2,0.6,30.080037137881128,-15.991724159245601,37.83464357130934,6,S01
12140,0.07885579845879964,6.744976339011523,7.203221913387277,-4.2,-1.2,0.6,28.930262374160733,-16.972654843873627,37.87899134984163,6,S01
12160,0.08892911126090007,6.733845522830411,7.179839068061117,-4.2,-1.2,0.6,29.714468295105537,-16.939937906783914,38.02706090834186,6,S01
12180,0.08823475298164124,6.7316387498716965,7.173474718980417,-4.2,-1.2,0.6,28.89977103210497,-16.267420023060716,37.40486336411012,6,S01
12200,0.09371601138784531,6.7600250496046845,7.176994038929098,-4.2,-1.2,0.6,29.850021017993868,-16.179242752689312,37.83020508278715,6,S01
12220,0.12091475094641263,6.747742780440162,7.147879111978094,-4.2,-1.2,0.6,29.169719164922377,-16.395951130521546,37.64021416280608,6,S01
12240,0.11503403007316673,6.754643569646051,7.210239889711438,-4.2,-1.2,0.6,28.711767485514102,-16.365576915801043,38.26945332219489,6,S01
12260,0.09246149986029388,6.705924579220401,7.186490203829656,-4.2,-1.2,0.6,30.10895687985041,-16.956526849293482,38.73867834458737,6,S01
12280,0.12145113073165352,6.693974313086341,7.174516132509902,-4.2,-1.2,0.6,29.980868311074847,-17.126794851304176,37.72988991431499,6,S01
12300,0.11181208704517948,6.7730254956375715,7.1603925613262565,-4.2,-1.2,0.6,28.759413385664786,-15.556356598655313,38.53645038904492,6,S01
12320,0.09001938767185974,6.722701465556448,7.185581093595518,-4.2,-1.2,0.6,28.57046171174103,-16.809515937937142,37.60535949106667,6,S01
12340,0.09935083354266615,6.720353365273833,7.17609414875814,-4.2,-1.2,0.6,29.6631507751445,-16.650423352633677,37.80889793749084,6,S01
12360,0.11908757591313923,6.743919872490036,7.157242851465943,-4.2,-1.2,0.6,29.497504675638314,-16.86538923804713,37.5417484316161,6,S01
12380,0.09740480565411189,6.789013737923176,7.152917328885278,-4.2,-1.2,0.6,28.498277519913376,-17.10694557941256,37.491730187143084,6,S01
12400,0.08576422478847694,6.7432518767845,7.18502936125828,-4.2,-1.2,0.6,28.876094937721906,-16.11212791890485,37.94428561182422,6,S01
12420,0.12333894802054018,6.736266623834964,7.184848854170604,-4.2,-1.2,0.6,29.191213168398477,-16.306435028834038,37.47525772720061,6,S01
12440,0.10047102528290305,6.747561161403671,7.173130259171022,-4.2,-1.2,0.6,29.681136982486176,-16.339638155743316,36.897980476917695,6,S01
12460,0.09815531187147601,6.7669072871227,7.164219952737614,-4.2,-1.2,0.6,28.741208145354193,-16.2826755254557,37.03601602421489,6,S01
12480,0.1337415273443132,6.7219178435686855,7.174446085623185,-4.2,-1.2,0.6,29.604109511291547,-16.3572238726734,37.67536017737305,6,S01
12500,0.12377964416763931,6.733673149980829,7.193168727864043,-4.2,-1.2,0.6,29.046400400675445,-15.841022857833554,36.7230003409463,6,S01
12520,0.15020902755216187,6.744415229499681,7.1305776815857875,-4.2,-1.2,0.6,29.728702008253762,-16.52366571489114,38.133083053842114,6,S01
12540,0.10544564368965216,6.73628978467218,7.196051688449854,-4.2,-1.2,0.6,29.424573950281918,-16.174256732066574,37.47755223192962,6,S01
12560,0.1159923432945533,6.740900345329883,7.177336999752631,-4.2,-1.2,0.6,28.806331254320607,-17.0915597668961,37.53937563446753,6,S01
12580,0.09698865043272357,6.775604089702603,7.128520180759991,-4.2,-1.2,0.6,28.72846834909559,-16.6423277653907,38.292705650357675,6,S01
12600,0.12953929705183856,6.741103971230621,7.170609190705841,-4.2,-1.2,0.6,29.144758975280816,-16.980850027311355,37.6259136595836,6,S01
12620,0.08517975754584071,6.748538509792034,7.180311329445184,-4.2,-1.2,0.6,29.362105261012392,-15.391713296690034,38.223853275681634,6,S01
12640,0.14677605545241468,6.713174674613663,7.177707359576457,-4.2,-1.2,0.6,29.8895492810137,-15.48805528573033,39.11674538713585,6,S01
12660,0.0807258461106995,6.752506081051915,7.1697161615236,-4.2,-1.2,0.6,28.565796295549085,-15.810444432652606,38.01838363931339,6,S01
12680,0.08559510283887306,6.76924988468498,7.149827735337339,-4.2,-1.2,0.6,29.933780986050575,-16.7256784776478,37.840412798444774,6,S01
12700,0.0877548225991911,6.742237580005828,7.163051428644247,-4.2,-1.2,0.6,29.062661650978377,-16.5161046835504,37.240082244527166,6,S01
12720,0.09381116687071807,6.762895414489602,7.1601208855914065,-4.2,-1.2,0.6,28.887451408056084,-15.721023157622998,38.47014657732372,6,S01
12740,0.056988263756537344,6.760220342173824,7.167401511198662,-4.2,-1.2,0.6,29.23550120457717,-17.13896869362952,37.852867125287126,6,S01
12760,0.10114700739126102,6.705828835695354,7.196938919297947,-4.2,-1.2,0.6,29.478720274247614,-15.860930834910212,38.974069100180934,6,S01
12780,0.10398461459758175,6.759481500474542,7.179873563616211,-4.2,-1.2,0.6,28.986768837050704,-16.898280185655455,37.6092681943675,6,S01
12800,0.0931987184327747,6.747412778324543,7.159961596741154,-4.2,-1.2,0.6,29.555413316804284,-16.979007502022256,38.416111666370846,6,S01
12820,0.0813376669834696,6.722112215067804,7.170413393485951,-4.2,-1.2,0.6,30.470971916766775,-16.803819287040415,37.31566488454485,6,S01
12840,0.12099681515510977,6.748987728314478,7.158214151424485,-4.2,-1.2,0.6,29.752486876974324,-16.200253766262165,37.88730808138012,6,S01
12860,0.11539465062634195,6.724225407410307,7.153545382771088,-4.2,-1.2,0.6,30.376112305124074,-15.968528291379702,36.9861637772267,6,S01
12880,0.11546684065288537,6.718849837233278,7.19076006094823,-4.2,-1.2,0.6,28.47409542652802,-16.30637342483521,37.07358705543757,6,S01
12900,0.11324474220571637,6.765132645005105,7.141935216775199,-4.2,-1.2,0.6,27.87204847026848,-16.584457187668598,37.972619971375764,6,S01
12920,0.12026660207211493,6.75887507778817,7.186595815440546,-4.2,-1.2,0.6,29.049485678380492,-15.691701567085111,37.98025102155501,6,S01
12940,0.10563041516562136,6.755522062765925,7.184319071717528,-4.2,-1.2,0.6,29.91616310634075,-15.992488941912452,38.06822663370925,6,S01
12960,0.09984428122832627,6.741565647722118,7.150989645278807,-4.2,-1.2,0.6,28.50089688157529,-17.180357561530514,38.210597778063644,6,S01
12980,0.11195158200793089,6.762847643837163,7.14829360045077,-4.2,-1.2,0.6,29.540565067642902,-16.79837455775647,37.19113589480751,6,S01
13000,0.10098142862907605,6.722665417664795,7.190986845982082,-4.2,-1.2,0.6,29.83156133129799,-17.44033372858682,38.619343539627636,6,S01
13020,0.11407412647762884,6.746929204099651,7.163176922000098,-4.2,-1.2,0.6,29.68810594165069,-15.596405390612547,38.05488634841428,6,S01
13040,0.1236133284856079,6.705613174056013,7.176778878431383,-4.2,-1.2,0.6,29.681769697498638,-16.513595063159624,38.07346110013027,6,S01
13060,0.09619507729288135,6.710791608399925,7.135982636945828,-4.2,-1.2,0.6,28.46803053852186,-15.627039683338632,38.036220072222164,6,S01
13080,0.1362012121385555,6.731795435922058,7.1500027696186494,-4.2,-1.2,0.6,30.03823612019008,-16.05226817803719,37.422828033260934,6,S01
13100,0.09339808031876193,6.712743350346222,7.189694290044854,-4.2,-1.2,0.6,30.202667399274997,-16.31196292028944,37.3650159269182,6,S01
13120,0.11582038327872288,6.728254287922471,7.162057358612591,-4.2,-1.2,0.6,29.729313739312744,-16.455174009357123,38.40481321407719,6,S01
13140,0.12306282432215174,6.724640395357546,7.187059142549434,-4.2,-1.2,0.6,29.017572803309207,-16.91711947749171,37.975732746860366,6,S01
13160,0.12256286254206483,6.751576124704184,7.153731330440367,-4.2,-1.2,0.6,29.78492752455923,-16.34672636281202,38.1048604106511,6,S01
13180,0.09194939879147392,6.726272714513876,7.198790088536878,-4.2,-1.2,0.6,29.98140692659411,-16.41315024344484,37.911005931344135,6,S01
13200,0.1258975788260996,6.69602311440417,7.170276826783545,-4.2,-1.2,0.6,28.744199034409984,-15.891461436143503,38.49624557741174,6,S01
13220,0.08946201678805586,6.728847818121543,7.181692231510641,-4.2,-1.2,0.6,29.18409825031591,-17.275287023458453,38.248294778220604,6,S01
13240,0.0895551515072268,6.7597829509150404,7.170060115736837,-4.2,-1.2,0.6,29.458591440009464,-16.671517870643946,37.87708212077619,6,S01
13260,0.13572284860790637,6.7584606453968865,7.162211254578966,-4.2,-1.2,0.6,28.74785372331641,-16.13063471320752,38.33756298981898,6,S01
13280,0.0702233981775766,6.734653964419173,7.117848302801944,-4.2,-1.2,0.6,29.80873805852584,-16.8864524236924,37.593648935884765,6,S01
13300,0.11839868654117947,6.764332306653575,7.145027067224109,-4.2,-1.2,0.6,29.956585714413848,-17.201877528226582,37.47218705898069,6,S01
13320,0.11368433196889771,6.7631353222545965,7.1755882577852645,-4.2,-1.2,0.6,29.168968438375664,-16.376933713444465,37.496399670699525,6,S01
13340,0.11240846599735659,6.7405514644408,7.167768346663348,-4.2,-1.2,0.6,29.202083457853277,-16.21778668120023,38.29712228182198,6,S01
13360,0.08223605419852456,6.74300202446817,7.159704156241572,-4.2,-1.2,0.6,29.815812154373237,-16.68901542479531,37.440067669813295,6,S01
13380,0.09840725020438973,6.759031106262036,7.16458723365053,-4.2,-1.2,0.6,29.20783146352828,-15.879042688063203,37.6042271417831,6,S01
13400,0.11179913379182155,6.71940297762755,7.188933589200596,-4.2,-1.2,0.6,29.646850126337338,-17.313302912602882,37.48477050976729,6,S01
13420,0.11864481023406999,6.7427995712290265,7.157293442317481,-4.2,-1.2,0.6,28.89252341819251,-16.842817302852428,37.60965349527893,6,S01
13440,0.09039727355467968,6.726724265798311,7.163419326722124,-4.2,-1.2,0.6,29.420937373911254,-16.377327396797018,37.610213322130484,6,S01
13460,0.11516661323665472,6.801567511928252,7.1692666002519205,-4.2,-1.2,0.6,29.46410015368455,-16.655930703786318,37.3712863059348,6,S01
13480,0.11126270275895438,6.764260293717429,7.126890347050651,-4.2,-1.2,0.6,29.65912065620155,-16.959130814398023,37.47659646185956,6,S01
13500,0.10893350119669878,6.737209373757698,7.153690008277519,-4.2,-1.2,0.6,28.592922417064372,-15.67489529026893,38.241882172089866,6,S01
13520,0.09104250957271938,6.743679833289633,7.182946383670155,-4.2,-1.2,0.6,29.66788178543489,-17.344933794074365,37.811726680070926,6,S01
13540,0.08192150015578428,6.709994259506915,7.150519034064461,-4.2,-1.2,0.6,29.196963118224105,-16.634508921646272,38.009238525133476,6,S01
13560,0.08164377269777237,6.758200508399864,7.1619553970244105,-4.2,-1.2,0.6,29.69608771638872,-16.43591941242473,38.336747267629406,6,S01
13580,0.0981390363786415,6.755440908762884,7.195563008845577,-4.2,-1.2,0.6,29.55285481158574,-16.441556094153764,38.08693173881139,6,S01
13600,0.10210901066457327,6.736123019998918,7.164272351343137,-4.2,-1.2,0.6,29.030426892405007,-16.844624940936406,38.12072554376298,6,S01
13620,0.10114845346995295,6.758287518780227,7.153837097083337,-4.2,-1.2,0.6,29.452656018340146,-16.511347715683748,37.58772740587155,6,S01
13640,0.0555022874763929,6.764053870015646,7.181469175416117,-4.2,-1.2,0.6,29.13767952270904,-15.772542190998076,38.24129340273602,6,S01
13660,0.11839922150473121,6.738865014716334,7.153144651992716,-4.2,-1.2,0.6,29.717711579702225,-16.38470608772437,38.233214549234575,6,S01
13680,0.09895904302925175,6.762614441444691,7.156466241691485,-4.2,-1.2,0.6,28.538043057205606,-16.160294429274494,36.97255949279664,6,S01
13700,0.11724748815206312,6.715521417382514,7.197110594125596,-4.2,-1.2,0.6,28.528815340538966,-15.829789283284443,37.868582940205314,6,S01
13720,0.12489376987353967,6.767643077117983,7.161015050442927,-4.2,-1.2,0.6,28.991155320321575,-16.214402920123206,38.274278734973656,6,S01
13740,0.11163965893653009,6.748553434145547,7.153853368031034,-4.2,-1.2,0.6,29.476712008058406,-16.678871402074947,37.418991739035235,6,S01
13760,0.09309267602683166,6.720131713168495,7.1760461448672554,-4.2,-1.2,0.6,29.720277801125796,-16.45179124696447,37.28704057327182,6,S01
13780,0.06474393542206068,6.756262759239064,7.158238405973866,-4.2,-1.2,0.6,29.685655642895643,-16.807200672564633,36.938487038383585,6,S01
13800,0.09321884219553586,6.762749243429545,7.18189645502433,-4.2,-1.2,0.6,28.970815012797672,-16.06819569317354,36.567971393502766,6,S01
13820,0.0625302903845297,6.7763314135258526,7.152467568638231,-4.2,-1.2,0.6,29.143839185964904,-16.411945622258393,38.0847133982075,6,S01
13840,0.07665186512105523,6.748827522092214,7.1957690164108,-4.2,-1.2,0.6,29.320164027619544,-17.5748160363851,37.853917353403446,6,S01
13860,0.10400198655080023,6.755082112840325,7.160753136523076,-4.2,-1.2,0.6,29.202574368365948,-16.094755989438802,38.003063680256,6,S01
13880,0.12693346146399595,6.709052507793894,7.1873659387713325,-4.2,-1.2,0.6,29.899605151261934,-16.7015076428854,37.4615827811362,6,S01
13900,0.09279158104684332,6.727728402039703,7.160020297226273,-4.2,-1.2,0.6,30.39265500521671,-17.543474414497776,38.65408443537791,6,S01
13920,0.11025499575024189,6.741054082736294,7.182710318671982,-4.2,-1.2,0.6,29.45938332086441,-16.61087772081136,38.02298456535339,6,S01
13940,0.06412708924686172,6.746660026312169,7.1612081912886545,-4.2,-1.2,0.6,28.91792088534244,-17.16703866916219,37.43235974129465,6,S01
13960,0.07485987487992493,6.737714133783954,7.17986960487001,-4.2,-1.2,0.6,29.141213159675296,-16.37651130369288,37.47525181998112,6,S01
13980,0.07573454591878948,6.710903427485693,7.1558297161000635,-4.2,-1.2,0.6,29.59213483854487,-17.0846795175377,38.20684393429441,6,S01
14000,0.11768128079182817,6.744706140730709,7.186414116761877,-4.2,-1.2,0.6,30.18898980519231,-16.38069001154642,38.7038675129933,6,S01
14020,0.0859998016328644,6.758925968405845,7.212231312535615,-4.2,-1.2,0.6,29.313062430184594,-16.558596501399673,37.25007201629179,6,S01
14040,0.10653135307039194,6.7666008593625415,7.1760543833759405,-4.2,-1.2,0.6,30.170369145072783,-16.91295988534,38.462968769574424,6,S01
14060,0.09480937339285227,6.758084342906374,7.1925815001346205,-4.2,-1.2,0.6,28.620266240250835,-17.054313782309404,37.62933546570925,6,S01
14080,0.07552991843052771,6.717556754385734,7.159916948427938,-4.2,-1.2,0.6,29.07539125263087,-16.38914744751979,37.50622181926481,6,S01
14100,0.07683070938033955,6.714979198984872,7.203852265781553,-4.2,-1.2,0.6,29.40178124857129,-16.240763486232602,37.948548616062126,6,S01
14120,0.1275680316860584,6.740790615918081,7.14149612753404,-4.2,-1.2,0.6,29.434443412559652,-16.646008784791356,37.7329593019891,6,S01
14140,0.12548351715999298,6.766407181101875,7.111034192676018,-4.2,-1.2,0.6,29.65823719894007,-16.17475163518303,38.370030345575984,6,S01
14160,0.08801155932629272,6.74524259851372,7.168145461882942,-4.2,-1.2,0.6,29.79741268328187,-16.74440128595325,36.87575633717276,6,S01
14180,0.07055552268008661,6.747404684377612,7.174453207964718,-4.2,-1.2,0.6,30.0791747262871,-16.441335597028083,37.520462162716036,6,S01
14200,0.07598247321120111,6.76129253382547,7.164742171981986,-4.2,-1.2,0.6,29.583199681402238,-17.667533633906864,37.350295722354204,6,S01
14220,0.10804821425355163,6.701545746127674,7.176618250011684,-4.2,-1.2,0.6,28.67574795736657,-17.102755649025028,37.62521419541064,6,S01
14240,0.12869435207025487,6.736035622148112,7.21215512392861,-4.2,-1.2,0.6,28.203226907842748,-15.091973650688365,37.94313791249422,6,S01
14260,0.06986247775579316,6.771621169096377,7.151068411954301,-4.2,-1.2,0.6,29.558886923292153,-17.283913942625965,37.04208187208497,6,S01
14280,0.10679242947924103,6.695017415850727,7.160344081616248,-4.2,-1.2,0.6,29.217661218896065,-16.915815915019902,37.37142777912525,6,S01
14300,0.07312520616630196,6.761335420179571,7.164384037870773,-4.2,-1.2,0.6,29.412403618513643,-16.702971248134887,38.11734047899524,6,S01
14320,0.09645236249624442,6.745372905110428,7.179858746836826,-4.2,-1.2,0.6,29.06337966351173,-16.487748467161083,36.68162485882689,6,S01
14340,0.07117447018305885,6.730837960874958,7.150601024889904,-4.2,-1.2,0.6,29.352302538763162,-16.178379637391032,37.864912838529655,6,S01
14360,0.06921415182020096,6.727752378515125,7.174260094902659,-4.2,-1.2,0.6,28.848167263109485,-16.826260429704362,38.549625758029286,6,S01
14380,0.1170838721291502,6.722234439748706,7.137479317885489,-4.2,-1.2,0.6,29.02222466198894,-16.24968310614494,37.935958065666256,6,S01
14400,0.06848907860072848,6.70738993404445,7.178735929035079,-4.2,-1.2,0.6,29.647959264766236,-16.159139328465855,38.09253128638675,6,S01
14420,0.11030045442295103,6.7369326508644685,7.188607155813148,-4.2,-1.2,0.6,29.949409484892723,-16.807205309416716,38.90835767555605,6,S01
14440,0.1172226490328269,6.742697709194999,7.184366299932109,-4.2,-1.2,0.6,29.09910340567419,-17.143086217906788,37.58127223788574,6,S01
14460,0.10916981537832426,6.724862007417931,7.18078663060737,-4.2,-1.2,0.6,28.532574678368466,-16.614865846369337,37.73792205714254,6,S01
14480,0.09923281633822621,6.758989952985433,7.16502968142028,-4.2,-1.2,0.6,28.85397589568828,-17.14352545837177,37.86014898949665,6,S01
14500,0.09907484028685903,6.75092989268294,7.183333002853528,-4.2,-1.2,0.6,29.458023846411315,-16.235309689126403,38.43499329486067,6,S01
14520,0.1189332916451809,6.731824712362293,7.159043010050128,-4.2,-1.2,0.6,29.43271991793159,-16.510261034139717,37.87309665358598,6,S01
14540,0.10403420262650795,6.7271537683935465,7.164494530139498,-4.2,-1.2,0.6,29.291166473365465,-16.72963868449923,37.57838833766843,6,S01
14560,0.04619147198847118,6.73856334851383,7.139215669016374,-4.2,-1.2,0.6,28.752645021378708,-16.725592176295486,37.99034233723986,6,S01
14580,0.13802362325512238,6.75020313530693,7.144641416117925,-4.2,-1.2,0.6,30.022351773007035,-15.984743843805077,36.84125561728383,6,S01
14600,0.1297294797956528,6.725355231647416,7.153454537218122,-4.2,-1.2,0.6,29.511319804471572,-16.659484230409518,37.633767409223374,6,S01
14620,0.07851094398805483,6.747746720832503,7.169447272920923,-4.2,-1.2,0.6,29.94322926589757,-16.334415772491912,38.23913114132105,6,S01
14640,0.13746908490798548,6.712779230222939,7.179747299616062,-4.2,-1.2,0.6,29.2413243666367,-16.83825221478754,38.07300706828868,6,S01
14660,0.08189238863934627,6.761778231010354,7.159223587625311,-4.2,-1.2,0.6,29.915194114952556,-17.263006577529126,37.682746417473865,6,S01
14680,0.0658692603090363,6.750527413864971,7.166314204474085,-4.2,-1.2,0.6,29.230362426875754,-16.14038691319348,37.812044759506435,6,S01
14700,0.08770808865551583,6.736007831796924,7.136389242445741,-4.2,-1.2,0.6,29.571495550488777,-16.565128410062087,37.619008472583616,6,S01
14720,0.07327947105232804,6.722535700476756,7.151928463614932,-4.2,-1.2,0.6,30.000381702630886,-17.339395909845408,37.54928449105005,6,S01
14740,0.08833781351659924,6.734315033346023,7.174546001330679,-4.2,-1.2,0.6,28.256885608547194,-17.20445746225481,37.61591460468524,6,S01
14760,0.058859374573592554,6.722880150447765,7.184380105207093,-4.2,-1.2,0.6,29.020648807278583,-15.982677111085701,38.274490686372346,6,S01
14780,0.09692942159636295,6.6887364288768705,7.156692161958914,-4.2,-1.2,0.6,28.529158804575427,-16.71451342819968,37.66547808591789,6,S01
14800,0.06927818212585155,6.709022476278628,7.186185172304001,-4.2,-1.2,0.6,28.85005514761717,-16.866372247545627,38.302715098809344,6,S01
14820,0.06268699665275505,6.718651540880214,7.157446570744485,-4.2,-1.2,0.6,29.862442604550296,-17.374202528977897,38.293769497770434,6,S01
14840,0.08901951326384305,6.759002449407372,7.174523948892811,-4.2,-1.2,0.6,29.05768587342955,-16.879516799543303,37.8536044035857,6,S01
14860,0.12164123154876044,6.742096485238636,7.132075125344556,-4.2,-1.2,0.6,28.802747315662923,-15.925363206440355,38.17680988024476,6,S01
14880,0.09046005265685211,6.770183859687248,7.205650606479199,-4.2,-1.2,0.6,30.071146426958364,-16.391305828379707,37.48594761040921,6,S01
14900,0.10053641138336572,6.749861729773077,7.1169404657498685,-4.2,-1.2,0.6,29.634281267130113,-16.49019939654196,37.46001685639472,6,S01
14920,0.09323709485510376,6.7785522201064525,7.204919377018231,-4.2,-1.2,0.6,28.621596122705803,-16.388713685306584,37.0190241472023,6,S01
14940,0.08046456050609471,6.756984015584072,7.135417319399397,-4.2,-1.2,0.6,28.909067637409517,-15.176663188654238,37.68370918277088,6,S01
14960,0.11539891199017158,6.757101105823412,7.1588352768012244,-4.2,-1.2,0.6,29.161342052117906,-16.373411583235743,37.95983865753763,6,S01
14980,0.12184456010791825,6.734889211480249,7.172046087295854,-4.2,-1.2,0.6,28.809169471328993,-15.973499312227725,37.33908548090132,6,S01
