timestamp,ax,ay,az,gx,gy,gz,mx,my,mz,label,subject_id
0,0.09820161265692928,-0.06678994653822813,10.150787099204813,-3.4054665856687154,-0.9338064416173365,1.1042183508326304,29.47286704450702,-16.442306348236002,37.731987502459035,0,S01
20,0.10925034001507222,-0.07047667159653731,10.144193630680277,-4.1162863709799495,-0.7557285203847104,0.29599389393596637,29.761061785830776,-16.954865624311303,36.94611426237645,0,S01
40,0.10535389219776205,-0.06409707406071292,10.14209884588778,-4.114831524659504,-1.1257665069544212,1.0429974557755655,29.298265942450236,-17.038091665348684,37.75248649137425,0,S01
60,0.09779130997699403,-0.06891286241461902,10.145982442669345,-4.7983736210522325,-0.8682348367921218,0.651162204036171,29.59859877066451,-16.707554892101147,37.709783473115834,0,S01
80,0.1066617335538348,-0.05194467295691672,10.143339953702526,-3.9341057649836535,-0.7365662155228991,0.4304165117878871,29.63266760669651,-16.07541599546093,38.1252369386511,0,S01
100,0.0997428925978139,-0.06928163153181387,10.148706672514507,-3.7581857654444977,-0.9336572374776904,0.4230271255228452,28.546001625816242,-15.588088203406766,37.75280604306659,0,S01
120,0.1014536519040423,-0.055335328769179085,10.148086861571167,-4.340084330137891,-1.1832551227208221,0.15799393439237192,29.243465991381505,-16.63854498575364,37.75277488022934,0,S01
140,0.0975426683989325,-0.05575464555722846,10.14996807539563,-4.64452103115524,-1.2515026553269162,0.7345323711265177,29.5496692969586,-16.38361576895681,37.85437926462784,0,S01
160,0.10256675846862062,-0.05987467508322521,10.138844776454015,-4.17440516947194,-1.3246170180051058,0.3904639028392417,29.006547354508477,-16.50909718515741,37.769542409645354,0,S01
180,0.09831766687935735,-0.06149800368143159,10.14469056334769,-3.6970712557453256,-1.7039589944416729,0.7613480995560253,29.245767032510066,-16.870276280797405,37.931070853528134,0,S01
200,0.10310309849882496,-0.056387392186863415,10.142621395767325,-3.917505986319176,-1.0391324258366894,0.8647564943167707,29.606638556967706,-16.47239746075845,37.596360953216255,0,S01
220,0.0959661539845738,-0.059785175977129144,10.144364834943106,-3.815005089148005,-0.5940811164137304,0.6930761602226996,29.801883168346933,-16.513084994026855,37.47632055017174,0,S01
240,0.11230383955616055,-0.06737551956666693,10.145804784839278,-4.185186846234852,-1.0652804422633386,0.475467433031743,28.691673814535488,-16.635737502690688,38.12133544101424,0,S01
260,0.0961043671639465,-0.05182517280312979,10.13884205519375,-3.776377463093775,-1.0804214420777085,0.7180988400714005,29.285368205337388,-15.724638530390909,37.658754841003855,0,S01
280,0.09990335538678162,-0.04772664528230369,10.15064897087984,-4.460028454193577,-1.303409217174607,0.45209248133759855,29.499683299712768,-16.389126831481327,38.307173742616285,0,S01
300,0.09883527982619619,-0.06689517970655924,10.137024924962507,-4.148634291877636,-1.2416619982491832,0.20711742503139208,29.62869375786758,-16.084753390939312,38.19565173657672,0,S01
320,0.10794692030467762,-0.0508085818615826,10.148024710828325,-4.136235211371809,-0.980451663870621,0.2468632716645932,28.851744796623194,-17.044865560983204,38.16415997724458,0,S01
340,0.10555214594867356,-0.05036396855674412,10.148167847850319,-4.097585710585866,-0.7715232765824468,0.39475911347295944,29.018339481101677,-16.494515498805693,38.241292684799895,0,S01
360,0.10275742627081949,-0.056950425934599445,10.13963506969253,-4.337087435077173,-1.7018565405574448,-0.2565625027469923,29.086538697109976,-16.536299395309193,37.270494018732535,0,S01
380,0.10297018139078547,-0.047364813163748506,10.139371654630043,-4.051823580539106,-1.5375744215752796,0.2619774321289263,29.30047225924252,-16.87152969170856,37.76024268998045,0,S01
400,0.09042932660763749,-0.05773853483420392,10.143386226737269,-3.9268168303355484,-1.4854415007995243,0.1851596052218611,29.017522798860856,-16.804212565443407,38.20273685615798,0,S01
420,0.10382883922052771,-0.05442408582401479,10.152883771354732,-4.173960129743728,-0.9401072684503657,0.6914331628610565,29.61753281256683,-16.273368099614842,38.684384238721854,0,S01
440,0.10329901885927358,-0.05629595911159093,10.148118334136072,-4.761774598329515,-1.6350469021172396,0.5778706749560975,28.750686922909026,-16.354718979201518,37.84587484980385,0,S01
460,0.09735656447898974,-0.0497858166144482,10.149395552145785,-4.344094746483999,-1.1776601785119742,0.3749229312372801,28.729583746408153,-15.90007162781943,38.1465986199597,0,S01
480,0.10563367215835553,-0.058166513980545495,10.137965423822765,-3.8946099618101244,-0.9115353166062459,0.09951889103890754,29.195590801426356,-16.37339201858117,37.885663533627046,0,S01
500,0.09779948710773166,-0.05227798171395702,10.138898043529839,-4.376526779655204,-1.2965572291939012,0.8212695196211102,29.209258174083974,-16.585319898466302,37.94681022752429,0,S01
520,0.10601840467094523,-0.05853261374719842,10.144238543266882,-3.9455600832177566,-0.8954893609806007,0.6312706953057804,29.041828742127464,-16.179962922379865,37.81964654429639,0,S01
540,0.09720803213468597,-0.06188632829748931,10.144136930386505,-4.62319540872909,-0.5593841173935187,0.5512475481074196,29.81151433195562,-16.703253795114215,37.38854899133064,0,S01
560,0.09840723658504139,-0.05303257876958823,10.149964559074437,-4.399359601471378,-1.3817431391644583,0.8988051269564735,30.220822769611658,-16.8104431007415,37.103292051843546,0,S01
580,0.09905004529427781,-0.05527555225062511,10.149528350160951,-4.2587457989312565,-0.6947405207533683,0.3528125594279894,29.61763034900121,-16.102705258492392,38.0896604459694,0,S01
600,0.09499136018149633,-0.04636777681694177,10.145973729486235,-4.204057745503339,-1.5720542237810602,0.5224707421487856,29.416389552198055,-16.733187799773216,37.54065548150111,0,S01
620,0.09578386512436714,-0.05229716078342493,10.150568298693496,-4.608702059755722,-0.8065844485642443,-0.05196988382292822,29.794480101736355,-16.4479565825792,37.461809047327094,0,S01
640,0.10370882779140103,-0.0543952719684808,10.138794229231577,-3.9064517237860708,-1.5809944578290025,-0.0022204698899532804,29.12780255196034,-16.35985516185584,38.303849054967415,0,S01
660,0.10026287972855435,-0.04412453515202677,10.148021003566575,-3.8967301060466593,-1.1005450931974006,0.5934781232003622,29.74543133289977,-16.10842335823901,37.914193820709265,0,S01
680,0.09097731629182886,-0.04820306325553282,10.15630888697534,-4.280917562048777,-1.1548307947437555,0.2645347589553917,29.414396573259012,-16.502576136020707,37.35418262499266,0,S01
700,0.10135451396757399,-0.04734372934738242,10.145240394699819,-3.807768280695646,-1.23162993396171,0.5409887192925147,29.06944913210201,-15.878290635010298,37.84150020892707,0,S01
720,0.10621665982496718,-0.04666447648061556,10.152528723748953,-4.16835621677458,-0.7966598007351262,0.09342428541287695,30.393434907965084,-16.413768917685736,36.97766359874443,0,S01
740,0.09945182406570155,-0.0480742670557432,10.142249272562637,-4.7044211423580204,-1.6244987981661585,0.11380249018216615,28.86751286228338,-15.967901118588255,37.4690991211224,0,S01
760,0.10134752546013769,-0.051177897866970454,10.14238027386794,-4.403123671456959,-0.8690970029780061,0.6982662161983452,29.082773623691374,-16.03928228129724,37.50047420406642,0,S01
780,0.1001950027611568,-0.05914805506334537,10.139770789914461,-4.35422301041641,-1.229798432857386,0.5795124224492835,29.202568349878003,-16.58866577884646,37.41283320825731,0,S01
800,0.10599616074412918,-0.05107126465194004,10.13403203363341,-3.85721949433896,-1.2908848247845237,0.7434163955301019,29.05474277536517,-16.392082912475036,37.62314859209063,0,S01
820,0.09536748042575913,-0.04575954275778733,10.147108076966058,-3.333863416014875,-1.5468256142106085,0.4321671670381091,30.021691454392506,-15.706852827193666,37.2483812741328,0,S01
840,0.08392418835418929,-0.05438279599218221,10.15299206174728,-4.285722153043089,-1.0726787805530635,0.1950431222524749,29.638116877840364,-16.138794426218517,37.972417204578,0,S01
860,0.10224645727946023,-0.04750712462965127,10.1391664290401,-4.057890960690858,-0.554351291600224,0.6308151169191704,29.10824939172884,-16.973125807934355,37.713603501477664,0,S01
880,0.10578417233864637,-0.053080754154976525,10.148968427894822,-3.7627915399695198,-0.8185852513596716,0.4379809186859317,29.60806132515546,-17.081701320291856,37.926151733204456,0,S01
900,0.10225442988648858,-0.05494978985394813,10.152140691911766,-4.146636995910703,-0.8327453484857954,0.900948527830491,28.63884856284695,-16.118550033595096,37.58687812295298,0,S01
920,0.1053098031549678,-0.04553055993419669,10.14080333649869,-3.750446408699055,-1.5698575953610954,0.5766428705852249,29.735304680832137,-16.359216390463423,38.010861948699805,0,S01
940,0.10356435796909169,-0.05439690417656934,10.147802935377708,-4.30776569833374,-1.2310230756137444,0.9642393197105745,29.51146389717002,-16.213482321583427,37.67763151679905,0,S01
960,0.09869854411480707,-0.06448107652538392,10.151667736651715,-4.519837762270439,-0.9914478886613228,0.676009261761102,29.180921739444365,-15.745965501812384,38.28335857364329,0,S01
980,0.10558078342819315,-0.05809984091843594,10.149052387821525,-4.260399631021411,-0.7435507321547672,0.39743788857148993,28.876209106387936,-16.707314095480722,37.859295388125055,0,S01
1000,0.09698326786224837,-0.05861318368348502,10.151759880062004,-4.266237244403463,-1.5028620908618955,0.4225825683770804,29.656560439800774,-17.198665461623396,38.156349215180406,0,S01
1020,0.10932362028535854,-0.06039009251502155,10.148373696865848,-4.775746663273701,-1.094267375611403,0.13155392244109565,29.3399542033046,-15.818845100358681,37.49914056843706,0,S01
1040,0.10267328815013585,-0.04860903313977595,10.1383098420872,-3.9589939589220644,-0.9913670703866732,0.3601106668496708,28.92388364952767,-16.672557681529103,37.986674468699334,0,S01
1060,0.09598800547138507,-0.05898028921597447,10.148807118102697,-4.245810231015479,-1.4736985142944017,0.43802988999793535,29.15750659764963,-16.374635596944586,38.31495293972079,0,S01
1080,0.10432791377458356,-0.05308697472224355,10.145030670862283,-3.939158417873709,-1.5463034682140075,0.4526066049565632,29.255448101425458,-16.496056798112853,37.929049039174735,0,S01
1100,0.10407979647768957,-0.05590650963340081,10.150881555228741,-4.031905502042882,-1.1318849625463105,0.3944580981343676,29.22347594631676,-16.98534246905035,37.589537120890256,0,S01
1120,0.1054667265072443,-0.05439402703608502,10.153852793823908,-4.500044824450759,-0.9044054430982702,0.6240277625916155,29.46889656771059,-17.065665858654256,37.74913470930741,0,S01
1140,0.11077138588643624,-0.0614667990127906,10.14525594921697,-4.279586561456986,-0.8084475393211488,0.9377457658796586,28.92477753409127,-16.707025709386212,38.2999596996492,0,S01
1160,0.1013994464661063,-0.047843174390891155,10.146450174522938,-3.802350292776364,-1.3582518071577414,0.1565820123256798,29.08828960088269,-17.45493081842291,38.21422690082531,0,S01
1180,0.08976501846540937,-0.052470162421248884,10.148817336445681,-3.7915069768897043,-1.368260368616743,0.6134964999346928,29.21036282728758,-15.564803494792928,37.64476113679439,0,S01
1200,0.10079573150222992,-0.061877589091657345,10.140670223305117,-3.8756754679813143,-1.384828863699539,0.6430930368104456,29.08774683552755,-16.322013639736113,37.785660680486686,0,S01
1220,0.09546131005022251,-0.04737795816768226,10.13734765677513,-4.4289311354891545,-1.5004442309700368,0.4070463202473322,29.613621933292055,-16.475923390625823,37.22381678190318,0,S01
1240,0.09842491748200635,-0.05558879415365677,10.144415958355095,-4.4578413692219625,-1.3833613501582598,0.8897953088611692,29.52518278824876,-16.25975417709651,37.99775506580016,0,S01
1260,0.09896470305000205,-0.06307897420911664,10.14289108537268,-4.6671997363855855,-1.4631711532039762,-0.09113196807401491,29.93631677406364,-16.59201774073966,38.2428469829337,0,S01
1280,0.09259685836219858,-0.06112209743481925,10.13210304541628,-4.188086755160726,-1.397540366339402,0.7285799893200551,28.87844664054628,-16.840967749014915,37.68802959380124,0,S01
1300,0.09456733140597628,-0.060127287402000754,10.149629256129131,-4.66714592178977,-1.2300644264761358,0.42341672563695665,29.169880171119644,-16.182117383643934,37.711071070104154,0,S01
1320,0.09786916072049012,-0.05834468739882373,10.133364097828167,-4.313545506138923,-1.431108810298885,0.29851210776584125,29.631933298777298,-15.982655168990366,37.513946139893044,0,S01
1340,0.1048779457593657,-0.06150751853790337,10.143169981821977,-4.433940499229993,-0.8149055922718689,0.8411420707147724,29.635961389142892,-16.86447396133364,37.006553978454775,0,S01
1360,0.10156094650360682,-0.06170982398710655,10.141941417818224,-4.232322652207828,-1.0785908460295242,0.9571986572211117,29.64489424469861,-17.2361826812961,37.72540891171075,0,S01
1380,0.10433922475125856,-0.05586737290268728,10.14618333256082,-4.3832885986511,-1.0692549262300115,0.8804491208891471,29.19993483904612,-16.655283607112843,37.047517887250244,0,S01
1400,0.10840474623470399,-0.06302590519775429,10.141948421942937,-4.589375524598606,-1.1101816824432102,0.33415631023036674,28.859389814808093,-17.000007433104145,37.476560239035564,0,S01
1420,0.09523932061052068,-0.06719486449897866,10.15301743680057,-4.4544310364249,-1.1597496878101745,0.7593313855525239,29.06621236652591,-16.769771908495173,37.52240042394163,0,S01
1440,0.09697173297931115,-0.06596988374048625,10.143908802124049,-3.837304672900732,-0.6338543627951437,0.9167993560150475,29.48059950338425,-16.797237965242324,37.30382120570294,0,S01
1460,0.10507126563195848,-0.06807803849373252,10.144941492068158,-4.570707072273998,-0.5319016681110915,0.5801031208524894,29.498794362565413,-16.591570430548458,37.26157103114853,0,S01
1480,0.10025808389893023,-0.061403848752522965,10.135908738031953,-4.1122770719610315,-1.3938836209818646,0.4065400297195468,28.58133878384087,-16.747905842821545,38.18651474677184,0,S01
1500,0.10318016433413589,-0.061757003120447664,10.141290002457067,-4.289417310722379,-1.2997646691975684,0.4220364741651955,29.11767411306503,-16.55928062114308,37.65866813704896,0,S01
1520,0.09774964247855987,-0.06711369538470892,10.143504676253558,-4.382502068702243,-0.7637289286456517,0.3193240057690668,28.83077738979979,-16.885052718245866,37.53314726956315,0,S01
1540,0.0945347979300031,-0.06515095779540038,10.144715520527708,-4.562874796373977,-1.6046314517903295,0.3502731741242654,29.77610619232607,-16.315198981161593,38.0376021576128,0,S01
1560,0.09814518110659103,-0.07763613605906232,10.151174515450341,-4.197052802116354,-1.4494571702037637,0.23027911269824686,29.129469147602315,-16.851744797223432,38.3640133000721,0,S01
1580,0.09912667569284825,-0.07467115762122094,10.140953873185204,-4.464109927525266,-1.3942574297104982,0.47361067513184807,29.792290451938936,-16.17828630608516,37.92247845977774,0,S01
1600,0.10550188798932213,-0.06848057373932263,10.147730218153352,-3.9086942425867752,-1.1909081803887165,0.6575264181166687,29.489461929285618,-17.574544896052885,37.42203562698786,0,S01
1620,0.10377789552905387,-0.07146389599969787,10.141574137447531,-4.151023878023556,-1.0687602472510356,0.10759762838829784,29.363388845530707,-16.48531056324079,37.76662990521029,0,S01
1640,0.0970921565206362,-0.07376407500552841,10.143936319145405,-4.66223294474697,-1.1999646431889779,0.27510998347701016,28.99785199447467,-15.961351957721897,38.12831977406138,0,S01
1660,0.10304718307238676,-0.06686020722992826,10.139894604801084,-4.130143925796332,-0.9896378416373257,0.6267453909447377,28.8599274785267,-16.858546244137493,37.43543325732928,0,S01
1680,0.09858754512521524,-0.07604913642918953,10.147227910008395,-3.964960651545286,-1.4655143296969335,0.22881663375353595,29.090793622572146,-16.382758074698074,37.95052709292368,0,S01
1700,0.10646371350306187,-0.06602691108369066,10.14804702950872,-3.872711352112564,-1.4285392332482525,0.045981708739257554,29.4747531855137,-16.260376226540107,37.40279739113379,0,S01
1720,0.1081156507686998,-0.06835643831340721,10.150030911504476,-4.426295395378394,-0.9608748783236878,0.963928559740688,29.194953714586713,-16.817467930647858,38.519049319587,0,S01
1740,0.09858846710006304,-0.07877681898635984,10.144061770361052,-4.185639737195079,-1.4807650258239677,0.88664639664993,28.938381743349108,-16.15187087903577,37.46683411902453,0,S01
1760,0.10044001789269079,-0.08087558981649097,10.140583073264349,-4.0896303562131715,-0.8760127671177957,0.32577526446026234,28.73100600258791,-17.284526241598304,37.20800330363409,0,S01
1780,0.10382487910350233,-0.0747984462736804,10.145693246798047,-3.9703295481404175,-0.602859230543046,0.32402919262747043,29.28703060451078,-16.292829852409078,38.13045286764568,0,S01
1800,0.09267829986975906,-0.08188221269464885,10.144030916070513,-4.175006204565511,-0.5173533671566658,0.6859169081697188,29.154773415981964,-16.191971695536196,38.049852493862545,0,S01
1820,0.09971702684207343,-0.07274739609971409,10.148301377323484,-4.016738502915217,-0.8600578812353865,1.0244448645466069,29.22947549903796,-16.674833568209788,37.23077260034649,0,S01
1840,0.10153031879455356,-0.06703146333934693,10.149019761152775,-4.0896141760070694,-0.9864297805574808,0.7185711097920192,29.137639428354817,-15.966343916523018,38.519943790543316,0,S01
1860,0.09998989559930295,-0.07306261895924959,10.13752873212893,-3.8233122546574103,-1.2220171788978276,0.9674500045500632,29.054929074374964,-17.457285346922514,37.6716866909679,0,S01
1880,0.10392406190825637,-0.07217437322613043,10.152356673934278,-4.304854488906308,-1.0695535234184754,0.5274046972528892,29.642008468241805,-16.824334904995403,37.8209185883889,0,S01
1900,0.09851079860281219,-0.0735843151311383,10.13909195586258,-4.6420514281842475,-1.5000730806294598,1.2620406675060964,29.6366977153648,-16.503554206820723,37.70348991015189,0,S01
1920,0.104118047993583,-0.0771174711782696,10.141763565664787,-3.9682335717445265,-1.4200348671700493,0.7051945254241989,30.108410567684604,-17.140748046072012,38.064987894055776,0,S01
1940,0.09683352286636995,-0.08657018665096561,10.145615829330461,-3.8938375309366773,-1.2850570355559165,0.35802037335955805,29.214949492063795,-16.82184776730896,38.10297292518704,0,S01
1960,0.09610934212502148,-0.07876592456972845,10.148513568875037,-3.970975988437828,-1.0028055092020567,0.8848151225421379,29.627578610013195,-16.0190059024959,38.63090945669203,0,S01
1980,0.09735724863243808,-0.08415523286050108,10.141781883706939,-4.377307881624829,-1.111694742789421,0.8181385807939708,28.994652280240892,-16.38379606575841,37.54675587551382,0,S01
2000,0.09508188647963203,-0.08292422051958609,10.14963206399188,-3.9428125118378334,-1.2320508889403539,0.9206256441254685,29.57621690912819,-16.846544724978386,37.76206196175643,0,S01
2020,0.10266940070457531,-0.08823477134121399,10.139344225416117,-3.951619731525998,-0.7977877334382957,1.1900085377240792,29.268182295325268,-16.53382392086562,37.97382784409525,0,S01
2040,0.09424949844078435,-0.08012620690859845,10.144551759217757,-4.275186840458723,-1.1976957390912386,0.8629417432407924,29.740987779147694,-17.67919089417928,37.143785361895475,0,S01
2060,0.10047573109044196,-0.08401200700695591,10.145919503401352,-3.9873846214150284,-1.4664830535759945,0.35937565848772984,29.495679027328737,-16.339668093054428,38.60574516666336,0,S01
2080,0.09899290060590017,-0.07754067337324275,10.147319749800587,-4.415106725463169,-1.0345306231654758,0.565995877047132,29.230759421625542,-17.01135567146717,37.79983958842788,0,S01
2100,0.10441620696619737,-0.09077134219126617,10.153891566014911,-3.9982518506570166,-1.439721223798015,0.1440147841977047,29.206535407758537,-15.721281798745272,38.267894577919066,0,S01
2120,0.10466383357790751,-0.08575682252458765,10.146207194288321,-3.835836118991547,-0.8509737578994387,1.141855187056115,29.44888950587804,-16.83884550729587,37.320227251217325,0,S01
2140,0.10386220795447187,-0.08543280660208978,10.149013078000607,-3.4522610308033044,-1.4786730002938886,0.42050161315304235,29.772026224433564,-16.42915282034701,38.294082139510834,0,S01
2160,0.09677889757052226,-0.09086394560443503,10.149237581751493,-4.292063999732734,-0.7637455338987325,0.3529827418756939,29.112775489164306,-17.331670307844277,37.698588274650604,0,S01
2180,0.10022150641709897,-0.08393912280090184,10.148762721635931,-4.342462674893418,-0.8893670615521048,0.6835050646316938,29.041021160799854,-17.043650600016854,38.2249835250358,0,S01
2200,0.10266404576767861,-0.08272551508055488,10.146735811769021,-3.8212971089603736,-0.8593034343163399,0.3949654372092609,29.404874161229806,-16.494693764436747,37.65867181853314,0,S01
2220,0.09461598202875354,-0.08769715123464103,10.149770533114848,-4.444616702940847,-1.3600893524373523,0.5585144466487244,29.579218139657918,-16.202695036128436,37.54290696629037,0,S01
2240,0.10475936532531455,-0.09213982362156567,10.134890416850093,-4.264209664677116,-1.3517520513899086,0.6356016059792285,29.582888556822496,-16.786988026482398,37.60343250880378,0,S01
2260,0.10410952998916992,-0.08699967529320257,10.1460721167416,-3.914867270024142,-0.9454938234659491,0.3570443435004159,29.208834051919027,-16.39979988200197,38.46294859926919,0,S01
2280,0.10238242769543038,-0.085929114826935,10.137291685651023,-3.770670759089693,-1.3030928464528855,0.8223139906278942,29.118100820625664,-16.172607697506905,37.643024051700586,0,S01
2300,0.10309886678065745,-0.08711720464910892,10.150785167378102,-3.9640580405499666,-1.305316160882416,0.9973879134572897,29.48296317136483,-16.53070338159364,37.20382527392457,0,S01
2320,0.09990951255763109,-0.08620777362218517,10.150527445250614,-4.104239479082473,-1.5211253586451787,0.9014850715076683,29.672177100395576,-15.783436359789448,38.143576494527956,0,S01
2340,0.09587243018044342,-0.08201070544521737,10.14473006679363,-4.726353385179972,-1.2716035143688114,0.8304747779102499,28.97281574265301,-16.66866143073463,37.59433909649367,0,S01
2360,0.0984505540102898,-0.09139269730991377,10.150042429787439,-4.165039365391333,-1.1478194943558764,0.5985841285741442,29.58028265586241,-16.35203496775194,37.679678338961914,0,S01
2380,0.09655924993727047,-0.0810316876708014,10.15235920987587,-4.271360149090908,-1.2619949978049845,0.9238947270612103,28.811467134267026,-16.407862279358362,37.78933927313129,0,S01
2400,0.09687114647231054,-0.08950988233465948,10.154703815557584,-4.077882460268368,-1.4416740700260677,0.06085538231836285,29.18572611984466,-15.939111040178062,37.77844617799129,0,S01
2420,0.0963998027067398,-0.09267734568204658,10.159222885486736,-4.0433861692996915,-1.1264016424949228,0.47007342718947265,28.959950191249654,-16.541221603989563,37.45823511981948,0,S01
2440,0.10481439505870022,-0.09971809070753501,10.145592299819564,-4.419741016694276,-1.327985339646598,0.2848195086578928,28.800294320336324,-16.267385942192668,37.550306953453195,0,S01
2460,0.10441378892180807,-0.08564260029687949,10.141027370780586,-4.692770952836548,-1.0750444822667216,0.34756010147595634,28.841944542414566,-16.094772335382466,37.79567178958458,0,S01
2480,0.10334708581262624,-0.09036547695293162,10.147319452094406,-5.028830839675374,-0.8339289409369968,0.24620980391048664,29.403972689485457,-17.23650042289202,37.38958218385628,0,S01
2500,0.0933409273652613,-0.08191267429500058,10.142111870794093,-4.427324266366092,-0.9362342090377891,0.5028732347497755,29.4042889355466,-17.31976555654519,37.74809611284826,0,S01
2520,0.1069140601532269,-0.0977927211534346,10.150492971550321,-4.163787539749086,-1.5761810112225425,0.5299906409243984,29.123735526740575,-16.989888625693844,37.28904651084244,0,S01
2540,0.09926753460007487,-0.08946645039108768,10.146517133970658,-4.033691853404471,-1.0521647145461541,0.6813004853483358,29.195898008693977,-16.75316267220986,37.2347282827844,0,S01
2560,0.10269782010815473,-0.09191386921911052,10.157963557525951,-4.660947420375783,-1.214877390412059,0.5915339706657955,30.102977820653322,-17.616790870652437,37.524830776663556,0,S01
2580,0.09432558633442926,-0.08502849353308276,10.148637170741896,-3.8909467318642252,-1.3091088768633552,1.0012646454548362,29.57454349294728,-16.21787756494512,37.62687757421172,0,S01
2600,0.10470268959501638,-0.08261186834544822,10.146337290194369,-4.478232259753347,-1.3425048191227915,0.553814476890942,29.504001787975554,-16.604606020244795,37.789441749494564,0,S01
2620,0.09993708304234664,-0.09252408628513634,10.141595267713113,-3.273307641274836,-0.8077436553584216,0.6090496684766306,29.62138771480733,-16.116166977352663,37.442410883399404,0,S01
2640,0.09474605127132678,-0.08407061906811544,10.14375953377432,-3.764000394606545,-1.14474510075628,0.6498085174991415,29.567335930913885,-17.34299759936374,37.55482465883434,0,S01
2660,0.10307281547796883,-0.08165530507501631,10.148778831504831,-3.787042055867967,-1.4853197118332828,0.4982085024525282,28.991501586337005,-16.471820086650048,37.36860741711976,0,S01
2680,0.09262098452601109,-0.09153401053718833,10.15122247954537,-4.100768692299455,-1.1320836289377991,0.22325391887967982,29.806964607548117,-16.689158151554984,37.85094864614278,0,S01
2700,0.0986115656630687,-0.08690208981990993,10.149639055088212,-3.9476289279338324,-0.9017746597248866,0.9264446655121863,29.07946675789366,-16.50127908138745,38.44732730026139,0,S01
2720,0.10758886501780326,-0.08141260250732922,10.142595604477366,-4.437426696161352,-1.8071466375558383,1.0235134109740582,29.819742139010053,-16.507258883130824,37.89705709095425,0,S01
2740,0.09796603602282365,-0.08387962662964829,10.147173364060897,-4.330121906532864,-0.9171808642709371,0.5494852227915691,29.43794301982358,-16.813801334250748,37.547761109104236,0,S01
2760,0.09542792764965155,-0.08854691392194762,10.146203435168385,-4.263279422740187,-0.9907785204166991,0.7398224168533762,29.926728068807048,-16.262088581579995,38.38471837164902,0,S01
2780,0.09417169417646026,-0.07872220312797794,10.15161259707919,-4.292001315673208,-1.1371574007600975,0.8551326878644878,29.564424410140205,-16.440115990280173,37.77907289500971,0,S01
2800,0.10809735298517148,-0.08757685325368379,10.142761982534074,-4.648074893124075,-1.4233469466554187,0.34052068052101064,29.39842208238707,-16.51608934164896,37.64810683767333,0,S01
2820,0.10899474317698624,-0.09071453231350375,10.142354669284789,-4.181107337753988,-1.239853545377371,0.8432301044017475,29.805409657601242,-16.921090289897418,37.818740644030434,0,S01
2840,0.10511753379743503,-0.09307078917956868,10.142381029975024,-4.433328873673614,-0.7226640863464642,0.8111410692669782,29.42099280512735,-16.48239424315848,37.65780705627242,0,S01
2860,0.10235829475080921,-0.07855266685610379,10.143101700683959,-4.26071830791346,-1.3598284755644912,0.6202967311962896,28.6609518780951,-16.552677195144298,38.03559950544735,0,S01
2880,0.09539672389434052,-0.09111242100618465,10.144742280296816,-4.5125034324342765,-0.8281003972875312,0.2154145040930624,29.398857865457472,-16.388814493510957,38.4243492026252,0,S01
2900,0.09825387610173976,-0.08096619075466882,10.13619705287161,-4.199734647223692,-0.9310950530691755,0.938668208502119,29.05164443171699,-16.099366275783723,38.257403739023836,0,S01
2920,0.09868195458018607,-0.08744726170043295,10.14379267796913,-4.6734748023464165,-1.4496842786988275,0.3916207103753157,29.15226924769143,-16.734618705168447,37.865718654630626,0,S01
2940,0.10198331439385763,-0.0815500833183368,10.15136199263932,-3.8544387441904684,-1.3032817030382582,0.8182940198237557,28.98553788769695,-17.026422816915964,38.33838138981797,0,S01
2960,0.1038877952380312,-0.07513780162138661,10.139213008682614,-4.263632242849207,-1.1748874624678722,0.36636002627980374,29.517569046474286,-16.599572332480605,38.69854392157689,0,S01
2980,0.10683075338236178,-0.07869083962387835,10.138068992639482,-4.250581099351957,-1.42991313937112,1.2429529023716461,28.971501017619573,-15.705247781840608,38.00755957243246,0,S01
3000,0.09879597509761144,-0.08300793487195193,10.140387043009177,-3.906200368481954,-1.0481092796244103,0.6207732503429872,29.086804702287584,-16.452000501422113,37.639396723803735,0,S01
3020,0.10222022045274079,-0.07715488194921506,10.14082556466971,-4.1794444805938875,-1.0447376344730683,0.5412039590795432,29.5539936492135,-15.742894053734938,38.111328523050545,0,S01
3040,0.09561857327240326,-0.0824896421971529,10.142555092904402,-4.397836664646776,-1.1251419926413286,1.452138434579589,28.648155509650795,-15.713673242273607,37.22962318227192,0,S01
3060,0.10102532469044168,-0.07933981019737274,10.14607183127559,-3.921794303251834,-1.2390024800257637,0.24796115232668636,29.559218871722017,-16.523652115207426,37.98189062895758,0,S01
3080,0.100099388814564,-0.08284693651116305,10.15087568121548,-4.823881026950397,-1.4758855996009999,0.92885863125726,30.096780094617795,-16.80909981258558,37.82744201989162,0,S01
3100,0.09951923266864722,-0.07341819388524688,10.139961218214703,-4.490271064710578,-1.150262632494276,0.25128212738798894,29.905367891331412,-17.2706642650774,37.71870546957959,0,S01
3120,0.10360098710336266,-0.07781822310351288,10.139547349545978,-4.490231154198342,-0.8844878251050474,1.213442964705255,29.951641608526213,-16.553957805400994,37.592787529913714,0,S01
3140,0.10054022553951242,-0.07939758549768326,10.139409727608108,-4.437278937030874,-0.5199201546961475,0.9529923317123536,28.47616633694627,-16.744126997631284,37.307844214793285,0,S01
3160,0.09471826193047912,-0.06782820945870802,10.144931164927788,-3.5921295822482673,-0.8462768928644345,0.8665675833122626,29.406252739976427,-17.087381465039996,37.048363340579485,0,S01
3180,0.09973098382324419,-0.0841295242979459,10.14193918824215,-4.376184762859644,-1.3059150225583038,0.9512472073238591,28.983300953763607,-16.85499778264104,37.881760913303616,0,S01
3200,0.10509727370496587,-0.07862413090940232,10.148092214310285,-4.567666850083535,-0.9542361306555283,0.9225288303155517,29.84954482743567,-16.248013184559525,38.377513976048114,0,S01
3220,0.09595284974235428,-0.07326214117866392,10.148444058164792,-4.419366676589578,-0.862901124060993,0.7181240271080724,29.371296024854093,-16.765190008901893,38.63178794083339,0,S01
3240,0.10866180809252018,-0.07544636365716167,10.141720844715943,-3.6999529873438157,-1.0893622038927666,0.7962085031946539,29.43472620653087,-16.426889410233215,38.41908119948125,0,S01
3260,0.09550829912792455,-0.06956041706673803,10.149889373857572,-4.344702160679223,-1.2044811859351496,0.7290566410997712,29.340988121458576,-16.075724842546343,37.399216701748635,0,S01
3280,0.09936998643774783,-0.06655623037704753,10.13006634451255,-4.355793982402709,-1.073291756028316,0.7599311679100886,29.863062430217795,-16.24781902234612,37.29999381590912,0,S01
3300,0.09469454385884364,-0.06197789243871998,10.142527577527625,-4.290387423478369,-1.0987893927416847,0.10347607446264234,29.956675865254002,-16.475538269575775,37.92924459384523,0,S01
3320,0.10199614138552753,-0.0779994565052332,10.140265262335625,-3.999114580838075,-0.947887542608984,0.26978292091010375,28.928731546063897,-16.049238657067338,37.39597483392543,0,S01
3340,0.0991521461641768,-0.06381410615600265,10.145932855263334,-4.061652001188775,-1.0399482563651794,0.36283753942492636,29.846868394443536,-17.0514905681314,37.6711562117146,0,S01
3360,0.09314293400830145,-0.06749229203086603,10.154118570934525,-3.671207751103381,-1.4822905727858147,0.8255551902703923,30.170876751317365,-16.254416396082412,37.60390820206586,0,S01
3380,0.09958364827487622,-0.07304936108092393,10.145810797463477,-4.294868057512177,-1.359293453908064,0.8765746809210566,29.574386940753666,-16.60255525558513,37.397136001964085,0,S01
3400,0.10013798598192794,-0.06554734318847988,10.142510115393428,-4.381152476008466,-1.4119141872271062,1.1084389627208708,28.829350737712705,-16.699735105044663,37.42305435640675,0,S01
3420,0.10166369478912683,-0.06982559172456214,10.15121522937888,-4.0344563908972635,-1.2949201462966506,0.5546854912730844,28.928727529423295,-17.0157545056449,37.36441725719485,0,S01
3440,0.10385406541087464,-0.07241531157884103,10.143672473590046,-3.933581430642441,-1.2486669112782516,0.2641629033132726,28.650840453177153,-16.087519079876724,37.70758762530482,0,S01
3460,0.10607581244190835,-0.06397635892221078,10.136237905739446,-4.304768517557161,-1.2004558249787032,0.40019746653719346,29.193427335867405,-16.277337972206887,37.709515630777865,0,S01
3480,0.09910626701646184,-0.06529934457688778,10.142379937430132,-4.236961631056591,-0.922323225431764,0.24851538051390082,28.917600556402814,-17.453307296841075,37.88118783198292,0,S01
3500,0.09644447602368295,-0.06296029353441254,10.13619352026268,-4.519865453508833,-1.3726209996607577,0.8027421323813041,28.67541542336833,-16.175902340304205,37.753939523876966,0,S01
3520,0.10561951511645928,-0.0659548276346685,10.15074520927837,-4.274110243986604,-1.6066158572114375,0.39653763541958476,28.839176969032245,-16.119177372129748,37.66886946327661,0,S01
3540,0.10166634071355127,-0.05511013129725392,10.142155874896764,-4.3348452972584095,-1.3580423422271253,0.48832793159225274,29.524616070210758,-16.531726677760634,37.61159104831258,0,S01
3560,0.1054220901529102,-0.06495285359052679,10.15085896937692,-3.844840788666235,-1.6584165611305985,0.4754519181191236,28.99181654630983,-16.94704805259098,37.5958446695376,0,S01
3580,0.09041231559008552,-0.056332367200830534,10.140409828557308,-4.273417398633742,-0.9390981187059293,0.5412808300641473,29.033130379964305,-16.97439384444884,37.1971701734162,0,S01
3600,0.09460667167536825,-0.0648348796023771,10.14667845734558,-4.558005175887346,-1.090983260177881,0.868720698813424,29.13639943915785,-15.944474114159082,37.10182069039671,0,S01
3620,0.10268468960650229,-0.05774390060954874,10.148381852001068,-4.219526704319129,-1.5753907748597398,0.27375278664210445,29.780001517934902,-15.652464185479491,37.62373958170478,0,S01
3640,0.10475044688050322,-0.060684697835909164,10.14189767914851,-4.610899541278652,-1.3806921002817596,0.3438022072020201,29.62610974015063,-16.986002065869634,38.483559027329164,0,S01
3660,0.09352573535752903,-0.05944218929457769,10.143117718734592,-4.044980324357239,-1.0067435567371463,0.5005558464848058,28.93256305716839,-16.874206533851197,37.2808232981244,0,S01
3680,0.10546037877462598,-0.055307808762498495,10.140553376315433,-4.3528545253038855,-1.2863206619510632,0.525053867008055,28.783082468498726,-15.976650925269686,37.35022953205979,0,S01
3700,0.10528626791254532,-0.05691399294659425,10.149036714331777,-3.7073521010067125,-1.6065419689630644,1.0709405069204525,29.81163561299586,-16.40751917126568,37.34424711713614,0,S01
3720,0.10658334283703545,-0.05308595653617525,10.137440056713475,-4.219840427187026,-0.9210418393081108,0.7963302554942353,29.403265394054216,-16.17235050536666,37.3602298972864,0,S01
3740,0.09743688258347512,-0.05747087860123459,10.149792046394555,-4.403058963104752,-1.5961510094085503,0.2718250985614416,28.448656327234097,-17.103971246866045,38.35649157765659,0,S01
3760,0.09112015682969189,-0.054082253281733925,10.156080489611648,-4.082322981985932,-1.1040692478639451,0.8911536018795022,28.971083718254476,-16.084331436858484,37.25446441269587,0,S01
3780,0.1055112592563642,-0.05640690495611642,10.146481684532368,-4.445252656825557,-0.8842897285599209,0.6174682500924654,29.29497343600318,-16.218929534667737,37.785373694535096,0,S01
3800,0.103138668882544,-0.05035237106465969,10.146626251715306,-3.550498854800478,-0.8261361068655597,0.9983295171385581,29.185956514069048,-17.41034306146485,37.662141151614435,0,S01
3820,0.10877008104529742,-0.05523168506332097,10.150109976528594,-4.5286057549157075,-1.6249531443617533,0.6813295064515829,28.70725040669077,-16.36359571963129,38.38373360462664,0,S01
3840,0.09766102838013926,-0.04998225993174105,10.146514400443154,-3.9511170825319457,-1.3597582342794237,0.35379734962194376,30.351731015016465,-15.854335053761643,37.27401921517682,0,S01
3860,0.09839542801593971,-0.05154846745313767,10.147391855426331,-3.896450630930432,-1.1614278274567573,0.11785050003619646,29.45694368816254,-16.903742474379648,38.03045853151548,0,S01
3880,0.10057385958891728,-0.05809315416690422,10.138057870825879,-4.077789166952225,-0.9433937154542822,-0.05103562810086959,28.952762600677435,-16.529155147162314,37.88312893607484,0,S01
3900,0.09781844919577093,-0.048410777393036515,10.137716531212996,-4.988516507329727,-1.2515115691343512,0.5484569003835656,29.890832816529336,-16.62260704371709,38.24202373934225,0,S01
3920,0.09767633099901105,-0.05586077689228713,10.14433394255658,-4.506596064871181,-1.088930324865237,0.50896444918991,28.499113216236864,-16.504520333841214,38.115169689359185,0,S01
3940,0.09544047776292307,-0.053037291656920844,10.144802858213295,-4.198624340352975,-1.6176478564307628,0.749265771243228,29.164557150715407,-17.010494601444613,37.22578086118648,0,S01
3960,0.09866884729705395,-0.047728414925910054,10.154468306455115,-4.072359447734492,-0.8518235649799464,1.1523043902284105,29.278406234903592,-16.683935942845565,38.12267130818469,0,S01
3980,0.09576113038663428,-0.05158324049398821,10.145698190814977,-4.167279171707901,-1.5792669590437094,0.8912866581286873,29.472096683031445,-16.81719272468912,37.69084890783984,0,S01
4000,0.1025184546327484,-0.044526786279073825,10.14979455789802,-4.649148238066858,-1.1714162319410903,0.8258579582482658,29.118686168872017,-16.01836339760552,38.10316931243684,0,S01
4020,0.10500377021085897,-0.04554531735549246,10.14791773699561,-3.879904977554789,-1.7101193513084745,0.6627666080199436,29.161866592375944,-16.738717546421462,37.61782179569521,0,S01
4040,0.10075884044951676,-0.04533856083633308,10.138602831190523,-4.506020167429007,-0.7370053406185597,0.7536881772417419,29.40222757576775,-15.965976345644753,37.52955573005819,0,S01
4060,0.09987763400637784,-0.05153224464650384,10.14363737668491,-4.111855929991944,-1.2215226392792193,0.0010054630182980695,29.03215612367015,-16.2955164331578,37.90161769141909,0,S01
4080,0.10812277970631584,-0.0537097343057855,10.144259939984046,-4.626471699248938,-0.6906723386368653,0.10991401593941658,28.882614349009057,-15.434392536356132,38.822616488247526,0,S01
4100,0.09480430356465412,-0.05372687747397286,10.142450866704882,-3.639083812502482,-1.3572627708750733,0.3843625196213274,29.110745146019497,-16.92759079855473,37.87209367871895,0,S01
4120,0.10439714268171088,-0.05169923559995568,10.150520740616962,-3.9142925121582066,-1.0580284659222465,0.5306459211788449,29.859340927326368,-15.546400837070747,38.178275682916585,0,S01
4140,0.09759573102552932,-0.04363294890935103,10.154093887602947,-3.998687441214263,-1.4306207074636332,1.191192124745059,29.505710202677285,-16.662601835754195,37.903587839111786,0,S01
4160,0.09687171014797423,-0.04217838981913769,10.142152152581657,-4.079600971566132,-1.1858658399603912,0.8193586590662645,29.49031788692703,-15.82537065384204,37.754221306244055,0,S01
4180,0.10604334922914645,-0.053099492439507734,10.147349724135443,-4.164976629286128,-1.5151315686708247,0.9393585832166605,29.855405389978174,-17.138740946448195,37.9443286608659,0,S01
4200,0.09839775233317476,-0.0472511302211236,10.150887267894381,-4.032880487280214,-0.9300096022806266,0.8111767019470898,29.124199212979807,-15.79301616896997,38.220397894653395,0,S01
4220,0.09636270284711751,-0.04714820500983211,10.14268330240169,-4.405191356703304,-1.3270778367494867,0.724627568223267,29.129648688983327,-16.592755237612444,37.659718935507435,0,S01
4240,0.10869377655242576,-0.053681765479638904,10.144695890864181,-4.2569550231970945,-1.2064166421112221,0.9331209143761549,29.143450503149253,-16.531569079798786,37.66495171986693,0,S01
4260,0.09984804443677382,-0.05568928441109028,10.145105689760156,-4.268223929916385,-0.7780220818436203,0.9065216938285674,29.922704017360577,-16.623943688414627,38.04427838336551,0,S01
4280,0.0961077772178495,-0.04894482917738083,10.137537006504518,-4.876088214064906,-1.4189327106891594,0.43339657495961564,29.824325050140946,-16.54051039554083,37.16969298023183,0,S01
4300,0.10337014295157687,-0.05577993357949099,10.153210938046861,-4.113454460612512,-1.3498807951088083,0.7651858828826852,29.47617857739961,-17.254909184879068,38.17683031250048,0,S01
4320,0.09755656886319226,-0.0512831218478752,10.146307872818719,-4.089415260985141,-0.7437401284163083,0.3212778075440651,29.17771238027569,-16.054096050011882,38.08094042909877,0,S01
4340,0.10262220106617795,-0.04943912182899654,10.148701184777968,-3.807474557145909,-0.9693168759935435,0.8025236703795569,29.29100132949167,-17.13343700112454,37.634935375791386,0,S01
4360,0.10810973220182207,-0.06155958906685971,10.153579279367214,-3.8834304173749707,-1.737237759811182,0.42026406712581965,30.042147212821465,-16.23275675552901,37.884916892408874,0,S01
4380,0.10484758401983142,-0.05259757755718621,10.147362524265159,-4.746538564401152,-1.0990253912801748,0.16628620657685883,29.77023379087621,-17.09139529454174,37.9883356094418,0,S01
4400,0.0999202550495609,-0.04978850712016386,10.14186747277869,-4.191795788241896,-1.3161005354258122,0.396038046661355,29.340960937358282,-16.48670488606364,38.545999663867384,0,S01
4420,0.09467054099830854,-0.05486980241475445,10.142888595870724,-4.525249410861042,-1.0805226411528481,0.5251755258514347,29.83524024705039,-16.430869566283597,37.55710075283157,0,S01
4440,0.09145858368559341,-0.05807209849841456,10.135993103551925,-4.053590332092001,-1.1673172454510068,0.4371577949228152,29.271208467511162,-15.795352983301418,37.84459753095075,0,S01
4460,0.10077528682404785,-0.05495561175253469,10.143234996629907,-4.713827166432315,-0.7625308407947837,0.47376276109169335,29.145484829480235,-16.464933224716177,37.97670668334032,0,S01
4480,0.10200464612861276,-0.06078034046367368,10.147349799121024,-4.798462544346914,-0.9172162595508886,0.9436760079790051,29.629684539083577,-17.24979210135914,37.03011082494363,0,S01
4500,0.10394893264196312,-0.05663718170068525,10.152306870074472,-3.9778308710153967,-1.7730441863520086,0.7416834428478841,29.225321232132558,-16.810775286919696,37.3185546982293,0,S01
4520,0.09953884072300924,-0.0436190262715659,10.136953889820488,-4.211561603132256,-0.8668681206821607,-0.12420282803970939,29.105672475298388,-16.89207569165725,37.93912678120113,0,S01
4540,0.10068825280003861,-0.05310767873655113,10.157222415994339,-3.9252525812870482,-0.9008891614017973,1.458133357788507,29.624792430017607,-17.454276850235864,37.33656838835252,0,S01
4560,0.09402906708616905,-0.0566259606625009,10.142234629043267,-3.7046425004866164,-1.2343936057932383,0.780204741232157,29.267852730614134,-16.767076964999973,38.111624155011455,0,S01
4580,0.10262441042091594,-0.05220505212541619,10.150173214030056,-3.9579619944456743,-1.3356800428951803,1.0101344729770414,28.49506702832448,-16.582352669067866,36.91571052126122,0,S01
4600,0.09561355824495077,-0.058639952948713055,10.15277279591538,-3.8650429731839187,-1.322636765355981,0.6673707169960912,29.305129664570188,-16.007184543980884,37.669919232063016,0,S01
4620,0.09801853851528712,-0.06107060382056869,10.141799515504344,-4.4298708701952405,-1.5910694605665747,0.2662294106254092,29.20480973048854,-15.663418489796857,37.76934250168732,0,S01
4640,0.0952482472465276,-0.05287291778588464,10.15080485204366,-3.7322975150549564,-1.5269737324089752,0.8110197478706233,29.417461711598673,-17.10922845705671,38.44906821958036,0,S01
4660,0.10494277905525802,-0.06609575852955696,10.153586454148405,-4.301478961414083,-1.176720464971473,0.5932768670866344,29.262595846128743,-17.20008006235766,37.70898374992397,0,S01
4680,0.10837007041852244,-0.05621749379089878,10.157030558037752,-4.516870002241056,-1.4872565737309145,1.0299394127007766,29.3916442265827,-16.411077432501173,38.36374813685816,0,S01
4700,0.1003597786931158,-0.05989614663165835,10.1426674490105,-4.394550136676678,-0.15520494168682664,0.7299741847059629,29.150126625169182,-16.519807424855543,37.65407559308737,0,S01
4720,0.0992301251691418,-0.058233639834257375,10.145916024692333,-4.297060913162165,-1.4072156229786588,0.8205310983880858,29.64339110799801,-15.547082502789586,38.800586275790586,0,S01
4740,0.0925956520315952,-0.06969392989248968,10.140433179677768,-4.1681896097232105,-1.174981754552765,0.3609498072728302,28.669324250539383,-16.40950447649241,37.329866679063294,0,S01
4760,0.094064923945048,-0.06313433239696557,10.144458495680906,-4.643848187389572,-0.8997887503619642,-0.037161024673231235,29.189604970716825,-16.511442938534394,38.565258299163595,0,S01
4780,0.1070632968720466,-0.06696585766305017,10.1420973315086,-4.365734454703505,-1.4600556893647296,0.9916729290503621,29.478847328945108,-16.344371718908988,37.48653932747475,0,S01
4800,0.10199992640423279,-0.06459589597487496,10.151073351076791,-3.5551857378327743,-1.4212908964269728,0.7130774882003563,28.896306362089717,-16.112591171836023,36.96605407785118,0,S01
4820,0.0939516853102826,-0.06420907262273258,10.139378892812497,-3.9805234130077185,-1.2113823778556563,0.8270430292054192,29.303488439579905,-17.204536945235915,38.68933876059203,0,S01
4840,0.10888473882457055,-0.06500573190225707,10.149866711582968,-3.92649015959574,-1.40257820812944,0.45526389958593716,29.234117441163743,-16.66656109316333,37.4814562590131,0,S01
4860,0.11212982002771335,-0.06922918135357542,10.152932017831372,-4.075890186076979,-1.1894885080358995,0.8425348720395934,29.46682601550968,-16.170928256214186,37.42093847440382,0,S01
4880,0.10515460110893432,-0.06699626918812361,10.15376829296697,-4.29228869864362,-1.5504520300108438,0.3256003084887388,29.52300846639349,-16.096818343116013,38.017198356288176,0,S01
4900,0.10240553368286401,-0.07793175271395689,10.150878408675533,-4.781424112709619,-1.6020450427970143,0.719112240310494,29.873102901764856,-16.91221107039324,37.685980249501476,0,S01
4920,0.10515617700574606,-0.07034448013570918,10.14900992154458,-3.955938116041238,-1.2148048066860218,0.5393261216606033,29.201280503011862,-15.676736240496252,38.07404286284841,0,S01
4940,0.10583606373115202,-0.06770679911071592,10.140272419056503,-3.957775383075438,-1.3745804090637082,0.081225327326926,29.29632578559521,-16.48667989010722,37.78297197216513,0,S01
4960,0.09121655877531887,-0.06670387122825398,10.146787283236286,-4.07466959232616,-1.0685859693750612,0.7732429791596367,29.785284454629185,-16.616296537680483,37.97973942969013,0,S01
4980,0.09232178911520461,-0.0737753047942688,10.148331837791792,-3.9142217338227914,-0.9856058563101736,0.6100688769683402,29.447858777027164,-17.01393150918569,37.58774401512923,0,S01
5000,0.09187092779784321,-0.06869029014235875,10.151017700053025,-3.75244368648142,-1.0911442469313255,0.5132519749836915,29.86848549481605,-16.613410059188922,38.00281996102925,0,S01
5020,0.09605425675952775,-0.06727171504104561,10.143076006062804,-4.414175190526509,-1.2038938512111512,0.5565072088669423,29.112343278753283,-16.877569802833044,37.194908443156045,0,S01
5040,0.10214436464349418,-0.07039040387353829,10.1430293887041,-3.5917785558665614,-1.8196421644155576,0.21424989870798494,29.18226021595058,-16.478516141631744,37.765273897555375,0,S01
5060,0.09206013850098822,-0.07398923624182943,10.14136435322133,-4.321751563109896,-0.824346963876134,0.6603827061917875,29.07570435357098,-16.946634936422377,37.93879478572501,0,S01
5080,0.10069108042311123,-0.07294929748481851,10.149753319889182,-4.179622065850737,-1.0711782614718144,0.4762369719099506,29.4675348364326,-16.526044071101115,37.3688728183181,0,S01
5100,0.09619612205783862,-0.06985060721317977,10.142586412817225,-4.029910359351368,-1.3880410194152448,0.7106975068253449,29.389124966577658,-16.2359795408969,37.60704676552323,0,S01
5120,0.09936784803154217,-0.07413704320898114,10.145198811977002,-4.152345756522639,-1.1172234408106831,0.3007469245174045,29.60159691935369,-17.022934033140594,37.517500499020194,0,S01
5140,0.09356643779071527,-0.06966112096170796,10.15187602026893,-3.497996882923575,-0.9460772889914302,1.2621619854772326,29.708656966431306,-16.992248833947194,37.65573473813419,0,S01
5160,0.10135054103673133,-0.07222648725423417,10.149174921850046,-4.111420196466684,-0.9747785203237851,0.7458617626919652,29.00777662232994,-15.837576795168097,37.73478900539753,0,S01
5180,0.09983279661208785,-0.08044751734473815,10.145115002845095,-4.398843843860726,-0.8311100474423634,0.8794783619258488,29.542523028199422,-16.20555349560747,38.1872934199733,0,S01
5200,0.10227851607264837,-0.07007978129636369,10.137932968811405,-4.490205532466773,-1.721249176337015,0.8093907081136059,29.17518648787961,-16.52330094132539,36.92059841778995,0,S01
5220,0.10416801912671296,-0.08046205611688843,10.149104012602274,-3.9704799321638244,-1.3265194561974876,0.7671402745634688,29.310090196496084,-16.505437788753408,37.95428598390597,0,S01
5240,0.10207440007758131,-0.07934083995457426,10.14546550647635,-3.805819553914276,-1.1068302703435966,0.2675871528211529,28.312636365102748,-16.86451498036468,37.8797116023953,0,S01
5260,0.10050818812787783,-0.07680226212304718,10.154221453389356,-4.62186966334311,-1.2861151566036169,0.24511599876903317,29.0008823936492,-16.283597330127506,37.53211819026196,0,S01
5280,0.09761501495419352,-0.08308514629301346,10.148744726831353,-4.1206044708130385,-1.981842585450356,0.3257687735602286,28.981866140330286,-16.72725077568169,37.07558687679114,0,S01
5300,0.10365296445318953,-0.07844611622943459,10.138806650244417,-3.8953990980362816,-1.5642504044944348,0.9075673645227758,29.092931567541726,-15.99805129965051,37.77839221056755,0,S01
5320,0.10167527300465168,-0.08307784447110778,10.151619235264933,-5.015812300764127,-0.5134146261777792,0.5262802456485809,28.67119558892303,-17.55973418042512,38.15308037841211,0,S01
5340,0.09919941919536253,-0.08339994505321725,10.146591158124776,-3.9819214046603744,-1.3021258023596893,0.8940325607656698,30.303649849527606,-16.779526997501947,37.712604129204756,0,S01
5360,0.1023560300841929,-0.08146696587025136,10.143790657307918,-4.152687258221925,-1.3704726276287005,0.4485280033008926,29.05067816879072,-16.967966467529195,38.03693080447261,0,S01
5380,0.09420580968535343,-0.08155652246990722,10.147653743496896,-4.001152051353459,-0.9827417245526007,0.2338478775054766,29.490854123812444,-16.495196579290603,37.994779933675666,0,S01
5400,0.08758861600092291,-0.08225605489100589,10.137498294005226,-4.206638576086798,-1.616368490153846,0.8666995628126367,29.903645758911143,-16.160868896203482,37.80696067578851,0,S01
5420,0.09677719503509341,-0.08200970402805116,10.147854306420706,-4.090747664920619,-1.2193711942285352,-0.0219638578084983,29.135353098812498,-17.321928061852372,37.64007346385767,0,S01
5440,0.09765587638627884,-0.08354766903827816,10.1429118493115,-4.535425313209808,-1.1954914803529073,0.504916513510413,28.608481316202393,-17.059530350758397,37.72417994424411,0,S01
5460,0.0934063391622851,-0.08103217124451378,10.141397739073934,-4.85180918743532,-1.3508897141844338,-0.1168861984187416,29.12394850522824,-16.93123515313257,38.485512504727836,0,S01
5480,0.08608273148343121,-0.08441656082529221,10.139342441455646,-3.8878527905289584,-1.146718780842042,0.944086667827608,29.30525958415041,-17.45015841298709,38.353389676040166,0,S01
5500,0.09470956318004047,-0.08620720002327066,10.144431429860001,-4.188272318766021,-1.29920821686637,0.6181534980525681,29.015660698701865,-16.868881199608445,37.79396835569976,0,S01
5520,0.0908661176884822,-0.08716007412097235,10.145101520831311,-4.483214698452067,-1.3561150455794246,0.7039847543746239,28.3650213256358,-17.3463852068637,37.097717658262994,0,S01
5540,0.10502466926944415,-0.07512086838942812,10.147189456408109,-3.91365288055888,-1.0601193861425644,0.6705004350712584,29.28263379139122,-16.13905572597602,37.75832285767721,0,S01
5560,0.09762410394677361,-0.08514624571187582,10.139772860196695,-4.634936948776087,-0.8591802410122374,1.4820737171399974,29.49274109207524,-16.513412374488773,38.220188859840285,0,S01
5580,0.09822683731669915,-0.09157976052989085,10.140018618208153,-4.228974761288145,-1.5145339281997678,0.36732965978947046,29.063454288414214,-16.69474513059775,37.63912257563248,0,S01
5600,0.10166221252070858,-0.09172604564492337,10.14702688546524,-4.229108357277424,-0.6911851360024607,0.4399287236925291,28.87220253691553,-16.343106042468207,38.06826599456344,0,S01
5620,0.10243109817844911,-0.09159329979453296,10.147176893229766,-4.4653670299735575,-1.5048531247597663,0.6268282074116132,29.882093056138523,-16.57579901333381,37.553920482219304,0,S01
5640,0.09610677002522225,-0.09316324379415782,10.144896695917808,-4.15206961974229,-1.1018644195237066,0.4905835124778191,29.142939033871784,-16.956196806171167,37.71968908837805,0,S01
5660,0.10507152951052787,-0.07742775624579819,10.15785107536598,-4.336329399782953,-1.4642414989766235,0.9310880827263743,28.769269248379516,-16.535810477871568,38.125406650333694,0,S01
5680,0.10121122513592103,-0.09067493240202362,10.14280263590077,-4.561604504900263,-1.4307245747902073,0.9448189689113651,29.14508626259926,-16.820824083694447,37.33559431632175,0,S01
5700,0.10428637494645188,-0.08779415221244433,10.142562057365714,-3.5472664479010074,-1.4003918279488041,0.7042643441266054,29.114308814506437,-15.999422821385796,37.7965152295618,0,S01
5720,0.09948417929628237,-0.08422270846055671,10.143999002899488,-4.252831100105755,-1.1443320564323867,1.3290073494382069,29.641516617254563,-16.2325227458253,38.11915825221597,0,S01
5740,0.10540741023168293,-0.08990713665573802,10.141518395495261,-3.5503653123174272,-1.3572825640310557,0.7090627411859776,29.472091290354967,-17.210862821341962,38.338100774108,0,S01
5760,0.10048885927040987,-0.09831050452585631,10.137674777449808,-4.466818809594005,-0.5584688359004936,0.37923845676021617,29.12439574619154,-16.183066235402176,37.65605193200941,0,S01
5780,0.1072037229147176,-0.08530184307630695,10.152949709892667,-3.964671662230002,-1.1996091219867508,0.3646713009214513,29.305383941813787,-15.952462720520824,38.129450906311284,0,S01
5800,0.09859274327210742,-0.09426590017905004,10.145248667798585,-4.364207305840008,-0.7839517777215441,0.7743795093328492,28.997819041284785,-17.451517004775067,37.940863509783284,0,S01
5820,0.11382821903676392,-0.0803889517796783,10.148557656328176,-3.763645146358689,-0.8699623084879196,0.9030822790384082,29.47117755058933,-15.618721683623361,37.256644799931784,0,S01
5840,0.09519127286582274,-0.0862998560760904,10.14155171298511,-4.187753987416343,-1.0798463186513856,0.48876763983409427,29.46038454719536,-16.71925096829578,37.44228770031145,0,S01
5860,0.10306017280814542,-0.10079464257518651,10.153176045681438,-4.122669661854572,-1.303523738492811,0.5031797205484315,28.75437516431034,-17.145651787236893,37.91476169724717,0,S01
5880,0.10312496858025065,-0.09028585377254908,10.14261217255325,-4.553355731376316,-1.2823612937055444,0.9767501924020986,29.193374109630977,-17.645516470372602,37.71947033860578,0,S01
5900,0.0922543624715555,-0.09033048093126456,10.148835198225365,-4.424521042646742,-1.386857557451188,0.5495721598472727,29.530719372200526,-16.993603226896738,37.61456806260833,0,S01
5920,0.1027321253844987,-0.09438581142561932,10.15212798440759,-4.982360133323885,-1.27449524915785,0.617266285508931,28.595413773104,-16.98164510639973,38.00145852517987,0,S01
5940,0.10076903106779918,-0.08722680964844602,10.149880174382634,-3.9334411465478967,-1.6430542233101313,0.33506383597457495,29.348854130942307,-15.90938607995973,37.539595103623654,0,S01
5960,0.10001453384886705,-0.09556173000310367,10.145384034460772,-4.452611027071174,-1.0096627918009076,0.08608478419651322,29.66237580738824,-16.237232131931503,38.6864026877918,0,S01
5980,0.09700496090297081,-0.08830468231416937,10.147334623236429,-3.9884747759048733,-1.6630279541652255,0.420478343559876,28.364037982148314,-16.153285753406205,38.38869205434229,0,S01
6000,0.102578513971302,-0.09289281478390422,10.142530143672051,-4.526300689914613,-1.3920921812772988,-0.05134095821163931,28.857402359508896,-16.605406127977897,38.24878566885957,0,S01
6020,0.09973514937944983,-0.08477965520311945,10.151276047367618,-4.271262437900217,-0.6258707539483671,0.44560819870313606,29.59720505932242,-16.847865099142354,38.123893642479146,0,S01
6040,0.10063742940658789,-0.0852236794417479,10.150683051461721,-4.154688680652402,-1.4246678579069127,0.9807781768503541,28.57517641369557,-16.16701016514469,38.23576826908328,0,S01
6060,0.10509162494921896,-0.09240973456110715,10.14345520635006,-4.244769686546016,-1.3250256595370067,0.7447850617433432,29.363414084145006,-16.577028968923173,37.93320223142177,0,S01
6080,0.10895122181090315,-0.09026716339627795,10.145999627713698,-4.2573789616611055,-1.0510897055973296,0.470975729839357,29.01304742585324,-16.187647263426037,38.50968068769264,0,S01
6100,0.1041088680467072,-0.09021098607542538,10.140668925912497,-3.773902229487539,-1.5167886743001195,0.6212082108244737,29.159889939856136,-16.366547673115406,37.1391842581454,0,S01
6120,0.11129890782995532,-0.07728878434954627,10.143898334237303,-3.8409516930419914,-1.8556305448613664,0.6980029617862792,29.909662574338768,-16.24470469873761,37.58761868765046,0,S01
6140,0.11022189314100572,-0.08558084328883822,10.142080699137841,-3.769517713230819,-1.2595838990153905,0.5182276168264509,28.57190661007407,-17.04924397086446,37.54095040353696,0,S01
6160,0.09681376021332631,-0.07109900188157663,10.139783047431212,-4.199046466757643,-1.6925659933292343,0.7570818091798068,29.626574177025162,-16.333805466294987,37.678839216222585,0,S01
6180,0.10144795650399684,-0.08749825385352045,10.153205255475847,-4.349494489278951,-1.3311389996639524,1.06426744049375,28.96011247122905,-16.657633642731085,38.209492528383066,0,S01
6200,0.10001317465240316,-0.081025823126993,10.146126917127283,-4.491961195291601,-1.7068574568608965,0.5202849964305092,28.815054241612373,-16.278772746577843,37.33121373313727,0,S01
6220,0.09543566742663563,-0.07458707522673313,10.140218120144917,-4.1618420273958385,-1.4028091258531379,0.834093680649366,29.224001807841038,-16.91463984554908,38.19976941425794,0,S01
6240,0.10248507761656703,-0.08538938201162923,10.145521052561097,-4.277870960862374,-1.387125601586127,0.49924084581915984,29.11712233276942,-16.90743720857344,37.731724937640635,0,S01
6260,0.09755036842437952,-0.08803376687266959,10.148121131577993,-4.25393280613586,-1.3947223695415831,0.8359350250522553,29.038430596902245,-17.473346388033377,37.65825922477208,0,S01
6280,0.10487536011152825,-0.08740482570960419,10.144142988039798,-3.884109640762462,-1.0348014785410744,0.6311414846457282,29.729553616393627,-17.074144602578173,38.00351361642615,0,S01
6300,0.10033915910459405,-0.08350424224430193,10.145954301503409,-3.652665994041385,-0.9973578270519763,0.967354464046571,29.745766034003296,-16.373319353530434,37.11642933510277,0,S01
6320,0.09701672423918509,-0.07625926992268064,10.143814345691347,-4.042327335703655,-1.301581842323444,0.45549878670830035,29.26454213597651,-16.46304217049141,37.96909359424212,0,S01
6340,0.09400336549294253,-0.09036593200996391,10.142363296289165,-4.300973698162473,-1.6370194487250995,0.340881762640582,29.127967928377302,-16.24650776387287,37.74399735577136,0,S01
6360,0.09534272410086367,-0.07872819605226848,10.142442629474838,-4.015396660857089,-1.4594969768209831,0.6598285735267091,29.605190448682276,-17.181219124392697,37.96570311271184,0,S01
6380,0.10246122729392818,-0.085659348262112,10.147268264921715,-3.8264901948913312,-1.2251284186346578,0.42237101366434915,29.239554761827165,-16.982824072328164,37.371807536300324,0,S01
6400,0.09204488767043738,-0.08741666582655253,10.137212641564151,-3.7809278764952188,-2.0620606949824163,0.8054971402730238,29.081151200487483,-15.620551274647465,37.495545492821556,0,S01
6420,0.09689742173677579,-0.08179987740174224,10.150063153215015,-4.139733591493377,-1.598009027215991,0.7671674997650453,28.573175398029996,-16.246601949555107,38.21159650634443,0,S01
6440,0.08161887236703069,-0.08206592063879245,10.149099297865963,-4.099882840605072,-1.0131968369974333,0.9201644598923516,29.16241160237427,-16.385233852071377,36.828847392921055,0,S01
6460,0.10282458798878602,-0.074010583907587,10.143020635211355,-4.206500754178953,-0.5361838313462599,0.04944483934108801,29.702285903148752,-16.427263372235913,37.36334962438833,0,S01
6480,0.08832776857218524,-0.07760994812206272,10.15339523365858,-4.523530328224142,-0.8900932399182404,0.30337978539999033,29.335347860448845,-16.94558556637375,38.34625358670383,0,S01
6500,0.09814768699706741,-0.05925957229851986,10.143614590019952,-3.687151240315586,-1.1300053750276635,0.38324853664978165,29.226456488202842,-15.670646110009212,38.391719575330185,0,S01
6520,0.10245104255880043,-0.057828826868502714,10.135242864996993,-3.9833192881491097,-1.2707023932325403,0.6691069068801254,29.162116149426474,-16.093556732822925,37.57484874624693,0,S01
6540,0.10992571273472022,-0.08303853137324038,10.140084178748241,-4.454536543613251,-1.5378072588929566,0.3829500134526873,28.755930125771336,-16.898776626552927,37.672277164000505,0,S01
6560,0.10407243519901647,-0.0875767518045178,10.146977419963354,-3.447663074578816,-1.084702107132381,0.2104196521160916,29.79714394237429,-16.584623877820583,37.88550920463299,0,S01
6580,0.09352684705247936,-0.07100725905011743,10.143954528382517,-4.1697213996175115,-1.6320301911784867,0.5171288746522886,29.485419260631893,-17.29760794486058,37.55670718908292,0,S01
6600,0.10813629681275322,-0.07837696403867424,10.14443520176012,-4.503530969934733,-0.837352190090201,0.566466358105451,29.28856861310593,-16.001039591291047,37.3064681026093,0,S01
6620,0.09784007363033341,-0.06904247546368172,10.145507558624374,-3.9139649635383296,-1.606899015014572,0.8736186201225785,29.24862720197802,-15.785550290779753,37.33606743764887,0,S01
6640,0.09785011992948356,-0.07309122727113324,10.149304994150581,-4.712052686168863,-1.1132453307164143,0.5724533275437418,29.374855441796566,-17.08785861260428,37.89761692971672,0,S01
6660,0.0970769025006181,-0.06303098767217907,10.13887437912224,-4.499023916529361,-0.9921831556968477,0.48841954771662466,29.340926235711443,-17.494233491770576,37.98228729492131,0,S01
6680,0.09379769267102005,-0.06839967280295324,10.14719230360308,-4.357122769887025,-1.1112173859407564,0.7278707770017652,29.502757654395158,-15.976150081101173,37.73688418675281,0,S01
6700,0.10160452332244416,-0.0714683170609449,10.143558863698505,-3.8351019293201074,-1.168260710964353,0.9394165977203253,29.43780324511284,-17.238939386110232,37.97096043877556,0,S01
6720,0.10123258662068435,-0.06503293648415671,10.150665586773947,-4.096331943894914,-1.0606815424045757,0.6402497336023034,28.89344299507472,-15.396544483343314,37.34914652769455,0,S01
6740,0.10186118383022155,-0.06295116919709344,10.143619441502452,-4.399514750345136,-1.0870264500310647,0.23423784998838865,29.68799121427267,-17.296386374556214,37.44890962359634,0,S01
6760,0.09530369064179312,-0.0651519821085025,10.15315558350701,-4.245911446076232,-1.3282003509899054,0.28574186274514524,29.64041486443723,-16.56782418592556,38.01039315640824,0,S01
6780,0.09821736188264235,-0.06534364045556175,10.144510654315093,-4.470180009294406,-1.095438928480341,0.9753102029218903,29.800219060944137,-16.524656069532398,37.65754480568342,0,S01
6800,0.10034550786637389,-0.053971560227064855,10.1522137259502,-4.218444723972473,-1.1991186992469753,1.0853737317049124,30.010256484146794,-16.74950922677648,37.479958527222216,0,S01
6820,0.097590700882639,-0.06381669637509728,10.142294302625722,-4.254326429012176,-1.4892939623598977,0.8550025758446645,29.761928345648364,-15.377463232976742,37.762679590734805,0,S01
6840,0.0956781461130319,-0.06381487922998717,10.145097641516383,-4.299817141816212,-1.7618742333966346,1.715999008469098,29.122621072493555,-16.67062451300955,37.08537482742293,0,S01
6860,0.10208655210297146,-0.064706933213789,10.138238186648746,-4.1560860821574765,-1.7138965969115865,0.45886686022196693,29.709362389013123,-16.404364233593647,37.87102390659542,0,S01
6880,0.10223737061643258,-0.05940432697973597,10.147857601756998,-3.5007010584711016,-1.654815499348573,0.8166807596203673,28.73508140337224,-16.914444235844606,37.15719896750078,0,S01
6900,0.10928428190033485,-0.06368009878398917,10.144650567847055,-3.8389522300146353,-1.1284213734546042,0.7406596736202891,29.30706928188985,-16.064224526213717,38.441630703255704,0,S01
6920,0.09414184046036657,-0.06684741235775621,10.150459595482376,-4.164099144908416,-1.380600292402171,1.192407961328073,29.638734849259528,-16.438659926165215,37.12656839349952,0,S01
6940,0.10329469120510446,-0.058631308144751246,10.142183548146429,-4.351924175533133,-1.2543366345871059,0.5809413983446549,29.77524387399003,-16.299742747627064,37.91984095738511,0,S01
6960,0.10066676364334184,-0.05803704289174047,10.147791521592179,-4.028182629651144,-1.596902085337319,0.5597104822791554,28.808277368550126,-16.669332214938713,37.324595906619194,0,S01
6980,0.10469366448876949,-0.05644767049717451,10.148255001335437,-4.0346734048808415,-1.6346890656394244,0.32676357435386316,29.27048017489067,-17.130658667991984,37.80556574876838,0,S01
7000,0.10006369975163218,-0.0627424976259994,10.144254903274364,-4.078828151431955,-1.3350695076683323,0.7738256368585567,29.526592860038935,-16.785153985938408,37.51285738866733,0,S01
7020,0.1011813146121403,-0.05100225572545114,10.148331285341403,-4.518324695736932,-0.9360249730945199,0.5658363055572017,29.219462914700337,-16.664243824237662,38.12395213219424,0,S01
7040,0.09369695614778976,-0.05450634449111155,10.143718463497231,-4.601780040664741,-0.9267720912766404,0.7314941561075454,28.841591734400993,-16.300021935087713,38.22794405057365,0,S01
7060,0.09522252477964993,-0.054752449260596,10.144606319220166,-3.780874323807395,-1.2169080857075951,0.5047179216403674,29.470087619782618,-17.047622323000134,37.31938847438574,0,S01
7080,0.10001505381852921,-0.053892012526754324,10.145082299416828,-4.40017376436304,-1.5363938577286487,0.3210025826524152,28.63376059334924,-15.615343414652877,36.77955097422964,0,S01
7100,0.10255867543009796,-0.051175725318756235,10.144809378019257,-4.221197084969425,-0.8113526106944168,1.2902470831177482,29.647735361655762,-16.49963554292863,37.607732325680004,0,S01
7120,0.09912521917487321,-0.04967826135769379,10.136161235947943,-4.607589863285684,-1.1310279593867314,0.6892474925812373,29.21749309614483,-16.088512863987205,37.355695276213574,0,S01
7140,0.10544401493959633,-0.054581242201998524,10.141758213387797,-4.909808284904442,-1.5217775218897078,0.5107948689033622,29.03067593514671,-16.53864411905993,37.323400121404234,0,S01
7160,0.09789317984120054,-0.051746460512513325,10.149300280336758,-4.0734139769598565,-1.0916829703410749,0.4855104701025935,28.661026617641916,-16.40136583854707,36.742536147749774,0,S01
7180,0.09220976880911883,-0.04827889101232333,10.147217574343356,-4.685700050620684,-0.802878297903235,0.8545898143396936,29.55148726861823,-16.448903949438648,38.84439492898778,0,S01
7200,0.10036179426719485,-0.0625446283807804,10.152877824368773,-4.074698512329579,-0.9853805306506975,-0.1397556831144986,29.55261304636041,-17.155372996117613,37.74551437688832,0,S01
7220,0.09857598237825535,-0.04489554973993956,10.152031360380533,-4.546073496082171,-0.8956142769161366,0.0365302196056595,29.20330890644072,-16.67869909235114,37.749694250179054,0,S01
7240,0.0996719882346852,-0.05155381635205546,10.142751327791867,-4.02875625151128,-1.8159521234428229,0.817669360350159,29.685521010531776,-16.78639372343505,37.5851221786129,0,S01
7260,0.10095199117324483,-0.05777319983777641,10.14230587226057,-4.897248371950683,-1.2889273419649068,0.44825826329818136,29.659389333857387,-15.761485357500376,38.184985876853325,0,S01
7280,0.09970332001007182,-0.05158742436719266,10.139544074175847,-4.2877777249037825,-1.0398354648929782,0.4273263677886009,29.411705543209706,-16.4432098826655,37.85426851687097,0,S01
7300,0.0963982359203836,-0.04725779021143839,10.144589163072249,-4.332908802339859,-0.8879342008194844,0.7426453092844609,28.749460746639738,-16.553352593656278,37.527798219008154,0,S01
7320,0.09861325201042817,-0.046903952076458,10.14811924658118,-4.262692796411048,-0.9673209968694674,0.45639176380867874,29.670079088479127,-17.215940441282854,37.63261320085888,0,S01
7340,0.10459357443573171,-0.059872863796358214,10.144573170766996,-4.487439040110543,-0.5993098033543226,0.5755091284734948,29.656276626477215,-16.70779155182584,36.972528317376465,0,S01
7360,0.0990818646413565,-0.04720752552743933,10.14693239321508,-4.280731901778588,-0.7955598634796858,0.13684269321011344,29.74402443269693,-16.37109800288772,37.87828831121021,0,S01
7380,0.0953564619531124,-0.05330482986023122,10.150596986996646,-4.491270293898162,-1.1620891168958711,0.5583661801263796,29.48430138493509,-16.728947060084046,37.83340554665041,0,S01
7400,0.09526031991926445,-0.05274329535399071,10.153361155536965,-3.9142095902367995,-1.4562402200857285,0.8499196924051131,29.079188903020928,-15.932612076587741,38.3407081750959,0,S01
7420,0.10892030233465125,-0.046430771344595854,10.145612753074468,-4.579587032199829,-1.1703124454889628,0.3175672959452073,29.31239939532386,-16.6957757889922,37.648846906978065,0,S01
7440,0.10540684846443715,-0.052075511025738576,10.14817928542374,-4.445468152735806,-1.83047071763283,1.0540542125662786,29.085688069952887,-16.03084499365076,38.19428867944662,0,S01
7460,0.09724011491726721,-0.04496548007140665,10.14215627514945,-4.190016103099384,-1.201825662285271,0.6888167875755351,29.548554142104816,-15.839190630489995,38.427111631374466,0,S01
7480,0.09898233263911788,-0.05382156241236232,10.138746714878833,-4.092857962380114,-1.7001488481245566,0.828783092030375,29.009912977939965,-15.650172357501532,37.55070781799131,0,S01
7500,0.10501504202600659,-0.04112483177506365,10.147519578408696,-4.42939905212811,-1.3531264366881286,1.0109155377886614,29.679943835546506,-16.020557558937334,37.067903305993205,0,S01
7520,0.09572790890068131,-0.05207743806019116,10.141132216175881,-4.067294375564123,-1.2059034470908934,0.17551843917509297,29.511543882011804,-16.2906439951536,38.35135761528103,0,S01
7540,0.10659599262999866,-0.04716484390054566,10.146730378959326,-3.817982560316852,-1.1703499822299044,0.8987218317197292,29.709166892426843,-16.996624050743243,37.55646514251755,0,S01
7560,0.09818180618975171,-0.05464115036238132,10.140468634691606,-4.4577997331726795,-1.5307967233012743,0.3657390325947498,28.8958786161033,-17.312194746330384,37.33831924346288,0,S01
7580,0.1037543174189513,-0.046819479475799314,10.137751212848743,-3.8840592402639507,-1.2302562047649495,0.6778647895611304,29.0644957385601,-15.96698013584312,37.89904018337371,0,S01
7600,0.09714562622235498,-0.049373056037948226,10.143687386555321,-4.48738618878509,-0.8134132645114911,0.6452917416971803,29.078356884218653,-16.3022390806417,37.62989525603309,0,S01
7620,0.09876520758308892,-0.05100294533428462,10.146106888374936,-4.630060145697436,-0.8903854577917907,0.6264642213078251,29.414015768748374,-15.887534729816641,38.665023298120495,0,S01
7640,0.09374187902166574,-0.053658975471133324,10.148271922215901,-4.859212974175011,-0.8571521429835118,0.8743947527952352,29.1750412463383,-16.281848825464593,38.28899971830991,0,S01
7660,0.09467055688488195,-0.050051196078027965,10.140252621157154,-4.12783353263238,-0.7078273431159905,0.8460685295565464,28.737823955363048,-16.52866756218222,37.843010254240454,0,S01
7680,0.10355546995298032,-0.050951312405396396,10.147759665722317,-4.027835412072353,-1.4115709782107595,0.35812647442176215,29.44819748599689,-16.054323220226443,36.93457964094849,0,S01
7700,0.10218936395661843,-0.051976353853672025,10.149916481971557,-4.002366681143639,-1.3327678643549494,0.19620673509860226,28.628813847255696,-15.959374697875978,37.59566300357802,0,S01
7720,0.09753294396690369,-0.0546135154768004,10.146998188824897,-4.0488829942919535,-1.5826487144630086,1.1125359440880338,29.227587902850328,-16.39644936560855,38.30346331619451,0,S01
7740,0.10100931931761278,-0.05344229789152487,10.151202637745238,-4.187250904393093,-0.7091501131274782,0.5737980747206972,28.99640289459518,-16.590480435357158,37.121228892580184,0,S01
7760,0.10645601739383587,-0.0494988852455422,10.143677251218415,-4.059067338552936,-1.1711220546463805,0.5231163439077011,28.829640220858916,-16.665017652155193,37.329480684212,0,S01
7780,0.106921165832942,-0.05154448684074801,10.14862561097936,-4.345552363237891,-1.1364768816107873,0.5012669888933547,29.58183755966862,-16.5376671836045,37.376790225620724,0,S01
7800,0.09936749502656451,-0.05049406442832028,10.141736143001221,-4.076988321024377,-1.4826075684872957,0.4752627216708745,29.391101368657743,-16.676109892099447,37.97175488531032,0,S01
7820,0.10310452389573647,-0.06277636981339423,10.142474044359163,-4.386210662744889,-1.1980158042016658,0.8219652408759288,29.296511019826827,-16.501298808293242,37.30813758369631,0,S01
7840,0.09283367460877184,-0.057236777745241066,10.145312172951055,-4.067360830365368,-0.7098507434833474,1.0151479057641755,28.92393220786637,-15.810406855437513,38.505865252961975,0,S01
7860,0.10589619356966162,-0.06395493035134352,10.142695204099065,-3.8581574394315314,-1.4912716955159253,0.12663470369683838,28.879761102902414,-15.772285194450506,37.5958750460286,0,S01
7880,0.09470393102802815,-0.049533684103999664,10.137539866096521,-3.8599368982097366,-0.9953521494220018,0.1021877746431169,29.315478742580197,-15.930716962216014,37.77721241302671,0,S01
7900,0.1042166477316737,-0.05711728609118347,10.143173092962657,-3.994682354377854,-0.9513212777511011,0.3496095472523324,29.5528431999305,-16.683924804770584,38.33313601547951,0,S01
7920,0.10469340021010794,-0.06066629833933402,10.143870236915305,-3.869210252839738,-1.0212458515205727,0.6747507425773398,29.30839733162714,-15.888526118692337,37.93403198936007,0,S01
7940,0.09447878291711648,-0.053722802421087894,10.147865146233965,-3.661017082205745,-1.19217703607368,0.4087368542648045,28.847411804397083,-17.023307859261738,37.55457998843811,0,S01
7960,0.08906227625582736,-0.06773477072578817,10.148959278672143,-4.202644613685742,-0.6466393334382503,0.4096444333788599,28.564423820668768,-16.496919632139395,38.0316205101741,0,S01
7980,0.09737615792164729,-0.0607795158040737,10.141347175445508,-4.029031837695533,-1.392079082556784,0.5492517475756216,29.309227216772634,-15.980129472757527,37.81576702842713,0,S01
8000,0.09876904801786039,-0.0586566307990301,10.144707613275498,-4.131439112303963,-0.9810003446045705,0.4780190140951954,29.282466182599332,-16.701109806857207,37.30773518357327,0,S01
8020,0.09942309234110065,-0.05981856815986307,10.151853121002818,-4.226524201363319,-0.8666861631580474,0.795485191669592,30.437874536314105,-16.890108662836138,37.53420808431546,0,S01
8040,0.10469443308730626,-0.0621196113331241,10.140364850877104,-4.9422545793212596,-0.7844534691094368,0.7378655779455896,29.481880920914467,-16.43588130005733,38.2641445785305,0,S01
8060,0.10641455952733289,-0.06048938841467002,10.144555916902528,-4.65630093996023,-1.0726082302069506,0.4010707376510232,29.12697849974772,-16.65423571463309,37.85484813036011,0,S01
8080,0.1020892089061836,-0.06154629152658382,10.137397509815933,-3.7274058829783514,-0.838909135678676,0.6464132411069105,29.250752369982703,-16.898906418688554,38.10243674865679,0,S01
8100,0.11088613954401833,-0.06413818861485333,10.145697266003259,-4.474567936706688,-1.5673250473912996,0.30720670888114027,28.690127040474227,-16.089703096569675,37.60159512278617,0,S01
8120,0.09494360695444902,-0.07241192258040083,10.142893321721141,-4.1253078142946515,-1.5087078907133313,0.423364862600595,29.619849515907415,-16.229366483123382,38.055529442287764,0,S01
8140,0.09330652329905335,-0.06679135632708785,10.15241207479413,-3.836140116688634,-1.0840878099502056,1.0096975432888504,30.124674764447775,-15.718113494067218,37.45376881661462,0,S01
8160,0.10027165001143776,-0.06737002639102888,10.146062006492159,-4.009879868309507,-0.9137213330463528,0.4892766575541512,29.81144449482536,-16.673406575358136,38.616502974391324,0,S01
8180,0.09974022763745055,-0.07014633067594123,10.150264930714302,-4.196018437494985,-0.9410342040787267,0.12194423592303649,28.65754229071739,-16.430439176147985,37.840158124907106,0,S01
8200,0.10424876429785687,-0.056444845361381786,10.147445211870256,-4.2555883117116275,-1.747179620601746,0.341243829095146,29.3019362820997,-16.230062117679584,37.555243213360015,0,S01
8220,0.09866428715927456,-0.06857383711619117,10.15313288231382,-4.738514427919104,-0.5444164133064427,0.7805721606967347,29.4298062406983,-16.437874910935065,38.25909187187299,0,S01
8240,0.09880209693426284,-0.06664113759421138,10.146506826674742,-4.387108631559832,-1.2041561630581823,0.4487813360851901,29.474041910747886,-15.977074532472889,38.70349950386818,0,S01
8260,0.1026209148615824,-0.07042076308870755,10.144260717686324,-4.432232954547185,-1.2284238873025488,0.44785921637937287,29.22582618629572,-16.382813217649797,38.07540771785989,0,S01
8280,0.10883102840958285,-0.06628343197160494,10.147168659431856,-3.640938611913765,-1.0144662020852686,0.7669792321587203,29.57331838940124,-16.89711763256495,38.105990946658295,0,S01
8300,0.09711056936691542,-0.07404078280816939,10.156027123123605,-4.862561978041501,-1.2463159818389105,0.5622630603906358,28.61814830760429,-16.235602439951393,37.92048008431651,0,S01
8320,0.10611884014006394,-0.072919418304581,10.15051512961458,-4.205115143554322,-1.424235658477169,0.967030765247163,29.672293355903722,-16.596038341405595,38.09875991564169,0,S01
8340,0.1008433184755049,-0.06898022715163851,10.148243061021656,-4.089517542971435,-1.088346841241668,1.0681088487087602,29.182859863074224,-16.336270331991926,38.58733438862802,0,S01
8360,0.09761464620340846,-0.06537456040797876,10.134672671121022,-3.9947712855648287,-1.4951731152257777,0.3125387159202033,29.235929944610476,-16.146523195015323,38.44506047404779,0,S01
8380,0.10056983725552254,-0.07992518676454764,10.14381740003569,-3.7607603828603824,-1.0407565269524102,0.8753882725051716,29.387680760504853,-16.809809520114044,37.81956806004527,0,S01
8400,0.10399995129013277,-0.0764699642871582,10.140156085988204,-3.9716410885753386,-0.8390439762443836,0.29023563935079466,29.84718274600215,-16.18430612853265,37.73390307602281,0,S01
8420,0.09578319192190662,-0.08238251028990723,10.14799521777343,-4.836935810782396,-1.3732723397636672,0.8248943320329726,28.908249852068302,-15.95764788085445,37.34093624091825,0,S01
8440,0.09987897082762778,-0.07615041242857588,10.152293913621383,-4.291005288520095,-1.0450019028648683,0.22699918826046167,29.816979236543062,-16.64593512515571,38.22022491973266,0,S01
8460,0.09861962768555063,-0.0739905911306921,10.150167309219418,-3.951158840620263,-1.4085462434070093,0.6382402610488176,29.545448409054366,-16.92413832474799,37.939314792835404,0,S01
8480,0.09557019466323496,-0.07068537364835617,10.150949121386939,-4.367185395379327,-1.044505665718493,1.0782206759444337,28.69708045516597,-16.791777549063113,37.767116843854716,0,S01
8500,0.09779019246811348,-0.0833364661134932,10.138271499385828,-4.905044383263016,-1.391167465835915,0.501754122500623,29.474395921520905,-17.08107412582445,37.32132771741628,0,S01
8520,0.10106378932610606,-0.08151989695357534,10.142690183772036,-4.3275758338828085,-1.1075535979698856,0.8594879819787745,29.235973371040615,-16.15362639794752,38.04245869507994,0,S01
8540,0.10210846722927308,-0.08677612450631006,10.14800339899218,-3.739968913544738,-1.0970752473256566,0.21592908957552365,29.659224960973475,-16.86350951585191,36.98779584096837,0,S01
8560,0.10248501535161095,-0.08384200835189118,10.148710664863154,-3.72425909895586,-0.897567820689535,0.46965404696010327,29.878616327428784,-16.392464209564306,38.63815649670531,0,S01
8580,0.10910793211699214,-0.07479714433104113,10.144719765417213,-4.107767241500244,-1.0246746605060622,0.7845699157401745,28.730467794279264,-16.304787278727396,37.26597196852315,0,S01
8600,0.09593812156871503,-0.08713992565138132,10.144477875991225,-5.020131385387371,-0.3192091255263124,0.8282196212083102,29.65426050027064,-16.602655298368695,37.48980580167611,0,S01
8620,0.1049833639777265,-0.08860106811798586,10.144013202291866,-4.150076134363816,-1.2144390764489137,0.8018068211565003,29.994093440578048,-17.069654370318965,37.53558969626696,0,S01
8640,0.08611553447683967,-0.06947389544022163,10.155218151733935,-4.298763135511016,-1.1051485869146722,0.432466437333197,29.159144696908466,-16.784476353697393,37.1714479754885,0,S01
8660,0.10387628321502952,-0.081511245988164,10.150281764397404,-4.013060752082411,-0.8878590312166414,0.6232767987552248,29.732755296934968,-16.673216787413413,38.05922420139941,0,S01
8680,0.10508198143892505,-0.07839550894060034,10.14318160544484,-4.341245066480658,-0.8829027103706508,0.4812103840220594,28.96407438766916,-16.325679900280562,37.89079638856488,0,S01
8700,0.10404192981318433,-0.08057119718950269,10.143712006091835,-4.221640839036794,-1.6680866119059705,0.5798866227771954,29.219491838674355,-16.80615045866943,38.21979151893487,0,S01
8720,0.09968816317685886,-0.08201725356415344,10.147987998005457,-4.630700317309159,-1.7272569396393083,0.8310747483294241,29.086795428087488,-17.122390797250997,37.56001914820338,0,S01
8740,0.09820369945098005,-0.08904195040245153,10.148406956220292,-4.336470432973967,-0.9117109330665499,0.998378100186415,29.225809921510834,-17.557719321823107,38.00872911428458,0,S01
8760,0.10221274529240104,-0.0799661533908206,10.140285050833375,-4.05483285862926,-1.0603645618986521,0.3868853378857792,28.872791368608006,-16.743332846671393,37.14715108456337,0,S01
8780,0.08979615444011457,-0.09184788196246318,10.13620336305306,-4.519431668467349,-1.6996074185720813,0.38443815619286625,29.028491344410078,-15.69701108802791,37.691932389647086,0,S01
8800,0.10659237621720516,-0.09140339748841508,10.149936751278961,-3.5991995026298653,-1.327227447369922,0.2611634198474341,29.772064463157193,-16.03612834276352,38.01039159916561,0,S01
8820,0.10802002434673827,-0.09200844363686853,10.142908608324928,-3.938603589836595,-1.1426334640696885,0.4326030297190583,29.797226130521477,-16.196012378412675,37.44295384127154,0,S01
8840,0.10545676235157901,-0.08724332680109918,10.142956608027713,-4.632094274685855,-0.9870257713448927,0.7248859687715595,29.266795518110627,-16.53380925584085,37.94621955267709,0,S01
8860,0.10839804677711445,-0.08431461826090916,10.145900315070225,-4.427027075542584,-1.2082189291463703,1.043393468838368,29.49014438414479,-16.505706435089927,38.082819834564596,0,S01
8880,0.10047649323159293,-0.09806457247786686,10.141649271075293,-4.291846737921559,-1.2547343601988725,0.9374467188527642,28.85782350886236,-16.603423489011295,37.74072507933964,0,S01
8900,0.09705088631522577,-0.0861632348079076,10.148472617391946,-4.489283493425533,-0.8974184756965488,-0.010226888393116362,29.28954146513696,-17.72203409557816,38.53314584551152,0,S01
8920,0.10304394452339925,-0.09333824580039671,10.145988824182462,-4.5467940505096545,-1.5627804920725057,1.5653643924344731,29.433562096764078,-17.215778636662655,38.18296794125925,0,S01
8940,0.10166435482696372,-0.08899627131149973,10.15051005146682,-3.751964879723239,-1.0558473061126037,0.7890338373280585,29.59300195638427,-16.011630995567323,37.92150802042155,0,S01
8960,0.09376320159457578,-0.09787930525876813,10.148579873352285,-4.216487997164888,-1.5631230159397198,0.6187470868011538,28.981073468944725,-15.869425849968422,37.90737865665315,0,S01
8980,0.10022771918112351,-0.09250101241014698,10.145551971663739,-4.103095909548478,-0.9825796357526173,0.30218851314462797,29.592773846536552,-16.620253113375675,38.14030994356991,0,S01
9000,0.09765989569111641,-0.09125242466216692,10.15488971231994,-3.9481716949926837,-1.6127095896372237,0.6412178607634562,29.008971766010536,-16.95022059797657,36.943960305244794,0,S01
9020,0.10450456833975134,-0.0910719204069447,10.139626675608671,-3.939009895365263,-1.5322712375209295,0.7867585167993831,28.965079197131054,-16.705091696020574,37.573930893070774,0,S01
9040,0.0936976198613416,-0.07971443777812239,10.145786017240251,-4.351122781331106,-0.920059605586381,1.076251334334751,29.066085671695646,-16.13778750676834,38.08356989913699,0,S01
9060,0.1053246909383696,-0.08231555981273148,10.156390971182521,-4.625446420733862,-1.9239144570977258,0.4332633335451086,28.807089690062703,-15.529235162848456,37.8558146027755,0,S01
9080,0.10731471837030838,-0.08145286063250931,10.148338079378627,-3.9963263579168693,-1.3309238043831948,0.6778455490436792,29.487706179017668,-16.079200669474737,37.689172378391596,0,S01
9100,0.09431729037425206,-0.08095222551909315,10.140748027639773,-4.27360701344867,-1.7049026097780358,0.4294817044103762,28.858281822482216,-16.856006544808615,37.748027396093406,0,S01
9120,0.09680770676574887,-0.08872379033693323,10.142721377044616,-4.703025256221791,-1.065569264876949,0.3893855779347712,28.647664667924612,-16.62213337711105,37.392793184849964,0,S01
9140,0.09648784548693136,-0.090319543372645,10.141367269921778,-4.254840620946986,-0.8800742188185253,0.3933972094584366,29.176406082749644,-16.021626724176578,37.996475136358534,0,S01
9160,0.09950654787447766,-0.08076953477720314,10.135295559924067,-4.296124594976649,-1.2866625564531196,0.8025989726069702,28.61650470779353,-15.621088670983573,38.138746722814176,0,S01
9180,0.093941551226306,-0.08305043609201664,10.147302463754144,-4.775039096517694,-1.311125875570651,0.9794209382012293,29.230111074733525,-16.7117153436727,37.99548073683899,0,S01
9200,0.0986003456681926,-0.09989708370255358,10.149921422706083,-4.011968006798053,-0.9365079224602026,0.7267592010657389,29.254449667916155,-16.267110558220462,38.223592069669415,0,S01
9220,0.10341576029561267,-0.08918086765985263,10.140860276692255,-4.406037883189187,-1.24090409792902,0.46664573552242034,29.10423471760672,-16.312841012856047,38.23150946658734,0,S01
9240,0.09588723723168142,-0.09077346300395768,10.153463087913513,-4.7008366062301725,-1.1359736591379583,0.4947026262888804,29.161495042542057,-15.654824817175705,37.90252609585115,0,S01
9260,0.10463664299583388,-0.09298885548840835,10.147861301904614,-3.97523050889734,-1.9384407719764984,0.5509916364429863,29.52332577764017,-16.64514983166984,37.44398166153164,0,S01
9280,0.10193789399365703,-0.09530589315902957,10.145432404796242,-4.292578862268846,-1.5986353745017319,-0.26641699597809976,29.79817991985914,-16.380470246022952,37.98873499182699,0,S01
9300,0.10305524686284553,-0.09305937388602911,10.14566853685729,-3.7809718574249773,-0.8730131145472202,0.6874694038449026,29.84515872073203,-16.666553691277294,38.17273364883924,0,S01
9320,0.10119712016424443,-0.09412342198651519,10.146374759048454,-4.69033840288106,-1.2357792542088353,0.7137380457841025,29.165357628212764,-17.28115090000098,38.134358564750634,0,S01
9340,0.0947596982786296,-0.09821754832266635,10.145959129597381,-4.548189104887012,-1.0504606787548967,0.09184088055663553,28.944416599574282,-16.734951504674026,37.621127107852736,0,S01
9360,0.09748160683555955,-0.08924926635236598,10.150335554441055,-3.883160518492274,-1.0320677682370432,0.8592734183842082,29.526264141221173,-16.250152314100852,38.205664945380384,0,S01
9380,0.09854220487188368,-0.09656030578795374,10.14889743502112,-4.550410673592239,-1.1039241513765143,0.38231844339073057,28.80722395067511,-16.480554164020464,37.32013862451235,0,S01
9400,0.09043787336170132,-0.08619896686529264,10.151638852941113,-4.120075889925449,-0.9855360387333731,1.183368258409989,29.69253434166889,-16.479334717125525,38.01044422334227,0,S01
9420,0.10070262638290695,-0.08545803185973876,10.136788007199032,-4.651496457714544,-0.8862683715625883,0.770478583724993,29.49243916418092,-16.61370196775361,38.55522055722475,0,S01
9440,0.09282274487071168,-0.08359379977107305,10.14630251758711,-4.256437911246133,-1.517333342490622,0.4865074249736109,29.322792902009585,-16.299677761379137,38.42343445209146,0,S01
9460,0.09688549119645154,-0.08656531054863306,10.145755292008932,-4.539796004397212,-1.1913878337847827,0.2963154903201797,30.15255301409515,-16.44227067976565,38.004919982864905,0,S01
9480,0.09889443073487879,-0.09015236027836751,10.140164998336779,-4.5404818459747665,-1.0988352010222178,0.7905250325654939,29.252927232502056,-16.566123413206373,37.369202199151886,0,S01
9500,0.09758319944930693,-0.08835765317553211,10.137151680211177,-4.327897281797613,-1.3237157894709022,0.15634135847585257,29.87283325030276,-17.13101694655935,37.96243954325391,0,S01
9520,0.10841973931455301,-0.08625982991709105,10.150178398230056,-4.279597247451989,-1.4006683410178018,0.5702278447291191,28.779733992810915,-16.713674138810305,38.373168215672145,0,S01
9540,0.09580624423510209,-0.08059442340309211,10.146285670672858,-3.228399355413351,-1.2115754384014332,0.8065183642978867,28.772798676068057,-16.378092035403952,37.94363841766037,0,S01
9560,0.09681613088398629,-0.0826693520008641,10.14583324287979,-3.5344996448742942,-1.0726814497005055,0.9852059133347363,29.12451935712439,-16.750877067714264,37.256427333538355,0,S01
9580,0.09451271629906748,-0.08473829280035604,10.147621908418238,-4.037116703967281,-1.4713939777660219,0.3602731084208871,29.636202825145357,-16.341674661853038,37.87173995158823,0,S01
9600,0.09936663506457248,-0.0918324091974142,10.145070855022846,-4.141910896250606,-0.9502147221254282,0.6140406368361683,29.641315249431976,-16.790573222870655,37.960127682437985,0,S01
9620,0.09569592790090745,-0.09180049333854029,10.139663449554659,-3.7212215803900803,-0.884761655776291,0.3440064461262395,29.43878318158748,-17.045843711320657,37.293378802686675,0,S01
9640,0.09421459206545997,-0.08219677582271076,10.141433316523099,-3.987062586216499,-1.3209375899038474,0.6093089467031746,29.182934469512972,-15.680145622390889,37.689742062535494,0,S01
9660,0.09895720729699828,-0.08208594079589245,10.14722991073087,-4.278769664604547,-0.8187351331047795,0.4960505862930523,28.804789268293803,-15.90516048173536,37.43491684200731,0,S01
9680,0.10367725825263689,-0.07820686131988513,10.1453187542948,-4.42908640438181,-1.439516636315902,0.6441758193697176,29.352884733407464,-16.3347341423462,37.41280277224887,0,S01
9700,0.10081181740234349,-0.07509916499014888,10.142575407949016,-4.511679933712407,-1.8177676933244296,0.32210091054201245,29.09748122084959,-16.892347804248722,38.091424879509525,0,S01
9720,0.1119828987831939,-0.08135112167804309,10.149657008403851,-4.6746207426046045,-1.1264976632665966,0.4078303892036518,29.76899521040787,-16.00863145342008,37.41685793758466,0,S01
9740,0.09849981378724411,-0.07077885378414907,10.152244205627868,-4.226329265589455,-0.9526329640885731,0.8020691777753262,28.994170638047834,-16.360940725107305,37.92429999256445,0,S01
9760,0.10107164463501413,-0.07935767678238893,10.141911233699426,-4.20778767577329,-0.5371935494713029,0.24446154540748627,28.356635280542363,-16.373614722255596,38.36926905368832,0,S01
9780,0.08780586496366218,-0.07105477629973601,10.148808474512144,-3.9730860607746687,-1.5994072720012846,0.5391965664997596,28.964688325328115,-17.015512684838065,36.987464186604555,0,S01
9800,0.09946693017884255,-0.06353807873747287,10.1518844191876,-4.0224424732980415,-0.9210662855019033,0.5913112693541734,30.25228349289709,-16.64910471008326,38.22274531092597,0,S01
9820,0.10317351309461638,-0.07772875661597119,10.145199926752973,-3.9331163085515555,-1.272075283158898,0.6997735666914161,29.038109305122116,-16.515909357530347,37.39412411593916,0,S01
9840,0.09982329299760252,-0.07501892474500009,10.146796093775272,-4.7731305668705275,-1.7854040388327364,0.4058333427854558,29.243944365242893,-16.55892918616972,37.57244763438747,0,S01
9860,0.10309531151974413,-0.07671308227273213,10.156666850773563,-4.33817864486048,-0.7641572954094182,0.7097896978506171,29.259836391157084,-16.49986695099431,37.357997329302286,0,S01
9880,0.09677652701630125,-0.06802539195740291,10.144820474463065,-4.061357443490458,-1.1342015409392852,0.4110261463842251,29.36774621714522,-16.260319195241195,37.59675800436341,0,S01
9900,0.0978460191432637,-0.07786905551474449,10.14720197982484,-4.460621283395768,-1.289394376312351,0.745708145081683,29.19406408762785,-16.764193978487857,37.785483898955256,0,S01
9920,0.09913616646917853,-0.06638359529011069,10.145609085187662,-5.03189074926489,-1.0420694226311054,1.0266163796617955,29.009486813503578,-15.961063857557066,37.569783078860006,0,S01
9940,0.0946399888593011,-0.06501959145905448,10.159654687113454,-3.5892465065221204,-1.219167775960935,0.09144882653510944,29.452781258431028,-16.638483558049032,38.299719839912804,0,S01
9960,0.0997077574758918,-0.06855648838880954,10.1482930821665,-4.559926968138991,-1.3222538275311408,0.29098203001911366,29.856455692412776,-16.579482843797525,37.37946700612837,0,S01
9980,0.09498847337595182,-0.06797988856483968,10.147585125638084,-3.8127208711762037,-1.2071993028043841,0.2558513101637389,28.97059673529391,-16.68388750184443,37.72376743333657,0,S01
10000,0.0962549853410006,-0.07378605961624593,10.153813642645359,-4.125128638692736,-1.1820679555944547,0.6035450832308455,29.64271276932598,-16.905680449564812,37.32744073311042,0,S01
10020,0.10392552335334823,-0.06401358061599823,10.141970018039142,-4.328066897419885,-1.0890533720723545,0.8318721686248077,29.17452873610569,-15.306439263729782,38.704408393024394,0,S01
10040,0.10654819577102723,-0.06852227746164588,10.14204714425315,-4.668879521704337,-1.2763450726016674,0.4432694480344154,29.682582401839195,-16.315313767365197,37.833586857454016,0,S01
10060,0.1056165441465367,-0.07323585355715972,10.144845146226292,-4.232957786982779,-1.1882800934091107,0.6374834330685845,28.54090825439825,-16.76136360862092,37.61161089423015,0,S01
10080,0.10025494541513673,-0.0746047155113897,10.137977236072794,-4.512985512054228,-1.9491977597988253,0.3786906299905682,29.081503488254874,-16.542695209529306,37.913323860111404,0,S01
10100,0.10585015139749997,-0.060292678566524566,10.14198094669354,-4.285290068558293,-1.3423680249330205,-0.058787332514953494,29.44575453679652,-16.928851350350037,37.8398871202367,0,S01
10120,0.10128246653046098,-0.06353943588148761,10.141485847004434,-4.361536539887414,-0.6724403371804452,0.43163132832138296,30.116884983620174,-17.079533537412914,37.81941152763225,0,S01
10140,0.0941417621528097,-0.04926987002734198,10.143555374523288,-4.289577771246175,-1.1196579804706153,1.1156748950821604,28.520433639741476,-17.00038561624727,37.68043093265382,0,S01
10160,0.09577743885199837,-0.05924263733959637,10.150177152852578,-4.053077327624666,-0.6830205789693017,-0.13124428353274087,30.063178301438338,-16.096115065331126,37.38303956595996,0,S01
10180,0.10789927387790929,-0.06246110186668499,10.146864506547717,-4.247177193439474,-1.6218724350179607,0.3842096390023561,29.216722133180046,-16.268414150431433,37.168120331160814,0,S01
10200,0.09648001824754875,-0.059987110132343195,10.142406033885138,-4.139126246454189,-0.958215100889746,0.46329827353429953,28.990707041343434,-16.589724209926953,37.788602121821725,0,S01
10220,0.10504446308703332,-0.06697519759428243,10.148443094730663,-4.317379026465235,-2.2075514369320794,0.7286482985360233,29.34745577967086,-16.584462812633006,37.88911971194444,0,S01
10240,0.0988897823963047,-0.0582296187622525,10.144728756572674,-4.646137851622589,-1.1384116360788947,1.0827404664570224,29.282349627403274,-16.946767305905418,37.507843114639236,0,S01
10260,0.09966800204861755,-0.05455324107639967,10.151563229636707,-3.8772324396194535,-0.88823960718369,0.4519230623231027,28.724538046806767,-16.800483037916976,37.210232552770336,0,S01
10280,0.09911425519608952,-0.061009913052615834,10.142851850332093,-4.204411621927506,-1.3428131344280378,0.27094121320287545,29.805756179132114,-15.922135823082574,37.78984842113722,0,S01
10300,0.09841364109259534,-0.05517154060891349,10.146294313325123,-4.384852812737757,-0.46510209133894875,0.09842941942081429,29.074042520698896,-17.27835247587644,37.79323813845275,0,S01
10320,0.09486532935369754,-0.06005125471539623,10.142848817727453,-4.576379185284964,-1.2380414367596566,0.23463013819162354,29.660528708748995,-15.898932196040878,37.80962388830194,0,S01
10340,0.09761456679266954,-0.06084856937226381,10.140351969631395,-3.902895663503932,-1.4566561404038396,0.5940654294019223,29.619932581811437,-16.232757450788654,37.38384664203982,0,S01
10360,0.09921389182767887,-0.03949993771416037,10.148382204067689,-4.321192315051964,-0.7377311536349966,0.056381982581723,28.917359047817733,-16.34551706571315,38.059022692197125,0,S01
10380,0.09070470180834778,-0.05821783256641108,10.140848062887354,-4.410485152974134,-1.0931220759615417,0.45578509891333013,29.09680230213936,-16.96591346877491,37.43775577521111,0,S01
10400,0.09682909508595179,-0.04943792809350007,10.141197199673158,-3.970595626570041,-1.7263370623796552,0.47113598366374765,29.78050353155596,-16.79333980380055,38.18223665309944,0,S01
10420,0.10329967230897019,-0.059445732808605066,10.1481558315937,-4.1269663622243495,-1.4636049247600085,0.574769580692147,29.05081421208457,-17.042051275667433,37.41127278485802,0,S01
10440,0.10413183778945254,-0.05464643258707257,10.149288823911046,-4.329477487650239,-1.4185664645362177,0.19995706951284098,28.587109565193927,-15.669062669141528,37.54099527577547,0,S01
10460,0.09309563474463715,-0.05906693998254475,10.151640858618324,-3.8370189368668455,-1.1444930922070968,0.9556185038251865,29.324745037846064,-17.163569584883277,37.04173767429266,0,S01
10480,0.1000208865953518,-0.05781523417815042,10.152912648379868,-4.5622005943339,-1.157800583735404,0.21956939737917952,29.830583636930342,-16.75810711917387,38.24687795692841,0,S01
10500,0.10116547704500695,-0.050406129599016025,10.153287663306951,-4.720534513164051,-1.305433340710188,0.8098827292310057,29.832299121124226,-16.138338155139387,38.040746313792916,0,S01
10520,0.1062660773620859,-0.051115068130832136,10.150693082951326,-4.897631738343522,-1.1311780391604191,0.8692768691878088,29.13122670209858,-17.074380207200367,37.9635891398656,0,S01
10540,0.10111193751418858,-0.05930843375813886,10.139711999452905,-3.725343408967377,-0.9397303540057523,0.6094931189528439,28.982888443629026,-16.164553704160667,37.417206215934556,0,S01
10560,0.09541401866811983,-0.04931831822349942,10.156294319428905,-4.482174983962872,-1.202998651571044,0.3661390862569344,29.584762441223553,-16.33123428296519,38.02143918679668,0,S01
10580,0.10078233658141532,-0.047464267490155206,10.140164876415364,-4.283927441108026,-1.505919092487625,0.4972259071372084,29.26351637766725,-16.086639685944796,37.0352065981109,0,S01
10600,0.10280246722708282,-0.051687046522852255,10.140994055942224,-4.902941671826299,-1.5626100182374763,0.68365630989903,28.930694095807898,-16.54193513615462,38.27154825840014,0,S01
10620,0.10120948675076594,-0.043833840420740386,10.151253714336551,-4.063722446856711,-1.100364020698905,0.6650360160231829,28.83496406642734,-16.243785983129335,37.943828602020744,0,S01
10640,0.09529955554029089,-0.05026565170283301,10.145496442836246,-4.105061863632466,-1.2194299224488654,0.5455882225569958,28.77191453234777,-16.693846190107656,37.862307558886265,0,S01
10660,0.09706561724451977,-0.05939029499138503,10.14469815234398,-3.8978172752189217,-1.2574679610809694,0.33803154733608143,29.806516244007213,-16.431255877283803,37.74840834755147,0,S01
10680,0.10662099108082464,-0.06295494099415239,10.136023224801932,-3.956440496477835,-1.2161795964311786,0.7673168206582524,29.09828363574841,-16.45974576888844,37.785380502056505,0,S01
10700,0.10372159867796632,-0.04622762832715378,10.156208780155742,-4.689785287311333,-1.365238604821581,0.7221851863408019,29.154599751990524,-17.30346828098149,37.59914045271617,0,S01
10720,0.09713814514311248,-0.04975086897672822,10.14981161646417,-3.794456165764268,-1.0936665713613842,0.5874187637524293,29.611011416588994,-16.300798973271974,38.27216452202403,0,S01
10740,0.10144488854001116,-0.056106965802999495,10.139966031014426,-4.304396825562772,-1.1864970080273063,0.5494934425550223,29.32033195957785,-16.526585636098794,37.790038686596795,0,S01
10760,0.09112867492333933,-0.05118948465469295,10.148765503047992,-4.442427623045827,-1.358346172977516,0.6983696575506307,28.953545130952815,-16.91188497867634,37.57097908785888,0,S01
10780,0.09895627681058841,-0.037625764555599205,10.14579811665187,-3.876536395873158,-1.6192782502227343,0.06770004716308775,29.132760173476168,-16.960909857433897,37.913141988588976,0,S01
10800,0.10541309428488711,-0.040748351438503375,10.149174313787952,-4.313979759217903,-0.5941547391795874,0.5819938969597243,29.499331606901,-16.309531792899527,36.79005599009059,0,S01
10820,0.1020744399836318,-0.0528918679006566,10.152527633251204,-4.553711337414752,-1.3749621386575839,0.5898367318808577,29.395572848948525,-16.397467272525624,37.896187074987445,0,S01
10840,0.09085562090640803,-0.05273722013786306,10.151975615768736,-3.7827020011706787,-1.5416815953570904,0.5935861803903657,28.176548953150945,-16.942781187264284,37.649493595551135,0,S01
10860,0.09688216783753575,-0.04992172688294092,10.145700706232528,-4.393326963263155,-1.0503208943393951,0.6317019356590906,29.62923455722155,-16.142481495813158,38.062230626067546,0,S01
10880,0.0948954601685114,-0.045325414906704525,10.138589764349563,-3.78606993893404,-1.398508151533731,0.7451735044008785,29.693269197423053,-16.328843177220755,37.21518642933208,0,S01
10900,0.10503050636931621,-0.046007099619140485,10.146567891932458,-3.750075875732796,-1.6911848969588301,0.30393768587375436,29.090665364740133,-16.887470049286414,37.706297957386376,0,S01
10920,0.0963002450813851,-0.05222899943957078,10.141750529920104,-4.581670047063731,-0.9337070877375332,0.7444887631011424,30.794734494028685,-17.051976231433834,37.87710560002391,0,S01
10940,0.0942374173645327,-0.04580534204728174,10.144412062824081,-3.927672746732557,-1.4711188418603645,0.33233322876330423,28.989856307587374,-16.216992451242483,37.275591510329036,0,S01
10960,0.09083237833058151,-0.05710056313014005,10.142557447251649,-4.2795761565314585,-1.052386918686588,0.3217643303499148,30.35605370575408,-15.790263832165953,37.66865558563406,0,S01
10980,0.09804496515302351,-0.05469539854328089,10.154295807766497,-3.901959251999862,-1.265992543951001,0.8806125276686455,29.480258559233135,-16.271013414616654,38.312018971469534,0,S01
11000,0.10454586725377302,-0.060099413627601524,10.151502368335082,-4.136634401598975,-1.2046998213044615,1.4451156050849134,29.696682885856053,-15.916348938754101,37.324309580775754,0,S01
11020,0.10541907900039622,-0.05225550451588275,10.147614835648913,-4.396912776988823,-1.2078179054391944,1.1894635739663086,29.48325069276258,-16.550384454012118,37.20916463733009,0,S01
11040,0.10152311517532772,-0.05670644236234098,10.144159413556569,-4.436533525805511,-0.7875171572596813,0.7933162215396946,29.214700072777614,-16.854212731213792,38.09407694063166,0,S01
11060,0.10340584046797749,-0.05944676248653058,10.150363461738237,-4.339386706017857,-1.6618452293575596,0.2397785153362389,29.409405740022667,-15.902951321094545,37.19636517639118,0,S01
11080,0.09913902104188987,-0.050826536375221484,10.140255410927761,-4.474975402924853,-1.3085443716052731,0.27970790237141824,29.693250264543934,-16.34170759785922,37.69895586107735,0,S01
11100,0.09757352591487063,-0.06071693165969471,10.143643144538503,-4.6316388156646005,-1.1452284576406393,0.40017589437022794,29.493506707611434,-15.963645299328459,37.888085977811485,0,S01
11120,0.10392670903782197,-0.06131203607012156,10.150418338649427,-4.235498470080365,-1.1142074185189994,0.003104618872555087,29.69823246351345,-16.684905151246497,37.75108987350077,0,S01
11140,0.0943125244960082,-0.0559776573046183,10.147946898394935,-3.9094731702423235,-1.0164317717590472,0.6699795032963055,29.596670446287924,-16.84337606055201,38.16463741965062,0,S01
11160,0.10067136035641677,-0.05953025070922923,10.141794696005935,-3.733716757706346,-1.762427230267853,-0.05304042563553979,29.57387977921589,-16.008946387223766,37.52066052778923,0,S01
11180,0.09449629881352542,-0.05542577470204,10.142010977217284,-3.853281527342943,-1.054690233989095,0.8188836892518028,28.842985001921168,-17.481814615109947,38.079806233870755,0,S01
11200,0.09786625029604398,-0.05868487012392419,10.147948142206245,-4.112549259897614,-1.4587711048761187,0.7525147169443609,28.79387788920261,-16.859161458979564,37.72269269700851,0,S01
11220,0.10422216031891865,-0.05402756014689053,10.14419423414254,-4.510055165214326,-0.9269081358980287,0.25999801402569567,29.418103962829612,-16.7373895069357,37.85851681151662,0,S01
11240,0.10007200068020987,-0.0590624891564491,10.142885395471033,-4.3935100962273115,-0.8567511993747035,0.12241431118075646,28.557994610292557,-16.308446899063984,37.49517717664399,0,S01
11260,0.09781136842968134,-0.05012694700968211,10.14531374225738,-3.897674260901674,-0.6852574984366107,1.069091975295477,28.524491413623167,-16.021831167697563,37.90364540522272,0,S01
11280,0.09664962278327383,-0.05640784023524334,10.144148409456653,-4.22476149745881,-1.2123477211719715,0.9358945218107177,29.001634148024465,-16.322010537346856,38.08515660495001,0,S01
11300,0.09883825202316693,-0.0630222305333502,10.142628312312683,-3.9994437392509803,-0.6296413709127568,1.0289935505875039,29.298543755494194,-16.136175288298972,37.93970007633347,0,S01
11320,0.09960266967614456,-0.054057935140190486,10.148942890471464,-4.334242067219753,-0.8499251857942698,1.2878642359753205,29.330953769878214,-16.528237286993924,37.66695760736927,0,S01
11340,0.09952966832685217,-0.055257115977244586,10.148717435991188,-4.384710729433377,-1.437430903066455,0.6686810924564804,29.79604502258815,-16.306655987793953,37.99372125630716,0,S01
11360,0.11131247598853639,-0.06169038090464051,10.14416041044221,-3.841298144762523,-1.5616097649928478,1.0473161212085658,29.375181200087432,-17.32145929304948,38.24921928508637,0,S01
11380,0.10034590793475164,-0.06842835337927611,10.139221099204098,-4.320766876404529,-1.2002869861712113,0.7370817671136204,29.48737988654778,-15.936701956042905,37.63573662245024,0,S01
11400,0.10519201163017912,-0.062284697925328564,10.138374845766691,-4.130881733691425,-0.6037569302845743,-0.04477920994691065,29.420088657092712,-16.17165108719122,38.06720667558272,0,S01
11420,0.10893787673578999,-0.0662919198803475,10.147540255146312,-4.124535696423501,-1.146530951427783,1.0057182338490636,28.516196200952873,-15.590110405827339,37.68432310071492,0,S01
11440,0.09529185653398012,-0.07178045877836957,10.14930474115531,-4.822159301147338,-1.213431792503702,0.601099730034697,28.332092136047958,-16.21074213841039,37.66991081813789,0,S01
11460,0.10451921507469557,-0.060056702288644966,10.151141485255776,-4.143998852718186,-1.306186648779048,1.0042338325613573,29.249647707337466,-16.211328361735163,38.47497698439259,0,S01
11480,0.09324236552928991,-0.0702914928920625,10.139993448774216,-4.7659534325857775,-1.256736265153731,0.8265269305646032,29.323733170746173,-16.138965382258732,37.509088635960104,0,S01
11500,0.11022677722359378,-0.0645649964144134,10.145915857482741,-3.8813067948405604,-0.7798566067515318,1.1188667641424135,29.49508610702591,-16.40267318773946,38.280492349420726,0,S01
11520,0.10394700334863408,-0.07607142922311506,10.140566271533265,-4.018452290479632,-1.2171393518815226,0.8704101004044246,29.27985083579725,-16.634763976805985,37.62829536316366,0,S01
11540,0.10930589442632191,-0.07013453520753014,10.151365366526177,-4.352684982145036,-0.873478925141923,0.23988274930845577,29.723128866421757,-16.452464867574506,38.43116543523085,0,S01
11560,0.10356269825054738,-0.06269986939039393,10.15480746675765,-4.092537626348402,-1.0520481769714056,0.8805309472105284,30.52282678227702,-16.705577910850224,37.488845988100685,0,S01
11580,0.11019816994984391,-0.06764935237895525,10.142715104449536,-4.37722331191811,-1.4348435189041249,1.0683080238963985,29.161124202271193,-16.546752757112312,38.10547916100004,0,S01
11600,0.09837953640130856,-0.07923082915272212,10.151909941885291,-4.270995652773748,-1.1630357752283984,0.4802085820176391,28.213118475875653,-16.573738188580748,37.412798867006686,0,S01
11620,0.09959513154605691,-0.07620845436203988,10.143751064399307,-4.2678614932397885,-1.695484903192432,0.6139327895123264,29.31222646154661,-16.21143902679497,37.17211965542911,0,S01
11640,0.10104821451996247,-0.06474435560673834,10.149694926509653,-3.929258378264638,-1.5608049047152712,0.39069089256320133,29.292797636748453,-15.937485396334639,37.57323386262581,0,S01
11660,0.09483479508741047,-0.06915204927156621,10.141348896916263,-4.275913065433756,-1.1966060737167161,0.7791755611456161,29.662038985277817,-16.476401137663146,37.707751491810086,0,S01
11680,0.10565134110493489,-0.07627737561942595,10.13904863117956,-4.1372410087955505,-1.3090483677250426,0.7841614123556431,29.443739278742818,-17.028245196516558,37.65874688522032,0,S01
11700,0.1047134621606062,-0.08184642692616731,10.14369994328596,-4.430494265167004,-0.942750965426413,0.7910953731725204,29.62624471559307,-16.342327548029587,37.44250439879551,0,S01
11720,0.10436680535223737,-0.06659701371534006,10.145470548349023,-3.998247103327986,-1.0643228795570105,1.1340733396832818,29.34987043159787,-15.558186901727002,37.75317249635419,0,S01
11740,0.10603179653760975,-0.07692549199138106,10.137042798903476,-3.8165694653377793,-1.189676177467193,0.8425042449384645,29.343780285773054,-16.008682525974326,37.39203716991178,0,S01
11760,0.09842674904833641,-0.07687133266223392,10.14364697058246,-4.323948703105126,-1.5012487898678921,0.6546028127033003,29.652730511758495,-15.100942255396482,38.04918469732496,0,S01
11780,0.09501114617903113,-0.0840047045654987,10.144437888078073,-4.311623786827807,-1.7312650399528722,0.8032070827373279,30.261035816439364,-16.83461208218486,37.85501696870254,0,S01
11800,0.09676023963763915,-0.0832739019198763,10.139946440788421,-4.2264509816274805,-1.5131756226781565,0.41361915955641804,28.72871267936235,-16.790347483553283,37.467555762691745,0,S01
11820,0.10296493424177038,-0.07519965307875472,10.134622409360047,-4.24007628752945,-1.0420136200984547,-0.045463101706396,28.778629082086955,-16.42000220164497,37.45868475890533,0,S01
11840,0.10458885154063559,-0.0799001930503148,10.146356959073218,-3.84753841602443,-1.2031978023783132,0.3576784289929338,30.36920760769442,-16.76770878006564,37.797876045525676,0,S01
11860,0.11174016794340691,-0.0776267143997217,10.144421366454802,-4.300701710819381,-1.1692556092357906,0.6552131307162233,28.491627748507806,-16.034746004924273,37.94745994300258,0,S01
11880,0.09851913776622011,-0.08457440626749119,10.155800712580586,-4.305684974245038,-0.686808144811702,0.7645978422962437,28.8664856479746,-16.26284980745121,37.86479498967817,0,S01
11900,0.1029720051780163,-0.07807856637216268,10.158074300307023,-4.257352998227429,-0.8288226425898326,0.3515551513979084,29.632496311575515,-16.707095441307082,37.48120381699683,0,S01
11920,0.09664542659848886,-0.08579924438657599,10.155451064341387,-4.573969387916479,-1.110090047800814,0.15012796270191536,29.265327418815556,-17.519855564513126,37.73202553642571,0,S01
11940,0.09171959268128842,-0.08208297476169488,10.146585850434786,-4.322963058788662,-1.6207381678165778,0.050315301682386515,29.298180626415384,-16.92331195191621,38.47261773937736,0,S01
11960,0.10824184055149412,-0.08013666410469801,10.138322979685737,-4.189731061214131,-1.0131200826489868,0.5820959192658614,29.270939953544314,-17.584029727553872,37.54821630770504,0,S01
11980,0.09801412271093074,-0.08139539883496853,10.147113719796264,-4.695962274188609,-1.538725934612439,0.38849196090176186,28.765806949882304,-17.221386636231088,37.6710188189662,0,S01
12000,0.11102303526627769,-0.0860949598420108,10.144506842469085,-4.500607108785619,-1.1710498556036115,0.6068609356059098,28.99699209660536,-16.002455888875268,38.18009902235658,0,S01
12020,0.09740524796980103,-0.08122069473788926,10.142227291753988,-4.355241900787107,-1.0794861328079899,0.8843959873584057,29.121635519677497,-16.28325696019406,37.90727179778217,0,S01
12040,0.09678646800468606,-0.09853529580065906,10.148390834958384,-4.505531097074564,-1.1297456933679928,0.5921494955596452,28.901560180794334,-16.273681702666902,37.47532545814244,0,S01
12060,0.09699059284236852,-0.07088916850058,10.155752954315789,-4.090971439561395,-1.0478285626714772,0.3263340925637461,29.598193361425462,-16.752823810857066,38.63351645863325,0,S01
12080,0.10950036349455398,-0.086447033561783,10.143854238594225,-3.859843625571751,-0.9616442371530989,0.5574530104940041,29.42944145450436,-16.30551128104571,38.904986914435575,0,S01
12100,0.10168842847241923,-0.08958399644195568,10.139936027432523,-4.213192534709962,-0.6909420007631688,1.0135110066056305,28.64273267901406,-16.413163760842735,38.15769271155325,0,S01
12120,0.09528453042870813,-0.09911688012295475,10.141097086872186,-3.9756585055031444,-1.0112075263607436,0.3824275357944381,29.042112057209646,-16.66686261870594,37.848380990634475,0,S01
12140,0.10162007375358925,-0.08808738048449682,10.145858306241731,-4.532061967870895,-1.2178682745088658,1.2856466868913143,29.530160013980176,-16.73158122621335,37.570228378006234,0,S01
12160,0.09142942133657006,-0.09079796924438878,10.146537587177098,-4.280777447764471,-0.9492949621460572,0.1349103471165204,28.616452765261087,-15.768334790549224,38.83795598518538,0,S01
12180,0.09539597016326856,-0.08695965677731277,10.144408901194884,-4.764176502786314,-0.9692757356845777,0.8921589500778612,29.20628730278471,-16.683618443905722,38.647396512456424,0,S01
12200,0.10224229302757741,-0.09088867413741618,10.147821003751815,-3.912121748534226,-1.2017453046504971,0.10134594444889033,29.453504354902204,-16.58573027399654,37.39982505227238,0,S01
12220,0.09608445148683718,-0.09303340192579135,10.143467121120752,-4.583633593000293,-1.4018071019224916,0.408062952878009,29.273096601753508,-16.783086288788667,37.27854196849989,0,S01
12240,0.09862420784117142,-0.0860960358838486,10.139842825581233,-4.088466120504652,-0.9248169311686671,0.03268981009172223,29.809446965967236,-16.793130247657253,37.04217477165567,0,S01
12260,0.10097784265828076,-0.08645787968123134,10.139730107802277,-4.109679179739687,-1.1348574415997759,0.7428112191126163,29.909027168730884,-16.84540999444655,38.04571067681382,0,S01
12280,0.10043527394503846,-0.10129270696559,10.1447271957401,-3.8937956011096206,-1.8519118204413687,0.9447530201996848,29.14162052573346,-16.47101742133722,37.810971348951156,0,S01
12300,0.10002075862154093,-0.10381874425253074,10.141977851217192,-4.257650152721428,-1.4157760604587193,0.7979612112250177,29.44852166139238,-16.11478778422545,37.7761980733282,0,S01
12320,0.09962774613015224,-0.08541933044848724,10.13656359731456,-4.154580603627378,-1.3285467386347856,0.4951573772987824,29.42654298488376,-16.77438084923753,38.314631620353985,0,S01
12340,0.09634529241269704,-0.08088372958060004,10.136906427934075,-4.180809300195149,-0.8729016225500212,0.8333840884011439,29.628336717761872,-16.67320003337042,37.44784264276526,0,S01
12360,0.103730267188411,-0.09048381437257341,10.140885746991014,-3.779433035911641,-1.2916953669465288,0.9901202890114307,29.919419037575402,-16.781754308893095,37.61271570858595,0,S01
12380,0.09767730842618032,-0.08732372382900351,10.15428078434939,-4.325697914799715,-0.848657811306997,0.3562537766051567,29.813292443291083,-17.01712186424301,37.20087859200707,0,S01
12400,0.10217594342532492,-0.08529866933858278,10.138775773425364,-3.647446186630435,-0.6740359011326457,0.7981132941839028,29.298030304384422,-16.54075352644555,37.00309662987855,0,S01
12420,0.09578455807855248,-0.08579634658819671,10.136273882844053,-4.179107981888015,-1.1483325108617342,0.6045598451984738,29.165908523564113,-16.06374383813879,38.53090225637288,0,S01
12440,0.0981904646340827,-0.09331977281423819,10.142322330038201,-3.7961970743312357,-0.9704969912139143,0.03624642650766097,29.109259649600343,-16.49259835256565,37.3335159682414,0,S01
12460,0.10292941602353141,-0.09271377351775864,10.137236475292683,-4.493003219637801,-1.1426488372039187,0.28008275747610284,29.185117230478802,-16.252398077885765,37.96613116780955,0,S01
12480,0.0990096933391671,-0.08532372946861208,10.14138713199582,-4.2026072155696,-0.7250856429474217,0.5201914619359754,29.04947376396433,-15.989125680134686,38.74390225750898,0,S01
12500,0.09557900577024811,-0.09331026207818258,10.143616778848925,-4.56210342186144,-1.2189736091870713,0.6279290703849412,29.20690741797047,-16.046930148111706,38.26053687158999,0,S01
12520,0.09478199671841891,-0.08962781078375537,10.143465495695443,-4.370198945361084,-1.1845759729681389,0.35273360107197105,29.84197274488692,-16.593081977682132,37.20667067286509,0,S01
12540,0.10411258374263861,-0.08817762524861739,10.142822207513063,-4.536515828238047,-1.4747049836487385,0.37830221152110655,28.912887985816752,-16.133239772196685,37.63295611327327,0,S01
12560,0.09880946951341403,-0.09006895976917396,10.146554062063062,-4.5648258623869165,-0.9319280002057092,0.3949584021367641,29.386277788782632,-16.28638537848417,37.795949611567245,0,S01
12580,0.09698959278158273,-0.08802016190316717,10.137331485593329,-4.4309178586699165,-0.9899396971901899,0.6503572158731926,28.74731973937684,-16.69000839560934,37.275547144777136,0,S01
12600,0.09770483884563154,-0.08613857200316961,10.14106595015953,-4.369760570015118,-1.205792815730613,0.33679960694892425,29.109824614887334,-16.434173417496513,37.43570791475314,0,S01
12620,0.09968394067041213,-0.07945643618009655,10.13583630105429,-4.067595524562599,-0.9884377349055345,0.3858553221138509,29.12710779901962,-17.00867032709069,37.35504587365128,0,S01
12640,0.1038974927096169,-0.08596796909412248,10.140135825489404,-4.1768303967382545,-1.5089723676575653,0.3887164664538646,28.93743493864186,-16.977419212515695,38.334422111194655,0,S01
12660,0.09607641695464052,-0.08548137936791171,10.1495769192434,-4.18251541483823,-1.394765884974853,0.9136475374519502,29.2289275967928,-16.440494441574945,37.68138248234714,0,S01
12680,0.08924633318219574,-0.09102454498581111,10.141890882966425,-4.0768083230216625,-1.3144682281833964,-0.04207355232907417,28.77288607589711,-16.899870201163637,37.86596061262038,0,S01
12700,0.09308623271044464,-0.08885049288220079,10.146441049920325,-3.8939242689320306,-1.4285454127812205,1.0865434992927334,29.487849409405566,-16.882994114658313,37.627333007398505,0,S01
12720,0.09805283887661981,-0.09133620376636026,10.135812238364782,-4.633907547907071,-1.3284141866042223,1.212510833349171,29.43142212453383,-16.745198057219863,38.11096317023538,0,S01
12740,0.10379910339642284,-0.09143431560175116,10.1419678239955,-4.461102393642846,-0.8628954861759408,0.21503485378058818,28.589446185112408,-16.689881976382082,37.44479277350354,0,S01
12760,0.09557199212398336,-0.08741716164183674,10.143655775648089,-3.620737493646385,-1.016415815721124,0.695810766766321,29.418106697040592,-16.69912398250742,37.89704461792572,0,S01
12780,0.10657083047054444,-0.08309957795120876,10.146229863703867,-3.732730203975955,-1.366611685074464,0.9987463434230341,29.863904657151565,-16.96928578134574,37.792961366048466,0,S01
12800,0.10133320066680168,-0.09195194622551567,10.147507491737436,-4.955774949171496,-1.515989648568846,0.6794861147125848,29.46882452266191,-16.09660056383991,37.99311280503004,0,S01
12820,0.10153587928872064,-0.09037848843639089,10.15009621086753,-4.094630771416749,-0.7820230608602219,0.6225066258902978,30.34300006999017,-16.23103008939181,38.408552021515604,0,S01
12840,0.09833250720031401,-0.08669839133999473,10.14369113451493,-4.561891788988519,-1.5870707331853142,0.4228205215421842,29.511662315073185,-15.996548061938777,37.73395446435654,0,S01
12860,0.10153720729924903,-0.08869189629074736,10.138191373644972,-4.797415063447992,-1.501326591180194,0.5267422048487389,28.77716122393713,-16.471879141481224,36.734597301300724,0,S01
12880,0.10256642038834343,-0.08083977125931607,10.14232533232262,-4.414402038531292,-1.8607705357801425,0.11615502489184076,29.34601825213403,-16.410633969663557,38.41658855776011,0,S01
12900,0.10054842238277296,-0.08883613834257054,10.144661068883961,-4.331624633839093,-1.4367909222605422,0.8698892442238402,29.53073726488653,-15.844925632482438,37.8117392066189,0,S01
12920,0.10177510054192043,-0.08191182640918106,10.140286691855593,-4.080246758992853,-1.5218970494426052,0.3888262941150269,29.204681746162645,-15.644277548991067,37.81752143459525,0,S01
