timestamp,ax,ay,az,gx,gy,gz,mx,my,mz,label,subject_id
0,0.22194331503307763,-0.1287857428832463,10.268873123283738,-2.3679951250255478,-3.6434588730054287,13.861588685485255,31.11421904336403,-8.940974749982185,37.465357606627684,2,S01
20,0.39769327709163504,0.40413503150289354,10.521295579354497,6.168882636912836,16.200672009337044,13.669983564897436,28.14300333201075,-10.685993136420064,36.98122421666256,2,S01
40,0.4609380889235809,0.7567025982209026,10.646490676044092,17.72721573192591,30.079421104993653,14.107790383499415,29.584188554985175,-10.943446914984566,37.38784458998313,2,S01
60,0.6926663234514222,1.2560919353592346,11.066620484216125,29.083846910848376,45.34310855549668,4.922072476960009,29.264971373536135,-11.468673458961593,40.042032202753326,2,S01
80,0.8982832325205513,1.5923365433939416,11.182253389048277,27.36484565387294,56.46452391153541,4.7812528216688825,30.855965536712517,-8.454255369927083,39.17749050250132,2,S01
100,0.8372405004668625,1.7669503933354052,11.13524576700831,29.76044075117017,56.17423900729564,-9.005893621504939,30.12505836587292,-10.34562122694821,39.197211302854235,2,S01
120,0.7983627724958807,1.5349366435588132,11.185686967199185,29.5235159797944,54.89258236172823,-2.542239968046406,30.673213787586054,-10.468777693550422,39.6126170118459,2,S01
140,0.6961799348072433,1.508342251269697,11.057455198553688,23.767672935638725,54.26247663219838,-10.739972296848554,29.53998203968191,-10.847500044228042,39.87248818637529,2,S01
160,0.5169290688438287,1.097538354690415,10.904610513301913,21.067463385532196,39.352810327114156,-17.612728449428637,30.70456593088811,-11.259017757284383,39.9937326017857,2,S01
180,0.4381826200238035,0.9519275757743,10.695975863332208,17.046770782838234,34.37270569386262,-20.329526817647224,30.297711554651926,-11.12127973875684,39.12998469151961,2,S01
200,0.24845274145207563,0.5809690980644433,10.52669338946979,4.060847272080957,21.71410794957136,-19.011702412392978,32.526854991270554,-14.636691660994575,38.29114116444569,2,S01
220,0.16316975655307903,0.3217114668284556,10.44624289230019,2.700045364590304,13.526865102141645,-19.217963397512772,32.032218528444204,-14.401499132193706,36.72474106045805,2,S01
240,0.013513092790456732,0.15764469382001137,10.242680572788185,2.565250053263349,11.938653157515677,-18.382342121067637,34.06952982453703,-13.313053820586394,37.320620750216506,2,S01
260,0.11707054520855094,-0.018227977377869374,10.329408480107118,-3.527942847021837,5.105360838991369,-16.798734449842165,32.35682311016876,-13.54960507481889,38.35871825994778,2,S01
280,0.13821470858330007,-0.1200369292593775,10.091914890933253,-6.207805134107936,-7.753531265689646,-14.985467617141508,33.78142744538817,-13.749133259325344,36.13486369137705,2,S01
300,0.10107309602117859,-0.4682886327413792,10.15258544237725,-7.064911989558711,-9.734425370825077,-13.496440601350828,34.94926465024574,-15.187191633546353,34.983413929562055,2,S01
320,-0.06719128573003921,-0.4990996467898233,9.806130475486276,-10.304607218259605,-14.934901505137056,-8.89602881781679,34.5355407511307,-16.273782336290985,36.310756300637976,2,S01
340,0.06741498639522608,-0.6224620424123064,9.820798211862595,-13.186962845210193,-21.500699448523825,-5.982731197828059,34.764180543495954,-16.010390895493927,36.18941844533597,2,S01
360,-0.06864093494764514,-1.0313445143398794,9.773002271586892,-20.58010611063658,-36.78543095968453,1.6332727367194866,35.35821646849592,-17.583130525589738,35.52203538884713,2,S01
380,-0.3213356987090489,-1.1734602799416198,9.374849945765042,-28.021174281919354,-41.02232951477986,4.222065838863925,34.60666237726317,-17.18874071222512,33.91200354084167,2,S01
400,-0.3131361696956487,-1.4353339743412574,9.389404362189666,-30.539919244826958,-46.26794909078571,7.641457295249827,33.5662144040554,-19.810501167790317,34.1524232023296,2,S01
420,-0.5064880807253035,-1.575406247125512,9.07340344769562,-37.353126562565244,-54.92661294434257,16.62110075718812,34.661909708255486,-17.873381946461436,35.86995775945971,2,S01
440,-0.6276660126554122,-1.5860420392465975,9.108287500173612,-38.8048335558817,-59.21834011560116,17.71794883863684,34.68495721792138,-18.899874823568815,35.07228769941942,2,S01
460,-0.6915425751388856,-1.690873853010789,9.173956924406584,-38.96265787181545,-58.39417227977237,20.327727955777284,33.07960068359249,-20.442697866032063,36.68967156297569,2,S01
480,-0.7075305136257005,-1.5290114184889068,9.3025112032575,-33.924439016817644,-54.11241540150297,21.449718314883558,33.5031088053955,-17.931531586664953,35.83096676764391,2,S01
500,-0.6821007772742411,-1.1674049762239156,9.387608588317342,-29.35971652210778,-42.09547892039622,20.928217916132883,33.67756460018185,-18.853540421097676,37.37127083012654,2,S01
520,-0.3070236849997846,-0.8286649607270353,9.66704872271207,-19.93333282274681,-32.18785392811959,14.806405715557977,33.850789516794286,-21.84795214260403,34.860724299635805,2,S01
540,0.07641272128428073,-0.15369652451056126,10.063123240826286,-11.678164624367426,-8.16004217093872,16.924302363363697,33.44798172164692,-22.716902753117935,37.983505021256576,2,S01
560,0.3469072462418,0.2166499751644524,10.567437608361267,5.908590210990719,1.07976373519747,16.844816831880674,33.99885305733842,-22.61831944073073,39.09125564891697,2,S01
580,0.5235082504284804,0.6448702536591313,10.809310162676743,12.367502310721836,25.18076967171118,16.646071069662895,32.793792935893066,-23.398037091105138,38.086068001155674,2,S01
600,0.7176506152077695,1.137371905181052,10.929161905085811,27.429935222530073,45.88779497135598,17.591253728870207,31.00732423547038,-24.483553851960053,39.06231438289553,2,S01
620,0.6994272324366819,1.354418830416695,11.108900186226533,30.86430275074638,49.1890629171925,4.535522979436409,33.45194448046679,-23.593668998883473,38.21448150148426,2,S01
640,0.8775138359225767,1.5696172359573706,11.306494386734691,28.69938983021198,49.22355566351551,1.6218236095695557,31.683101839899596,-25.867813573178104,40.14871775167284,2,S01
660,0.8684179572579983,1.3913436745894243,11.385006687187808,33.80995780518822,55.15825911110787,-7.353634509118802,33.11369382335373,-24.669773524507452,39.71970667420141,2,S01
680,0.6816682090485153,1.4167601209465421,11.001483492268546,23.475786219417962,51.85407782693506,-9.379248670104955,29.850942048617004,-25.23082185423171,37.867239398326355,2,S01
700,0.650450286740975,1.2791551656741444,10.971642598299981,21.55163496635374,43.03628819814137,-8.350261724246188,31.697313180821805,-24.92087400961615,38.208582268079674,2,S01
720,0.406029531862074,0.9506211431940961,10.711142288283375,22.351656642944942,30.888916956548147,-14.682260487925904,31.07751801056554,-24.751387645677443,39.6757132144943,2,S01
740,0.36745093331747136,0.7316521011303889,10.67575003834825,11.621565724624933,25.041569054430425,-19.06930098977775,32.656902768011484,-25.282166705679256,39.073795307227186,2,S01
760,0.3811698311414794,0.5494518753613045,10.449495533874641,8.32233621720026,17.229242227300908,-22.374190313536698,29.4984802910949,-26.342608676838957,37.841102449067265,2,S01
780,0.19326312772823523,0.16940045467002227,10.319816136156057,2.3847739376180073,8.398904647621693,-18.7318452764878,28.841497267693686,-25.39610764865186,38.60768790648521,2,S01
800,0.07243105964281192,0.12343322763164824,10.348761213170489,-3.844626024555473,2.209631774738231,-20.835517420208816,29.453320483463227,-26.726879917569732,37.63331649518585,2,S01
820,-0.04837069042606357,-0.07504155164538086,10.030317100917207,-3.41409088405307,1.1912842970225503,-13.487927809902487,28.760488113216635,-27.70604689077181,35.63236675519448,2,S01
840,0.02597417379656143,-0.1846492855398285,10.065036621651306,-5.400537284275067,-4.784682785025936,-14.232538187423822,29.594108187009592,-28.634655439063895,36.71816603058992,2,S01
860,0.06307711046314567,-0.32682562729278636,9.884748889771007,-7.250126985644648,-15.352426610774494,-14.046130157019872,28.78567126564097,-27.22240662002027,37.0507844724946,2,S01
880,0.04964900454286865,-0.5450282332848471,9.686411362252393,-13.603354230787648,-15.767072323748943,-9.117287190116121,27.40541845127194,-26.267682942017807,35.71408785481894,2,S01
900,-0.003992556018705379,-0.8817532059676447,9.793138109685978,-17.912475890013248,-28.848690226358737,-4.599004488708887,28.577374458472892,-26.792297893192128,34.81001673574377,2,S01
920,-0.2549125416404078,-1.1399546879836804,9.615157778586545,-22.076223268118884,-34.80449632375329,6.680860306211253,28.60760091770708,-25.69632980832702,36.387400552134125,2,S01
940,-0.3617194390037345,-1.342212051372509,9.460134262712096,-29.148990049328468,-45.856893783483166,2.4399260224061003,27.71686268035411,-26.080388829132726,33.97659968604838,2,S01
960,-0.48688216339902035,-1.6129532329713554,9.32159346944358,-32.58373508060734,-46.112941501377044,14.662123632010212,28.10367936038061,-24.04962582772955,35.58605410851226,2,S01
980,-0.7760529639978955,-1.6330092968152872,9.107537340848868,-32.413335267208836,-55.37962716092549,11.814542963028973,28.123347645804266,-24.163075661958977,35.58715988418024,2,S01
1000,-0.6192118091923124,-1.8189212997117865,9.092138728890596,-42.6595370747583,-61.974540090695164,13.71484243556463,26.53840240731655,-25.288909935490093,36.39759166517783,2,S01
1020,-0.6327475780674667,-1.6381839343837672,9.222120013829182,-40.15789784851147,-55.6875796079453,19.056465020029883,26.656480003785134,-24.240428717332566,37.23280939551486,2,S01
1040,-0.5273776196372958,-1.3841717579672745,9.311275779474052,-31.48495831049371,-44.96367581208088,18.170690219481685,25.432962136326324,-24.434440427899716,35.76661083450567,2,S01
1060,-0.24276321112345736,-1.0503414966550393,9.551438149597542,-20.24404075289497,-37.80905595702073,16.747225496601644,26.371172345027492,-21.99133941321045,37.54700006397788,2,S01
1080,-0.16994387551077547,-0.30042451805511394,9.753199462440005,-18.76013869274058,-12.230791602019838,21.287806889188637,27.57057836228465,-22.59901493253767,37.33066212143581,2,S01
1100,0.22937724545095495,-0.09402203107752727,10.300308946948505,-3.12913170611996,-2.5259675895908806,18.262822385898378,25.084892426461465,-23.26776685733496,35.71240710155029,2,S01
1120,0.4609276945377143,0.5229054931612653,10.531728726446817,8.127643668408268,20.617816529732526,17.45855668862988,25.09634393526349,-24.628535534675386,39.98982315229089,2,S01
1140,0.7460235743040377,0.8623204116789664,10.671490427450962,22.333372797725243,38.44371561962803,15.939581232037302,25.086118171232158,-22.364284026769624,39.70261222754142,2,S01
1160,0.660797487551891,1.311441048395982,11.051391552637257,26.942427441642913,53.349906694245405,11.058138524326619,23.6391323503192,-21.83643019031792,37.47557555139271,2,S01
1180,0.7999676397070898,1.5809350637986146,11.26570498650414,30.965362623418716,55.24598941903067,4.757943702082237,24.190521579448465,-19.252253232235844,40.05988757113981,2,S01
1200,0.8650302611437254,1.6100647372682013,11.135581520775931,31.135050440648623,51.92262353497092,-1.479189119860151,23.62125050821286,-21.204568650960972,37.407957065574244,2,S01
1220,0.823540935682396,1.3875953481059988,11.09971125486004,23.394789753265975,54.891796380479924,-7.81223030199377,24.79548482965378,-19.958771483750674,38.264097144705666,2,S01
1240,0.5969032174748728,1.3145821320199176,11.054839066611363,27.029826717487282,47.50496166659757,-8.813286535509969,23.717769497141852,-18.156071079342546,39.32406654457031,2,S01
1260,0.5611867718282805,1.0856972156161393,10.710724678165423,19.208115804564443,39.20745460875467,-12.266404681312828,23.563630228393176,-17.694030538073683,39.856758412899495,2,S01
1280,0.36176481141623307,0.6224652374720587,10.683889565883659,10.313876722219177,27.912751689668806,-19.72638712428178,25.084770938015414,-18.165206741909593,37.559992728287185,2,S01
1300,0.2874744466235939,0.5906038752391249,10.492875548146355,9.560085280548325,17.8108216713774,-20.59595754154177,21.772419105789638,-17.65224779477182,39.072098778191325,2,S01
1320,-0.07152413056196114,0.2043992251244408,10.350511284980673,0.8616540425310921,10.620300216470405,-22.376250847763444,23.95491052329026,-16.6731660164699,39.92971644487871,2,S01
1340,0.05209968423116722,0.13939619245236654,10.252226074401527,-6.500264568676524,7.935300801156326,-18.92774154615903,25.454973008477673,-19.528218475197797,36.52407799478292,2,S01
1360,0.08966090353714164,0.06783271821625972,10.081140979918267,-7.094913291849524,-1.1730070181639387,-17.493817105329164,23.678157352260477,-14.54373727580029,36.77829459326686,2,S01
1380,0.2211389156697698,-0.2139687404343545,10.124959058419488,-6.902352359893409,-6.371254916538995,-17.038228957342987,23.48756738117795,-14.707077476471035,35.710966093206714,2,S01
1400,0.07152660300646022,-0.21670798458962104,10.044468220247506,-11.689578880099313,-10.867786939497169,-16.746943917401037,24.94840634432795,-15.7522605095194,35.170232385966685,2,S01
1420,0.18246991572336393,-0.563591959578532,9.800276184476184,-9.551093932870355,-12.643643523607565,-4.819600994890224,24.532547400492895,-14.226218077785832,35.667424231016795,2,S01
1440,-0.044335103893182876,-0.6807216080686347,9.807224071250934,-16.620413788343797,-25.568903101346077,-2.199273324963456,24.777759716338636,-14.758747005120377,36.60444651960593,2,S01
1460,-0.12821505903353228,-0.8083759124601064,9.542666034629717,-20.88654291009906,-27.373763920074833,-1.8235063145659782,24.616524541425964,-11.496488592014405,34.869855335055604,2,S01
1480,-0.3480138970057802,-1.2129570386003605,9.512533069730999,-32.70309066614088,-35.469038937606484,-0.22832104139455878,26.294424320593137,-11.82690524009703,37.084351630049206,2,S01
1500,-0.3597538308682553,-1.4216422240500064,9.1104356991878,-29.222169541935106,-42.20447244513281,9.747398246721666,24.244650328211748,-11.51466636538201,35.595696022982594,2,S01
1520,-0.6725337198082256,-1.609508788487008,9.17366286903262,-36.39102910071492,-50.73233650082082,11.907931421420656,25.031739169317543,-12.802836237862673,34.84180713098497,2,S01
1540,-0.6336551134961733,-1.6704883488524689,9.127277300495932,-39.26813623337948,-58.475500874987425,18.861302868699877,25.956109225865173,-8.67605747388017,34.82697081030912,2,S01
1560,-0.7182448352351507,-1.6606619168030474,9.09670623950601,-32.78413767418998,-54.84118560679692,24.504283078630834,25.053546413666385,-11.433594840999278,36.49499847949051,2,S01
1580,-0.5883201575601047,-1.4911531903721449,9.176421535928904,-29.24663543173517,-50.552879559241525,16.56664176965462,25.50138868495052,-11.475758122965903,37.29255790904869,2,S01
1600,-0.445682224579806,-1.155999983459059,9.31623409601096,-23.97602513765183,-33.41745176259029,17.057216702510615,26.54007966754317,-10.114690048382764,39.26212047735144,2,S01
1620,-0.016344729303383168,-0.8913899159269039,9.742781298155187,-16.433917757718806,-20.69771685902846,20.34205630568293,28.264045216793676,-9.358735360650027,36.7709584536368,2,S01
1640,-0.04886987552977168,-0.06191069199147158,10.115244109917256,-4.204538087413842,-1.9889743582628736,14.988798287123076,27.212149737309307,-8.19882393519924,37.09162055617243,2,S01
1660,0.32475403543988857,0.46713021823293216,10.374951742552867,8.400228166712434,14.230750162630974,14.686027919873625,26.338617928435557,-9.305120458393603,38.07951257038812,2,S01
1680,0.4491352636181596,0.7781336058982937,10.79590971735502,17.815262338304077,29.0528691254436,17.116167062289065,26.82738980718093,-9.48816129585619,38.730161777553015,2,S01
1700,0.7143664090761801,1.1160423478382047,10.96794705268214,24.34618613677139,43.62833460174553,9.834806641965798,28.2688281778638,-8.985863067936133,39.214062571513175,2,S01
1720,0.8835408914402324,1.4404081257438128,11.315240949779524,27.774928845681966,51.976842046584004,6.8103362063233375,28.857854622788867,-6.924200613478773,38.8915404935742,2,S01
1740,0.7455931328604634,1.6252276875387133,10.93348571520486,28.842031710375952,57.993231481129335,-0.979754221092986,29.58575467207407,-10.109107350696892,39.203716422922945,2,S01
1760,0.733580681998984,1.6207896918277167,11.195395579145222,32.67510147816037,53.07755737172629,-6.642085339703107,29.489881478281067,-9.412252331880044,39.47678408911227,2,S01
1780,0.7827880108440337,1.6665366210379338,11.078895480740465,27.536606258165087,49.4724795593663,-10.03972226437364,29.046125445809338,-7.135411252587916,39.57089974798229,2,S01
1800,0.5521471083073557,1.202563803771309,10.910470652897951,25.910179637099336,44.35466246335228,-12.289422442406625,30.65365577216943,-7.405996450366807,39.54971011261602,2,S01
1820,0.390904052240737,1.0625049183870892,10.677477055954455,14.221981163073401,35.82365759257956,-15.827455521536605,29.507126410644695,-8.334653616174714,39.498120589583166,2,S01
1840,0.2668366295322979,0.6426523533927291,10.564775403788207,9.92216753896232,23.859048741986708,-16.993575514751125,28.375074178540576,-9.31849331226774,38.52497294030132,2,S01
1860,0.2129596096129694,0.46016538014641756,10.435776161339337,9.535990859326635,9.42861494201681,-18.261336600843503,30.81274881435959,-9.048171503543577,38.108947349800694,2,S01
1880,0.1629181282318249,0.2221673532953764,10.213080679260829,4.566420033700676,9.210376278086319,-15.96325180724264,30.255445968236703,-9.099320297609284,36.265002335546654,2,S01
1900,0.10260000233249826,0.05398895206034632,10.179517143672822,2.7686112360552784,4.636691609658964,-17.889514121119582,29.78621832631169,-9.510332814643704,37.23107775482124,2,S01
1920,0.01768883347892121,-0.06214308844939313,10.036915679658737,-3.956739194971285,-1.7492205939102767,-20.052836229665495,31.43730436735461,-8.563845370000031,38.431760507698066,2,S01
1940,0.031099978576064308,-0.2687818472221776,10.051266004677952,-8.004859374517311,-6.500893722493884,-17.059439692239568,31.141364260819145,-10.584855716966775,36.170138568324624,2,S01
1960,0.09193811606849549,-0.43762568539102037,9.9444184272319,-9.061914561810465,-16.210512370021515,-11.315468699976591,32.795272453850146,-12.63078483000225,36.073796133821745,2,S01
1980,0.045864479514356724,-0.6426471324746139,9.7750511775335,-12.77426069129367,-20.008607469146025,-5.303117570566788,31.59031677784666,-11.30951026213372,36.08011087305814,2,S01
2000,-0.004295210550103484,-0.9728797702637999,9.678209788997439,-21.22905428082659,-33.66054009705706,-4.872296716676812,31.693942683298616,-12.455739147897443,34.535546434234774,2,S01
2020,-0.30795163343533694,-1.0998914308305128,9.675743424434913,-25.262295754058815,-35.248150039706346,2.2155464792489283,31.95273584718282,-12.315334174787157,34.5234551120747,2,S01
2040,-0.42159189323467405,-1.5293888281402706,9.355255100465317,-32.93961980285796,-47.07391981817081,4.041659588951523,32.59073588187555,-14.080621611207093,35.44698549890256,2,S01
2060,-0.5524693991527004,-1.5602365336165558,9.264710749485257,-32.13288376671865,-55.832511237196236,6.949872550925736,31.47726602996316,-13.819914198837502,35.40918149128754,2,S01
2080,-0.6541096052886345,-1.696911334741036,9.08083654863622,-39.778308802297715,-55.364980539568755,13.28956813989891,30.877412918046396,-16.16943278466131,35.43179486871216,2,S01
2100,-0.7181691807332633,-1.7832817112148973,9.261770116218456,-40.05880895231748,-54.22549622624283,12.830034365453793,31.3651493530834,-13.37893354263976,35.55058040314057,2,S01
2120,-0.6525328613260697,-1.5257815055384505,9.248597417107973,-31.925361920278238,-55.41709737551455,17.685103790905472,32.43425145267677,-14.69694597908709,36.06133621346533,2,S01
2140,-0.48102150453492265,-1.1732141936699074,9.33156592100854,-26.72672501501528,-45.82533970081523,22.240650758429734,34.300624457233255,-16.809331109972824,36.0832309627817,2,S01
2160,-0.20360911744805563,-0.8582022565486658,9.598265581386812,-22.31620437850834,-24.033906461579203,20.006989814349634,33.65267930650781,-16.50205838809776,37.62468814034589,2,S01
2180,-0.07509113803806622,-0.4386968717226831,9.874387575993321,-10.633105985172934,-13.002356034348352,22.346849655458914,32.422569972976426,-15.73591810053574,37.715620706593356,2,S01
2200,0.06565473270497246,0.11804893401618141,10.101674795071432,-1.139670167502536,5.908336318022089,17.158899455239293,34.770324690424474,-16.719152007890642,37.52508594401776,2,S01
2220,0.3932740766929813,0.6207984191521299,10.684366036788443,14.595592425071125,22.98547319550407,9.816606354333132,33.191454542883044,-18.104878561605393,37.01401681680745,2,S01
2240,0.6854929300647558,0.8612308936959518,10.977168004785035,20.999682362160087,35.99088802085691,11.824779178176595,33.10854070987898,-18.65887414183928,37.751728188766904,2,S01
2260,0.8003994429879195,1.4258152354097682,11.088360235100918,20.376440177203012,51.1213863847443,3.4891537344349035,34.64927420633167,-22.09568987441476,38.67882081530951,2,S01
2280,0.919787319879802,1.4761508187041608,11.36109058778379,27.568588124142344,48.21175012761007,5.755254911940991,33.36419448898709,-20.40446044350122,39.659129264100514,2,S01
2300,0.8046241073190097,1.5094756447458393,11.303703326221425,35.41923004918315,54.021170415799865,-2.982832334128878,34.81631206522336,-21.12844262558548,39.24454235067616,2,S01
2320,0.8797721687730763,1.5079216406519254,11.056166570315854,28.541877816888917,51.14174038342712,-9.580973202317686,33.168352838802875,-22.292207945606975,40.114209360030024,2,S01
2340,0.46591210539504957,1.362794437939378,10.996116217453613,22.65002485360998,46.694125718370096,-9.862612450935954,31.08044740468289,-20.120318465827484,39.665912280329046,2,S01
2360,0.5425119663499659,1.1944796384510417,10.788555977826801,16.92026325964056,40.77017182837766,-10.708611139415627,34.895873174052255,-20.422987049388375,39.587106414102294,2,S01
2380,0.30002339226381136,0.7323023627988905,10.651333202597245,8.9636359358088,20.885588292608247,-16.951858388168418,31.743624544063856,-24.039723397004963,38.26658454415918,2,S01
2400,0.2664857794255635,0.47395358475375454,10.503413665106876,3.0027423356221936,18.966420994373433,-16.01938996496095,32.61075628718473,-23.00325754169007,37.50646912899472,2,S01
2420,0.14705334721801158,0.42332063448332624,10.333318604926225,5.710014052545318,6.698065025618607,-20.310660883773938,32.06321217688168,-23.84287348824219,37.21528138853517,2,S01
2440,0.07741067857513155,0.11584171200372964,10.175219158938326,-4.4874300695855585,10.832363342839837,-12.724487217863217,33.37942233183627,-22.366934776672494,35.86107078501652,2,S01
2460,0.13474229156777545,-0.015073236090367391,10.299598608599577,-5.925828433996342,-2.4802015539084943,-22.783724575582887,33.438574153581136,-22.50758284159025,35.64852980791015,2,S01
2480,0.05191892601845843,-0.11961024553718116,10.17861220212588,-10.289892543679294,-3.3469850159323133,-18.126147210904954,33.046975897198834,-24.225184720447032,36.86218141687554,2,S01
2500,0.018399418620151292,-0.4252973898796593,9.974830117413187,-9.499710569914761,-11.99711021936248,-13.359305757841192,29.985195328831914,-25.077643539368818,35.93334119175789,2,S01
2520,-0.002887412935481351,-0.4815276275695766,9.845147415243263,-9.701586952290413,-18.437169387258276,-10.162952060581137,32.77080971944651,-25.911020848841268,36.246006778454955,2,S01
2540,-0.052342482169921795,-0.9506049529404714,9.711854433261408,-21.938071425713755,-25.083209170577703,-2.9288290740900247,31.791559656117478,-24.27345362406042,34.784373036159614,2,S01
2560,-0.14220384361372734,-0.9770681567277042,9.579232222629336,-21.58086927304651,-29.767551255900013,-3.271287035203955,32.1584807980195,-25.80065898539105,34.40700122831392,2,S01
2580,-0.3999124057603296,-1.265910184476805,9.423339681811457,-28.584933382096576,-44.62978052836886,-0.8950822148239356,32.43448508614517,-24.927842977762424,38.305944092548586,2,S01
2600,-0.5281172843714627,-1.513013024192332,9.228598769886059,-33.581590327700034,-49.868778807886855,3.713852425812919,28.801877504007535,-27.126462187507656,36.10228177814025,2,S01
2620,-0.5004072671581924,-1.706729268341682,9.12162382965437,-33.391522645415264,-53.55810222441716,17.738130004602368,31.340941005809974,-26.15370813140464,34.25045023340336,2,S01
2640,-0.7675495707711014,-1.5601287785519686,8.99616691659305,-37.32332224666668,-56.67807222342035,17.510859107168983,31.07279258422508,-28.774432954128716,33.91603735201288,2,S01
2660,-0.7668696981843062,-1.7407676576341027,9.095153859526663,-28.61085597526159,-60.1508950803541,21.341113622068104,29.884311658215292,-25.202250538463474,35.77778108293515,2,S01
2680,-0.5106082297801676,-1.3710266055810136,9.125230659548095,-31.896122199216677,-48.71939804717514,22.08488299898309,29.03838669171713,-25.806543277735127,36.50051197963679,2,S01
2700,-0.4354109786283009,-1.055350437956724,9.570446540015272,-24.368474331540547,-32.62457517866037,20.878727730835312,29.607044928639876,-28.563146647608175,36.71434675325242,2,S01
2720,-0.1046720797749732,-0.5169244894286402,9.795762732634302,-13.90595794510924,-16.489109213102353,17.609494531405396,28.609905342256233,-26.277183304745915,36.59009303237076,2,S01
2740,0.12074733622366586,-0.02464604826627096,10.176034241287628,-2.1568034860844154,2.544907944806962,23.20322411650453,27.640504600677225,-25.37991559149774,37.40120070852296,2,S01
2760,0.3537201620053425,0.4130208659149333,10.564780783983041,6.677884062390533,15.362550027943236,11.300316168672689,27.216767174456493,-25.502807791604546,38.10887688468496,2,S01
2780,0.555392349581415,0.8947324880612191,10.853730650888988,15.08412712829972,32.48397574882893,15.32735079227117,28.40305232795153,-25.600767538847663,36.506588874551774,2,S01
2800,0.8147156315065552,1.1761595478858147,11.000096265484173,27.653702846676605,41.44863738776129,12.41214185831953,27.911971071715808,-25.98307585764146,39.58484016854651,2,S01
2820,0.7789847528337537,1.4906147026355132,11.12528333415848,28.353532561820398,53.72893510386222,2.2520080118567853,27.19178069381457,-24.696626474882084,40.662680005574046,2,S01
2840,0.8714833385862608,1.6055616802692922,11.275911202639385,29.487099809499174,61.739546292413124,-9.217335818441946,26.718693007835967,-25.65371436860737,38.60042752446316,2,S01
2860,0.8901183943016873,1.564737545829024,11.168684375019982,29.725446490574736,53.212225938153914,-8.994741787876544,25.74999159107051,-23.080664018881972,37.6572866246424,2,S01
2880,0.6539150862508954,1.4502224634595753,11.039401711984171,30.841949529895093,49.79968189924518,-10.54610879597978,26.12988755062955,-24.3513524296753,37.99720710645132,2,S01
2900,0.5873327618789964,1.1200983061863812,10.84399967546643,24.344943056466395,44.245895003393315,-10.295010402912068,26.227042041940006,-23.610298331928714,38.0486249718161,2,S01
2920,0.3582507822256986,0.797042082580917,10.560351877630083,13.793840149951023,33.14574567567458,-17.885360307434738,26.03683533211796,-23.535870941947262,37.69407394829091,2,S01
2940,0.2607809823408399,0.49981848886452745,10.528382311579115,8.4666195249915,14.874762378753832,-18.99125302858866,24.809251960238583,-21.81528772314994,39.515446946481475,2,S01
2960,0.20920406576191042,0.3175521371610836,10.451191919538244,3.892512728194345,14.53067224134357,-18.685513772311214,24.256588307182216,-22.70017432704565,38.571890184785,2,S01
2980,-0.002065057763819378,0.20584573610489904,10.471876228990345,4.1027745508555595,4.169701495358237,-16.467520750814778,24.112072830825106,-20.36476416245072,37.96294925996836,2,S01
3000,0.170536940992994,-0.055624029866465335,10.426564901234697,5.172941681959894,2.2723909485182148,-11.489287812470355,23.614099477975905,-18.909152329489615,38.32531480697567,2,S01
3020,0.0882598251123246,-0.031621174919274984,10.079046266266264,-6.174048244696971,-2.586566688768472,-17.764620174517614,25.476636406615555,-19.15256960432135,36.10760295342093,2,S01
3040,0.14379983849494737,-0.33349003030722807,9.930751549673477,-8.304918522460097,-8.467443760423182,-9.29799877334118,24.835071057030525,-18.350857215824227,35.76653667391862,2,S01
3060,0.08685839701857301,-0.45831132517878576,9.942498525807622,-11.968355459272175,-13.622588899211884,-12.257487919410066,25.95158230544959,-18.992809669203766,33.80217254935508,2,S01
3080,0.01719855994760451,-0.7052070725077315,9.853405267534164,-16.946156236400412,-25.563044857465545,-5.240619538629798,24.094090013259503,-20.469459557629524,34.90233909023868,2,S01
3100,-0.20653870163868068,-1.0772113001915595,9.742184406671015,-19.57640454965412,-31.11914733995535,-0.459080383008344,24.548510660696746,-19.049106647784534,36.59196823410382,2,S01
3120,-0.33921875611169006,-1.2482841206517412,9.701872592110734,-30.9287164379581,-40.19125543838601,7.09203298555297,24.098635167111013,-19.621756926713225,36.403200020989786,2,S01
3140,-0.3877236521859653,-1.4604416638793307,9.410513659502554,-29.686705417613407,-40.2619323677912,3.9771154661861474,24.885847348989017,-16.24383565242985,36.535253902584124,2,S01
3160,-0.5307102125128121,-1.6516929831633733,9.14675225172088,-38.26177341991261,-50.10709605015068,12.859737432542692,23.287145091448338,-18.27846252458223,36.85366079090345,2,S01
3180,-0.6706809904613966,-1.7836318419900095,9.218867212012013,-37.166496455144255,-54.138297274841214,14.212240158580508,24.813819068685085,-16.259963677782984,35.72608288928902,2,S01
3200,-0.7167283729786499,-1.7458280902413796,9.011174194545829,-37.55731532826763,-60.64614687390046,21.16793321412393,23.33323294544943,-15.645060755474624,35.568522028095316,2,S01
3220,-0.6702804576445164,-1.6392167815239358,9.097856298306208,-38.49893647004098,-48.269503491856334,19.54248079910887,25.262960148314917,-16.524102462273277,37.89518867388081,2,S01
3240,-0.2996150546581401,-1.1475833485076388,9.390713980135677,-28.949936415519122,-40.59923079049872,19.776222159862588,24.798157339565563,-13.400700828610441,34.62723535758403,2,S01
3260,-0.13771213526374831,-0.8114660866725125,9.57394499186328,-21.55029776687208,-27.535801203316208,20.55892154460999,24.587391977547213,-12.865089118232952,37.43572852021842,2,S01
3280,-0.00036177497664943714,-0.31581935321367915,10.039650810577353,-2.9898953725276467,-8.42914960235326,13.042557594893747,23.362173152189424,-12.378789108959182,37.97530003032577,2,S01
3300,0.5037340414611747,0.32773487297818293,10.441031720271447,2.236174307341426,11.551844886582009,17.271966572391044,26.00326159249547,-13.36281898108194,38.80179394531892,2,S01
3320,0.5103016813106812,0.9097228992092303,10.7316487865818,18.246897282194094,31.79190863825065,13.842039226290572,24.56046626513156,-12.106518167879482,39.607835364144066,2,S01
3340,0.7676396910497314,1.149813022749633,10.968871823884273,23.05183780815974,46.218053676946845,7.975753869750909,23.700001412512993,-11.159451222579557,39.5653642320885,2,S01
3360,0.6901233145735871,1.320349970132093,11.041310276714547,28.9503366408919,49.7148394786047,5.161968417659937,24.039306547544392,-9.98456526289069,39.273258957872045,2,S01
3380,1.1589428401644757,1.5842074062880085,11.173012198442201,32.63680685375641,54.08088210582288,4.490480256764796,25.70734188053133,-12.583225302668108,38.56203387495547,2,S01
3400,0.8742901506195861,1.686000756797894,11.122426794184465,31.196081034529595,56.71367324343605,-0.7296511274127983,26.838744323334712,-12.530969567469013,39.388528373825196,2,S01
3420,0.6708938742889755,1.316130814333795,11.061835452104143,27.929113759108862,52.7486305402704,-5.276422166720792,26.57602914708351,-9.599203734027203,40.03352769792843,2,S01
3440,0.8214368511431733,1.2039763370155125,11.109468011809321,21.49507554504629,47.1145269279945,-8.2472356997917,27.52985729939431,-9.57142492511629,38.824398903838585,2,S01
3460,0.4635902597020132,0.9793971684048426,10.752852593958517,14.361729516020674,35.4104752752587,-18.54769530709909,27.393939659163365,-9.255651874364146,40.139918325538474,2,S01
3480,0.4628880610165902,0.7406284978191042,10.512135929728705,6.593503533059805,29.625342999496986,-15.669885400784393,26.463752149535303,-7.178051925502412,39.57993980328579,2,S01
3500,0.29184852218752294,0.46486495691679924,10.491482496908159,1.179463364751408,16.201695450196052,-13.277674001520106,27.658232124754207,-8.45975911587283,38.219853236735766,2,S01
3520,0.28019911037306316,0.1428541877751374,10.291858008679633,7.024363103642645,9.812163306714568,-21.071625265138902,26.76831691263947,-10.093876660736234,38.45611525346679,2,S01
3540,0.1965250121747239,0.2155838036226682,10.193626217230305,5.425808578938077,4.4793475859848595,-16.086149476651727,29.218175958164977,-9.017827497916347,36.79778449920638,2,S01
3560,0.0937053472015376,-0.03962880460215443,10.217200737172439,-7.0397195626789415,-0.9454426658736641,-15.434227716069403,29.35899514324821,-9.427745782637704,37.76435965568197,2,S01
3580,0.24617472609232507,-0.3495173266555257,9.98628016581083,-4.155851348158107,-4.639149295852167,-17.757441767338694,30.132642160037186,-8.497047097982916,36.299653564736104,2,S01
3600,0.07747863289071008,-0.37652159654731293,10.012833851884153,-5.4412726422225415,-8.627997149385402,-10.92324493890368,28.503737393515774,-7.409734426481537,35.486778854619004,2,S01
3620,0.03421533912565386,-0.5833015302043956,9.758231389289385,-14.571385572494052,-17.73355363890538,-8.022637849182402,29.377453331054028,-7.702710983683459,36.50702980924422,2,S01
3640,-0.09731962660859811,-0.8940575288964394,9.709051580943267,-17.82754645572034,-18.72015555039618,-4.777989797675783,29.551588243524765,-10.575407350325207,37.85517030936505,2,S01
3660,-0.28675785244277097,-1.2032378138272386,9.598083742969054,-22.32131141830518,-28.434259298549353,2.7212901505025435,31.611316645253495,-10.5020965400185,35.62101801162757,2,S01
3680,-0.5173409743637857,-1.2875972190578169,9.484620904167201,-30.743789772565115,-42.67737421073215,7.0712817694605485,28.571373577326845,-11.388555818095774,36.99029309311716,2,S01
3700,-0.465846454792717,-1.453860357532338,9.046111222565276,-35.87619668216263,-49.876923758244295,9.835622188097735,30.947515616399176,-10.533044248488645,35.76951720722562,2,S01
3720,-0.5099547863416697,-1.701179403834795,9.103846239750577,-36.3468476911324,-54.89014055232908,21.89039906354668,31.81149836421195,-10.418988830245418,36.29754623631517,2,S01
3740,-0.6105627045454153,-1.6520830573296834,9.01822003265047,-39.741018118517026,-63.4488471315254,16.808801578558853,32.27885378206396,-10.619542108219663,35.07542577796549,2,S01
3760,-0.6411273223335768,-1.6764934099965083,9.158060641333206,-39.99661701013276,-54.54938281759238,23.603466455611667,30.943271278666586,-11.54677660388672,37.27061242194815,2,S01
3780,-0.45386299887862724,-1.2691108267331006,9.333464851622129,-31.236352828933438,-39.476479253538685,23.55149183363852,33.356571554832215,-9.94613280828063,37.56411744622185,2,S01
3800,-0.3950400778877404,-0.8832392310957076,9.579943175799672,-20.292156142074862,-31.012292987140626,19.04638041709239,33.013177607735635,-10.946061468774827,36.27232057694771,2,S01
3820,-0.1606108511145932,-0.5868122272220797,9.784018475444919,-13.988601159758915,-15.390424030816598,21.339428687550242,33.47291922200442,-11.75159673111953,37.73543681172673,2,S01
3840,0.2041622400779325,0.04683076632701447,10.268164140158232,-5.456773809574864,4.643779074298848,11.462205914626313,33.581671138925806,-11.822405952691136,37.698748685740846,2,S01
3860,0.528300881702817,0.4992684730345132,10.470481276485135,9.13988323494149,24.36162601220256,12.994255890083174,31.943231297490456,-11.315727630565007,38.14403914917813,2,S01
3880,0.644240340839734,0.9015731476277176,10.910752612095441,20.438119673600596,34.47516293707244,12.591005409480303,30.63592995268144,-12.315211842227962,39.455311125883206,2,S01
3900,0.7552616946843123,1.3396672373771548,11.11813584370392,29.070907429382334,46.09175847363134,8.506885246337065,31.699058467102873,-13.152632220401813,39.553449147233266,2,S01
3920,0.7334763442676004,1.5617024292999724,11.286936793922646,31.672500584021844,53.9171152968441,-0.2517136151411782,32.67332304083037,-13.546816828208161,36.53472159635453,2,S01
3940,0.9030152640328589,1.6473538985696332,11.205189189728088,31.079648189761205,51.834364701864295,-5.787669924255974,33.13868202843574,-15.855073194968407,39.677029082067776,2,S01
3960,0.7958057015411897,1.6633913209713649,11.072229366464326,27.46514219347935,56.767211715791966,-3.2235391246716767,32.474459106754125,-14.828709037695916,38.727089801293836,2,S01
3980,0.668536066643243,1.3467116635329293,10.913071623269714,25.914334286765747,44.93308920131938,-6.317931128801904,32.713970051306774,-16.20650880988137,38.04430593654111,2,S01
4000,0.5298050205870611,1.0624821793985615,10.826321974103536,22.439943407701367,38.99574964275343,-16.123550971261444,33.36330074715113,-15.96627659967151,38.54339019260512,2,S01
4020,0.4034391176968185,0.9050576754091986,10.686693801974195,13.901936142565859,28.164894847938015,-14.54420300660515,32.51489174310108,-15.559071638301493,40.66340897810513,2,S01
4040,0.28229266215563753,0.5925098349760836,10.519684503916176,5.590799743799926,19.220242068332315,-24.079224640592194,34.83432156294191,-16.231182499246195,39.94413302211284,2,S01
4060,0.053955214432761855,0.308317599147168,10.362721630416189,4.413591918916638,10.490742865260513,-19.372255414703858,33.75287877680012,-17.085701169603,38.005477506827305,2,S01
4080,0.19353008470906669,0.443540193044853,10.26115067058606,-3.348242108040889,3.4996976881483217,-15.125553304119865,32.931588094520635,-18.07129516219057,37.747286894766845,2,S01
4100,0.1504167356451174,0.14470118377602878,10.33576473303754,0.5088420565321128,1.4519634515746176,-14.334318393176483,33.87806590222971,-20.181207768116344,35.31649448665852,2,S01
4120,0.14427158169515292,-0.2710198607066254,10.164388001910728,-7.65022606682664,-10.860262762727979,-13.946477426514571,32.86616531397323,-18.904285149923016,38.161317742924325,2,S01
4140,0.12591431716179427,-0.3060361347599432,10.132667992671246,-10.414279416836846,-7.4234635869803824,-13.737393930782526,33.991023451062304,-20.340089343463294,36.71963680692189,2,S01
4160,0.06076571724777137,-0.38529956416931743,9.980869219030668,-11.217888661218879,-15.345012080108944,-9.491440921651913,32.74644892225663,-21.50139013079623,37.61158345065159,2,S01
4180,-0.07830019868697055,-0.6923301310787233,9.69057849529055,-16.73977878148656,-19.795490482738987,-6.741668830264132,33.39629872396209,-21.49628128593502,34.6620508109783,2,S01
4200,0.05689622253675031,-0.9987034474630072,9.563517975408159,-19.359301041233238,-35.35177408992218,-5.303205689415242,33.87303083286228,-22.207605480699705,34.86386105596583,2,S01
4220,-0.31154211296898415,-1.2458249754435033,9.27228559122436,-33.19908647578228,-42.591228354531694,10.961975101366221,32.02514953229676,-22.987749337481752,36.66499702432047,2,S01
4240,-0.39815925891001525,-1.4867322328906976,9.298880395444783,-34.90517005482733,-54.531044978119446,8.27279035525388,32.373744246651526,-23.173974097913092,35.05424688396218,2,S01
4260,-0.5544509754807442,-1.6582204628219317,9.055802253149128,-29.0277403604596,-48.48165565086259,15.769259697575887,32.82187143582479,-22.430981617530392,34.511691524328086,2,S01
4280,-0.6827168463217919,-1.756076349430974,9.050694282237577,-39.24130983054746,-56.64570826295441,16.363390435783472,31.032256483996225,-22.65529816034344,35.141155217070235,2,S01
4300,-0.6643445632214783,-1.6231000270251654,9.205833860992767,-35.855097353902835,-57.869135702271876,12.72508493534181,32.3617317346752,-25.35063668762283,36.08444956336094,2,S01
4320,-0.7237341286027071,-1.4384145418528371,9.236985412955239,-33.36813496422738,-48.946369654933235,21.177426453148975,31.8713819234822,-23.7875797774685,38.31909845311919,2,S01
4340,-0.5774577833628046,-1.0725237640481438,9.542160774259155,-25.244215255700247,-40.2851554160204,23.55905560869777,32.403759809819796,-25.29783583027471,35.92094390725467,2,S01
4360,-0.19784129156366229,-0.7979270556069247,9.76926241445275,-22.21808797258619,-26.161789655197623,24.381967023943446,30.352754333455135,-23.646651047660328,37.06832325197948,2,S01
4380,-0.07327253247162469,-0.33391115082824435,10.09389927720753,-3.355339647406146,0.8605411380694672,17.619599257934652,30.061786026153513,-23.870412262912858,39.23784758084687,2,S01
4400,0.3406544775608479,0.3112019511996941,10.411366890746006,6.309295701173373,16.539507804574175,12.158171508827936,30.694987944737743,-25.70192524895417,38.69516372834399,2,S01
4420,0.48601515636262427,0.7670419005696443,10.662911544414916,21.246006361299756,28.58848032352926,7.61210449712658,31.160934253770847,-25.820099880286868,41.30021105571851,2,S01
4440,0.8981503948595526,1.1090670287995759,11.013708416267411,27.004284062634586,40.05954396028834,9.409021395046464,29.032064282623256,-26.299255483567933,39.3821666483576,2,S01
4460,0.8396509382892514,1.5184314311881455,11.117851776999718,26.85280328915855,49.544187620209094,4.35726098716522,29.909099915525545,-26.885659547818552,39.26291389903953,2,S01
4480,0.838885911398758,1.6319376653007944,11.216051748647471,28.504793321616848,52.62298259397458,0.7683313719674576,30.87702746491878,-25.509232035474252,38.095469301969096,2,S01
4500,0.7397211423010457,1.6411117066560827,11.127673789349661,31.462236491221507,57.97503375252593,-0.8696277813115373,30.853135598238406,-24.44138703481429,39.10425584451309,2,S01
4520,0.6296138686712807,1.3959000568280253,11.017957230648872,28.85395888750725,48.819508020885245,-5.233218382164299,29.927267881567165,-28.00344073169035,38.41532035741407,2,S01
4540,0.5430505919922995,1.2072650887235072,10.849304835240043,23.023894474575886,42.19733193693726,-9.955715143492526,28.083959099537726,-24.425191609732444,38.81583215586464,2,S01
4560,0.30328240992776057,1.0285908763870093,10.780178174696857,12.309596744998995,25.84646942418224,-10.420176155350592,27.004679164047893,-26.355987994935575,38.27969558477608,2,S01
4580,0.08241431099493605,0.6351920940401381,10.57049834117886,5.975359786421055,22.786267069427673,-20.465174182678815,26.64563386340499,-25.272883226404904,37.89004814761039,2,S01
4600,0.13508403364231553,0.5091243490604063,10.444783682469492,13.652554361765379,19.432506114232975,-18.550551719532336,26.5129702560526,-27.092196904104565,35.43135871163711,2,S01
4620,0.1250989924241156,0.2891996452314936,10.28874921236012,1.8832787035234428,4.241219595631118,-20.21256989754681,28.141568691006395,-26.017137111691795,37.45581907973212,2,S01
4640,0.0758780165395295,0.01582077367301714,10.331976918486664,-1.844634732688733,4.31210983964172,-19.252466359872873,28.114926548224336,-26.103446291794068,36.758576717432426,2,S01
4660,0.18425865308507175,0.025493484490467594,10.060471085365641,-10.277977701300474,3.128268537847897,-17.278783193818352,26.52861501741055,-25.056159225019822,36.95471386877545,2,S01
4680,0.16091782221327472,-0.288560755912949,10.148115217571226,-7.070200311132331,-3.167637112413365,-12.834548150466581,26.709363014815974,-25.238159636552187,34.93482240468253,2,S01
4700,0.17872471671705256,-0.4888110570952089,9.961804462361139,-9.349046351868793,-13.906226184745789,-9.000515706450459,25.376652724235253,-23.59614911877909,35.58009839307264,2,S01
4720,-0.02365700552050433,-0.6497159469086895,9.868128303863433,-12.877551746581734,-18.61700160623534,0.3737829538616907,24.992407074451435,-25.719640779579432,36.05858975417713,2,S01
4740,-0.07479466366482446,-0.958058418525833,9.802607345212556,-20.304404318132075,-32.8374052603092,-5.386255917828231,24.406194125722536,-23.625822160543002,35.9203605012751,2,S01
4760,-0.20158968702210975,-1.1132102381797813,9.655402552632346,-25.207089659582177,-37.480072578577804,-4.782028195916214,24.326340084690894,-22.27796102770173,35.88374518076036,2,S01
4780,-0.35030988393530527,-1.505353778870026,9.308529543046118,-28.19662410837089,-45.585908550073285,12.219156407862029,25.41564020219085,-22.74063373528967,38.03985921590825,2,S01
4800,-0.7217111514881442,-1.6904942946551653,9.137577648882676,-33.97886172074921,-54.499700554761674,8.754932880421398,24.997253853982663,-22.758581539971118,35.17208530087993,2,S01
4820,-0.5583750336716682,-1.6516844957000854,9.012590532264916,-32.185265101274446,-59.19330898216797,12.999243315296841,23.298732176938046,-20.630401114884393,35.343598398914374,2,S01
4840,-0.7738092893482397,-1.7585098340728513,9.012164343673861,-39.651603586203024,-59.47976641014963,19.711884560789912,24.76635670423237,-18.881377364234517,35.47643533269395,2,S01
4860,-0.7871595085396608,-1.6362204816702965,9.226381986480861,-38.312515672185945,-53.05082458274919,20.268131186994392,25.155628050175274,-20.98836567637329,37.99895708041666,2,S01
4880,-0.5507139373727142,-1.3529470364580132,9.397680766686097,-30.47877016613954,-44.209915170001686,19.171573249178074,23.92947203448344,-17.889060874550594,37.85265778096302,2,S01
4900,-0.34553055322280535,-1.0423528661067203,9.547878776207783,-20.64505847902151,-33.719438208228645,22.446476809058886,22.820284872886695,-17.959884046243747,37.91885895676953,2,S01
4920,-0.08630788280397594,-0.3387064859363319,9.967201429211881,-12.417848738723514,-12.184986356004737,16.38205838386115,24.931132468338703,-18.850832806509096,37.79213058520273,2,S01
4940,0.2382932078497659,-0.011783625219713545,10.42648577371332,5.531014658846831,5.745164548109651,16.6305457174289,24.264731714038035,-17.027415850238476,37.83678728660525,2,S01
4960,0.5629806110379949,0.5064068206042016,10.699715062713372,9.423106031864542,22.138741552848682,13.092805380900266,25.239487293166125,-16.928935742492982,38.48554202091353,2,S01
4980,0.6995607797111912,1.1219871645889994,10.786696894624777,23.15954651833849,33.042559139855015,9.051240132867765,24.595710024346936,-15.50939892467599,40.47239108336936,2,S01
5000,0.8542931011481646,1.3771704550380695,10.946367671442333,25.58232766570521,46.1543194575132,2.6638512073531246,25.116147797565215,-16.266025148552288,39.47570035245608,2,S01
5020,0.7597836898272271,1.557145906444669,11.120155588868037,28.80849364629049,52.79040967358538,0.8870247563592618,23.80153125876462,-15.354530521963973,39.697426498707124,2,S01
5040,0.8942424716328868,1.4773924272838082,11.265819935046196,28.613285977183896,55.15613686398601,2.7338816409363083,23.36395489459794,-15.125467345508355,39.80099065916378,2,S01
5060,0.8830920438368447,1.5768143194161348,11.081011685813943,29.973947519235285,53.843409387094255,-2.765560812727285,22.38531156383822,-14.904940626630072,38.701241623315425,2,S01
5080,0.57984693749146,1.3034325784230798,10.888304217050907,25.501527270555584,41.647626192041265,-15.425089272354276,24.823171555768923,-12.661582832977214,38.999638919968014,2,S01
5100,0.3740283148718202,1.13197401614721,10.84129822599604,13.663135521924715,35.06167574962738,-14.349388728580424,25.864823196727997,-12.691707984818521,39.66214560928561,2,S01
5120,0.3094690319167533,0.8491520102733205,10.614579673603261,15.671857802531179,23.77465493292443,-16.362861802550867,25.102461853168666,-11.977892694262435,37.98786307064532,2,S01
5140,0.14560973366467939,0.4866544898726696,10.418473477473633,6.06808722342213,13.161583634335365,-19.006912312636242,24.87784722437796,-13.724268298161467,37.85540525811075,2,S01
5160,0.2203828913800807,0.37493409358207497,10.228790392490856,2.792557697303277,12.808399970085627,-19.72647592556162,24.026097172430855,-10.39854888167091,39.00928536116395,2,S01
5180,0.22085745748699973,0.2621048567960431,10.042264781136236,1.284161044514451,3.2906749120641727,-21.294514940949114,24.958246156594843,-11.902132419320436,39.08570479052508,2,S01
5200,-0.013594155544577893,-0.002684414475030303,10.150198323841451,-6.740771647909408,-4.408090535460213,-20.190128418632185,26.79642074103836,-11.851053150974337,36.66004222359482,2,S01
5220,0.04076937127289497,-0.3646231518426065,10.082496044575915,-7.18916192797829,-10.828426765669256,-10.974429088681596,24.89488365498806,-10.564575164426024,35.157854446326965,2,S01
5240,0.05594086586374572,-0.3680218299143992,9.956411419694634,-10.984593735945106,-9.917626002859409,-11.09636442350868,25.98307798096881,-8.438924312856628,36.54143432328829,2,S01
5260,-0.0030951915540931296,-0.6772689008545252,9.797728391424561,-10.912952675348002,-14.836070183883054,-8.303563219389043,27.22997471759249,-11.343122395578236,35.89343891687378,2,S01
5280,-0.0011983196442612865,-0.6843397456806386,9.635763695700664,-9.402597133271307,-30.269506577028928,-0.8435522523194049,26.342644875884627,-10.962758441793802,35.20431367710073,2,S01
5300,-0.18479462478394085,-0.9996567509224732,9.485034807879375,-24.07289018016486,-29.389738834158752,-0.30226147928377756,25.236510728925182,-9.370992256405824,37.349854250585054,2,S01
5320,-0.2211180577276223,-1.3006252279780763,9.355894195666615,-29.40663673151688,-38.13571686886404,1.5650310875682458,26.34995702829726,-10.50767392103853,36.29516605641797,2,S01
5340,-0.5565106355850845,-1.3916472005538227,9.29670461185961,-29.26537076352844,-47.2226586897865,11.291908989201497,27.49202015611657,-9.109891271697965,36.23347373481086,2,S01
5360,-0.5584481035032194,-1.6306314886523459,9.087538316392394,-35.49768142868933,-57.199749472960825,7.288390028607676,26.237398379714268,-8.703098398824505,36.70848914984726,2,S01
5380,-0.644490193534189,-1.7264154943547334,9.139681480423826,-38.78767464079175,-57.63649450909176,6.9142173941946385,28.10870123095468,-9.321040077410723,34.71191578722341,2,S01
5400,-0.687923831949783,-1.512898786806409,9.093669288278901,-34.77889750052753,-53.798554604074454,16.042177761286524,30.025298708670178,-10.408456882121163,35.773024810693414,2,S01
5420,-0.5860181587234998,-1.4239722947422393,9.174250497108094,-35.79370220437517,-47.22099936943376,19.177624833231015,29.381228656777637,-10.14853146789953,36.51155025766159,2,S01
5440,-0.45189435849573156,-1.1253807542165652,9.414003795641303,-22.808729258230304,-37.08564221975013,15.573227695801616,27.789121858915802,-9.157662052334457,38.6518345059134,2,S01
5460,-0.27388295667626905,-0.5774120469755244,9.776330244054222,-15.959961849375958,-19.121228887798537,18.677596775000193,29.55658877791049,-7.615156450442825,37.708125799103165,2,S01
5480,0.15468122331793782,-0.08937104731752732,10.186571517060488,-0.5900212994138303,1.5016182528057678,15.321597801915559,29.16044137813053,-8.321684055553906,36.5748239580071,2,S01
5500,0.43028623275102196,0.5283830153402622,10.465452381153224,7.907807243364444,17.50026196938479,13.10884639386984,30.95881354603864,-7.954350593420279,37.36295842808249,2,S01
5520,0.38966299323171083,0.9460021997084482,10.876210006370485,12.924695610621633,34.973847962637365,13.779580740255621,30.46717434984354,-10.379425056249667,39.90304631090066,2,S01
5540,0.8212432658524377,1.2501588761151545,11.097543659436191,28.82791020437794,47.42738696844764,8.003846000400902,30.940822103379293,-9.354542956748247,39.7411242950248,2,S01
5560,0.7443444197114267,1.4074871861100977,11.317939810708104,33.483806816259424,49.85543555848679,5.161195475872619,30.17433366498941,-9.449313672545557,41.539545995051725,2,S01
5580,0.8968412995936215,1.3493224766746204,11.167522115943045,25.57526051982345,53.124949516973274,0.7942355614737392,32.0414155026219,-10.194774958023082,39.922007546961126,2,S01
5600,0.8051762990770065,1.4028046923041742,11.22509653092559,27.966445201396095,51.838132652791735,-2.2190883092592055,32.028429378268555,-11.677646450334928,39.69975572760361,2,S01
5620,0.6797250515697494,1.4725515401866593,11.020818091823411,28.704841451811408,47.75468648902317,-6.4688588572549195,29.736678439832318,-11.593467366591304,39.63223217227647,2,S01
5640,0.5386425568150255,1.1034160794684464,10.794667483368453,21.412452801304067,38.852387494502864,-13.112946440559103,33.21380287286777,-10.630242791076315,39.98848342190992,2,S01
5660,0.5014870021987101,0.7483820598245219,10.55887560695981,12.442530988532639,28.213454086701095,-13.350959468838164,32.36689344126643,-12.159459586551504,39.067638942255954,2,S01
5680,0.36431103570894874,0.4894074802763469,10.612559557324143,8.532014488823805,23.7521327831004,-19.039368455278932,32.23729727368328,-12.009693697164979,39.60176556340111,2,S01
5700,0.1402623887802005,0.24330840789921815,10.466559351381377,2.243687669083985,10.713353052547443,-18.10524881683831,32.76059407587216,-12.37312392699481,37.11042872921215,2,S01
5720,0.11542453029867226,0.22427662513729912,10.207733693404778,6.2808485781090075,9.96169211757692,-18.287934674262893,33.64713864027818,-14.133150695140987,37.58045861493502,2,S01
5740,0.10798662491790838,-0.15535536635837383,10.139818000136616,-0.2603360709413236,3.5746898282146296,-11.95959496804082,33.728314870854845,-13.651408678759564,38.43271879518811,2,S01
5760,0.05236460565215186,-0.06788197726776243,10.09468970463385,-8.527366973894843,-3.538160044195836,-15.056039641200165,32.075451732212514,-15.45350627228761,35.448261845482776,2,S01
5780,0.1297459230728194,-0.25553922604718193,10.117864310761314,-9.067973761609686,-5.236962853724023,-14.866326188735249,33.80327670883558,-13.385315628457107,35.71055171735245,2,S01
5800,-0.06492310900860315,-0.47653833140502544,9.996369590255538,-14.639286396468094,-14.659434666605012,-12.57550007352579,32.466375295383834,-15.594502344593984,35.94356102943304,2,S01
5820,-0.11820915667821957,-0.691135065571163,9.78086917908843,-10.065091697647668,-18.322292152248412,-4.334309174528119,32.42689979493843,-16.096368287529117,34.45598625787837,2,S01
5840,-0.05508803976831922,-0.9147458262511805,9.637545999247445,-19.13870417066005,-32.6708815078705,0.05172673364427294,32.93925664822704,-17.5424689494196,35.052325658768886,2,S01
5860,-0.3903798549886114,-1.2327875896411324,9.55313301320858,-23.357325275064888,-38.07485323709528,5.6870502538529335,32.20410488090809,-17.9375137894062,35.04689659307407,2,S01
5880,-0.529251788932438,-1.4409258975466768,9.19783078738754,-29.791198543323045,-40.91374383682798,9.352627641237031,33.70626748562914,-18.653975971662526,33.706048089358944,2,S01
5900,-0.5670642734632266,-1.6285971373182675,9.107317322847852,-35.610096073835805,-54.9569376878253,19.5050851227236,33.16489850110356,-18.726655736226526,33.38506073483472,2,S01
5920,-0.49266988804396206,-1.527097254523738,9.25836873341137,-37.60603069223049,-59.23770731660114,8.710363731758585,33.73845425443432,-18.085971199910297,34.92341312913064,2,S01
5940,-0.7562638857193709,-1.6501928486275461,9.014909974930298,-35.24975624420168,-59.89595364648787,13.350407388089915,33.433292836858044,-19.188813977118308,35.35985461698617,2,S01
5960,-0.7152601165999585,-1.3359794032729297,9.09067491575906,-42.84399595374407,-51.55607785471559,18.235341213371623,31.53484462573778,-18.99331747086097,37.253703971474145,2,S01
5980,-0.46246443744894017,-1.0716644318401112,9.486320867577554,-24.60170546040727,-39.62204448326591,19.233134807822793,32.88769342024683,-21.073811224563332,36.12398821524484,2,S01
6000,-0.27312008112139496,-0.7924838972528374,9.825189164714713,-17.287249341788833,-21.196641837151244,20.223791082397735,33.82237274278927,-22.115637428845485,36.59068285721031,2,S01
6020,0.11474416349048296,-0.22222619938290764,10.191564919453471,-11.785515650500793,-9.149095624282584,21.55791141166754,33.869650000261956,-21.462027375591965,38.03574904741438,2,S01
6040,0.33647141326776536,0.31065905283474815,10.397874391967177,7.587701105600302,16.862950462987413,17.87185999011232,32.75678784103177,-22.543342338594606,39.416344221571244,2,S01
6060,0.531647518071382,0.6242633460088063,10.766986883979841,18.108634325593847,26.780266841055397,13.657645442894081,32.95360678186678,-22.432553645033774,38.00471747284317,2,S01
6080,0.7007368574730143,1.1190456043260373,10.959644739598515,22.14371437932051,40.02807500576704,6.906670733883326,32.1427157765095,-22.846225621818526,38.11060192777137,2,S01
6100,0.6415142249297744,1.4101385211688116,11.11642271495488,28.797613907133904,53.91616140097864,3.3556369411558404,32.123104132887086,-25.571864977503992,38.297409325237794,2,S01
6120,0.7146341080761253,1.472096240356841,11.050253107593283,32.34301245275295,52.652374820467884,0.0986563352034111,33.45539010110318,-24.310871926746596,37.7348866435815,2,S01
6140,0.9458897445610517,1.6197840448526883,11.051985259416655,28.06671496580046,56.47341772838805,-6.918052008699691,30.85992393245784,-24.51061380013834,40.30311818450326,2,S01
6160,0.7318643136000998,1.357147596425319,11.094823712148258,29.056543345595923,52.5294594241457,-5.883338809510731,31.850773226247213,-26.202298734947085,39.04405365684987,2,S01
6180,0.572168544288896,1.2057508252515234,10.936175212002505,24.964275053349276,40.13745111362761,-12.640098009335764,32.789852301410036,-23.424899545872194,39.25877644981076,2,S01
6200,0.3625183804169577,1.0271017778364702,10.667314910326594,17.23991429911828,29.607743264196447,-9.067519088817406,30.433331188632543,-24.854893029572395,39.5427838587292,2,S01
6220,0.4387079298551484,0.8330585538730613,10.726334533346579,11.228804197457553,19.90842909329181,-23.683326449738814,29.910364264646926,-25.000159836760734,39.915468583033025,2,S01
6240,0.20714592936417717,0.5213137721586043,10.474335198119205,5.988837035081157,10.709264417171243,-18.449374332826668,30.956939121775115,-24.89128650172414,38.210731083856224,2,S01
6260,0.20535844501783534,0.26729007517072895,10.313467617691431,4.840606720877687,7.492734418039485,-15.01441421973624,30.765173957999092,-25.96940621680419,36.55230274619555,2,S01
6280,0.06637647402527308,0.07218945696842938,10.068055244920982,-0.6569081842878131,4.809198848212664,-12.066275692185966,30.309201555899975,-24.26507296648948,37.89077313645513,2,S01
6300,0.022683661865567986,0.06731467489384768,10.18585654373424,-2.8799531245069954,-2.478995052875227,-12.999537643330827,30.282185554210997,-26.363651707737617,35.36831255543948,2,S01
6320,0.09058413161486331,-0.12742187850945755,10.097090527494077,-11.009371048291662,-4.019624526497064,-15.225083010981075,26.60266165540134,-24.612029669383933,37.70546855652926,2,S01
6340,0.053865396093499586,-0.4737204214717331,9.988059907963844,-16.488546619426668,-11.90803809360889,-12.027052941198695,28.744226470658795,-24.42289346911356,36.7709251315999,2,S01
6360,-0.03824871034818039,-0.6076733964011025,9.860175627896426,-13.711321223480638,-14.375719918551564,-5.747458527981298,28.10102136461391,-24.777095311610008,37.17811873860958,2,S01
6380,0.04767000506031488,-0.8035263730550433,9.706764791812109,-17.374375865910267,-25.014862855183168,-2.016039126283012,28.604034934231436,-26.72221632121009,35.875973753471925,2,S01
6400,-0.2377400559611285,-1.1337238824998472,9.447316567236896,-27.272489420504787,-34.70416295364299,-1.6495160911194087,25.73632634865202,-26.535934670465185,35.0440753650021,2,S01
6420,-0.40563395154550674,-1.4017306403824203,9.413098069914708,-26.278010555345375,-46.29691123313307,5.618807652036898,28.20833619721047,-27.068159042955298,35.82916050540848,2,S01
6440,-0.548050816708279,-1.6443962695960257,9.16664645426329,-38.30281581243441,-53.010148949182955,14.692491087635398,26.901864798922055,-27.518827208021598,34.00957163513385,2,S01
6460,-0.774338567864161,-1.6058843501189817,9.296883580686366,-36.53586914362506,-56.29385917619305,12.751379025875464,26.420493827481202,-25.373530633483234,36.25809500778143,2,S01
6480,-0.6221124224677782,-1.6878063413180242,9.027960794483983,-38.926139420298085,-51.750747189220995,13.817764693216576,26.973344765567163,-25.215765439189965,34.87497965929167,2,S01
6500,-0.7054425542368197,-1.536699426608192,9.325844303220824,-37.059445774989335,-49.96584738355836,21.801039505190367,27.140700863233064,-22.116306631297558,36.59547001161106,2,S01
6520,-0.44512949820603953,-1.329890390528081,9.372902754338893,-28.040766072321226,-43.36201623250983,17.052343097294994,24.600240614700652,-23.100109722802195,37.52454818178326,2,S01
6540,-0.46724144077974616,-0.874950800172889,9.682531521148238,-28.768052012664054,-30.287300426899133,14.987859491738332,26.22012161412837,-24.473878139254307,36.36203423828136,2,S01
6560,-0.27381436830877504,-0.37169352502810116,10.123995030063643,-13.71953735210051,-12.247702165598687,19.010300520695186,24.52100751542742,-24.78891166375364,38.36825643889302,2,S01
6580,0.20244238340832266,-0.01164988165400728,10.307237895930745,-4.617860145398966,2.8578312966680537,15.010407944549593,25.68293338416059,-22.995302313839034,38.024624121846585,2,S01
6600,0.4268646876607517,0.5954053400118529,10.576961425924333,7.91208842328489,19.31549370466999,19.769177625823783,25.292524510688573,-23.913248558345487,39.99964969091724,2,S01
6620,0.5962580154444983,1.0763716862620316,10.917381023986744,19.20769952506908,38.72417123760054,16.826520367621185,23.768683622011395,-21.941700584680163,38.762783051630024,2,S01
6640,0.9094696325656746,1.4007609882360639,11.081703288466711,24.49714621995703,49.20543444741166,6.875159402671981,25.27634107082803,-20.610347424803507,40.41131024611425,2,S01
6660,0.8644097706118054,1.603385577439796,11.243724476353927,23.327313242435277,50.34239863358658,0.41584956055265054,23.670739991070977,-20.288444514201927,39.79977018290755,2,S01
6680,0.9120933324885451,1.5733016608289367,11.327883927024526,25.749547522322285,57.92629669290485,-1.6020231510791358,23.90849926831409,-21.120942740728527,40.13129100104153,2,S01
6700,0.7362699501345853,1.556166241007373,11.186382312429386,27.761216274087847,58.870407390538574,-3.1166111207385554,24.24038759910353,-21.04141742350322,38.29929782750139,2,S01
6720,0.7733641493365913,1.2702697445061641,11.045031486261115,19.797635498188267,48.012930975528306,-13.375212214077793,24.81259960636094,-21.40067405265121,38.58892859428374,2,S01
6740,0.44350169689585506,1.1155530020789457,10.852312999184768,16.81941163431248,34.279950240389894,-15.629742445042696,24.302062766378505,-16.270864296209798,39.97697369833847,2,S01
6760,0.4838023225871121,0.9553506760090742,10.651743747097004,15.97624779694263,22.8680931264941,-16.763006489736558,25.7132787334565,-17.49016255048052,37.85091213910774,2,S01
6780,0.07047862074955143,0.6779548894759042,10.346006167150014,5.839941544798871,25.971346427122977,-16.66465040264026,23.930704378285434,-17.782621160895744,38.67116028012154,2,S01
6800,0.15533087670504847,0.22243237780606012,10.346608394284868,-2.7447889661617184,15.65398114858801,-19.397130542575148,24.61822831092557,-15.633057571917089,37.17745699911898,2,S01
6820,0.06441195443485163,0.11010273357429456,10.323619881718866,-2.7344171156671444,11.246946551829275,-16.6132383212785,23.976859482445242,-17.78649378175602,39.44889216063626,2,S01
6840,0.21712649239535475,0.19550540322475196,10.329607885546784,-0.7868132327723782,1.2587945399464362,-16.275261381722384,24.46820657890904,-15.206190492737624,35.79765773998487,2,S01
6860,0.036570080924117496,-0.12605642316364335,10.360431359990496,-7.3735637504137586,1.9288549272777804,-9.773013841074016,24.18792063173833,-16.066123757158156,35.17013840876447,2,S01
6880,0.14432263162564696,-0.3034918454883856,9.951436583574058,-13.030459173996782,-7.95114012930529,-5.551291057226511,25.615894105196944,-15.173176191732349,34.886846699392756,2,S01
6900,0.02249581265905129,-0.49577666453915603,9.847651933582291,-18.064267798154642,-14.783415549027536,-11.270721208756603,25.82131827166696,-14.918344879211341,37.101232686681996,2,S01
6920,-0.01231128722396009,-0.6058386964332791,9.96078769128971,-15.376221290005748,-22.899915773485148,-0.845498643472964,26.04329148456333,-15.749875576980116,34.45348143933144,2,S01
6940,-0.10084612507613772,-1.1451411731380154,9.609170674285858,-18.365019456398368,-30.01912406154978,-4.391220334396448,24.014594251053868,-13.700096905072028,35.27477658370857,2,S01
6960,-0.37996782914530036,-1.1888386515832485,9.466816250817644,-28.756008455116703,-47.428917163392526,3.5893757106744606,26.976861887586182,-13.307102900426205,35.00289058581101,2,S01
6980,-0.4723353933796365,-1.4954949636683674,9.255477510502493,-30.705950764849934,-46.41652565078541,8.831071907110049,24.968937686374503,-13.19985329488874,35.15396943772415,2,S01
7000,-0.7076732841257999,-1.6433894137656049,9.114171278476212,-30.768875416225985,-55.93387288441548,12.315803650854074,24.85685604112379,-14.144409077256718,37.28284343609646,2,S01
7020,-0.626165676777853,-1.6641177311146589,9.074106529274038,-43.87446827483393,-57.546701856143514,5.8745836193272964,25.779750092162956,-10.208562999735243,35.34451814774225,2,S01
7040,-0.5411849021779902,-1.804029443294424,9.293273083370178,-40.24975814015588,-57.30809144765641,18.323109401811088,23.322910889782403,-11.835109390927819,36.25513526373419,2,S01
7060,-0.6005141323485401,-1.4335569308728877,9.452889007863044,-32.3125359512361,-47.71001826393676,15.939836495081392,26.836588068399713,-9.38516470764641,35.74777788626328,2,S01
7080,-0.43812637815439015,-1.132402163628077,9.452037311523013,-34.64887967248542,-37.057082663476486,19.52767267530831,28.15338972979445,-12.25904068812568,37.94147103169761,2,S01
7100,-0.29926402523229434,-0.5355948243360433,9.712570528552757,-16.488117309323002,-19.090827197349135,22.476840296049396,26.144139412308004,-8.72374455492221,38.40442068725539,2,S01
7120,0.10759954010542272,-0.19876919971137003,10.157710113401976,-2.207976721231722,-1.0698946502464637,19.516552183849512,26.92367681390979,-8.194006288310323,37.946804201859756,2,S01
7140,0.23326213781602806,0.25483501406321657,10.532095705395955,4.119637542661946,14.251123673662832,16.30905599783302,25.145878717543816,-9.921251437045186,37.81979369572376,2,S01
7160,0.6144013566076968,0.819508911002095,10.713481455864068,13.867604728828166,30.650868906658435,10.989350200043502,26.70827000606662,-8.439851155590263,39.00822498683268,2,S01
7180,0.7977361699627765,1.1653552339938937,10.950190779966603,29.29435631910523,43.73037677723932,7.249722342675944,26.44294131575835,-11.28755821500387,39.901422760822015,2,S01
7200,0.8688657974262708,1.4971179803866501,11.348074428245551,27.91642096644532,50.482794121466675,1.793356205641158,27.031666123475205,-9.3743340369778,39.05959559714993,2,S01
7220,1.0630822627926035,1.6943217046201489,11.167125586151284,28.571317150859816,56.84030558644734,0.17860218749889806,28.203419151927413,-9.408447078546986,40.257731841374714,2,S01
7240,0.881766175012798,1.5113570343786404,11.144196883513057,23.992603089972317,52.69808774333463,-6.245242332626066,27.648227854131857,-8.761412489482462,40.71614192158662,2,S01
7260,0.6885698362300624,1.284960585659422,10.972492941065504,23.428539405245584,45.02650282089181,-13.836058281806528,28.687400093002836,-8.753288372143077,39.251607284358954,2,S01
7280,0.4132285570711861,1.1932277043257733,10.772309096553872,16.2077224660155,40.928162578815545,-9.977945852853262,28.730657382858663,-8.378868731320987,36.856017846070195,2,S01
7300,0.5170380118175479,0.9515051597974533,10.798461474403334,11.924135850577308,29.8556776753846,-20.421486922833864,29.40147587461441,-9.035092199892638,39.23888205547441,2,S01
7320,0.3949635202851052,0.6363578911192354,10.55673398447797,12.26642581757115,21.049953100323833,-16.853127712343323,28.505715052015848,-6.865988104025264,40.108195952068485,2,S01
7340,0.16787465711431843,0.5128175573787692,10.46128004349032,3.2479246453035424,12.818803504478174,-12.22224307647931,29.508319095106895,-10.000741022606796,38.41307616147438,2,S01
7360,0.19682112342894523,0.2555841773786503,10.455887646086873,0.6911082203487009,12.776353196353686,-19.63793247523196,31.130103404110823,-10.514128249296853,37.388540697816474,2,S01
7380,0.1625233847481087,0.10646335749584182,10.21683204687604,0.4112308644183642,1.8205938842750522,-14.433129988724836,30.702949199279843,-11.35556407613462,37.61770421679169,2,S01
7400,-0.07737672077423186,-0.29312106308741664,10.15569460723342,-1.672048537841082,0.2966885396496639,-18.352943269611053,30.17679356879154,-8.498877859402208,36.87492092622457,2,S01
7420,0.05777662558506739,-0.21855394226888225,9.976915404064805,-8.098353107584128,-6.0080403371115345,-14.97875578161039,31.24850768205248,-10.853051704844692,36.29644124120402,2,S01
7440,0.13902869742603524,-0.2826854514526915,9.966713074203772,-12.849943297439271,-8.183956202229119,-9.556635261951733,31.46199790588416,-12.222621473954636,35.51523228600343,2,S01
7460,0.12553463585151117,-0.627069710544867,9.879669942140508,-16.315475245707265,-17.097006843624314,-5.723676571710556,33.105477944807525,-11.836805685161712,36.04570820567874,2,S01
7480,-0.06512634023779404,-0.9259141629569199,9.689220997839927,-20.600901946059725,-22.74285229465448,-1.6037078257197503,31.27056126304475,-10.760212169929346,34.85988331957971,2,S01
7500,-0.2620293557085954,-1.1751408157354626,9.587670884536726,-22.25637573093791,-41.92026721924689,2.6069004249069487,32.432116998028405,-11.477231192810667,36.60775569104759,2,S01
7520,-0.44827824451685416,-1.4268359054227466,9.436025447033071,-31.082968810896514,-44.27316771016096,10.176607317478094,33.69998502888747,-13.878093172799883,36.29456223754112,2,S01
7540,-0.523934389758196,-1.7072192880538606,9.099412812595688,-31.182642781221915,-52.11439898310861,11.938878720995673,31.857335396007105,-13.992066369342142,36.2972322470608,2,S01
7560,-0.7293477227928301,-1.6053427864213226,9.246988977161731,-36.8555260080185,-58.145481915473226,14.860667825846745,32.601383996876564,-13.88754481138432,35.65540692315565,2,S01
7580,-0.6510545859763749,-1.895921213277146,9.185627436273624,-37.59172654891378,-56.54190307503066,15.150630826494544,33.85632372135525,-13.401358718657725,36.67047810175759,2,S01
7600,-0.5912016382400109,-1.5820027089013704,9.223080826433616,-42.41954990458356,-50.26634551454161,16.811766778634986,32.99930347452266,-15.981961262337721,36.714153639297294,2,S01
7620,-0.3707793851449256,-1.2168798092305981,9.386277942588368,-31.25170789691846,-45.77249779703838,21.586907531554438,36.27515703408557,-14.806044319367647,35.56809331759319,2,S01
7640,-0.4017201082513525,-0.7642131591648229,9.640334936672462,-22.516727401208282,-24.328740231512406,19.14294544652411,32.44468817455644,-17.60852632505631,36.55451765975496,2,S01
7660,-0.011126740645781383,-0.34040932833074444,9.95383495755211,-8.618231747210274,-10.125513507756198,28.42718758689416,32.507442187351415,-15.368474145445347,38.299737974773095,2,S01
7680,0.2811757334669883,0.14269638963992679,10.355127443352089,1.1920440698012609,4.690120765257716,17.35969983241026,33.294945481131506,-18.30898245125528,38.0620947603311,2,S01
7700,0.4553375560511185,0.7726179218452789,10.679507308269907,9.428607816964114,27.903585072146512,16.118039931621148,35.30671473763468,-18.330400276988573,37.833024665889766,2,S01
7720,0.7608024779241043,1.0395136801559957,10.919587698111513,23.55768148436373,34.59017794598975,8.423971248702646,32.90385019633053,-18.630906563183274,38.96080825989228,2,S01
7740,0.8352941994943851,1.3291359024829217,11.097677325854072,24.23499914101024,45.3627401150166,11.857327756044933,33.246455194343156,-16.74817769314232,39.72794318301258,2,S01
7760,0.7837981450179722,1.5665582612300584,11.199210182150928,27.85367830677028,54.598931180975555,2.0626797399505454,32.67675663722672,-22.455617645474412,38.003282995591505,2,S01
7780,0.8941654104748163,1.5133805508116696,11.090247539537183,26.7540456884664,51.42244858098772,-3.466967474992105,33.94807342398224,-19.458379040712245,38.12503210233684,2,S01
7800,0.9729115873296431,1.4691169939527864,11.150692765872279,29.543170528910156,50.85434189191894,-6.5421851896728,32.549969856603425,-19.317612817640818,40.0566766106757,2,S01
7820,0.5394765756696518,1.232718920107566,10.941952142613776,21.24512713598428,50.06500251598712,-15.648663999413111,33.41932762822686,-22.305022212681514,38.7182345195772,2,S01
7840,0.4789693511558297,0.9706832543722992,10.830881450287517,21.322331018056996,33.98107145701357,-13.85106093371675,34.19466644908419,-23.631966977242026,37.68471781347415,2,S01
7860,0.1300347798989236,0.7780785642665446,10.524631751584277,11.033173726027382,27.818709982942707,-22.405745373844056,33.58023031108267,-21.083165386683945,39.48505704654911,2,S01
7880,0.3039102659968822,0.4959940296488657,10.439582911530756,5.02798681252276,14.725267324280658,-14.923959961142634,33.132651176309075,-22.542601267999615,38.58717680154263,2,S01
7900,0.0828699681273794,0.2733828939935153,10.339614150653075,5.548524549819709,7.156988051115781,-19.31297737212382,31.519257816073697,-22.283576761920138,36.46673935005627,2,S01
7920,0.11998814459006409,0.1878765709733563,10.276714164712656,1.7495095646520875,6.370136043598856,-22.904764932828073,31.87161233607471,-22.129488075713287,36.97412416556815,2,S01
7940,0.024045830436550078,-0.11722209104583375,10.147275147377616,0.5847532734580403,-1.9335156966776275,-15.399904636325411,32.00906867685801,-22.851532826055156,36.01548084594157,2,S01
7960,0.12828652188664563,-0.23073791224864182,10.142907029753038,-3.0887243414255625,-6.240658905312716,-14.171515122486333,31.60401468086595,-25.679993550526557,35.711189955069216,2,S01
7980,0.08838092915568888,-0.49691280919532266,9.90805907550082,-11.922229185731656,-3.392394675321479,-11.360812564924998,30.68955915288066,-24.316412186637173,35.03379993073899,2,S01
8000,0.04410034746986854,-0.5165257565187369,9.878073648329512,-13.706914968013862,-17.04639312083923,-5.447762749649081,31.670921656457537,-24.694360823980187,34.12156036078237,2,S01
8020,0.010141783209114491,-0.8453576000201484,9.806987976845603,-11.201550987761301,-22.372740939702123,-0.5109936852549289,30.22713003952742,-25.407351267411713,34.03721335725214,2,S01
8040,-0.26834150297617787,-1.1665290708757696,9.612666038996348,-25.725099012164296,-33.50283242288322,3.824045585117134,30.83389828585492,-25.08361350414328,35.165197717869155,2,S01
8060,-0.19715916433630234,-1.25443781117927,9.542227126331584,-27.253057088064978,-43.755219558990945,4.516587752863174,29.490325744709967,-26.149876524085315,35.129245004602296,2,S01
8080,-0.40263804876828757,-1.6103977093598296,9.20025584668327,-26.849313855436645,-49.94472537481176,2.1853860650594457,30.91950572402027,-24.46138068765195,34.51264835305507,2,S01
8100,-0.6470897569938149,-1.6414899578162885,9.233269115462326,-36.614873471618324,-52.569035319859104,14.434229116056164,30.438401015423484,-26.974509649626818,33.18681769342824,2,S01
8120,-0.6818047381227229,-1.724753345748839,9.010924463515101,-41.980212467281575,-56.30917994912918,16.801291258642376,30.454452005127784,-26.115699565208928,36.540166218641254,2,S01
8140,-0.6403852711659029,-1.5193210706198084,9.193082764997325,-39.880304830122654,-55.323955615541045,16.447884623407194,29.005869546644142,-24.73374431201149,35.21035714325282,2,S01
8160,-0.6085967611679446,-1.328792465063124,9.296519258199933,-33.040881077878616,-50.93733367766229,18.843313116503456,30.32808867223123,-25.21421947887915,35.10592704367697,2,S01
8180,-0.31839956293457017,-0.8789767465745106,9.433128225591961,-24.342847385704534,-40.65354920635095,20.209101205699476,29.889597032360495,-26.37898470119274,36.93329770179905,2,S01
8200,-0.2018860820538795,-0.5165250882736058,9.748837320669086,-13.541672363489315,-22.200477727015667,22.907869774209207,26.556786348965275,-25.483459894864097,36.96444966242571,2,S01
8220,0.09256224613073095,-0.06190974100225255,10.371768667880252,-0.3045714275477369,-5.89683106208973,19.91175511996731,27.216010674142623,-27.444881830735184,36.83709016120732,2,S01
8240,0.4200589823237656,0.6385549514112845,10.431009923461168,7.213318663179096,16.937417191930894,17.86072644692369,29.008906604082853,-25.469732660447225,39.02787462172438,2,S01
8260,0.5261814056518309,0.8975291659354676,10.842251607060774,14.14275651260013,29.896830806313147,12.537423963563269,28.433641714450083,-26.500450344584763,38.17710100622623,2,S01
8280,0.6103834966600175,1.1995333618206956,11.087482660484739,22.31904141548773,42.4312410526447,5.7710382028272935,28.362701483983894,-25.523850401671968,38.79768150556404,2,S01
8300,0.8414450148297701,1.5653389379948475,11.25654315365078,36.53998986354841,56.27899335598571,3.4919376795867367,25.751762116476975,-24.23315957443667,38.94231898202393,2,S01
8320,0.915597521761093,1.5912180129213145,11.062832518941043,29.691052460231962,52.964400973429534,0.6565108959455211,26.37035748057889,-24.688646650965584,38.585627323108255,2,S01
8340,0.8082735512598126,1.5634766259249562,11.164166537905428,29.70047126126082,55.46902150146111,-6.0174397949905885,25.688153797245008,-24.08052916405506,39.03084400558762,2,S01
8360,0.7143907527750191,1.3938130403243552,11.217992501004522,24.074405613949548,47.95976262059334,-9.19484252808553,26.98388163633224,-24.39733300934812,38.46510330552754,2,S01
8380,0.36581503501195123,1.335578664798246,10.873810875471321,21.770427804800967,40.6996318073573,-16.256391381888324,26.55951633805217,-23.863945416616982,39.35614420447894,2,S01
8400,0.4380662709388604,0.8003099957781077,10.631331978564319,13.756964236851296,27.640067862066704,-13.473047021190892,25.556579437329756,-24.616435269156675,39.28703933908598,2,S01
8420,0.40665714669311814,0.580421138686938,10.558076441112496,4.687411148044705,18.403406281326344,-18.997472453884907,27.273073798838194,-23.6580806918662,38.09091076184335,2,S01
8440,0.11855987647851123,0.5069784499531738,10.468476958978863,8.538231537262739,11.074254000431488,-19.393328114538342,26.108461993443964,-21.29826026086957,38.86979790846612,2,S01
8460,0.08513746369174204,0.17429698915569908,10.215840825356242,-5.0897951887752715,7.971354022777056,-18.41357874027701,24.03172893550172,-21.793074673143565,38.302540936602504,2,S01
8480,0.0628531544272919,-0.07313265257623651,10.155226384356897,2.7234714501232906,0.1312586030161078,-19.298365811324185,24.5132240157208,-21.083956757584716,37.33087543883692,2,S01
8500,0.04572950958506666,-0.17469939297322057,10.15184513883521,-4.438385960090691,1.0429567351870654,-23.226514801422958,24.062815257497938,-21.951109712021918,36.58251767767318,2,S01
8520,0.23092259159695977,-0.3162664131649142,9.92345856995028,-6.354561038665186,-5.6071403400031405,-14.111135921232117,24.400540792617193,-19.646225719689653,35.870689882188294,2,S01
8540,0.01591922334272479,-0.4284663468445014,9.958930685271525,-11.248948947835025,-10.863252793593356,-9.580476523950832,24.776043524013218,-20.42000568904099,35.04045060838257,2,S01
8560,0.08817144235202118,-0.6847865634006127,9.904409903310931,-15.125958447993568,-19.821235085346487,-2.133201669616134,22.161615003521423,-17.8561034383246,37.09437986702764,2,S01
8580,-0.1611566303221472,-1.0280129430191292,9.607377293356807,-19.58604201196584,-29.296296945642204,-1.3089461377447908,22.67015664766339,-18.193764043200233,34.80192876454184,2,S01
8600,-0.08896924184659799,-1.222995824377704,9.41502203580483,-22.4309379173548,-39.82120196149952,-5.8440340324161255,22.867967474117535,-17.1079041484925,35.11517784665567,2,S01
8620,-0.39314882341337165,-1.2822246809756224,9.24950970807339,-30.601105860148422,-50.27722356638715,1.7834641634319754,24.87056760670195,-16.5822238735125,36.63963985583431,2,S01
8640,-0.5915334363107655,-1.6473695140323155,9.145988538865584,-34.23027317797164,-52.61690535353449,15.19623171213305,24.830355713349885,-15.611966015936934,34.864742183159876,2,S01
8660,-0.5119311178339024,-1.6727162132372082,9.232343880260231,-39.80276659140532,-63.365582850671004,13.663902817135822,25.346792826202112,-14.295985128645029,38.011343450715856,2,S01
8680,-0.7147211044997056,-1.7683917379237897,9.023705549242463,-42.236054589120506,-56.28959513262967,19.0197780945155,23.751982467275376,-15.524197034222603,35.56913457923747,2,S01
8700,-0.5164775076519712,-1.3663740795449792,9.147624721288471,-37.21088978610986,-54.31410096461829,19.461407535205723,25.569869582925584,-15.214748330398745,35.002419395327436,2,S01
8720,-0.45720748206192985,-1.349374263461155,9.296662512147385,-25.41976962470834,-38.87696063639637,21.121234422812712,22.670446135062836,-11.276316436165907,36.52088810537365,2,S01
8740,-0.2901187839968773,-0.6786871617771078,9.710018343937278,-19.199118307709966,-22.766470268986584,17.850623824516482,24.90686320836729,-12.914061703401615,38.09326497872301,2,S01
8760,0.05176378116865343,-0.23492328591854503,10.052299394261645,-8.067360523799644,-10.136482285714077,20.070909431126452,23.71531640641684,-14.76387423394611,38.63783842816431,2,S01
8780,0.18348724905150868,0.3123179118907428,10.391804591293777,7.584397184979962,11.98250905069382,23.94151351888363,24.42120225017745,-13.370325025544101,37.96086631422583,2,S01
8800,0.5702593554572812,0.6262938874428245,10.749541863729775,17.472897748712843,33.804511994874204,11.6240527601899,25.423520253316493,-10.72284830185626,37.868087476170665,2,S01
8820,0.6880980067963841,1.1668692661914486,11.011703037052898,23.271114192431543,44.84324021853508,5.105091011710235,23.375403002231955,-10.497545997103927,37.72597850877758,2,S01
8840,0.5968372367039048,1.2840269132967972,10.953739506375785,23.316394934061588,52.04472812820137,6.8398373393927905,25.999504709314643,-10.748986870493408,38.60134790006008,2,S01
8860,1.0600953229156982,1.617571000787838,11.264477776395294,29.796980814397802,49.99637396460086,-0.01561467120012816,26.358321009907606,-11.691321766949024,39.26488125009619,2,S01
8880,0.7615770116793487,1.465226278134568,11.175975544071758,33.42222680405434,57.08613104663509,-6.305974831572122,26.70644903242833,-9.146388531798774,39.74636390599513,2,S01
8900,0.7168321697073157,1.4534813914197968,11.149299507969266,30.482191853281794,51.3253837375284,-5.7689096147766366,24.760776561233826,-8.910139509916586,39.36607356659455,2,S01
8920,0.6038384003274071,1.3715945374038645,10.916508935332155,19.710934579025277,39.82067427956102,-6.062551153202871,25.664318181075807,-9.963987781295598,40.021613098764895,2,S01
8940,0.45237806017353777,1.0097199364144507,10.852592390659266,13.753474648555798,27.17994775395113,-17.62539486168116,26.02772667382473,-10.62041643477753,38.306332529342605,2,S01
8960,0.2981252371854966,0.8158756039448998,10.597870365200938,13.974560204991615,19.145954994817824,-14.364888758006096,27.854353440668547,-8.084502115559662,38.44746646830932,2,S01
8980,0.20626059448561596,0.5409770686512259,10.573954775421061,1.2364839728977257,13.636309187648685,-22.773905843016323,28.300875573865767,-8.837051208733556,37.470817333152716,2,S01
9000,0.08596606262780454,0.3925561716294767,10.391180306047358,-1.7407944363903258,12.851816658250758,-19.216853749652618,29.137595543103668,-9.473217829261625,37.83099014011458,2,S01
9020,0.01032498424183012,0.0026508367070305905,10.334262820323865,1.0282846853658514,4.594712654480787,-21.43979410049332,28.095740915496634,-8.05843814936869,37.70861107736275,2,S01
9040,0.06399441710545185,0.003343716535015931,10.213896964754625,-3.872910637934246,-1.2692665396475338,-15.525388646476026,28.471319796418875,-9.85329638787117,36.29048123177531,2,S01
9060,0.20657121337530757,-0.2741240876098683,10.232676902616518,-10.844503156226484,-10.078181822557436,-14.394499674846765,29.586702828258726,-9.769161003880864,37.77871360443093,2,S01
9080,0.23582163354315336,-0.32073705019858806,10.00093768687647,-7.739306925736917,-6.162739773529577,-13.352457760693007,29.21134123056387,-10.5591163136224,36.026362121176895,2,S01
9100,-0.0049174059301328454,-0.596500336771769,9.92321911131431,-13.358201355730653,-23.1973414667286,-8.173490825703746,29.762946504521064,-9.161819730109242,35.361266506651134,2,S01
9120,-0.011246178304535809,-0.8791062186972842,9.838609793904872,-21.921346500664956,-25.12523810170342,-0.2587646317690472,30.730328878552204,-8.782234029036507,35.524906713186226,2,S01
9140,-0.2719833686923443,-1.0293302020312742,9.585106511520543,-24.75442165692142,-35.9370666111185,3.420114101085943,30.81683251030698,-9.228633914930864,35.379553901518136,2,S01
9160,-0.4666623476755747,-1.4141040209717315,9.40430349838838,-28.51130100054282,-46.23303333386258,1.6045093006073334,29.729557824370094,-8.981997316842223,35.32136494213563,2,S01
9180,-0.5895124609289832,-1.5746686574794806,9.2951367921159,-36.17862968216738,-50.69106295120427,9.02084383569955,31.99617274369421,-9.892486039296902,35.024425827337794,2,S01
9200,-0.6568592192773024,-1.7828128662863574,9.096855885998414,-41.36717844461252,-56.41737268047424,10.376108347318608,29.432445597236907,-9.347427794525439,35.368566282541835,2,S01
9220,-0.6713612517362681,-1.6724440715502598,9.16762887656258,-36.98705355822932,-54.94561885483317,16.676020967480554,27.550437787094438,-10.348407371866319,37.42382084039755,2,S01
9240,-0.538390077605022,-1.6341661313611182,9.172150064462974,-37.37327210622863,-56.79019544960471,18.288317087524902,31.029562838203606,-11.098561300340739,36.05095117346878,2,S01
9260,-0.5689055764096211,-1.3402467015637392,9.355271540744992,-26.625790810703275,-42.14285784182606,18.31656477169306,29.47206136384411,-11.6551623533161,35.07102388157537,2,S01
9280,-0.5073782135774884,-0.8173477663182067,9.667271063161243,-29.438719402091802,-31.86333346469759,16.01011328194863,31.115687066825778,-12.218159820255163,37.09497251850347,2,S01
9300,-0.23945582075148245,-0.5059837752345151,10.021521098190945,-15.052947628422483,-12.689898907067867,19.208854719450738,33.58899361459801,-11.644442751078655,36.446569482893175,2,S01
9320,0.2805696203421432,-0.020997329543537432,10.196175987114957,0.28343160796363254,4.677825622687576,11.521815466664206,30.957333003714126,-11.777188673324694,38.80833258537923,2,S01
9340,0.4043113183941457,0.6319846429711282,10.695950606239952,13.78165384138298,23.447032613710167,19.137626686770048,32.62521701257087,-14.040412851392986,37.492687051342244,2,S01
9360,0.7008214695670741,0.9983812434781016,10.900794894807596,25.110940352195183,33.29988742905873,8.7662788702347,33.1695852087164,-12.139520678937842,38.15959082116908,2,S01
9380,0.8685180299714673,1.2092423522658529,11.041792203426455,26.484008503754566,45.60515224873573,9.891221755544729,31.398476517441356,-12.106571062729197,41.04757260688883,2,S01
9400,0.7883903252494827,1.5336998018769858,11.236196918146934,33.013940052478766,53.67710057784047,2.2408164461321993,32.14033967409819,-14.812076913410932,41.172681934059874,2,S01
9420,0.79609311657455,1.533657701721866,11.123743531387767,23.29403430256797,57.561552003846835,-2.2559858185818915,32.87469595211914,-14.075468410852178,37.932312323339985,2,S01
9440,0.5839174592922263,1.4832888628244116,11.189738860312326,31.63051992767249,56.00913100806619,-5.906844385466948,32.79548247771331,-17.163749301307043,38.59623701223285,2,S01
9460,0.6104405607320232,1.3084400323880923,11.02721629988375,24.516212325449022,46.73207541142381,-12.197381966425032,35.44284629559442,-14.765951637934176,39.389758264940056,2,S01
9480,0.3699097336014511,1.1838179308600385,10.821562471330461,25.099713071600476,29.614006746560225,-15.234595631197623,33.03648368702606,-15.173131807639274,39.07825370737248,2,S01
9500,0.44603935724270183,0.7921297464755925,10.656923541843977,10.870078971258266,25.2307824522002,-7.6819221952042405,34.86966460450188,-17.53779708029887,36.9579636502192,2,S01
9520,0.4424495535005527,0.5567927811007993,10.556842065234909,10.337001926535322,14.68313832860823,-13.168978267367999,34.150424933363,-17.469080041238662,37.51266474135411,2,S01
9540,0.1649461944850821,0.27871145114423046,10.359376082287675,0.4788754454984536,19.0401368906512,-23.915946156266372,33.001276314885004,-17.58179266063914,38.193965912602415,2,S01
9560,0.03184629488352979,0.1473901196332408,10.259686241042857,0.18151150390856685,2.0435331159962393,-22.33703111847197,35.339045550774074,-18.76815126055873,37.76955179493286,2,S01
9580,0.04690339405747304,-0.1279430094477922,10.066432646904032,-0.39900999069536747,3.146537570834348,-16.355717230721915,32.820403309948986,-17.92161625726098,37.93757989069352,2,S01
9600,-0.060480146939214025,-0.08825389247005089,10.222451575843664,-7.570609277035883,-6.874798947632216,-18.27612978463402,33.67940070404023,-20.883806460474666,36.623644711685756,2,S01
9620,0.18433257176570333,-0.458097740833448,9.920545127035634,-5.186081115541495,-8.683096228315307,-12.870671380598719,32.20543520007359,-18.994225614792597,36.016119175836934,2,S01
9640,-0.09700645691770265,-0.5671685332667167,9.877105076110636,-12.34714478649159,-13.461683409950352,-14.857129254158686,32.09898063885282,-21.42660171412603,33.76626150952454,2,S01
9660,-0.016112553451698958,-0.667037769808136,9.801079182884477,-19.72123465557703,-23.41768235120752,0.5965866624231267,33.056078265163414,-23.183842748815007,35.53661516899679,2,S01
9680,-0.09493197227424693,-0.8988309281888929,9.676014166973756,-16.238192622092694,-30.291979723577246,-7.23819744595554,33.97590328415454,-21.314603665661352,33.572572040826074,2,S01
9700,-0.21465428854889138,-1.2369705561635922,9.56546256572125,-27.245938854854046,-43.862110652438645,4.167803355664003,33.08860973432202,-22.07505422482378,36.78700476111327,2,S01
9720,-0.4464512400304219,-1.3691365220332934,9.230282839421138,-28.32604867640767,-49.70235228452246,2.530210588505826,33.18844136144722,-24.58392107005872,35.333694470096546,2,S01
9740,-0.47436172451784064,-1.6130363743749294,9.185700973454109,-36.289919554825374,-55.6564909893923,14.075595351315105,32.1334691540507,-23.947672040632828,34.632651093020534,2,S01
9760,-0.6826910111648775,-1.7512193229682957,8.993964290111316,-39.92732651664217,-59.444608482028286,11.342625767058985,32.3138460543489,-24.581638361286462,36.99043686738327,2,S01
9780,-0.8382713891590282,-1.6311387027850335,8.998424025199952,-38.0593658660931,-56.350317740524645,18.293524116689067,33.81965286612605,-24.032749557446316,36.52556053264991,2,S01
9800,-0.710627846833117,-1.4243152447485605,9.329234701953391,-35.65731160926923,-45.776877239896095,16.230018787695887,31.404084387225193,-24.198376672836645,37.30784123185831,2,S01
9820,-0.5709488503287237,-1.1539509197067617,9.582392139528176,-27.64630794881858,-32.98374078818409,19.25922260311838,30.81189351426579,-23.359216816452115,36.58468214446396,2,S01
9840,-0.19323736839484226,-0.5283598325482954,9.973539203916657,-18.391060252178587,-22.39737944788093,15.600381959097156,30.312444291203875,-25.71341382352557,35.18017683289785,2,S01
9860,0.0365011270305053,-0.15213502528225306,10.116396278246162,-1.5374313314951324,-6.1967322052614255,17.607562251015892,29.833730595558503,-25.49221517619541,38.40545485012943,2,S01
9880,0.40798262902545124,0.16060144136517393,10.46253046992637,6.045412221400038,10.441786139601545,14.883052024370526,28.4890081350817,-25.771604602774662,37.8202047088529,2,S01
9900,0.41457561200628956,0.8402462307739686,10.83153087016516,17.577370772985347,33.76371961751832,14.99018918421059,30.798128645443562,-26.99796991068632,39.6475434639639,2,S01
9920,0.7709831543242773,1.0783772160084966,11.00411054149624,20.74586072653933,38.83183597576649,8.690211112447182,32.30800380086183,-24.60691317983091,37.78961456158867,2,S01
9940,0.7436357910196297,1.497188229725819,11.087595182612457,23.693249778669724,54.611114695612564,4.205979701484906,28.743812172697186,-25.75078937277938,39.385044501588645,2,S01
9960,0.7603537619728669,1.5500658881509901,11.173783684723963,25.63023418121967,55.117574474195926,-0.7786783814636823,27.874885391441246,-24.446088551794546,38.05617363652826,2,S01
9980,0.8436834403046976,1.57894801872009,11.15248951169994,28.75412996681695,52.96784218347506,-3.661662785154497,29.284526875519493,-25.941602555425593,39.736111980566946,2,S01
10000,0.7680449506533679,1.3711430555230946,10.93366105363229,28.87717962629097,48.45384221925589,-5.355466089478146,28.827361609793265,-26.48322101216472,39.94135831307442,2,S01
10020,0.632661096834049,1.2782550159768493,10.924115491204795,14.82059275411465,41.797309502213196,-16.75657978999224,28.603071081033754,-26.214353092416303,38.17834165007543,2,S01
10040,0.27039800922986595,1.1351218343968075,10.77097284814527,18.65163553087364,35.40076835079874,-18.09222692997902,27.95007828273682,-26.056321203237353,39.32991177960268,2,S01
10060,0.29221855844950656,0.7226320678132532,10.512078006006165,12.377293374714185,18.850792936828054,-21.735080929976448,29.158471656407755,-24.259545872226347,38.263968742084494,2,S01
10080,0.18476923542205465,0.47642357309525735,10.491559192106223,2.9894819247309377,18.278568270030352,-20.258448939860106,26.73797030914323,-28.216257980429376,38.494568598078615,2,S01
10100,0.09828940994287516,0.19490891939391908,10.12291329030619,-3.9882782328312887,8.714030443612964,-19.585791054212844,27.30759708816802,-26.598499426492506,38.26496883819484,2,S01
10120,-0.002995065330437627,0.16905378381807984,10.222927392788629,2.203677313930295,0.5918988527792572,-21.017201892535855,26.58082988141574,-24.992118993623766,38.045872177327674,2,S01
10140,0.027244990205808117,-0.047598530265147695,10.15628180263109,-1.4246746053696522,-1.5482976614348694,-24.152583690268436,26.242667329352788,-24.152173915876325,36.47522931778072,2,S01
10160,0.0896836832587614,-0.48012251683328994,9.990391408086591,-9.678906108775326,-4.136752211437677,-16.915572658843224,25.69760564341999,-23.598363767026225,33.02697431277031,2,S01
10180,-0.006723979891075427,-0.5089102192815305,10.103193936962242,-7.42167799867983,-14.920149683011406,-9.0664172574133,25.6628290809999,-25.04650055394163,36.329949031624665,2,S01
10200,0.10332207126568928,-0.6670796253421722,9.851689156271721,-10.157597146459889,-20.519268587060086,-7.543696688223742,25.187583771229328,-22.89956016545183,34.42403061709045,2,S01
10220,-0.05768113258692617,-0.9375029671825919,9.65748727250075,-18.790529644373674,-28.457156073217476,-1.2135335227922939,26.29404601900002,-22.041988681662026,34.31569398216191,2,S01
10240,-0.3223361982792411,-1.162079601366632,9.572615163851147,-23.596543001385324,-37.4508457522738,2.9355070255985933,23.113118266681973,-21.973914824120556,35.37169517847931,2,S01
10260,-0.3486776433404908,-1.2987040751286738,9.340731591339594,-36.41330188571019,-49.04166316909035,8.195809048069018,25.301768800692166,-22.14770317657854,35.80757778181936,2,S01
10280,-0.5968859445949856,-1.547263655839907,9.079831165609718,-37.95105608701273,-58.333869390494314,5.929484306024493,23.71009417121671,-21.592937936778945,35.527116394770104,2,S01
10300,-0.6051692084277024,-1.7573995022647895,8.91276588755787,-39.935661585157874,-60.025471141721404,17.740481665331828,24.170790864728247,-21.554760116087557,35.55049078099637,2,S01
10320,-0.6950124265853632,-1.7170491724363341,9.079884149429637,-39.48851131028593,-63.78929505510965,17.023025525808144,24.29941657604437,-18.43829368709152,36.33733150721576,2,S01
10340,-0.6766953713528875,-1.5137930638342882,9.114382493756988,-37.49259548984842,-57.85546742695522,22.65984343452307,24.498960664091936,-19.202796169379074,36.41772053557739,2,S01
10360,-0.5194887077754717,-1.220811517419413,9.376243809180115,-26.58226548737292,-37.1178864066897,23.418150341640466,22.796185019813677,-20.36673750559622,36.09384962437911,2,S01
10380,-0.35358631260204176,-0.6496410291370263,9.489391374247045,-21.76872222821865,-31.05957628391354,20.183575857127973,23.574018663835922,-19.909866646631833,36.46360531436449,2,S01
10400,-0.10288775006094955,-0.4007896108218924,9.918173928550331,-10.819456256529406,-13.416265348917696,21.59976521431829,23.68554324179779,-18.794702191940658,37.15838021834324,2,S01
10420,0.33745058778597414,0.17315561011416492,10.331094857720023,1.9199802475095762,6.755505961964089,17.671153069685086,26.188681697435015,-19.114049389518527,39.55577919806936,2,S01
10440,0.5609402432267586,0.6937255203749075,10.67855896750946,17.25780959229412,21.30304621607172,13.259800901741462,23.60217754959629,-16.287634138171416,37.763312621062965,2,S01
10460,0.742963818117628,1.1520860701566507,10.91422444617895,15.845733913703636,41.75385134607116,11.680029616137496,24.37746576847738,-15.517891432133672,39.6969329680915,2,S01
10480,0.7740830909750037,1.3572701409650236,11.157290448410102,25.750686969313595,47.95576269311539,5.561540738873947,23.32147355804786,-14.721043173918613,38.404979834473494,2,S01
10500,0.8988586780838104,1.5009460519823203,11.260167153231478,31.97728547002019,56.46391775472121,4.4804829854521655,23.990153500823993,-14.978928006383597,40.066973363482596,2,S01
10520,0.7704697923891024,1.7129926818644436,11.237170426291925,29.798397012411943,54.90390118276518,-1.93212708554783,23.66759344554353,-15.342211420093353,39.77328932870794,2,S01
10540,0.6631251090145064,1.454338426727439,11.202832254339198,28.442007148016263,49.10389994902533,-11.842617520350306,24.279231749538674,-15.192695302982251,39.13892522769432,2,S01
10560,0.7586737772072447,1.2261875601355579,10.945515746956074,23.170477952798812,47.617297936170274,-9.070474355625402,22.987694821896696,-11.418392665617462,37.910562013680725,2,S01
10580,0.5026918597208562,1.09026785782268,10.612105409506004,16.947711516532475,31.134327945302548,-11.1971504959804,24.02210428366238,-12.103183386046652,38.559405919975156,2,S01
10600,0.2785526188367714,0.8474963728925928,10.684420601099436,13.364594578399714,24.729398649972534,-20.68473213545642,24.784160343386617,-11.563753895304387,37.990008455545826,2,S01
10620,0.1069451038686997,0.573502336083139,10.570088190793543,6.235163291119389,19.21741571676779,-12.881815220774318,25.17444925843673,-11.751702506725326,39.265626017781806,2,S01
10640,0.15528388041386554,0.22426522868346893,10.223078072309049,3.0062637725559087,10.341809034821907,-17.411473095009622,26.525064892823423,-12.17189235308425,37.98511780878499,2,S01
10660,0.04459143425296282,0.21182042192960954,10.212787863931283,-2.942634762844152,3.578298194309034,-12.728604439672768,25.370657235218435,-11.316057509061727,36.64707452130997,2,S01
10680,0.037755856288056965,-0.11368514858668535,10.211117982461996,-8.97275300922822,-1.858278186220122,-18.090893029539284,26.335456885746474,-11.684386268196377,36.62902063679134,2,S01
10700,0.10089042029788761,-0.029640125794966624,10.067049936606676,-7.074292973259157,-9.533991997156333,-13.188309718538106,25.41736206785611,-9.238685331555311,35.60802163445468,2,S01
10720,0.02757112244262863,-0.3987347842367183,10.120046212117256,-11.97564664016063,-14.632024282236763,-10.733161065641806,26.901608273616812,-10.181968807997169,36.53844441748743,2,S01
10740,0.027782102280284604,-0.5390215811262029,9.907447648634058,-14.374431036852055,-11.74422865819508,-9.931992257415741,27.138294523798933,-10.00420325736703,36.57810536190907,2,S01
10760,-0.18939998597330407,-0.7465595785655776,9.648241229068264,-18.548252535405684,-26.143453298831567,-3.8755618392901474,26.526639256760568,-10.658993671953514,35.66053260928382,2,S01
10780,-0.166877276186741,-1.0565668767947534,9.616151272837092,-24.37218156810356,-33.65269277300277,2.087875183830158,27.79168257239757,-8.5668570270543,35.007550073999,2,S01
10800,-0.41218975032907046,-1.370123492413164,9.342036729283183,-27.442201856199468,-44.629454858448824,2.426791894775528,27.275828466596387,-8.325449021624234,34.35678127565299,2,S01
10820,-0.45240707220448095,-1.5068705701816156,9.158504128829417,-36.09314446040845,-47.40311305636948,6.127527939527499,31.36422878650311,-8.312288407896078,34.9985591973937,2,S01
10840,-0.5323901372365877,-1.6485831835554945,9.14222879371892,-37.89542266790189,-55.383604458383275,10.50085675344104,27.121064707564923,-7.740314643611673,35.969820215576135,2,S01
10860,-0.715460231396739,-1.7041591763046877,9.007032810764874,-43.10117627322594,-60.108539271165355,18.0233852271922,29.330335682071816,-8.801825362809115,36.988657290329435,2,S01
10880,-0.7976489999711119,-1.693682990651882,9.159563109133908,-37.77790764394135,-56.52477118501175,19.90900310562689,26.718746576451036,-9.36647596701599,36.86987296338053,2,S01
10900,-0.548150895051088,-1.3029139818598254,9.249226528311842,-33.25047895563936,-48.88438726057354,20.13276884830654,28.444732450573824,-8.363470267078537,37.29143794677247,2,S01
10920,-0.34274398950520957,-1.1108678924881839,9.406488658648454,-24.347980413655485,-37.203543449088095,23.411570588212925,29.828172352468307,-9.063410528071778,39.33351264742901,2,S01
10940,-0.163612022572338,-0.7128027416668941,9.895543202042209,-22.965847729916447,-17.275458363066626,12.676936234781655,30.561069422618385,-11.272997060267711,38.16148208800519,2,S01
10960,0.14303793889125402,0.0013653614673964781,10.260481457475334,1.5456019000817598,5.470264866894469,16.20882397415861,27.125407437645666,-10.932319255006012,38.41828238789962,2,S01
10980,0.4174305557216713,0.5302361402512246,10.377597599612992,4.3939983480296165,19.624067774000835,5.467340283114703,28.580169817659897,-8.274053174883827,37.61393240632563,2,S01
11000,0.6984155120863244,1.0694937540887992,10.794052624440118,15.120573897049038,31.883749596563693,11.331658423651518,30.854100234990327,-7.338283489155225,38.294023608451035,2,S01
11020,0.8128261281472976,1.3011597631952847,11.009781300746193,26.291842329533754,51.51737191103869,11.144238081558996,29.254670102359615,-10.496926596321803,39.57189392245305,2,S01
11040,0.7394201847431722,1.5213467685142672,11.020421082772065,27.999117357285012,51.80544792416866,1.3531180104771026,30.91204340352496,-12.479797822286518,39.69634462735645,2,S01
11060,0.8592224102359227,1.514513793225888,11.087836824702181,31.90112729323855,52.82801497125818,4.7110439650060325,30.701203919374144,-10.892900342552366,39.09600945278222,2,S01
11080,0.6643295580729198,1.5175081450146415,11.182092325101776,28.70602910853248,51.400625550667954,-7.383661801899866,31.396323787016332,-10.715513204347028,40.44310078781723,2,S01
11100,0.718510403529806,1.3679387191657235,11.140056906200982,25.57473465785521,47.454165150536966,-7.486182326944496,31.722772698492484,-10.170558331278427,38.9336346025793,2,S01
11120,0.4724877888373179,1.053648733632438,10.876464034827581,23.196014892074924,31.39942922508384,-11.316991258899101,32.38245618235764,-11.310264697992636,38.55203946042729,2,S01
11140,0.2606796132404302,0.946173402588784,10.5937032572459,8.931757099895847,27.801377441377916,-9.82150752176725,33.03615200891532,-10.591576913315691,39.50626627119954,2,S01
11160,0.33130853022015394,0.7204763056602386,10.652100849236929,11.124929380618987,24.84401767564109,-17.81561694445744,32.20616235673522,-14.167745232642263,38.218581079424006,2,S01
11180,0.2154440362820782,0.32798279253137186,10.339676403912069,8.022277233399901,10.3776572513415,-23.163402758165958,31.903910683333084,-13.27715723687033,38.12283599391063,2,S01
11200,0.1772997246778269,0.24991365108183589,10.281025952960253,0.10439827201943874,3.545035271434201,-21.711397594114825,33.61813086118494,-14.53959786772143,38.252469854591936,2,S01
11220,0.053277415830267655,-0.017288489402999145,10.197363721274508,0.14617785241479897,5.035277642896796,-17.694390743304556,33.063995533614715,-13.030852070573648,37.25916254206778,2,S01
11240,0.092848042834637,-0.04049616438785812,9.947438451859531,-1.4291143208401316,0.3520411608783618,-15.601674681655728,34.17010686827068,-14.260945084193525,36.57621381682502,2,S01
11260,0.030464481838253385,-0.37252174518107317,10.025012214895833,-8.658059339736115,-10.085954639257661,-11.154320359241707,33.63264909713767,-16.436485169473624,37.274646459229416,2,S01
11280,0.08726274426592928,-0.4013823484882124,9.803899513132107,-10.319591339180032,-16.130310798099508,1.5311222764536159,32.909029608106664,-15.831609077020193,34.317453559174595,2,S01
11300,-0.050284610602181506,-0.6927683678782262,9.742926401026187,-15.912294014620002,-23.62267733385659,-4.336844038767489,33.06313269217871,-17.36392785976487,36.248019031292806,2,S01
11320,-0.12574473339926065,-0.8862065615786714,9.560056138875954,-24.497214620830807,-27.903316697389247,0.31236039777444435,34.728447495352356,-18.683271984359244,36.29422005940695,2,S01
11340,-0.37937838790620315,-1.1052184838447636,9.41342864519623,-26.00024366197272,-35.98485276319745,5.044351356727372,33.61622638384356,-18.434917664168154,36.26894798150439,2,S01
11360,-0.390443542626452,-1.5272897690383735,9.4164179894294,-32.338069550943665,-47.90839099487271,9.779516867653054,32.58828513329614,-18.566531867143077,35.58651168052475,2,S01
11380,-0.719734338643408,-1.6154777081323028,9.22136029889112,-35.18102030015142,-52.31367787392587,10.33140513785976,34.41715731579781,-19.802747998044744,34.12900047642486,2,S01
11400,-0.6627023652082301,-1.9281636653304617,9.154397898595354,-35.66311567658793,-54.28409461258747,14.140352779560713,32.93688438969237,-20.734483325146947,36.43678190485635,2,S01
11420,-0.7293628908408104,-1.6657197918903666,9.134323400567252,-35.166317208889566,-54.9398979558139,20.620196140382376,35.726338737446355,-19.673665006776623,34.939607027064056,2,S01
11440,-0.6556073210820377,-1.4128693749658585,9.010681302567367,-35.66573725853032,-47.59718759492932,25.576932889880684,34.33132384579987,-21.741325807616793,35.91072060371127,2,S01
11460,-0.403068345759637,-1.1279178100587444,9.368840940316668,-23.029732554338167,-40.811470640917285,12.842475259570643,33.209855713486746,-20.246174371926834,38.28727701244204,2,S01
11480,-0.2915009070597885,-0.7108230102145365,9.591030367712069,-16.486474349965345,-26.02502667775907,22.414899646507045,33.09933868930613,-23.28693080773519,37.81810639136505,2,S01
11500,-0.03268405199427399,-0.38346007446776925,10.011603743846985,-12.960644379477458,-9.647269581204963,24.27665032689524,32.52249432515166,-22.861793098217348,37.39805528639571,2,S01
11520,0.29603131158228946,0.3824869049796962,10.265931616370683,1.5063512033328843,12.503145296592104,14.520318089484942,32.600038914161274,-23.558187089810087,36.79610480455583,2,S01
11540,0.6054716514048334,0.8196412811582106,10.647500754530915,12.231191399607376,26.02467319362099,10.932667577491634,31.021711271773825,-24.669162222372165,37.87517723622811,2,S01
11560,0.8083717672280073,1.222738149045221,11.144386712446167,18.8975611303282,46.09570335194596,4.853706555938295,32.87987290823827,-24.615894470342067,38.83831099791978,2,S01
11580,0.878270397610752,1.4678874023302013,11.08810094490839,29.829152880099965,45.95940522115075,2.7556421325660105,34.27430774495869,-23.966773384991765,37.82532562757041,2,S01
11600,0.9516663726308946,1.5058343252039383,11.237140951939478,25.050609267042308,55.86284060015558,1.2293437313692894,31.87057416250445,-25.34984373559518,39.109107404295095,2,S01
11620,0.8830950768802289,1.5258094267492501,10.96374470561905,33.70559308552245,54.39988201962932,1.707003431236536,31.400310051188466,-25.263986022364616,39.53897761933948,2,S01
11640,0.8989463158095228,1.4358138821697894,11.16669035789842,30.965581814913147,51.70740635561181,-7.4372181324892015,31.28023704336152,-27.719450434214533,39.228080216321224,2,S01
11660,0.5506900874961675,1.1598093820793154,10.924136245388638,21.98396597791085,39.3998841778512,-16.08678018635276,30.13941837103649,-24.821448166832536,36.92974365589478,2,S01
11680,0.3435367273928778,1.0061409226542226,10.837848290989498,17.216778368703604,32.67649386591382,-13.454186460906458,29.552211935246397,-25.508782219932865,38.05656924685131,2,S01
11700,0.31812827708611896,0.7648201336366063,10.6606707953639,10.880344870699272,25.443312554559597,-16.83114774416658,30.732565611760226,-25.061388662662523,37.54141629846244,2,S01
11720,0.050766435687648076,0.5880858556437256,10.373184066576293,8.420467336513237,16.19087708228813,-16.829298122032895,30.31423556191959,-25.357636323724154,36.474375452133245,2,S01
11740,0.11208068455691661,0.3328699187641281,10.408340545772298,2.9083620626560096,7.832373405804543,-16.65753741627568,27.963072068336384,-25.68537740264045,38.612336166661805,2,S01
11760,0.21347426249841184,0.06490522676097263,10.187825752052236,-4.862550509765069,6.901580295523266,-25.536646728929064,28.505896579766112,-25.598993123683446,35.34965599842339,2,S01
11780,0.2838736140728896,-0.021447715057270347,10.242694978433294,-5.152575251164568,1.1650929492257716,-16.959334637595646,29.380727435268685,-26.462555982425673,36.67804363763499,2,S01
11800,-0.027551547337829718,-0.19673100692352763,9.999728231364267,-5.054385163691501,-5.901935031547328,-14.536049930451936,29.12906624049276,-26.11659612278524,37.186245270428174,2,S01
11820,0.06411145885012434,-0.2987804014305315,10.040237758806851,-8.157433424848993,-7.787772085852395,-11.250169583496927,29.400934466240166,-27.815733830738893,36.219125112710095,2,S01
11840,-0.07483919781945628,-0.592117010524494,9.941675624815181,-11.496270601503923,-12.059061188779907,-2.6535051979143716,26.525772406798747,-25.931706447014268,37.33841518567872,2,S01
11860,-0.06552746845640947,-0.9065208571808385,9.73159172689278,-16.96854572943577,-27.074522026621853,-3.635880952862467,28.058843122334313,-27.678082250478642,36.28838855991608,2,S01
11880,-0.2564526390319404,-1.187589367358637,9.354670326290254,-28.6424532444381,-31.438832852768673,5.328614766750276,28.146178145782226,-25.63290665297037,34.91448748721035,2,S01
11900,-0.31290082071835557,-1.2207221374051418,9.370929066875949,-28.596285102167368,-49.22503280900818,9.689396282665331,28.13300646078012,-26.325979669917068,35.85571156151439,2,S01
11920,-0.5804945256567144,-1.5356010877314656,9.292937631204628,-37.89215717317737,-49.42720579081855,12.292509813334547,26.09691451429564,-24.762615791633976,33.728033186411906,2,S01
11940,-0.6162936580240659,-1.724354258518991,9.040409382754783,-39.834082988893705,-56.08500009893908,13.280177095580623,26.530130074932146,-25.5951553013168,35.80095506446743,2,S01
11960,-0.676659880379899,-1.7348159157158425,9.135847564503383,-39.01122885884404,-58.14526160861624,19.774305973321326,26.353171916598424,-25.756368177728017,35.927778911202445,2,S01
11980,-0.6967750893632412,-1.5691822023280102,9.041225937648045,-34.85719214930314,-52.29831161656731,21.373095539209068,27.383594027869183,-24.873531478683617,35.194037690895726,2,S01
12000,-0.33924795440515587,-1.3315637762710304,9.414231931337662,-32.52082980393311,-42.864685723628554,22.73595831915155,25.688465756599783,-24.22417058156505,37.088467636284825,2,S01
12020,-0.2464265955220423,-0.9213154760750375,9.446175107265931,-15.741333338752316,-29.830606466591547,27.263370726336902,25.70623510807559,-23.098689878129527,36.254910707923685,2,S01
12040,-0.1358726360979381,-0.5806911515301785,9.7720423556221,-14.771910193637016,-16.937019110072782,24.035036208378784,24.830893436685265,-22.952668908282718,35.58461136186848,2,S01
12060,0.20935031167433274,0.14316012604641357,10.296639882697498,1.2914165760489844,2.672197526629784,16.088541738357364,26.340744342270423,-22.244416008146846,36.77387762603127,2,S01
12080,0.4339997846748045,0.628914252258707,10.60278856859412,12.896277928087429,27.474716805933088,11.821014311828224,24.79854269195377,-21.072814976521926,39.570054371031915,2,S01
12100,0.6732362996584085,1.061430922675542,10.90327958870752,22.507081824424823,36.65054562888307,9.949049526219671,23.96428672539065,-21.85521478232124,40.191822860380825,2,S01
12120,0.8677421749037898,1.2232246293717957,11.078406916404697,22.971193803953362,52.53633948530471,6.197176167087738,25.270580425998624,-21.984885213974586,38.08852406634671,2,S01
12140,0.9281632133459242,1.4897198411204455,11.258601980645638,32.06720237576759,53.32568524989059,0.5747623773152498,23.93665469372538,-21.325004048696854,36.63417477666448,2,S01
12160,0.8390409324005805,1.6716219415173803,11.229563003274391,28.98073039117472,52.258246068395735,1.83816208203014,22.981015927513077,-19.12564350204329,37.788587785441266,2,S01
12180,0.8722071912288781,1.4630823867679992,11.167782941537578,27.5013695891968,50.78396718886442,-5.849102988340499,24.619012450653642,-18.716674277029917,37.91050313804176,2,S01
12200,0.5991478508449913,1.3550135954687985,10.818825435818576,24.277527086350204,49.311313689257936,-10.183706928760529,23.339915987636992,-19.219288923449085,38.6389232439109,2,S01
12220,0.4576052514633663,1.1378211371361444,10.813289849256487,22.542638910244953,37.089488124618434,-17.939500275873684,23.808213531199883,-19.423441357756964,38.04960122337636,2,S01
12240,0.41293859303246816,0.8740431475268897,10.561558705479163,14.763323949343125,28.885862479783896,-12.99431171690903,25.717014807533168,-16.613740674461305,38.66318523266655,2,S01
12260,0.16963985956560407,0.5939473948632423,10.388909064499412,5.9705156636389765,20.88924545499996,-21.133513295142116,24.269955895204102,-17.865706348204952,39.05417818621093,2,S01
12280,0.039066318677669284,0.37972801988047944,10.465649581630267,2.554387147528363,14.520926330894454,-24.642870781613144,24.74978193109314,-18.61510808215038,38.56705450909181,2,S01
12300,0.014802567143178208,0.20918712404610046,10.332760798849744,-1.0637268262650226,12.297648605547439,-17.687910269747682,23.273706503923464,-15.40826245209601,38.77353551224533,2,S01
12320,0.18044868032791522,0.043664445581363565,10.239867319301416,3.9937842982286016,2.3130071476719403,-20.63329586239027,24.34998870714352,-16.182960844886694,36.2451746453978,2,S01
12340,0.04655688919893897,-0.13690092879834612,10.158965946888907,-2.621029262943035,-3.9595091279865144,-18.58182434550129,24.363036056202898,-14.217348822612857,37.800954206698236,2,S01
12360,0.0023080358727758515,-0.1336744060054661,10.014861474236458,-4.982804851199946,-7.1210207595894035,-15.631262976563212,24.668061170698493,-15.182202270709364,37.31498161512931,2,S01
12380,-0.046669112911704946,-0.5636108240211137,9.970136030759111,-10.173034402355022,-12.423168995055692,-11.477431957551765,23.48640103126837,-13.36186043032361,35.2505658211155,2,S01
12400,-0.08000338879672078,-0.6855826952172897,9.733214621626166,-18.48784417659753,-23.352778999588036,-6.231144063705243,24.756022289855792,-13.35949774654638,37.18988893443723,2,S01
12420,-0.23942105190440874,-1.1423211427675029,9.511713286630952,-23.1773607895466,-24.64514402442576,-4.616018090720333,27.209029884231636,-13.014360841823251,34.22393059548698,2,S01
12440,-0.4627035421540078,-1.1478219659260989,9.392225117927417,-25.78000863422032,-34.62351279892123,3.636696490145482,27.227286264062787,-12.199279697809553,35.33120884138724,2,S01
12460,-0.35392757433554534,-1.3752668845371632,9.262163775402117,-30.41535585082751,-52.736973384149785,7.941364043659873,25.98051229772439,-10.270868620187594,35.929340010888055,2,S01
12480,-0.5198944649017816,-1.7660654134225744,9.173049405737848,-34.93497620430462,-58.7256340897428,13.885291704767093,25.34308304378674,-12.789500121224936,34.01210430657735,2,S01
12500,-0.8445117986695926,-1.8001345619053346,9.093497958975755,-37.560888450310614,-61.35109738885011,14.597336720596399,26.6444556913325,-13.043852419861238,36.194375593505306,2,S01
12520,-0.6966768595828166,-1.6394747759355688,9.0278017363073,-28.616815827435424,-58.09096683894746,20.090027777359467,24.349305805226315,-11.61916086244453,36.80401201576078,2,S01
12540,-0.4610897084129997,-1.4560553921568598,9.1454597219873,-32.08641034381815,-45.44282704351531,21.894728343926737,25.566524416902546,-10.644741195351292,35.421457183608425,2,S01
12560,-0.46290614973649835,-1.0481199766559057,9.497577371822972,-22.558793676027673,-36.639605969084464,21.36883556009453,24.561206185017173,-10.215176727382808,36.888267674794506,2,S01
12580,-0.1970206346476089,-0.7930146497582813,9.80763541477088,-10.865541474852622,-18.054704169509982,23.785668875000574,27.51014190315049,-9.333688061010163,36.92906870573465,2,S01
12600,-0.021231890397498912,-0.27511175702692237,10.157396869826512,-1.6325755205679293,-3.8030984107264327,13.751799690420823,28.1663047750171,-9.481836858862035,36.884090131650034,2,S01
12620,0.2642111370906825,0.4263715512956203,10.451558351738676,5.839269438951178,14.855573429728505,13.03822323880601,26.446002140924396,-9.516267678001428,39.241505191366116,2,S01
12640,0.5140103979421972,0.7717477375922335,10.70509386908292,19.205439596444002,26.43296968807245,7.6322073833162465,26.628701603370992,-8.799770953314582,38.05714919132116,2,S01
12660,0.7642175448131964,1.1089501221158033,10.889136190693229,20.079702983009383,44.98316509478034,9.279103360389854,27.006276486783424,-7.6471905736180235,39.46085168432089,2,S01
12680,0.8766017156226078,1.4410575356953217,11.181519836962346,28.405286245089325,58.27733595894846,6.187582700925165,28.769927615517872,-8.410742823541055,39.21315935599401,2,S01
12700,0.8289622189811329,1.5097420899746024,11.176213698509002,26.629222889411192,54.061226487238564,-1.3791951809679537,28.32015694024351,-8.370307074294479,40.251760201583075,2,S01
12720,0.849927028058021,1.4540448507174886,11.169879993634583,33.019554901222776,51.393503227917556,-5.983229082810624,28.82656493682239,-8.957667073076099,38.44042070897284,2,S01
12740,0.829902823021307,1.2552831609569783,11.017517792217962,22.246283266056512,47.40867686259187,-13.426172249883031,28.564566196667396,-9.17873278252145,39.68282349632629,2,S01
12760,0.5809087408761185,0.9983369035729521,10.793398354688522,18.49264712655759,40.39773808793845,-14.405030132714133,30.340024424921143,-9.560269749089297,39.018529526239995,2,S01
12780,0.26355220432450577,0.9337455597729134,10.826016216350247,14.068975503399976,32.85279692941751,-12.380328618514707,31.83499870947937,-7.550013942048883,39.62861693284234,2,S01
12800,0.30291720774325537,0.5549652909980254,10.545830710520802,4.738659758214367,24.614504777466255,-20.27494180944745,30.171766531146865,-9.903015571643646,38.67561056504834,2,S01
12820,0.2568286772869517,0.27393337452355554,10.451876546295297,2.0337934127637736,12.839946762353337,-22.677019391411847,29.613857758527246,-8.561201998445387,38.193183398792655,2,S01
12840,-0.06689867380616243,0.19048195986965527,10.403056636212824,-3.323968606581653,7.745847489530729,-15.046201922666834,29.20990656072984,-10.923987304485893,37.324282907661996,2,S01
12860,0.16981446969501332,0.042771642508274504,10.312311549702967,-3.2934723446647816,4.504144706366863,-19.526328133491397,30.507886671181485,-10.265037126812489,36.5599183351712,2,S01
12880,0.1613752753708107,-0.036817602501952,10.164996769266871,-1.960730494634367,-4.930907947277439,-11.735109079310087,29.331199811202087,-9.043910697747126,36.40517949526535,2,S01
12900,0.17869115365193056,-0.25858609751321016,10.090281346559484,-5.863305862340175,-3.9731033064946866,-16.53177444557437,32.29560869559532,-8.335252452967833,36.323671205404416,2,S01
12920,0.14724907496726625,-0.5059265241260473,9.98203526792335,-5.69299287701644,-9.55552604648325,-10.437504013494264,31.50146962069126,-11.082035393305237,35.97369371669511,2,S01
12940,-0.07735204054571929,-0.7185959979519456,9.848009557321785,-15.822129647978137,-21.35657270736974,-3.293747947617542,31.241213244534116,-10.797691771301078,35.370576015946426,2,S01
12960,-0.18445389691966294,-0.8456103891055073,9.589500668597731,-24.437646152871626,-26.11442950149168,-3.186125813534397,33.32583579759902,-10.845844374309074,35.727869506127846,2,S01
12980,-0.40604685490690007,-1.2303260250557013,9.52302319991615,-27.15605088483958,-43.03578686854816,-0.5342035251956984,32.627156302778594,-11.789067330908209,35.33572678648588,2,S01
13000,-0.3321557888997174,-1.4868422486354667,9.24477691501054,-34.97615827040716,-44.94426350387905,3.9712949489121847,31.92396312903853,-12.661457656377195,35.43767632078536,2,S01
13020,-0.451193985260839,-1.5451441865869402,9.115625671744775,-33.944944786248676,-58.21473343185074,14.482177536287553,33.25646879847101,-11.804668571651643,35.658147289150676,2,S01
13040,-0.550043783246934,-1.7424146617694236,8.966463839579998,-35.56587723339375,-54.80955116652113,15.42456911743197,33.77427826488268,-13.951867313349625,37.106114662579486,2,S01
13060,-0.5992541598892441,-1.6764791142226703,9.117671985782536,-37.13287494643037,-56.806225498922,18.403494301345255,31.993385274821836,-12.220213745877412,36.76203112222592,2,S01
13080,-0.5791437423427341,-1.5767500033697461,9.181302481616525,-38.66500197252016,-50.14396189962899,19.174674961352753,33.909492099925444,-16.823796877712535,36.47912382555251,2,S01
13100,-0.5397300546281616,-1.087829863998548,9.356056005562463,-31.98123122060028,-39.78933099164347,28.17920909833429,34.82482298839976,-15.087502927648474,37.945471948230555,2,S01
13120,-0.2762396610992697,-0.8744364093553474,9.658333553853925,-21.995638274089522,-19.31043763006957,20.656081889434333,34.36386741663201,-17.239672901735076,36.573522846903266,2,S01
13140,0.12684704823256684,-0.35952624883609535,9.966736341925454,-12.91042025283177,-12.39960915137325,18.601297598555302,32.954305091767736,-15.944926482331336,37.88895887241747,2,S01
