timestamp,ax,ay,az,gx,gy,gz,mx,my,mz,label,subject_id
0,0.11256966032342526,0.33113877193412206,9.957646535832591,2.180380691849365,11.35770813376508,9.592112737059265,30.560779527261367,6.87647272540638,12.573366325145386,2,S01
20,0.24425064129623603,0.4549524579428565,10.35084141354508,4.989161707824365,14.78068053139157,11.17620944244717,28.05478689304069,6.814478848426827,10.180577073268132,2,S01
40,0.31948694690920093,0.8368579513724788,10.616957129882953,6.570613895155219,15.143146311011183,8.062313418221505,31.1895912569078,8.253397473090406,10.630920931021173,2,S01
60,0.457335719817927,0.8928304019952369,10.732079555588722,10.55582433965849,21.942809494836798,9.420678523951265,34.04063942908458,8.985455658510443,12.770087966903798,2,S01
80,0.6125845157388624,1.226197380099796,10.733029176308143,12.690442639719985,20.315566939403954,6.332508447844343,33.527670674165336,6.814197986688651,10.18701499037221,2,S01
100,0.5440642893049663,0.9858994829133488,10.52853545611757,11.824371547860125,19.776634907099325,3.746150909315743,37.00238596621533,6.056968168071894,11.911049284593576,2,S01
120,0.5646997394390894,1.053701628187827,10.362079579308626,10.993671071259207,18.404577121045417,2.619471822592253,36.04966987546706,6.064859983195969,11.866960522420353,2,S01
140,0.5799331264845966,1.1216280085454808,9.87160895294008,14.580281790870531,13.638405404789047,1.6408253280777565,39.55901974926479,7.639668363245686,13.142400223305422,2,S01
160,0.6512291212288221,0.896189069426079,9.570880795375373,18.24091810725639,16.02610716726986,-2.421679959465501,41.069047956868374,5.768331791302142,13.142032612975472,2,S01
180,0.6236842968708128,0.7833765938120418,9.232712191887156,15.217555107108621,8.819477431749782,-2.0762892457369038,40.86922843087575,5.086809546199392,14.163935950208913,2,S01
200,0.5037897021252113,0.5907431137041275,9.077133877425213,8.407360105149523,6.266694325680966,-5.895594083957176,40.11367933414003,2.5425216678322986,14.546892320446652,2,S01
220,0.44614070365186254,0.3207185489025886,9.154299553435902,7.469876815336737,0.810947995116837,-7.568403243332077,41.23465685914745,3.218745575756458,14.04773387621277,2,S01
240,0.30428659876764175,0.25427202135955096,9.474469792191556,6.307523998817444,-0.9757685767680724,-8.530112035427091,43.328449591839274,2.628862970593575,14.276557808855397,2,S01
260,0.2904972364148343,-0.2036156564323266,9.639173036550766,5.354515189833375,-7.683475567159769,-10.842623220858417,44.32547298778103,0.8058193705462049,16.8545922203185,2,S01
280,0.13181146252388937,-0.4591822781478885,10.00402231180865,0.9390253997064508,-12.875462608043629,-5.853595129334757,44.1671430781116,0.86833367440782,16.68268237483051,2,S01
300,0.06091206739318032,-0.6572307058672724,10.362877755802643,-3.632050994411944,-18.069557457908566,-8.95065739445752,47.599759131374704,0.6106291056583633,16.431423231655693,2,S01
320,-0.10986348484479791,-1.0437212406414598,10.54739247488284,-3.9347198390225877,-18.710737899566546,-12.051607458156555,47.13242928104667,-0.7340386755343244,17.18623786110921,2,S01
340,-0.18370847611239727,-1.1215418987791852,10.7318810071263,-10.536708661063102,-19.330670661136597,-7.103268896975018,47.693886013247386,-4.389452742393192,17.206328546365587,2,S01
360,-0.271535868358979,-1.2419195444590831,10.673676034277626,-13.537792553484799,-21.60769121737886,-5.709596138282083,47.98635464071948,-2.84229281205851,17.675995159582822,2,S01
380,-0.23180535591966478,-1.2785734897987937,10.536463821859165,-16.37500298935093,-17.3354599704778,-2.9547685259833036,49.43288216142054,-5.1988052891227,17.2121588931266,2,S01
400,-0.38458401501839756,-1.1873597897259425,10.286443204269483,-15.41122047063711,-16.857512581461418,-0.7571100051111692,48.047755379001224,-7.401421754930563,18.598189654876847,2,S01
420,-0.3230682752898383,-1.0997771017278886,9.871706077013778,-17.14229925265599,-14.21098923313869,-2.3350542524830655,51.5474801430232,-9.661242454989122,18.44697978884992,2,S01
440,-0.325685250483255,-1.0316944724908332,9.548000320507553,-12.765693435133418,-11.908557078442856,2.0793956527453727,48.14704216601131,-11.86294981302092,19.98019496656491,2,S01
460,-0.30057056532828774,-1.1225457623400925,9.39847549591875,-13.209083691165718,-6.562197150277511,7.336804443989138,49.864067272288835,-12.705827713806089,20.21235151954751,2,S01
480,-0.24031950846958416,-0.669873811195916,9.363580388606964,-14.552795712529015,-3.8373899428849723,6.914181437235781,50.63899632912306,-13.331672852913147,19.426248019567545,2,S01
500,-0.16928005362298382,-0.5340941908083201,9.280782415498512,-7.655273807071846,-0.9519379636178885,11.906110415243276,50.64699419705837,-13.036375396359954,19.443257255656896,2,S01
520,-0.18293234664591373,-0.2834973873144755,9.341353597987439,-1.4672617523767253,0.06800590913946357,9.23347454404854,51.11425256994897,-16.098833877588383,20.630405676247268,2,S01
540,-0.020971103559431742,0.08082315509008635,9.666943138046053,-4.975153061709728,10.757087316346846,10.473390303657778,49.56057990844712,-18.01793961180688,20.097595051482184,2,S01
560,0.09365802048762448,0.27954192613587936,10.104027622119515,0.6515390824543525,12.293618760847972,8.342210521182745,49.96760436123801,-20.68383709943636,20.991535765728827,2,S01
580,0.31280508138599483,0.6428628791968838,10.26380269364497,2.725314789941596,15.559731103861706,11.401096333466908,49.964301568686885,-20.807460449021843,20.535063852490794,2,S01
600,0.3667933589946012,0.8749359682536028,10.693760319702333,9.965589793689796,19.914185452608343,6.91693409521569,49.09395488668934,-22.390958835501884,22.45616720082819,2,S01
620,0.43627852985062515,0.8553452891223084,10.718799686385418,9.579715062883746,18.862906357227445,9.328677113294683,46.67088627162005,-24.74380975320952,21.485026437380668,2,S01
640,0.4257265701208966,1.1370944763816344,10.705657244001179,11.855806916561013,18.229458674434564,4.8651864119806465,47.04113314794796,-25.877372429523806,21.637779305009705,2,S01
660,0.5193389390682703,1.175336222894206,10.567124942759788,13.621854748346182,16.39006398268914,1.6319323548996665,48.523244990573914,-26.062051841712947,22.073630375827374,2,S01
680,0.6293188797035727,1.0267065248302292,10.31262344392282,18.45901405556251,21.271788927952965,2.5598616373457164,46.51627491382721,-26.6378518188785,21.46306763258624,2,S01
700,0.5677039553819481,1.050205575171451,9.85819235394126,18.572457674800315,18.27961679528928,-0.9863938069277234,43.517052201885306,-30.05941307612152,21.854078492640735,2,S01
720,0.6741927386532164,0.8546379578265881,9.3956676338892,14.71699923368418,12.818952744360606,-3.0904384019767805,44.683125115057365,-28.872589708039495,20.92345847443767,2,S01
740,0.5194346467688558,0.8672409797001118,9.241123474654032,16.814805274547712,8.388512059650703,-3.8339316922652,44.170166317121115,-30.913166674763204,23.163538441677954,2,S01
760,0.47014913467436825,0.5357808765535005,9.085273293239908,10.994989561727142,5.147761428052979,-5.493515892651797,42.77422264794696,-32.23073081361193,22.75024259641661,2,S01
780,0.40721927497195964,0.3606543623434571,9.256219154509854,10.616279765072152,-3.826773075896628,-7.799196509116234,42.20177492353123,-34.56536083551347,20.898160023228783,2,S01
800,0.23060712336847208,0.09659206113645889,9.433064925836716,2.512349757167418,-2.9527701976724567,-11.968423297404476,39.429190573018175,-34.15572133269068,22.62841671077983,2,S01
820,0.20242375498707665,-0.2679910085942974,9.708915616838032,0.48451035681152343,-9.442708620554408,-8.792067431797078,37.62778601840853,-33.91117044195208,22.376295218186527,2,S01
840,0.034562916759731596,-0.5163295591801532,10.025319971593936,-6.551666533282207,-11.22101658809376,-10.015235209602583,37.05425161210877,-34.98177066137236,21.037818856814894,2,S01
860,-0.001685383980382843,-0.7864583762800548,10.57845295062929,-3.7218324360255686,-17.3397990145337,-11.097606412260609,36.6175406221831,-36.60631759797444,23.082666822149058,2,S01
880,-0.11931547262186012,-1.1087907576762934,10.677228347942085,-6.742236675176089,-18.999236647645827,-8.477234853375098,35.34934657193316,-37.55570506290943,23.581311355384642,2,S01
900,-0.12352635457790359,-1.2035995276544933,10.73640856361725,-7.713756875758555,-19.39220680017458,-6.556141561442029,33.853928574807256,-36.45567097846228,23.608381747754894,2,S01
920,-0.19911224342873796,-1.2126847925411735,10.612181136254804,-13.540997556895055,-21.507699490858474,-3.8447890476302935,35.61008122925104,-36.81166170288909,21.020879483979236,2,S01
940,-0.34741455961527834,-1.2580088577076796,10.509388036292824,-15.907534601806791,-18.72484171812707,-3.1561147251472996,29.770519706535783,-36.957430896947926,19.989739414244333,2,S01
960,-0.3677208935005563,-1.2734101825819808,10.142185498896954,-15.46286615834974,-16.97864481714097,-0.5921848749334181,31.12748460519294,-37.46975452939598,21.09395053949349,2,S01
980,-0.3156798711927591,-1.3139190347236762,9.775885116570329,-13.125365529480598,-15.1818488025787,-0.6166913101637808,28.65489575622879,-39.53119569526528,23.207613621313907,2,S01
1000,-0.31102387222496314,-1.0549195626402639,9.533531072576595,-12.276661461177868,-10.882636266692296,5.180411766722535,27.381175689226936,-38.62346343250063,21.535760334601658,2,S01
1020,-0.2844513845724903,-0.9241955053778647,9.283793380285111,-12.502801048980865,-7.48586823216389,7.380424294537644,26.438868016495487,-39.643372293457944,21.595272379527014,2,S01
1040,-0.2119192803826606,-0.7353269718730421,9.194446564889574,-10.137420228864713,-5.585747061007519,7.5825092500998155,25.118478634116165,-39.25830648146376,21.606776626747862,2,S01
1060,-0.1545005482835955,-0.4318426841356726,9.111831517929906,-10.36361926675252,3.0928755378279007,10.331783833454027,23.28886720305661,-39.90163314720946,20.58172800299333,2,S01
1080,-0.07696311755276763,-0.3509510888935536,9.554639556471026,-3.732454343812019,6.375553202770053,9.50213949423784,23.150767218320084,-38.18603182096582,20.274220814792468,2,S01
1100,0.09444712156280566,0.13591959828626143,9.699002765357186,-2.740706343219982,8.119030010826226,11.141532944137701,19.470692308925884,-38.30297786763099,22.966246031466095,2,S01
1120,0.16702315033063475,0.4848233303932313,10.054269543350246,0.6307170455002116,14.346627178933097,10.384021017477028,17.77477423904611,-38.02531336001644,20.67293236496993,2,S01
1140,0.3189212829214141,0.6586624179332243,10.508559796621684,4.817996925730828,12.725417895656108,6.967598288450018,19.581253409263372,-37.32992734406788,20.55038755262148,2,S01
1160,0.3816316172116582,0.8160713594511563,10.659381527271739,9.165723343328668,19.652419984490212,6.876687272273848,16.366500311479932,-36.78725448400125,20.92432750817114,2,S01
1180,0.40775052713728777,1.1930603378410451,10.71351102351024,10.150080970147995,20.59571479085792,8.406703699626176,16.672643395055353,-36.65610166627344,19.307022383149075,2,S01
1200,0.5251619626313843,1.1467259483086991,10.665860991547428,12.441561844953148,17.40509347729106,5.603712481401699,14.469714812294917,-35.4712607125432,20.14576238374432,2,S01
1220,0.6567080430129391,0.9609384787166063,10.457168074997108,12.712943520647833,20.609022635056377,3.68461373325894,14.372558070416389,-33.73574931530539,19.545531357340046,2,S01
1240,0.6417580381601242,1.0977034931185023,10.104008924214778,11.468473341745247,17.122833840385805,1.4885852372804882,12.892599013594273,-32.80318497411686,18.7467391410452,2,S01
1260,0.5459274193883563,0.9550473522198134,9.806293917394962,16.50523484258336,15.283511861492075,-1.054931402830302,12.769896642002026,-33.268027945048836,18.498993826008267,2,S01
1280,0.6791181908375321,0.8362464335335229,9.554960513239841,13.778809923628714,13.056312587094233,-3.953395405281038,10.408262890373733,-29.3568479205052,18.532874186848694,2,S01
1300,0.5676709916457755,0.748742990015679,9.273998462801812,13.911934281069048,5.351821034088559,-5.106068028973438,9.526233030879343,-30.47893539252244,17.731777665633526,2,S01
1320,0.4982242011264682,0.5237959583987736,9.142757710629638,5.936100304666559,2.5676923580860302,-8.761807500168365,5.841320359461212,-29.670480892063594,17.355261333433024,2,S01
1340,0.4260302385126096,0.22247861419274356,9.221703616321413,7.310147760002549,-3.2581378013746214,-6.665167125191805,7.844719038372787,-27.12864205970011,17.08019748099747,2,S01
1360,0.31448509637190347,0.046998873355168655,9.464350160505079,0.5275081741733254,-2.9851637822931583,-7.6219183396366565,9.647630925485265,-25.006457005060565,17.701638791038043,2,S01
1380,0.23181367582393517,-0.19914164935968132,9.71416574435051,3.9702642245390147,-11.399139422934013,-8.519319650745201,4.38426909105757,-25.425272541454582,15.477213992931631,2,S01
1400,0.10586278529265697,-0.6686970746020026,10.077962026985036,-3.617593825044299,-14.078412812663569,-11.102859399627448,5.317589369638226,-25.449609886516487,14.874831127167003,2,S01
1420,-0.04632186691090917,-0.8568170602245363,10.507423723616286,-4.68864637415139,-15.66796180641444,-7.0928519109767105,8.421277983887396,-22.34286996102236,14.463672458425997,2,S01
1440,-0.14108289760190018,-0.9235879420450722,10.676395043407753,-6.817770018025006,-22.400498103741928,-9.529883886658025,8.60662524780743,-19.94465037586696,14.405954262346285,2,S01
1460,-0.22504990279366338,-1.0024658951721441,10.823267592444727,-13.89035307878891,-17.902274316098193,-6.220811393026108,6.117797485628389,-19.556857066639402,14.994204631915036,2,S01
1480,-0.3317195464969559,-1.2357854930532952,10.633162179960085,-14.529469323285348,-21.163952227907302,-4.531671281071613,5.899307320175317,-17.017006733194282,15.190116034532377,2,S01
1500,-0.3510496261068861,-1.441280043498703,10.542040925465042,-10.388784387582147,-18.041781190304043,-0.2511746632114246,7.197333513650409,-17.257436658962874,13.581625809000233,2,S01
1520,-0.42374441303606747,-1.288773613587967,10.11416783060314,-10.897859507394552,-14.594640810045348,0.49891456446964816,8.008321954320156,-14.005361143366766,13.428938948006394,2,S01
1540,-0.3755900907994325,-1.1394802910011774,9.706876989247792,-16.315484547521024,-17.500865361887293,1.5243740885875359,6.493175440458948,-12.751488542370453,12.910431377654472,2,S01
1560,-0.33561351043079934,-1.090026936328853,9.357889916542245,-13.898640295291226,-8.855147837653814,5.598656259930689,5.088520701024395,-13.853128519167694,12.277927228108288,2,S01
1580,-0.2773223458766178,-0.824234004498449,9.150099946470217,-12.812317208054715,-5.786615814685979,6.486412751027866,7.556292324771157,-11.500081910760084,13.933822696446484,2,S01
1600,-0.23366167779518054,-0.5842413032180388,9.187737995629496,-11.761520661675998,-7.339835436549974,7.6172549810156776,7.3236719346336105,-9.481235368417565,12.857700760879272,2,S01
1620,-0.12109053899260624,-0.443914666107266,9.161318653580532,-10.36228521495897,1.723538268622687,9.670169780808502,10.691756294413715,-6.8341356848911845,11.15061985747369,2,S01
1640,-0.037403096841983924,-0.1334017062689356,9.63404827519215,-6.564652624874472,7.164726033917598,9.41318643193101,8.262919830899579,-5.820928997481754,10.67495433141265,2,S01
1660,0.05029477124983919,0.21897182283192163,9.906579072139962,-1.1448625791731877,9.720932685648936,9.488338576501997,8.412144191866975,-4.685319337007982,10.035908614623189,2,S01
1680,0.3274757844585176,0.47073416753536473,10.228017199036476,3.6194600609702445,17.52758368264917,8.772246550599627,10.815713322077203,-3.4336632455213385,11.207434854864623,2,S01
1700,0.32918555395119053,0.6043439515458274,10.525549603499845,7.343454290491978,15.863335663848549,9.848728258301584,10.502894171143671,-0.9996694090185834,9.638931802869038,2,S01
1720,0.32707549545180015,0.8426285762796438,10.642475989184538,5.285763376079006,17.823573588350474,5.43207680772007,12.954627974560362,-1.5243759995171553,10.74954546398898,2,S01
1740,0.4452190707378661,1.119641484803717,10.790307643909737,9.483153073178629,18.115274694104723,5.038881216224018,13.528411431997021,-1.453650903582111,8.93775359358417,2,S01
1760,0.6219889113497777,0.9541302666362711,10.620996886164802,14.074719040035061,17.284856184238112,5.658269172501267,13.468200223370118,2.19935135592746,8.46979419774525,2,S01
1780,0.5749608897469556,1.198371028926102,10.387844419804972,14.958322245246457,18.639361513766282,2.1716634716737473,15.711598718938887,2.440204820871081,8.306126980250173,2,S01
1800,0.5204607401346153,1.0607893645752924,10.115017555671045,16.625027376033454,17.178027365243096,-0.45980100187011946,17.467835595838874,4.807968384656556,7.755671343580344,2,S01
1820,0.6212231342542001,0.884040824105339,9.70902848072025,15.439568041304149,15.414643688681268,-1.6442322634752184,17.83754342732434,3.6448760047925486,7.432009204939233,2,S01
1840,0.5536424873217807,0.8144128237094324,9.41495444048864,10.05405131494158,9.976100715497179,-5.9595540607329225,19.230299039115422,5.457121396044434,8.188594325854027,2,S01
1860,0.5224241694949474,0.7050588351598813,9.188026332205336,15.686890085323332,7.390110221796356,-7.543579708714721,19.915452132825628,5.720712316902636,6.395160126793153,2,S01
1880,0.39468605644903215,0.3835497547758674,9.142112737318701,9.847828603404862,2.456917377895389,-7.019600846062582,19.927256099965064,5.314776819619354,5.6441508151491195,2,S01
1900,0.3116543588651651,0.13198855971480655,9.251448525970993,5.953669013618763,-1.3721593668543866,-9.533832466662082,22.95932271273907,7.168748798745119,4.52778115022268,2,S01
1920,0.24487402669938077,-0.17289682065772366,9.59547204742273,6.421430576606994,-6.900162110496925,-10.626350058618092,24.826615674080585,7.787080861559058,5.460281149484345,2,S01
1940,0.13804358944556286,-0.4214936979925906,9.802007338257816,-2.3602898935959655,-12.434807473314276,-8.868957399069268,24.59533462702917,7.96240939798437,4.322653277725505,2,S01
1960,-0.0181706091944073,-0.6099794741412682,10.225238617277125,-3.4625258688344296,-15.90835664978588,-7.829452509515686,25.40881216866432,7.86749934438787,6.686155943994954,2,S01
1980,-0.06395528888053467,-0.9123294948811149,10.539509556098286,-1.0115824166871052,-16.064946988619525,-5.92739183020986,27.692506534621515,8.259385378083877,3.5489618228334288,2,S01
2000,-0.1499931128416599,-0.903065533005665,10.715114012298166,-10.556357636486206,-19.661443544042413,-7.090215902509766,29.967777850870647,8.075360132543594,3.7274361771194626,2,S01
2020,-0.3146517362988113,-1.280094128543755,10.754790472950129,-10.138821861665434,-19.531998005387752,-8.467173017059437,30.992613716254315,7.295889031320989,3.9432951180936113,2,S01
2040,-0.36623087873400295,-1.1442865180394852,10.62064760935056,-10.472718081748129,-20.084812255223042,-4.155465943559927,31.60570267043492,9.300047592418561,3.2933939367686955,2,S01
2060,-0.2849734551991623,-1.4746619581150036,10.3441843470916,-12.68403675023941,-20.223531966017234,-1.6340444119524475,33.62229375686108,7.000971418667998,3.583368351118905,2,S01
2080,-0.3466735982113619,-1.3066143256446368,9.995924205074287,-14.025055708803183,-17.83500092652072,-1.8297578275753412,33.739669523693266,8.053561551150395,2.9779382621270396,2,S01
2100,-0.29520861101223095,-1.068435156422867,9.671004234265846,-14.82954250944648,-13.34900825147559,1.5627798939279962,34.88692324872851,5.978649118087512,3.0553588190765044,2,S01
2120,-0.30942445222687737,-1.0497446438544593,9.367568470475241,-13.168104604293779,-13.343170587378905,6.370821659618169,37.669495362231274,6.9003087745861915,1.3894956208031184,2,S01
2140,-0.2769777095782591,-0.7907851769766221,9.309992924176413,-12.959451523614295,-4.377543983883974,6.086705148670888,37.37731939777748,6.735602642042412,2.683187879734586,2,S01
2160,-0.1726190260410816,-0.6654149862825616,9.117898315051075,-9.863540030543197,-1.5964595090259328,5.466946190292586,37.2282631138743,3.9399824745810186,2.0159968173231,2,S01
2180,-0.16559074528898332,-0.2822414346240094,9.263702807990123,-7.4198105905496545,3.715862626252803,10.813547770888915,39.94082355795045,4.659394227954175,2.565716211294985,2,S01
2200,0.03670573386740006,0.11272821697285952,9.555666895491072,-7.2960523605004655,7.076729308663072,9.02457457463562,40.031665787193795,2.1329511741242637,2.3039954900294326,2,S01
2220,0.134127611264608,0.3284966300823194,9.941168444814076,1.2735958501435676,12.180298119586276,10.40813853651929,45.26413449178385,1.9748902300635542,0.9629212697740259,2,S01
2240,0.23528656076433158,0.5849928361378494,10.305298092921177,3.6127568456661683,13.289213366866353,10.442899799727218,42.006720098252366,3.9763475256481513,0.9703235981032323,2,S01
2260,0.3324021211491872,0.8178050790361984,10.500868930059724,6.528298981852691,17.266783661786782,8.789576376082747,43.47404525692508,1.3400525697422587,2.83248735991648,2,S01
2280,0.42327485554025107,0.9382922734000961,10.722487737897032,8.200974687388424,14.837184316802688,8.46615178388726,44.998524842506725,-0.515494831336663,0.5057502927341293,2,S01
2300,0.5449707466018391,0.922776138511228,10.757681919269523,11.433137807572354,21.22253299303745,4.77492893383598,47.055413606065976,-0.13939382430762315,2.181656031768309,2,S01
2320,0.5299414027107257,1.0589341320310135,10.541735522798387,9.8546884795217,20.10459622434618,6.543925599351382,48.62642981504821,-2.1279548323961386,1.1194844083598836,2,S01
2340,0.6429290799459016,1.15642100987612,10.328395281123646,14.745335956858213,18.128831490123076,0.25962923083591655,45.69808526294175,-2.987035319514444,1.4213341160050752,2,S01
2360,0.6048333578701235,1.1829217218136732,9.89179095822976,14.553594935979913,19.724234991825416,-0.9550604392874159,48.33133159200376,-4.930000450356885,1.3804384881402862,2,S01
2380,0.6013349590215099,1.0707998355691923,9.636241879810875,14.862378315759683,14.615560013256713,-4.472515666366698,48.51736188886759,-6.0481103500797,2.853430569831703,2,S01
2400,0.6413518389592515,0.7582301904252541,9.188217222384235,14.895599707792226,15.781648833042713,-1.091724029265384,47.486170129411214,-5.694102531043317,0.6261030646468093,2,S01
2420,0.5105728810365402,0.6063012418970344,9.137300605826454,10.97829988492739,8.401519160573127,-6.084579986856223,48.84117536030176,-10.53266634079311,0.9466617218568789,2,S01
2440,0.46806112825115154,0.3290184009386892,9.17474590962284,7.442811410353063,0.48592566877529064,-9.062934014770903,48.437224160790144,-9.937988298503495,1.7105233211110153,2,S01
2460,0.36560772646686013,0.007737362251849594,9.331859699956697,5.75109080250997,-0.37164501073219913,-12.08845567921538,50.62138516209869,-11.53756160434871,1.648391202295711,2,S01
2480,0.21516579632113844,-0.22912718235943585,9.54199583053619,2.2795589198268895,-7.38753216332069,-7.112641791763509,50.46912319033706,-11.732941502584703,1.1154855517594182,2,S01
2500,0.07135613138775707,-0.484600355939218,9.911639467751689,-3.2681361753916325,-11.319169161248409,-9.721235645489193,49.603879591879725,-14.443693156948157,-0.15035450187076194,2,S01
2520,0.08212511346720788,-0.6583907150253818,10.30460969482921,0.2710066903009405,-12.427910742515525,-8.105562415989265,47.89108332854742,-17.08917347584079,0.9310668819802199,2,S01
2540,-0.055753482906273216,-0.9659925634530184,10.560499534121645,-5.201215641196427,-16.883347271259098,-7.892215794193957,49.87650376125772,-17.585729467557787,1.9277943237983122,2,S01
2560,-0.22589839873916207,-1.1757829606380796,10.81053397434913,-7.712210231300667,-22.432500871248315,-8.645116839867008,47.25215449887812,-19.352188052406483,0.1025173892167821,2,S01
2580,-0.2785702438874838,-1.2806187825719115,10.764937204883026,-11.841367206165794,-19.13391950812765,-5.069620474207108,47.314113544290294,-21.66151881212739,0.3846625592861921,2,S01
2600,-0.30200987438887356,-1.4263736039519213,10.436710829245536,-12.706544098552593,-21.128746675674975,-5.252606182253579,49.11038558208863,-21.76250874966044,3.5831706641446406,2,S01
2620,-0.38784615607317896,-1.2303197307245806,10.214700187318423,-13.581727023328549,-20.142482398235668,-1.1427157534633143,49.58889051960066,-21.236868427173913,0.5711485033058477,2,S01
2640,-0.41952311784365637,-1.1876462268464836,9.924132276491658,-17.965878139926474,-15.367678535747268,1.1299453804427841,46.8986579142479,-24.80523020993405,0.8635652718981701,2,S01
2660,-0.37501045356104107,-1.15296077835175,9.587962955901329,-13.19712246379656,-16.49078429149452,2.4653367548815877,47.89826143323681,-25.20785235823092,1.6596851083139343,2,S01
2680,-0.3389408178982299,-1.0108734382130609,9.281019299104896,-12.73017879746615,-14.418615989856256,3.6750236739617037,47.24218915971286,-26.890855449925432,1.75933010218743,2,S01
2700,-0.25372298540507326,-0.8091147833691559,9.209015368216722,-15.966353276932265,-4.89245101583051,5.8797207142950025,46.91730013369189,-29.009720613937457,2.709642207221396,2,S01
2720,-0.2608643736812499,-0.42979461387211954,9.149166567162979,-12.941384666442998,3.4633959466278297,7.661274683467895,43.92219502181149,-30.528490424849178,0.8855653954388565,2,S01
2740,-0.03433846366958432,-0.1480861588914136,9.266498789136254,-8.68264909063953,0.639172506113622,9.171040059412519,43.35424743427657,-31.056712485428555,3.3524784839750468,2,S01
2760,0.004598209318607105,0.04101347060283343,9.63422073712711,-1.7311159483283296,7.654475423040434,11.046733461007285,42.034935373274294,-31.604969118517655,3.599386105609444,2,S01
2780,0.07363999534809863,0.43153444420576265,9.94149946183288,1.4801582050707176,14.890075127028354,9.063439660219963,41.26389498624406,-32.508242617707836,3.3206332313832037,2,S01
2800,0.18881669744383353,0.6702366574893929,10.26255196734446,2.4117352492786006,14.069539963758114,10.091872798104099,40.273415390366594,-33.905013808639836,1.8974242143612718,2,S01
2820,0.32771344740802716,0.6737770925899214,10.554715463860509,7.898111307614211,16.156140712664214,10.086731157969872,39.50773709543506,-34.91101128510873,2.7954240629329217,2,S01
2840,0.5684778723270404,0.8462851143385112,10.69820779307888,8.565464789050665,17.553013333344335,7.5478589018604705,36.526875650152355,-35.36113265739489,3.542071168492108,2,S01
2860,0.5166502928543601,0.9838840048196694,10.669915795750304,15.940476677242701,20.197894804871826,6.401904308721129,37.34156170316491,-37.76147904289964,2.8661978175228366,2,S01
2880,0.6730360021959294,1.0676787633082054,10.555062727973757,15.10760227395575,20.1669425637587,6.643645275324907,35.344821505420086,-35.801542072273065,4.799552864896149,2,S01
2900,0.6513005846923974,1.2059845269377634,10.280472017434098,12.644447279147672,17.65307357268147,1.4070674777680523,32.383081280445616,-36.26794931278093,4.585367554376736,2,S01
2920,0.5505581463672755,1.0636479117453095,9.92041496980391,13.762890527802242,16.74365791545829,-0.5041760561912072,31.872343848167894,-38.354028016277255,5.65127522499467,2,S01
2940,0.6029049869143401,0.8918917323257086,9.521086316442856,14.594278806799283,12.503199482888125,-5.1905498920377955,28.982348131880535,-39.10782260227583,2.5098233894798403,2,S01
2960,0.5761472671821262,0.7830496958359077,9.328034730435926,9.344227217607237,10.29896692963771,-3.4677927993236053,29.11748049524254,-37.087513778620334,2.762629522885628,2,S01
2980,0.4927297154936301,0.5129953359273022,9.189245440892169,12.09109657092651,5.282238390134051,-7.058551652490127,27.706502436580635,-37.98806283728267,5.3926272359943335,2,S01
3000,0.45565892561842486,0.4402377336447258,9.239170348395506,10.183022791870046,3.2889191652019827,-6.402773568196218,28.246156766452774,-38.60681042189421,5.3346233882016545,2,S01
3020,0.3514447930482844,0.0575413720329747,9.385492656893344,8.152322492352424,-5.725123932674672,-9.544667392672185,25.476267728122245,-39.362051705745486,5.6822252374872715,2,S01
3040,0.1229992231584458,-0.1900064994386671,9.642911024546803,6.172523915483651,-7.6151658272910785,-10.357287249294389,23.5341444702663,-39.194207631181214,6.6613647558058675,2,S01
3060,0.15079758107320784,-0.48638089491510095,10.019913083972819,-3.446215052783766,-13.101148137369885,-8.876757281386814,22.66634108941504,-38.33606699529845,6.33152986346155,2,S01
3080,0.026173201299165907,-0.6188057090387001,10.279512298421377,-4.970836239934941,-14.971495761335179,-7.224502191995922,22.838857779369718,-38.45126680113901,7.8090359362584865,2,S01
3100,-0.14339293622619242,-0.8677641632365457,10.622743491916474,-6.677496053648642,-20.033616509457463,-9.028504344331848,18.726299494313196,-37.246218863368895,8.20809877140918,2,S01
3120,-0.2286344268553121,-1.2544598976069372,10.769682519500051,-10.09054253706883,-19.110303679241834,-8.04984629855451,17.87861549914336,-39.60066124318058,7.625146343175978,2,S01
3140,-0.16883560390061447,-1.3538833746168404,10.772506701190345,-9.729281473185607,-20.21829120051064,-6.881868372573081,17.063336663395123,-36.641608225667156,8.130551196850977,2,S01
3160,-0.3366666340185441,-1.2581486749017352,10.537436922612702,-11.781366400869098,-20.976272835925773,-4.545515224228361,16.36523538765603,-36.37630685313046,7.539999423346803,2,S01
3180,-0.39319735863670013,-1.3612308677320106,10.229901596559019,-14.758860849430256,-16.760214602548885,-1.0667815671751564,16.99967038394647,-34.42068093627919,7.270653496748114,2,S01
3200,-0.3529386197304043,-1.2266236473608272,9.810791252344732,-15.494880261047093,-16.933453991442775,0.45163614884559106,15.214387774322146,-35.89333698419921,9.30081975897031,2,S01
3220,-0.34513451338882273,-1.0598040776833237,9.535315056369303,-15.139206831614123,-15.669850958575909,2.5677747765007215,13.530488452596972,-33.14260350576659,8.04502447861385,2,S01
3240,-0.32363203675932795,-0.944222711823184,9.33070348929016,-13.695636486270333,-11.406554033375416,6.647893056685394,10.936053185905848,-31.847669655363212,10.738412997975008,2,S01
3260,-0.23815833884220927,-0.7659799698393459,9.114780898254544,-13.166300616921927,-8.40987634925564,6.431634038607079,12.24193452336877,-32.57940504280792,9.497752050867224,2,S01
3280,-0.15298359143385187,-0.49010459670224416,9.190865938199817,-10.347454806203672,-6.069220171260201,5.7308010377429355,12.49383349624271,-29.572177326807324,9.565280658918162,2,S01
3300,-0.06988102987623682,-0.17086944292791703,9.369072795087812,-2.9266396549878424,6.645700490317439,10.465692761932878,11.52758957126326,-31.006682930745914,10.951070353627518,2,S01
3320,0.12741460495389956,0.16620353086928213,9.707104629328686,-3.605535672083993,6.3905636089672555,6.778181783266387,9.929920565916817,-26.590953162642688,9.84109546229207,2,S01
3340,0.2041035075867441,0.3800142506373799,10.197103335326123,3.4664237558295525,15.574467840790504,7.709194641233121,8.926003220207269,-27.292234457984566,11.06026222985087,2,S01
3360,0.28054070399037384,0.5675499897728191,10.321558956480308,0.6156304733150237,17.216066843066983,7.011431123182641,7.772385554793461,-26.417628518674295,11.189978436788124,2,S01
3380,0.3183676036702403,0.88106888079836,10.575146205730844,7.75239843275112,17.657295927463142,6.663767281161845,6.192714883219786,-23.90955500115382,11.44949099849131,2,S01
3400,0.4989712947055123,1.0536201667975504,10.825371118505743,8.237069672092556,17.924516107870563,5.275016756659407,7.044671193881366,-24.121073998234912,12.155613313294612,2,S01
3420,0.5460600693000847,1.176607663502996,10.714215720714929,11.470128246676431,17.98050016925391,4.798596488132908,6.126225893868896,-22.726649855656497,12.65763988656336,2,S01
3440,0.5136160698675516,1.094335595131878,10.52800854775651,14.413059546755123,17.42456686395451,4.667657648577424,5.748970219038046,-22.577369523761924,13.126999496472726,2,S01
3460,0.6508496195253985,1.116048092068551,10.198364404655203,18.042814409643338,19.941454103870093,3.2581372871954244,6.671669700592492,-20.37573917944708,13.81865895197189,2,S01
3480,0.6164462561640187,1.0495587566746798,9.921776665732077,16.236375184610168,14.402135486228456,0.048426854206687714,6.910316352024276,-16.745851716522544,13.160795419339701,2,S01
3500,0.6594362318891157,0.9016576331451049,9.500408002161512,12.416263777171556,16.532502914220146,-4.280408305684137,6.948120589243643,-16.44533989742873,14.15247150007271,2,S01
3520,0.541842387543958,0.7963284401671639,9.149063025362082,13.886109825338194,6.654641359744742,-7.392324824308796,6.684051918379123,-15.883783448624376,14.087186448398942,2,S01
3540,0.4063096029301249,0.541749389975948,9.11882777102085,13.359160728436075,3.66296865908365,-6.294603501549726,7.90129378294564,-12.45339353043459,16.05053865818372,2,S01
3560,0.4305027506011629,0.179319436695612,9.24724178256151,11.442411168749908,-1.5367945738057653,-8.708941875771222,6.097680552023632,-11.88983665168421,15.068116939515239,2,S01
3580,0.2619055228769287,-0.14717459396199742,9.41196799641133,4.598785958227147,-7.244627699566694,-10.128131766751464,6.632870046981748,-10.638305355095142,14.926584630592384,2,S01
3600,0.25682198143152374,-0.21550524512066604,9.840061495872138,1.6910650858409253,-7.825027064711734,-8.508725909322674,6.13409716868408,-9.786356336218923,15.136561597691312,2,S01
3620,0.007318171426260553,-0.627740582365677,10.163592462955446,-3.9422256179268427,-12.797103948966537,-8.532246773952847,9.108099415412449,-8.503715866122274,17.49984027282963,2,S01
3640,-0.01953899603407136,-0.892528772641272,10.494052325761679,-6.064242033446491,-15.607664303404643,-11.581705650842403,9.394680589097243,-6.504099392230136,16.40659568594431,2,S01
3660,-0.13462308149830227,-0.8443347726195093,10.526386279048928,-8.53074743412462,-20.344420639296636,-10.77122987878441,9.826555450388021,-4.843036716910107,16.026642069151436,2,S01
3680,-0.31132480023505626,-1.1551088772764424,10.752140088157876,-10.887435688850388,-18.24594651371597,-6.010040053396774,9.429209693592068,-4.935627110699982,16.083462318799754,2,S01
3700,-0.21676075311003878,-1.2936817412930572,10.718477492620396,-11.316997323640132,-22.02032119128843,-8.600124517513027,12.297764931704107,-2.671069374211678,15.521303253372963,2,S01
3720,-0.29085279525199015,-1.229630082896826,10.424475639841841,-9.060210350828385,-17.03623998211369,-4.08333704733379,11.118044499661544,-3.9024958448744425,18.760606836855818,2,S01
3740,-0.41567753400725516,-1.1551420880295402,10.157560726478172,-17.310635432948494,-17.995883178561645,-0.9873213216076304,12.777497785747798,0.9926242034148682,16.600493650180493,2,S01
3760,-0.3226569168243633,-1.1436642152504215,9.764207089553295,-10.981334404274653,-15.61076011933382,1.0541268215312503,13.589847014685054,-0.8762561933747799,19.314871258054204,2,S01
3780,-0.33608948862470295,-1.1415449836494977,9.591577225378904,-13.024967003426452,-12.548757713608854,6.055640635796353,14.887162415687648,1.5841690214829551,19.185575595966633,2,S01
3800,-0.33858931031510875,-0.9182311487825312,9.158858750667543,-13.538100484921515,-7.858847230374577,8.62863693342024,14.978050238258223,3.718460028185076,18.135876998609195,2,S01
3820,-0.2798565996104633,-0.6250798142152721,9.169188105024023,-8.467938334666457,-2.154838299170378,5.259562640068577,19.985133636963635,5.0222634346094335,19.24023806771063,2,S01
3840,-0.1821799732749218,-0.3178912223107768,9.317574687394206,-10.536557901641967,-2.373379446009083,9.341371050718058,19.652878024586308,5.470728898981463,18.26324525699827,2,S01
3860,-0.0011767621590883098,0.03628569961585945,9.438754620226371,-5.128490435624689,4.0773132885696235,10.49399816429777,20.16643162761787,4.608169652963728,18.785137712879806,2,S01
3880,0.05910897688212906,0.07374390955114095,9.823761533002031,-3.5165466203193105,10.753959607399725,11.226467368713953,21.474740761567922,5.349482751867592,19.193915148157227,2,S01
3900,0.12484927670891575,0.42755240781130394,10.173530369521114,1.2549577420567124,10.942367381255266,8.195284460841327,22.370911865522785,5.860166973266757,20.24700281933745,2,S01
3920,0.2689344816227527,0.5412707693873818,10.476726558024652,7.510484855917137,16.091038292114437,10.630325726084083,24.231839685345896,6.789913712632506,19.11777395921792,2,S01
3940,0.45579727415781923,0.7510191270926508,10.641823769948802,3.875207203073526,16.238993939986603,9.449991113304621,23.7880665226373,5.508364669428161,21.216963109860504,2,S01
3960,0.48757217845482065,0.9278509084236181,10.646301723949202,10.312342074427397,21.330257574879735,7.1197840102670105,26.762820501990216,8.027929453754801,20.372258824625646,2,S01
3980,0.5475286979371374,1.1091799384446215,10.634943201189916,13.821503987878831,21.55861490699389,7.431464858828669,26.51369774037043,6.838026697171843,21.105839856734587,2,S01
4000,0.6600005854409637,1.1415518765453583,10.332592791594234,10.73178430559782,16.892892044679105,4.6707121715257465,27.61832509457942,7.047184239460966,20.12493653309509,2,S01
4020,0.6403922737772929,1.0934357715015226,10.06524426325697,15.873240031384794,18.336243131315477,1.6794565377317727,29.518257378394573,7.342542077792281,21.352269130480494,2,S01
4040,0.613330054406192,1.0534490530085192,9.69857920530736,17.74242795800674,18.95400932661907,-2.0855934842619113,30.40825296150794,8.335219097592258,21.259952473384622,2,S01
4060,0.6156998934979061,0.9284441621716754,9.519252316279147,10.761083425613178,12.386687268475749,-2.635054644923473,32.231728560271435,8.03762152771285,19.332591134635113,2,S01
4080,0.5951428637008543,0.7980145485208379,9.170135222853764,14.220077230486035,8.018296276118543,-6.5057239880380955,34.383138404183775,5.131964555402236,22.198424010152813,2,S01
4100,0.3954350115410443,0.46531100919674623,9.252381949629124,7.016418736510645,0.6886974409881832,-10.08559077785847,35.27277914234327,7.586969400264692,21.232580374424003,2,S01
4120,0.3500027179719497,0.3397196481507523,9.328021741388374,11.429032562480595,-0.47557234084656763,-8.924852256019893,37.19740309871267,6.529113271647841,21.118983120899635,2,S01
4140,0.3086498169028664,-0.14996631924356074,9.500544967251907,4.566839446601644,-4.7734187115822815,-8.001423721883436,38.030863867728115,5.55230527035215,22.21052048362477,2,S01
4160,0.1787421133227688,-0.4290405285649426,9.812215024557737,0.18104525039369168,-14.187331179105113,-9.363595201418233,42.8296780186592,5.760203274699311,21.51059609567794,2,S01
4180,0.022648638268149293,-0.5016786442235565,10.150142408418382,-4.983576220991982,-14.758420582215468,-10.312594480143165,37.55145215378885,5.127479702349728,19.797483525784127,2,S01
4200,-0.03862502546913668,-0.9143315626121267,10.594454663026555,-1.9958183587569922,-15.72630838100004,-10.465754757345048,39.539662821320675,3.1587193712294823,19.64217751123339,2,S01
4220,-0.288599939643118,-1.0868428324370467,10.54337428952241,-6.8629582155822435,-18.13577150440952,-11.406625734845248,44.49359098052546,6.01156125078686,20.605116291126777,2,S01
4240,-0.26732752354237277,-1.167869615053004,10.691975273554029,-11.387207687615362,-15.114505656777105,-5.385630569768831,43.38808432890506,1.2001539030331703,21.03117161395952,2,S01
4260,-0.24025574544323497,-1.3179253666397326,10.658838142262523,-14.424145855357093,-17.95214063666813,-3.819487153820011,43.619837238497986,0.7094480047738774,21.62304785917135,2,S01
4280,-0.3017271848022716,-1.2742232508598221,10.324553929854634,-17.00592992476179,-17.00685843690402,-2.955955060488194,46.67072745443969,1.1939965757479474,20.509720879628873,2,S01
4300,-0.3969234174860382,-1.1123714168900227,9.951802022693716,-17.45530791659115,-17.49084348274712,1.8351828057984478,45.5264819194313,-1.7841546967288044,20.27972928018052,2,S01
4320,-0.3616264237114625,-1.2021106555163212,9.623733141513096,-16.19600693175229,-11.722760595562164,3.6403299124442112,46.403123250210285,-3.493945729414005,21.719694070927222,2,S01
4340,-0.3407044660891189,-0.9835415299568171,9.430378320453082,-12.148509075046356,-9.466789636707231,5.602465557168353,46.472710148554214,-2.734765581083656,19.212112463783058,2,S01
4360,-0.35840458729657587,-0.7842352591286754,9.159312816357678,-10.770668335014047,-6.257771072146935,2.8938192476169196,47.77883452612573,-3.999495455069688,21.463568160528773,2,S01
4380,-0.20222868933994026,-0.6110341121396553,9.137781291434012,-10.711233895336271,-4.5294630189936695,7.779667140105661,48.522528469215644,-7.32728466758728,19.715008843577316,2,S01
4400,-0.08262098315681257,-0.3690304607236604,9.244205513847556,-9.32610936322881,3.9637499837341803,8.83091764918271,51.47984090044641,-5.770500049601239,20.602128390151936,2,S01
4420,-0.03160193686047802,0.07304679621677763,9.560010590541518,-5.899426883595115,5.71923073890352,11.828513490723562,50.49026049345053,-9.143809721216014,21.585555846539943,2,S01
4440,0.0447774021535198,0.25035961213596103,9.989498378178688,-1.034938146677159,8.16171415514097,7.290331132353284,50.15237786630919,-11.802759642337215,19.209961336063902,2,S01
4460,0.18443430794365656,0.3871613272460478,10.09849323569706,1.9702447720449026,12.48874569272231,11.01715727602632,49.91694425718925,-12.202589571925671,21.591712698130497,2,S01
4480,0.3453356564711533,0.5949369198717416,10.472911191589208,4.501885739207217,19.260870710528653,9.078361457494012,48.57092155458894,-13.13051235349607,20.822141910425284,2,S01
4500,0.3791933528768618,0.9502138931387626,10.67281429996798,8.208110500277108,19.125233970791626,7.070575916677873,49.4587711031337,-13.454102718989441,20.09150337526182,2,S01
4520,0.4782984307017512,1.0687039700530827,10.669001529540255,13.457313070614365,20.523275004628665,5.721365588291338,49.92700197476125,-18.027144179722054,20.121915142407687,2,S01
4540,0.5867892264781981,1.107017616929779,10.640255169277541,13.478905676120831,22.048901511085003,4.749356929147369,50.944399789257545,-17.56973604730364,19.940127672890842,2,S01
4560,0.6402937350896166,1.1359046452654455,10.41429985207051,14.624610971685515,18.69381337361612,3.048498365311887,48.35568010683162,-18.834646914021043,19.6725237630672,2,S01
4580,0.6580534167907133,1.0944835175894188,10.041693827985865,19.90337507266473,18.628869286832188,3.147850357748145,51.58931762839539,-20.85388010031796,18.563260810113338,2,S01
4600,0.6780514059193896,0.9695408703149159,9.690335358311323,14.010409134326027,12.22326176319116,-1.344403655057226,47.956817523116385,-22.37974726243688,19.169845465446706,2,S01
4620,0.512173369969523,0.9035880114330025,9.38905279673781,16.940675946065287,9.277864083380749,-7.129348041921072,46.65670396871941,-23.751156821963036,19.78199529876738,2,S01
4640,0.46982093367681954,0.6319526153553465,9.345615548553525,13.5865808754279,7.382547985807909,-9.207330183386459,45.719805692876626,-24.643965833909487,17.521427104409067,2,S01
4660,0.46232836677833944,0.2285819013566336,9.112055316605336,10.060150048735306,2.5691978907129873,-8.661012128831299,47.91870456285098,-25.884117122180974,18.39304947973799,2,S01
4680,0.33248443204303835,0.16118776195372542,9.275278872934528,5.218379881239358,2.1030427986554048,-8.750978441162358,44.07768711766588,-26.994824861606364,18.405153708380638,2,S01
4700,0.12690335630636512,-0.17357351387589173,9.567877056936522,5.779927956050949,-6.882020615706406,-7.950302610042161,45.91000047375428,-29.61317658067074,17.93827088904882,2,S01
4720,0.171471290048321,-0.5721284044676338,9.948402150771647,-0.33322370542581803,-8.484347715574335,-12.700895993377248,45.98179598594013,-27.915950124612174,16.03316129658899,2,S01
4740,0.043224649495572504,-0.5648746932065157,10.310411842080342,-5.194034516253828,-14.78060783863845,-10.195966322471506,42.28877224199589,-31.410391133571988,16.645480743858265,2,S01
4760,-0.07326099702413988,-1.1275648156974996,10.491696624031395,-6.844075116118083,-18.52996336957712,-8.455141930682167,43.84061641747796,-33.30188833929674,17.22924773516444,2,S01
4780,-0.18093320916756844,-1.1369458621582869,10.734872342676455,-5.7597264518255304,-19.876400283988495,-11.700393331839573,40.24910835216727,-32.94707181697319,14.609137441246926,2,S01
4800,-0.33218310742687235,-1.0880699658216233,10.733341802585718,-12.4851122294441,-18.06372614401885,-6.4235468930140085,38.144506180121496,-33.65698444622089,15.528135896276105,2,S01
4820,-0.3712092914158367,-1.2800391502187691,10.663210453528269,-13.242196935262134,-16.19539163777527,-3.7178601853747564,39.458602338032804,-34.24560955563315,14.572142972000382,2,S01
4840,-0.3860619100337407,-1.2052840851852475,10.410134170747217,-15.033176744259999,-18.435997807374843,-0.5290657946911541,37.07950864563889,-34.67847935502917,16.461391668498482,2,S01
4860,-0.3891392079699256,-1.228437678128208,9.974522868048393,-15.758414428550703,-20.465064533208864,1.276806157480124,35.67048109427232,-36.64605022027786,15.328241532558472,2,S01
4880,-0.4271208373742229,-1.0730621632959387,9.663988957083209,-10.57406655631293,-15.291910210498347,0.7614710556670938,34.42606896016731,-37.3130361567129,14.576258482798277,2,S01
4900,-0.3506781861001255,-0.9671359342188569,9.332299798201415,-11.563407138201958,-11.361979281062965,4.371428626236825,33.54762871067909,-36.15747987314755,13.751844428762851,2,S01
4920,-0.20663972310075512,-0.7840787005606858,9.242043344442534,-8.932659639291154,-5.236337293796132,4.336856302614974,33.17354514127841,-39.025570580443755,13.122180299266569,2,S01
4940,-0.21639461684616268,-0.49606818337476116,9.193181868644698,-7.8140003154178554,-4.210492274158634,9.705215159826222,33.34170902626312,-37.59590305894873,14.334572288886353,2,S01
4960,-0.052253870505760025,-0.2369762801274961,9.314142148200384,-9.894478327545501,4.226660991249483,9.518881694126158,29.56343006498808,-37.85684351896667,13.133082272868569,2,S01
4980,0.03193645536570558,-0.04543943921308912,9.691171106157487,-4.953781527489858,7.353131701828086,12.242912597602613,28.47605836493724,-39.07617290929926,13.159412864574382,2,S01
5000,0.1559505951282521,0.2713887492091976,9.905687849082563,-0.11132968506227724,12.683540072048551,10.386940682156315,25.205881176351852,-40.667455235665,11.519718161560487,2,S01
5020,0.1573565813534012,0.5555923273807353,10.306653941420794,3.41620328145017,10.563060584790426,9.79262663258092,25.45522164161961,-38.38089081182353,11.516979494736761,2,S01
5040,0.34888997023349866,0.8391952082195737,10.49236708293435,7.667692834328286,17.27422146227117,7.183806465138676,23.359150563689468,-39.453962580805275,11.328886288792013,2,S01
5060,0.4331407130715495,0.8763076249514321,10.703896559277403,8.601990560936141,18.632549957819577,6.546307065652586,22.135656238171578,-38.41161360325831,10.381105631683486,2,S01
5080,0.5410859523917214,1.06097523574189,10.73644362605939,9.858619972298511,19.706480490414357,7.884151268478845,20.171540200348364,-38.00244370775546,7.726834752657888,2,S01
5100,0.4854112977001901,0.9508827722691474,10.564339770751896,12.62215583174655,21.351982971873614,3.0997986677265335,20.775697573825795,-37.016269428034185,10.800790043667103,2,S01
5120,0.7027305656019784,1.14703501701848,10.269573993519924,17.80989187865691,16.130570041676346,1.0597754838492905,19.94537235651703,-39.02125550299741,9.385174923302475,2,S01
5140,0.5876126532058086,0.9682399591883607,9.858630040672288,19.618909600879693,15.750501795770372,-0.35543385793685817,17.904684776509338,-36.68037976390489,7.690103815517798,2,S01
5160,0.537531059461168,1.1556818996211622,9.567421638053657,17.473172176816657,12.973948469288125,-3.123955877759906,16.426249373827744,-36.78905500254641,7.1229980536000905,2,S01
5180,0.48095840235408716,0.8333366709301887,9.285812335509425,8.085546777825703,7.043223657590575,-4.775497942112973,14.993456234644048,-34.09758277286213,7.489207635903119,2,S01
5200,0.5510459291287673,0.6070181942834906,9.063384026608956,8.682819783447576,10.330084549550989,-1.5775494099756813,17.70099688813341,-34.31718444712427,8.435177221852829,2,S01
5220,0.4173577917384801,0.2631877111440501,9.27749252544672,8.957511030022447,-0.727213799050973,-6.995523353862598,13.338770064240988,-35.810970016097116,6.970972897709455,2,S01
5240,0.3603418803609307,0.026815712478231765,9.294828484914847,4.155676173011426,0.031005867904981603,-9.054603380921588,12.227472037256272,-32.870434049189676,6.685669539999101,2,S01
5260,0.19504241214878199,-0.11820663830387054,9.575306872615226,3.271828566017794,-6.748844184571577,-6.841677142890856,11.905541070653605,-32.46329464600994,6.507843993006375,2,S01
5280,0.09811285637722317,-0.36513501026768586,9.983259199781445,-3.2986481651907478,-12.850085817456415,-8.873878373970834,10.080083243629563,-31.40522599199616,5.426757709527332,2,S01
5300,0.047907812901911956,-0.6381565719094747,10.303150757227256,-2.506452174554487,-13.366003234356263,-11.055033302322887,7.802814961274067,-29.187767680544724,5.194457863726498,2,S01
5320,-0.10155470349784976,-0.917056206398757,10.696917796934557,-9.145282238521519,-16.537644965200567,-9.733949620079619,8.228058545856113,-29.453252206001014,5.235932217401769,2,S01
5340,-0.2047635156177809,-1.2479860732358834,10.678150282988868,-9.35292626413456,-16.997591225277535,-7.408830355742702,8.18199184526349,-28.68300222260488,5.637270498389429,2,S01
5360,-0.22391101599222446,-1.1618735122336017,10.702121925135106,-7.731266431095225,-18.75987251455018,-6.407585058049819,7.459265631296148,-26.505439671500067,2.9329132056908396,2,S01
5380,-0.274110163861193,-1.2263774655644613,10.463621891795981,-13.894679964524396,-16.640858556640183,-4.020410923778103,6.945139489359139,-25.82967649373087,3.7464621356133545,2,S01
5400,-0.29717125084873547,-1.308315996403272,10.205096366115239,-14.187247359028925,-20.112062407720135,1.9012167396265072,6.324197377353843,-23.053227997835393,3.255717353086188,2,S01
5420,-0.40060704791752455,-1.3509691006756317,9.772913453014917,-17.61810139105207,-13.28809840744289,1.3803001151811027,6.516374443722702,-22.48723758739701,4.022112236767366,2,S01
5440,-0.34887018492986077,-1.1467299007925102,9.577058461385764,-13.424789950902632,-10.776340084492947,2.047352592098836,5.026489355582346,-20.4701256825173,2.913658634012303,2,S01
5460,-0.35719575783441937,-0.8949888817369271,9.288449977155322,-10.390054158446336,-9.693000728917417,3.665703730903039,5.254376141169647,-19.801763389532933,3.2764516240928048,2,S01
5480,-0.21159832908076642,-0.7276425669084698,9.192335437233238,-11.461172630668244,-4.322702652444968,7.510770580482773,7.255221852359198,-16.113660382748932,2.8693892058547843,2,S01
5500,-0.21149120892894957,-0.48911628370991933,9.171335353513793,-9.680413626544679,1.7334939575244421,9.590703696483587,5.0897337464364405,-14.24643584342283,2.343202529425236,2,S01
5520,-0.08342062456706403,-0.24727841649469667,9.408866158467786,-10.448342982665496,4.711793502543765,7.948511545560255,4.218869282141698,-16.026314620544014,2.393757777225975,2,S01
5540,0.007857406857013652,0.06393079641962225,9.66282604929461,-2.703476550981193,7.980207728182525,10.083876649360917,7.24694676018664,-13.45671582502496,2.3671412886883805,2,S01
5560,0.1423698000831531,0.31671304189415983,10.071373127702374,0.5981679932021625,10.729352606424857,9.239099931870404,7.577606473513472,-9.79268991237529,2.048596864872459,2,S01
5580,0.21545753139498763,0.5650600465848822,10.3902684738799,2.650934272949787,16.22402068042386,8.775181655801203,9.049903443408118,-9.480629296688534,2.269116874764748,2,S01
5600,0.3794746565285389,0.8155408248948577,10.58912456150051,7.79286548067458,17.122520344307265,8.018804411520456,7.6266785633495235,-9.392754016328066,1.1735141667512217,2,S01
5620,0.47202049962122367,0.9109180981632262,10.718112761112765,6.447362996186418,21.890978536959352,8.118940923013646,8.328752795662432,-7.745198058073293,1.8346211449023815,2,S01
5640,0.5160204589601072,1.1976824176309757,10.649134051805307,15.531664351116843,17.8819684551701,6.898484573793832,8.663706027038872,-7.407563317704246,-0.1431389090415962,2,S01
5660,0.558947683825611,1.1165864768971392,10.381874063963705,13.512243250685255,18.594053885046403,3.786621866571818,9.040440877092971,-5.6617052286264045,1.382390046054356,2,S01
5680,0.6345816251126574,1.0924430634343345,10.194405449560863,17.40277485380392,16.975496875306042,0.5455488930226677,10.032204916784842,-3.0366200251948543,1.0648287640774798,2,S01
5700,0.6583943078819442,0.952083736027929,9.875535195619623,14.809203363348809,13.758012304574484,0.9993698614898385,11.881763944152771,-1.205219238804764,0.6552254679859786,2,S01
5720,0.49569604421061497,0.9057620313761139,9.539004797303225,16.00145480453585,10.361051371299794,-2.5465420814829836,12.00404311601631,-0.49892529513359385,0.7630130434092282,2,S01
5740,0.5335414963059184,0.6793265062648877,9.273122185457012,13.847574369238027,6.776306539279206,-7.208694070490637,14.105100620960997,1.0635767295599923,0.5005927241058741,2,S01
5760,0.4964619999608808,0.41486210887339287,9.145295754706954,13.486566359730874,4.636957493336257,-6.771699800848014,13.110800240015589,1.2459839959714003,0.3021022514389964,2,S01
5780,0.32658005434104576,0.28825385471789394,9.129424529510118,6.1328224086188605,3.2932471065487734,-7.13119808134619,14.254270304493367,3.5252966247839765,0.022927729660877638,2,S01
5800,0.21814590450313262,0.06260185748728202,9.473026213524077,4.7495127221519144,-1.564192293558592,-11.346307562912742,16.111671340527863,1.8233358863097546,-1.2932757885410613,2,S01
5820,0.19778441658784135,-0.2896334981006136,9.820800375595002,3.0263955255354005,-11.742671650948866,-12.0449185865696,14.666924635061733,4.593956696408084,-1.4023782663546838,2,S01
5840,0.08791918896389528,-0.5351971867868381,10.096788691671119,-2.3630498609433395,-11.55324904361879,-9.005054204054941,19.50765528773827,4.214706920467297,0.4402044200278299,2,S01
5860,-0.1621476024354656,-0.6940829151459599,10.41383775721263,-3.9337648094981126,-16.404715100880757,-11.131401872194436,21.203628502858322,5.560557850188889,0.5177511723977384,2,S01
5880,-0.1178972486960054,-0.9007352783835941,10.697480449810367,-8.607787091058102,-18.430764321533427,-7.645659749422407,21.83840008710534,6.95604487235666,-0.727590743137271,2,S01
5900,-0.1777833242765734,-1.2153155194902916,10.63098026624025,-9.963547484344085,-20.935095674457248,-7.048101436424917,21.182505297380327,5.821281901273158,0.03744109614921687,2,S01
5920,-0.28914824884817125,-1.1999713588626817,10.671036472922303,-10.028818617875904,-22.251055677835705,-4.72817180222407,24.21012748161628,7.6049577049116515,-0.02590473109501712,2,S01
5940,-0.3604327788727568,-1.2711948578796095,10.473611825248238,-13.314253328180973,-19.391701014876087,-4.867669820991169,25.462564520516615,5.793975031369563,0.40771618801472354,2,S01
5960,-0.31577698965616824,-1.2885784015301447,10.125291656569882,-12.747850493227649,-12.743377311807292,1.1464326619060188,26.659104441805248,8.677020800439713,-1.4464360112368597,2,S01
5980,-0.39770115546544305,-1.2324106484180746,9.80345066601816,-16.25417566822669,-12.655516321221882,1.4633285890308632,26.2610378520326,8.149158288137308,1.6162331846499938,2,S01
6000,-0.3484204014862432,-1.2861045487743066,9.421220708656378,-13.87723313712489,-12.684321668573793,3.5010356342048867,28.658165614923025,8.777237043340115,0.7126634088979058,2,S01
6020,-0.2894310730103253,-0.877611947589822,9.267648669163176,-10.332023432535191,-11.925548331837762,6.067530690426823,27.125365888350686,7.132208835533396,2.091216125416876,2,S01
6040,-0.20476379384861904,-0.5999253340769096,9.132498930121224,-9.410774017820483,-7.2013218768109475,9.406179661368592,30.846904974963294,9.276788356554043,0.035752584901350914,2,S01
6060,-0.11934614552133127,-0.5135455810420102,9.210508517077383,-8.319211145906495,-0.09187303061376091,12.092579195314896,31.923301280905957,8.348886100012201,0.8803721453019566,2,S01
6080,-0.1623867486792851,-0.10060179232493868,9.430168814395198,-4.988245260205119,4.616787557228627,10.150863686336935,33.22887757307767,8.78543378879802,0.5464538278915887,2,S01
6100,0.09201153445504681,0.11427377034143914,9.750832625395622,-0.7942669864055893,11.520481062048887,13.281641229602842,35.80788128472736,7.363014128829908,1.11230301167169,2,S01
6120,0.1747998847199828,0.37201324382210127,10.164358063362618,-0.363302911189586,13.772735217685629,8.9665792657889,36.97653413945292,6.033250063245529,2.835876791207048,2,S01
6140,0.23392772362861353,0.5784603908284175,10.342831412316851,5.654197925741923,14.305442452125044,12.986834071609715,37.74252402256568,6.30982061818743,2.0338209032824213,2,S01
6160,0.3609253652138305,0.8736775917777254,10.611380462661936,6.918282352030321,19.968086093467594,4.444974124455259,39.204160152197296,5.86400324967903,1.3588594964822058,2,S01
6180,0.5359392006115538,0.9242989973786783,10.799153973686398,12.457209907437296,21.101919487629875,7.775573857356097,39.73434713011777,5.989257786906194,1.892030066833367,2,S01
6200,0.5683360427351282,1.1438618592049374,10.61275037021992,13.52466429430771,20.743628431505314,4.977162683627529,40.96907039085348,5.885266234192176,4.797943361641804,2,S01
6220,0.5945083465818624,1.0928272834524808,10.45642484306822,14.026321183919324,17.185860617292327,4.400547890182881,41.88670302304125,2.136185946291951,2.631568286308674,2,S01
6240,0.5919772144145977,1.0842181788532579,10.111847372484732,13.609827009064075,18.74881843275477,-0.06602049463136136,44.82312170681228,3.339890933254022,2.699193265235467,2,S01
6260,0.6758884089834174,0.962157607330329,9.818063752744603,15.626642572497618,15.736863782411314,-2.3759939033136144,43.752638209700024,1.4598296534255688,3.424346261419505,2,S01
6280,0.4628145721136277,0.8772406872000937,9.56886845832243,15.144971448642243,13.767869205204311,-2.913610694862638,45.62848510644456,0.5533017734295331,3.729907612323501,2,S01
6300,0.5826845082759691,0.7920047198486437,9.207892938896762,13.8859633579143,8.303250714712577,-6.0162552152263435,47.09928942790531,-0.6622076833959047,4.592936594046194,2,S01
6320,0.49759507290725247,0.5297090003618657,9.13461503988125,10.783201374776542,4.369528606143267,-6.2771083853788605,48.19048276659639,-2.5129864128367787,6.40029090350469,2,S01
6340,0.3557149531009083,0.25142670178761467,9.237780211410655,8.046047206510362,2.9838317962758003,-10.372269853981338,45.40155509448484,-2.6581193672372727,4.855494407316602,2,S01
6360,0.20980292004390666,-0.0910744052769273,9.366063945496727,4.500053887912794,-2.7478999055361073,-9.015549147029713,48.82106926377442,-5.166181091053369,5.010090297683799,2,S01
6380,0.12156319672241776,-0.2243072758700294,9.778378926021643,-1.639933024510812,-9.201764213804529,-11.288161988387643,48.61856998858857,-6.080206175028859,6.193566674790328,2,S01
6400,0.02001230460946052,-0.631287283516692,10.108256388441193,-0.8935133564472335,-15.513272844151151,-11.558202760368916,49.26815911286021,-5.735736433991281,6.089967983290342,2,S01
6420,-0.08935203949372586,-0.7291888554944493,10.497477894728359,-5.057979509648949,-14.433095968323972,-6.799974483632274,49.20136592043241,-9.347182871675034,5.353616086309566,2,S01
6440,-0.11300623372217303,-1.0054605630133917,10.65294556258789,-8.0183166785566,-19.07218752661426,-9.93250067469855,49.841468172654686,-8.889311025789118,6.334846021832236,2,S01
6460,-0.24273486774554975,-1.1921865722797016,10.699960959718926,-11.885808579045545,-20.81492492379639,-5.75408001991077,50.60456882343533,-11.038563787526833,9.000952563835483,2,S01
6480,-0.22978332543384705,-1.0809296364511067,10.708108987191851,-12.91664932890442,-19.610679650158946,-4.997810813791206,48.74008157189825,-14.123260863127433,6.604364391760668,2,S01
6500,-0.3137612587808192,-1.2320930280719744,10.349836714155652,-16.22206043100616,-19.694702066678698,-2.9798074656059805,48.98196971900548,-13.373105811905901,7.908027100517745,2,S01
6520,-0.39487462483749025,-1.136239285083684,10.058438586814473,-15.796608623252359,-20.104806174128697,-2.8531409365340474,51.11813947099295,-16.529003947318984,8.746633833043576,2,S01
6540,-0.4837260151963785,-1.2171154101006287,9.809516580814469,-16.620158674309415,-14.825761969625251,1.6372679631937512,51.40569999432766,-18.528625569788566,8.174358133765086,2,S01
6560,-0.30912785768038437,-0.9527373127224169,9.417655480787051,-13.618572205522577,-13.316204981033632,2.311331394234278,50.300052072199904,-19.587437669671484,7.731210937872121,2,S01
6580,-0.26605549006866386,-0.9026299285957665,9.256782553936118,-9.204147824951447,-4.133925550171682,6.995589098734579,47.97567671889433,-21.020389264327143,10.478269622393178,2,S01
6600,-0.1582765253316019,-0.6562484830758017,9.10374850579151,-11.133842507405388,-3.358744544949929,5.61165541139699,49.13094937604388,-21.875828547652645,9.97446846113571,2,S01
6620,-0.12470397220785634,-0.2954244915383625,9.162690650382066,-6.360757280881091,-1.7762329886236263,6.801080902653732,49.58533614251416,-24.00110287711297,11.797802166052385,2,S01
6640,-0.0885153853140059,-0.11615787032167554,9.611644768220328,-9.251356057189621,5.842739876916291,7.998919121562746,48.60204645398584,-26.607252876240594,11.779854452098018,2,S01
6660,0.08470571686502469,0.3439041037190669,9.83381292458598,0.5726905240709625,6.98026497529552,10.278552844869866,46.22420467267509,-26.109966737478327,12.347362088786166,2,S01
6680,0.21498295138796494,0.4667308691118253,10.25455915304638,2.0551933925519403,8.309068991854813,10.030084803013853,44.5882957765006,-28.35315514430135,12.069737576460472,2,S01
6700,0.21379720735591595,0.7410832119995573,10.509092319582123,7.543736962752592,20.456855618499223,9.282649617833773,47.32334588895345,-27.994290578018944,14.025836212794442,2,S01
6720,0.4615670083254374,0.853259530923009,10.685473360221591,10.485058415140019,17.956818280687965,10.174745699246,45.07695227479955,-29.686830627499607,12.071718725053596,2,S01
6740,0.5122693138830303,1.0625401700385648,10.73888287252475,8.406583887597966,22.14585677935789,4.683891486347006,41.48457464322693,-30.788372467176874,12.047710939138671,2,S01
6760,0.5023756382711382,1.115895530001705,10.727953968643314,14.218617189353179,20.333537951866145,4.36278714949776,44.05659787311444,-32.310323341436245,15.848921361903969,2,S01
6780,0.655064730798975,1.2136286131911496,10.37396427158819,14.044823825239225,16.40493060306899,0.15269189286550147,41.95001005535107,-33.173463030400654,15.485778253929062,2,S01
6800,0.5316619539157879,1.1362843127854905,10.05462644865253,15.958417689236223,17.581710908683657,0.26995624943810675,40.200677217161385,-34.44863093177773,15.608658728256724,2,S01
6820,0.5721647914446015,0.8782508293517202,9.648667438384129,16.703151874533805,12.789681600394077,-2.270733212009384,38.11371996405982,-35.477894295760876,15.857707352526056,2,S01
6840,0.5204927793496691,0.7535406428593002,9.378661534312037,14.694377068798287,13.043528111272938,-2.542304680344676,38.93212394174675,-33.98299970799849,14.105129367213028,2,S01
6860,0.5128937512329259,0.6995274664553605,9.245624313910659,14.017216525445221,7.389464808011794,-3.5425862502988563,35.08623432272214,-34.446295758715195,15.553454849899449,2,S01
6880,0.4784657341414965,0.28174501085929177,9.21988737401704,8.069898693818597,2.3851862657994354,-7.069767354595355,33.54264259929292,-35.474088722674765,16.4387257617237,2,S01
6900,0.3505489881428875,0.43489397861754137,9.283635281731204,8.62579161595047,-3.710622214763644,-5.908335648731285,34.17343139252583,-36.33470480599195,16.889015426428017,2,S01
6920,0.2243314756984572,-0.2112035597120257,9.563496760678687,6.74459463160512,-5.698137608566648,-8.932532971623411,33.423832465772236,-37.9035316016821,16.51300893294579,2,S01
6940,0.18404068915610663,-0.4825995072901216,9.885059607981608,0.8274393325300754,-12.747224464005283,-8.094144892537209,31.685811868466352,-36.95067627824935,16.224376401857644,2,S01
6960,0.03837219841117008,-0.6267199164731414,10.264236594906116,-3.5692016520726084,-9.651752781287206,-8.753928275105151,29.61110894435714,-37.36080942118234,18.031180304792606,2,S01
6980,-0.031420482141517075,-0.9129887556224385,10.341220506585609,-8.35997380274,-18.711196645825623,-10.591852018315464,28.201578642442342,-37.804529129220775,18.893162143801376,2,S01
7000,-0.17352297044558218,-1.0516863399136953,10.593707546826778,-10.104819182679485,-17.798590462385924,-8.314434818427749,27.88052047548667,-40.075783500995854,18.960508972089137,2,S01
7020,-0.30334691130379027,-1.1246089289483676,10.662362688965358,-6.7640982669368,-18.285386364927497,-7.034426452430464,25.336781358090313,-38.11639212703447,17.77967503763916,2,S01
7040,-0.3144559021250721,-1.2075159873838295,10.759609620320639,-12.17831534750807,-21.219454421831575,-3.812341178115787,24.47522406810902,-40.46128099424412,17.605092708820983,2,S01
7060,-0.351165571772865,-1.4002968202503838,10.353593640354658,-16.766844613164768,-20.071381129161473,-2.684597277380141,21.938575380710052,-39.44584262758986,18.857554311959504,2,S01
7080,-0.3843453672678401,-1.1996496045878873,10.092551063992197,-17.35842825258557,-18.01774011253633,0.4719487098688398,22.548161601424557,-37.928211888480256,19.861654989700014,2,S01
7100,-0.47159397583572316,-1.1874946364902699,9.598246321200694,-12.517541846662656,-14.274438157890891,1.384489366890365,19.8437339151374,-38.540428425415996,20.11618684639691,2,S01
7120,-0.3241592253325909,-1.0126336355042072,9.441014775353315,-17.05233956111587,-9.710565059311321,4.588700296981315,19.165188364289723,-38.93160424897313,19.606302904674493,2,S01
7140,-0.2323873629265517,-0.7972005532020587,9.249567740251791,-10.824826290132652,-9.644528569611808,7.714508145647364,20.01783768151696,-38.103443768827084,18.6044115480926,2,S01
7160,-0.1332728854479423,-0.34165325069981684,9.094197364102929,-15.053648843546968,-0.16642144828570116,6.726916490952471,16.4774582597152,-36.55534325041408,20.94183203086831,2,S01
7180,-0.04008808644427714,-0.2445370797015291,9.212841189475567,-7.671833261433558,0.5217773466600704,9.903996413181927,18.134256839431885,-35.487030314196964,19.506647932182346,2,S01
7200,0.09992148183543206,-0.16715069167435265,9.566739547149226,-2.6720406404298633,6.04214712181349,10.349030183088294,13.551619184842822,-33.27239568351179,20.936086432471814,2,S01
7220,0.1703922220398204,0.31262972975257397,9.90571784158988,-1.058971523854536,9.528212201910994,10.11937820375101,12.698203820731294,-36.40650839347324,21.224741661854328,2,S01
7240,0.20564828722215045,0.4616510799875136,10.235504346450108,4.923262251784719,15.869115294161666,13.045595553583816,12.157475317812033,-33.85595543439949,21.279151361021228,2,S01
7260,0.24941947981046805,0.6277903177772258,10.538269362707952,8.038739010719718,16.011734231832644,6.704757330589733,12.749142126520063,-32.302222969968284,19.895578831601856,2,S01
7280,0.4782778175980092,1.0775574270167003,10.6984857803701,9.502047169967256,17.150534167472145,10.040726497233686,11.462442111382195,-31.031185793909792,19.538900308764614,2,S01
7300,0.562249250312499,1.0194462300560256,10.724149207535604,12.268314898820336,21.57868257556096,7.892209552047337,11.557259910141381,-29.096331452226412,19.334585824562236,2,S01
7320,0.6205538724368272,1.0760716893054623,10.589419588004581,10.828437508189177,18.164820540963753,2.8529356706170095,11.063299843508219,-27.075053637807347,21.460773296216455,2,S01
7340,0.5673809318110437,1.0571742534090798,10.24893255072354,14.110883629595905,16.70127993647552,3.7686454218892407,7.33269204890382,-28.070166442815875,20.79254846814268,2,S01
7360,0.5351937392970663,1.1525624586645622,10.081268894855576,16.543417663717833,13.92725906254572,0.8462295747277127,6.008309914255702,-27.338364699390684,19.674403084695182,2,S01
7380,0.6224874900005201,0.9508699487395714,9.58115004387711,13.875323279265277,15.64322253098741,-4.346922737223876,7.389952290987427,-25.03733925268667,21.555581207400266,2,S01
7400,0.5933884135543692,0.9584705081352612,9.24640983811655,12.505063414055378,11.023922574221206,-2.6538219154717018,7.112948903934592,-24.458373789901373,21.181177049401732,2,S01
7420,0.45234719869932444,0.6272746627611808,9.191659751903714,10.518610922548024,2.313438636047503,-9.212316184207191,6.4366491695870565,-21.181487557996984,22.41824128197787,2,S01
7440,0.5019980827053727,0.395845661103668,9.274320549409573,10.702179829737346,-1.1031067151764222,-5.92575351747518,7.4099340402137575,-19.362720296448842,22.010117535980072,2,S01
7460,0.2721291720342476,0.13247017308632858,9.361713349510282,10.677897195081066,-2.2341029989622294,-8.83822629459012,7.798828894024891,-19.257530966102514,19.29006252821205,2,S01
7480,0.19328810429702964,-0.2045677698574278,9.684237446242593,1.9636402251290295,-9.958251774741854,-9.344045986271478,5.466005325011909,-17.041696628837055,21.505105931929265,2,S01
7500,0.13944250329136904,-0.4795746547594351,10.004083480969523,-4.1274205970035505,-10.186767616163689,-10.04631951044876,6.185465133659578,-17.528758715796,21.77440152497005,2,S01
7520,-0.07496884168302223,-0.8792726522208686,10.220692093335183,-3.9445607083355205,-12.698753925296142,-8.736656213463176,8.308289990044203,-14.586703296537603,22.888524995119074,2,S01
7540,-0.1399273945702016,-0.9208529719571517,10.648746913595932,-6.697133421725138,-16.509888105162837,-6.986553329800593,6.911299169478686,-12.731600460534306,21.053849895019745,2,S01
7560,-0.16636896360322329,-1.1581895004065987,10.753756496466373,-10.898488180169993,-17.72874492000365,-9.165473865587273,6.394698031437925,-11.428005878779661,20.597752321397053,2,S01
7580,-0.31900372927408843,-1.0759709513270412,10.67627438632288,-16.340621089117587,-20.748618001853455,-6.623765788724619,7.65738161544622,-9.157353645623662,20.761695499950886,2,S01
7600,-0.28251085619230637,-1.2142836625053701,10.547187449182797,-13.579232423221834,-16.19916417303535,-5.340852419960211,7.546610206493376,-7.828240887351596,20.56819392088225,2,S01
7620,-0.35828462448657183,-1.3123262234146558,10.267180087213816,-13.746178320562475,-17.985725380829734,-1.2105715149971026,10.22683667010289,-8.641170351162819,20.65480752139103,2,S01
7640,-0.38927932892286077,-1.2575987084311135,9.83023441219242,-12.812846700888006,-17.158765260967122,0.6077208630996702,9.127915834915818,-6.314150931843087,19.71135550641476,2,S01
7660,-0.27677743978786296,-1.1067710893221854,9.507341833325313,-15.912269438400894,-14.092193574740836,2.347327261563567,9.360461005469865,-6.413041846591749,21.670477023672248,2,S01
7680,-0.2657688051402038,-0.947980322360749,9.368035293437131,-14.216361971313505,-8.352709870623535,5.033453786759745,10.655998324792007,-5.268813820675062,21.052942214983155,2,S01
7700,-0.20611074317352307,-0.7412925804912386,9.207428781529023,-11.847198803815589,-5.989973792594037,8.463346843583183,11.11602642723618,-1.749394847136525,20.423691058663554,2,S01
7720,-0.14205850751687144,-0.4452912003591096,9.15453930007283,-10.078129991445422,-0.36960642702596724,7.773045799744835,11.84378672803498,-1.7919868732180646,20.854357300366132,2,S01
7740,-0.02737422392378358,-0.3387713193373856,9.391363816300212,-6.530022334032939,3.3198788521065463,12.774319462083827,12.710335578149941,0.19836763871801644,18.92989398778221,2,S01
7760,-0.008022957303535028,0.24359580499815175,9.736480941729058,-3.958839257156853,10.018746944884668,10.982565406922312,15.449078231781526,1.1365408682444844,19.121441243169993,2,S01
7780,0.007406352317177262,0.3104767855854461,10.028810618750791,0.6223593709535227,9.391124618260964,9.458186188654699,14.909096355435995,2.3812732917301727,19.1911657393041,2,S01
7800,0.22018771549979993,0.4944197870625024,10.272460548595483,4.126388891589249,15.189634069290314,10.451951273728515,16.58744039630253,2.4042423613399837,18.35184104508837,2,S01
7820,0.24423563764476586,0.7760509643268445,10.49990082334247,7.928320574962635,19.20453372770847,7.527867037368324,16.814970011355783,2.7354969866702916,19.59620133460891,2,S01
7840,0.5193624674315949,1.009451902794564,10.770984959044434,4.088483636144197,18.92922692671566,5.466021707044023,19.645046030831388,3.0952781869946726,19.707430740693013,2,S01
7860,0.49779336855702605,0.9768361500472228,10.68370293998781,15.20443677347794,23.05878775017106,4.252941992452122,20.53843404069211,4.092646820344326,17.95610491742106,2,S01
7880,0.5693486789285931,1.3198282068835865,10.581072579499152,15.962909274146563,20.870933763113875,4.480683529164204,19.99827514659842,3.869993859269858,18.53252118451197,2,S01
7900,0.582806432939171,1.151878399205081,10.189624037121543,13.207764662223166,19.962358585668788,3.262185549345511,21.88920760915252,6.224745967323191,17.088532074267142,2,S01
7920,0.6551926481192307,1.0820552681187847,9.885198684416329,15.436929926874475,15.086412739870328,-0.880207842990608,25.008624499997048,7.249869135204381,18.478008600109323,2,S01
7940,0.599359309191067,0.8930745305225238,9.445320834094426,15.3395116962633,12.91510625868197,0.015102223764601713,25.00553488646974,5.757642376263769,16.87473561299857,2,S01
7960,0.6001207055222133,0.68638054050346,9.345359224305234,14.251616974826932,8.827119585025159,-2.7954196661694226,28.077765494492066,7.655825303202146,16.778290182869103,2,S01
7980,0.4856931454409127,0.5904788090587515,9.193162877676341,12.412108904858755,4.505284582164344,-6.776035511233153,26.331344130013562,7.5739472156465055,17.243704481390072,2,S01
8000,0.4548704389952143,0.3003193539592983,9.26067563982624,6.313864008060832,1.7244134164078826,-7.362058214120351,29.444587375338767,8.08622742431546,17.012593281595894,2,S01
8020,0.27841260105731036,0.06426211926393509,9.36910541492598,3.842400652412815,-1.015391131198343,-9.1672460567702,29.18770602169644,7.826108057459365,16.341543129355127,2,S01
8040,0.2540203663470841,-0.23990500272789067,9.61510600943669,-0.8451217586162312,-8.962408207388219,-9.74319216369672,32.3914529364215,6.467897645667886,15.353270445645919,2,S01
8060,0.1187881224623344,-0.6546400574667263,9.995718425020895,-1.1766567195741244,-10.303854877782417,-8.685435066628814,33.82799960637548,7.389893728300818,14.421860061817839,2,S01
8080,-0.0002752556412405488,-0.8185116757214779,10.279095256471091,-4.083025745590555,-17.02720686513181,-9.862357764875416,34.71558569370063,7.167363554182728,16.23390988642341,2,S01
8100,-0.15456564607000134,-0.9414210280232749,10.679713455090422,-5.159496782247056,-16.901494786181207,-9.19578922334997,35.992189010574904,8.171811261398798,14.852841710713275,2,S01
8120,-0.2695149363998427,-0.9950083135557137,10.776832166924805,-11.084776560302366,-21.370141554173614,-7.4195085576854485,37.428756168950315,5.265189932335254,12.760802946262338,2,S01
8140,-0.21436718869862076,-1.323013931995882,10.60706733086045,-12.716350512421243,-19.340549684563545,-7.57852320304006,38.22954316592544,6.930835958890199,15.423474802612741,2,S01
8160,-0.3682950336233308,-1.4237321858664052,10.416292919834703,-13.19400160762522,-17.03528464556845,0.3943394358678947,39.59368282119242,4.389370118738958,15.009000837738675,2,S01
8180,-0.33266445178290366,-1.2291901789463664,10.17790258381011,-15.717147740496998,-13.735796233996084,-1.0363863924080319,39.03299593230368,3.86103255684446,13.962118091152401,2,S01
8200,-0.37209166551250566,-1.1616072561575046,9.795389225678683,-13.289319237757265,-13.652333088302655,0.9042030342111945,40.00794972014977,4.152146844985813,12.254584888705367,2,S01
8220,-0.33720261461761225,-1.0901092138955526,9.4555404791895,-11.819246776872305,-11.463573349656965,4.37830445211474,41.53538779722432,2.9407334082987635,12.599937602624902,2,S01
8240,-0.290286729774137,-0.8613093864678288,9.184726529066685,-12.951572279600638,-9.338457185042284,4.341352261946124,44.941135758470345,1.9386386944280272,12.459883277781922,2,S01
8260,-0.2874425747407071,-0.7174258949820731,9.177678581302203,-10.258674686194714,-4.093542643292274,6.6046199948959625,46.23476677016381,1.2053595786965747,13.379317988720071,2,S01
8280,-0.15952244461252196,-0.4035112036554748,9.213894285441036,-8.920105597023651,2.2513004295291106,6.930216449667206,45.75169791876299,-0.3508984080538049,11.693481469227297,2,S01
8300,-0.07069373605080859,-0.07428837829287799,9.379971602241598,-7.733830928502855,7.072744872935164,12.352716246012063,46.08797497267058,-1.591000602377699,10.635909323475168,2,S01
8320,0.05560289397257949,0.008365295066727216,9.787569422097503,1.4700363558028082,5.825422216641854,10.358866594496883,46.67503275815308,-1.420557142245685,12.965604238824984,2,S01
8340,0.17938654909673185,0.38495581195359374,10.101528416880228,4.539734009153331,14.757454255376109,8.436715772549597,45.36742283031859,-3.136602971662165,9.798262087573228,2,S01
8360,0.20161825827367533,0.5587249284373752,10.505148678285021,1.4352979683248888,14.730740165147488,8.624828314840498,46.19742015092592,-2.2822515200040003,10.78493864542958,2,S01
8380,0.2990289617109328,0.7038266652057698,10.541165528295403,8.932290156923926,19.632921133167443,6.409327829954897,48.270234246106284,-5.338746058895508,10.33265655586186,2,S01
8400,0.4933989433110862,1.1595220211296149,10.739566721932174,13.001419776786348,21.374527192131957,7.6078988516213775,49.55076066696518,-8.38073567770933,11.186745618350251,2,S01
8420,0.46526456872517125,1.098321557885541,10.591554304231451,11.06568200592128,20.1142020335269,4.003013562977565,48.195402475882446,-9.549055685756395,10.526209057391288,2,S01
8440,0.47919194143979205,0.9089351914607999,10.523635668496148,10.989409159151911,18.55906361560967,3.62433947328191,49.11548755284829,-12.289524861427502,10.224088128148203,2,S01
8460,0.6573310742470392,1.0488569085486223,10.120947799590633,12.714853971551733,15.783593957252007,-0.15919840526226856,49.311499222471575,-11.96892673965317,8.706946413061265,2,S01
8480,0.6445973005216373,1.1211985000431757,9.731054601876474,19.570177495973272,16.86449880539641,-1.8908559209388491,49.706805539163156,-12.74279033336236,8.569085100370907,2,S01
8500,0.6498779373414003,0.9355717508739058,9.486046300526258,15.1681389513574,13.617438403488933,-3.0124482811332145,47.33750680907798,-15.132002503389879,7.102796927492594,2,S01
8520,0.41519912956628696,0.8417619656727543,9.174060097095756,16.09891992143205,6.834999754293044,-5.219540327039143,47.52631580189383,-15.937631763943148,8.433206255273468,2,S01
8540,0.5080006483455832,0.29353729965680214,9.129433358382563,8.349317625814123,5.057017434821001,-5.510534275008213,50.31565526693044,-20.42044106689959,9.186788372360528,2,S01
8560,0.36579357279570923,0.3483063138613135,9.159500678196633,5.631752639177884,-0.36540350903512864,-12.536869118378275,49.96001144663963,-18.638987512587327,6.31360256821359,2,S01
8580,0.353385468617617,-0.11110475787916352,9.26983544473196,3.3145353616826942,-4.027405740880215,-9.381386586126176,49.71731631631667,-20.520491299868105,6.4318455157031575,2,S01
8600,0.15223973571602173,-0.32441218921663345,9.746227012148749,0.20598603871570376,-10.375450532858554,-8.411037459497468,49.186812065171466,-22.63320507243335,5.926353625943105,2,S01
8620,-0.032720528696127404,-0.5779310394734092,10.052711190497373,-0.5119273114631979,-10.029043278220241,-8.248869744516602,48.504688437357146,-24.092030839524664,7.87006029900925,2,S01
8640,0.0030975572747836966,-0.7998476212871185,10.370952944850766,-5.53142243606493,-14.091630922062032,-9.157141012651019,46.66561993123828,-26.412143312543133,5.483634342540094,2,S01
8660,-0.1575471196984488,-0.9676077214160285,10.636569005796344,-11.33298856332914,-17.253919761993995,-8.122871628829074,46.41522197207943,-24.64616687848324,5.7388132509863885,2,S01
8680,-0.22272552402892343,-1.2445156708632366,10.712877563038118,-13.393358414798184,-19.494673790450932,-6.25213134265897,44.236259535649175,-27.051345144498494,5.40045489722908,2,S01
8700,-0.24641659228777008,-1.4372876384548485,10.6812960794172,-10.468477059337864,-21.805912593552925,-7.038175647021029,41.81965062149285,-27.155331970270094,4.64642456111841,2,S01
8720,-0.3129014573137484,-1.2994305847003638,10.400985562585252,-11.802284639640124,-16.831685911169668,-2.1746901526791165,44.81198229860101,-29.553703413281664,5.038922054582493,2,S01
8740,-0.3969049450142853,-1.2643699092913987,10.043953370561763,-13.048788474905956,-22.684793365937114,1.3928141597183845,44.75238770642015,-32.51639354567243,4.402902513316526,2,S01
8760,-0.4115222590726929,-1.1880284947031532,9.783538466540126,-15.404120740118477,-15.617909144788351,1.031119711052729,41.355644833132004,-31.829966388464925,4.943833972854344,2,S01
8780,-0.3108169863975917,-1.049214565035911,9.39616676162564,-12.27612654648284,-12.098677103383311,5.117476411399996,40.21356566930968,-31.29479925098435,4.730082091218558,2,S01
8800,-0.3123062626928404,-0.9589671883521185,9.278008287168248,-12.010996072679555,-10.000945841846674,5.9730796605615,40.99877212148428,-35.162711858390566,4.4224575513847935,2,S01
8820,-0.15671518289982778,-0.6296326295169197,9.055418156574023,-5.824157930699946,-2.285643539291062,8.704817155642536,37.73505267003807,-33.723675312382454,3.2949876821311936,2,S01
8840,-0.18362803856872134,-0.4471553216913313,9.354760159832278,-8.539830283613544,-0.03364657185704346,8.46312878692461,38.14417022659627,-33.85921559771113,2.3049560816130823,2,S01
8860,-0.004336486442711965,-0.008085724739602132,9.396137965539486,-4.009165160327245,9.040914549049868,10.59086907516421,37.95104432522531,-36.20409227748756,3.7686940739616968,2,S01
8880,0.11709012239802477,0.31770449654495986,9.698551159012565,-2.240170621280539,6.011881672496723,9.129244210013889,35.775478555152965,-37.78470318166735,4.30639427691313,2,S01
8900,0.14793822770681342,0.4688147300359406,10.006990626683884,2.468850320433504,14.924050428710817,12.329133218850968,32.62002739251515,-37.28400071170205,2.27992841475206,2,S01
8920,0.2932636288323728,0.7473479357245755,10.367352823403472,6.4274822730383745,13.434668572079953,8.76221987881423,29.759578980219136,-38.118851091552315,1.5112041517196637,2,S01
8940,0.35859218266432824,0.9715505346850509,10.629415031349287,7.930378680878532,17.756706833473466,6.594008257692588,29.535797165034577,-37.39093077285737,1.0868049178673749,2,S01
8960,0.4147731212373177,0.9573742603034255,10.805340226444562,13.596094914794621,20.351891395706787,8.707697614166815,26.91705946165168,-37.38960710353047,2.7857048348491364,2,S01
8980,0.47995083426521806,1.183913918601348,10.545159859460965,11.060681761794275,20.043519187142362,8.418104606013019,28.501932800675387,-38.01527032287446,1.4025629451764834,2,S01
9000,0.5727740008748567,1.1935383975298584,10.457747963577742,11.876672654598813,18.61308604316836,1.5261565664447474,27.075940947046803,-37.72888534070033,1.725669979022392,2,S01
9020,0.6120620385210634,1.1863068457873818,10.089594670115678,13.159049895243703,18.603976400951755,0.9356979420090362,25.513417212951097,-38.530139039336696,2.051313124732545,2,S01
9040,0.5274694976375573,0.9885102286651902,9.757229006197294,16.938135841613782,15.95037349817803,-0.7171849299191658,21.933640011821886,-37.67613489618283,-0.005912016369080675,2,S01
9060,0.5831656891703545,0.8347555337762282,9.421825625603182,13.395658696141666,12.63912261758808,-3.769624902821385,23.072571982517957,-38.85633698488629,2.0259303274114466,2,S01
9080,0.49187512369626496,0.8145815306033226,9.167304560657895,9.34614231994936,9.370655768230007,-7.066423859175541,21.996289482848834,-38.28065925894914,2.268227211230879,2,S01
9100,0.4797032025978775,0.5005692807685886,9.221654497079596,9.158957772882394,0.404700283689325,-9.584492703195833,20.091443313468236,-38.97632672511918,2.9294909181596682,2,S01
9120,0.32937117461842524,0.1937067567426083,9.195214644523919,7.892715893387258,-2.6596516923676354,-6.998040400722495,19.003607689231842,-37.80041323800042,1.5343034739071686,2,S01
9140,0.25914600939067534,-0.153701859985734,9.436242611380168,7.666830701563138,-3.8581106245968253,-11.94754762112156,18.69249172170209,-35.26937513198995,1.5888183754600957,2,S01
9160,0.20571500801382822,-0.30342360021750997,9.783979283042651,-0.9209581856696205,-7.40645462046213,-10.525761227920313,17.55063693357461,-36.1190409274683,-0.13082469747805536,2,S01
9180,0.13134730146905607,-0.5797994860014959,10.20222714207404,-4.522992675157909,-17.211047434331725,-9.021518596295032,15.769357300625263,-34.43321913942177,1.1822670256289722,2,S01
9200,-0.043536315560616934,-0.928285211453506,10.541739858241199,-4.263335527213784,-14.31456109661819,-11.797355747308176,16.400927039841303,-34.8730801584283,0.7365547016889771,2,S01
9220,-0.15815718444306381,-0.8061630884107452,10.686815251232256,-10.912606206592345,-17.548435799328804,-8.211745978453038,13.37921060141154,-33.199848790145424,0.8230336676042844,2,S01
9240,-0.24829660992128016,-1.2572193700537548,10.725340772358528,-14.529269360528017,-17.703571800406653,-6.1731219605435586,12.143854742664516,-33.1864907936692,0.775333513791165,2,S01
9260,-0.38880482105678527,-1.2492838337077523,10.692695543578562,-11.32720556997884,-16.878693161017193,-4.772110621754777,10.226365687335159,-31.893585908935584,0.8589340013380911,2,S01
9280,-0.34328306085378624,-1.2731303704042132,10.396050395116214,-11.017677375802103,-18.49860418135312,-3.4205570628474953,10.56005422275114,-32.54598563728252,-0.3625913423074838,2,S01
9300,-0.4840514557949578,-1.1596504685842912,9.966546199058783,-16.36404646995288,-15.111374337876903,-0.3254395837713444,11.24503992802642,-29.834601519138314,0.8946760648414402,2,S01
9320,-0.332282975075832,-1.2346894419496244,9.7028488358938,-16.301462719994582,-16.397585569518164,0.9841271066265439,8.650534246982783,-27.48971204270529,1.8899369787755664,2,S01
9340,-0.30668523546748655,-1.0251095521248326,9.430762970515175,-14.216260317799188,-11.295476117225054,3.3286215001254784,8.241787527604234,-26.20319859781217,-0.5122898020179631,2,S01
9360,-0.26451940100639953,-0.8138414823140446,9.185559430094525,-10.720865095330465,-5.996059296744565,1.472994097949675,6.662902010506576,-26.720462242801162,1.0516357172237205,2,S01
9380,-0.2247216953568636,-0.6236700432554232,9.156469470731109,-7.993010050318404,-0.5297139944546636,7.217341317003091,8.19234831306615,-25.340357650164965,1.1095869624041281,2,S01
9400,-0.057180103223178125,-0.3177594960891541,9.26048155674075,-8.855904911104965,2.0193808556226784,6.9398816545146484,7.769427753547734,-22.423873957669983,0.39811534897887046,2,S01
9420,-0.11028459763208937,0.05246759532963517,9.569990558629373,-2.4463133127181433,2.382766188080336,10.153865027896341,9.143614745116857,-21.97327709473509,0.8360418471726145,2,S01
9440,0.16609638594835277,0.23238774889293706,9.85374139760032,-3.5217935057060727,12.113655012136702,12.675044700780271,6.807942020449437,-20.422406191451124,2.2028956965372757,2,S01
9460,0.1903097564538473,0.48497222490623487,10.246521878152576,1.9070243101300421,8.821204354665044,10.093214298688311,7.143275238556675,-19.041687615005138,-0.11479748823501712,2,S01
9480,0.34932398418983523,0.7787297021630707,10.518704027763713,6.12688740634886,18.965816132315755,8.944155352297965,5.238410178811624,-17.736179458844813,2.687897299560631,2,S01
9500,0.4028064737992603,0.9073497232366777,10.788328763946113,8.312414598724256,19.53730935753141,8.587500415625632,6.25854309582554,-17.96952269841008,1.376325054757868,2,S01
9520,0.5722032639440606,1.0228183468768364,10.66587285413181,10.958259771414703,22.525569115643247,5.235533905906374,6.124797389473411,-14.28214168045941,1.6946936193279116,2,S01
9540,0.6029250515848199,1.1322762986759511,10.59926535275783,15.646978105630177,22.362409113192694,8.262849784110402,4.899546102034862,-13.984035515304715,2.595825776754372,2,S01
9560,0.5765008966565488,1.0701457287659233,10.317351549059705,12.10068708746665,17.07491536732893,0.015321117011286162,5.619424636248936,-9.948909677947071,3.4280994854298967,2,S01
9580,0.5884599614713462,1.1505748937867226,10.05463687980629,13.2126065779079,18.15318489392548,-2.587284940548665,8.546681733287798,-9.046118390510681,3.2716266240471628,2,S01
9600,0.5781914044547942,0.8851151281637651,9.627289752989581,14.990782597820466,14.940586340644254,-1.0763109680400884,7.022730803289672,-7.757730759968838,0.7821830714215281,2,S01
9620,0.599632000030399,0.8096287094055122,9.287339336534588,16.11851504015418,11.630748700388924,-3.1546787918255266,8.36885703012944,-8.080847963971031,4.66976319446699,2,S01
9640,0.4769017505178265,0.7341847386088166,9.149448088602886,8.999941029062212,6.035870520030258,-9.035292782068414,9.286013978351559,-6.756697795981179,3.836835750979678,2,S01
9660,0.4163958030237103,0.2850096420388057,9.079268493770194,10.720871534501198,2.027764891006707,-7.743736938858273,8.596730817652832,-5.039082751839695,4.358141587739764,2,S01
9680,0.4057195723880486,0.19260091444391414,9.23837246074014,7.582763192929509,-2.3890232386581807,-7.304316491142931,12.33074213274997,-4.4773731544407624,5.070937611830221,2,S01
9700,0.25066293352720387,-0.022045512605746526,9.557656567490499,6.579276374634136,-5.796903700299642,-10.794034764735287,11.87771309380781,-2.7962722358600356,4.642956046577813,2,S01
9720,0.17625256755346355,-0.4548000840699759,9.75253994577184,-0.29528915064470707,-11.447086058229727,-12.653104319298274,14.427489589650017,-0.6144374234082894,4.522756324296772,2,S01
9740,0.025775354958169377,-0.6427619254128928,10.346357389950427,-0.5230510742015186,-9.74577703772514,-10.400433748140063,14.041054869809813,0.3429000096686927,5.852186697256367,2,S01
9760,-0.027087930139810812,-0.8969286582925425,10.561707528243383,-3.08612283045744,-16.754400871968084,-11.668453355937858,11.691180364378935,-0.5190002422569506,6.080533360252213,2,S01
9780,-0.18317081186828293,-1.0525823775757166,10.699985947712484,-6.9944679244780685,-16.862413369148406,-8.755815228624357,15.172914856129147,2.8958292712428957,7.128315191739769,2,S01
9800,-0.21833418651704256,-1.2738648165948165,10.71224395035215,-11.063718424842776,-19.365044954549404,-5.840641528384417,16.28206592981472,1.9400605811887441,6.934313469923346,2,S01
9820,-0.32089790416623576,-1.2716222761479699,10.630001354891883,-11.447120728686636,-22.38483379665089,-4.195394497021032,15.225007549660603,4.575866775773905,5.810097166135754,2,S01
9840,-0.3864095704809083,-1.2090460690897673,10.302979404679318,-12.668026924654868,-17.021082738781487,-4.747328260698884,20.456713028751164,5.3260323578309166,7.231387227371292,2,S01
9860,-0.3524585323005878,-1.2977557310936783,10.003005785117033,-15.841037372949092,-16.637131421641268,-1.3032562990027023,19.177155773769556,6.523622543693463,6.573324028061535,2,S01
9880,-0.387346988463113,-1.1533772425799418,9.693071253644332,-12.845031541028797,-11.92829331070203,0.06167410147605337,19.81113380838717,7.557155199259945,8.200750766598201,2,S01
9900,-0.37629571237723103,-0.879291445978817,9.323631656445661,-11.239748916722048,-10.705921119350116,4.785808197306533,20.83281640116872,7.522513675633203,8.538409878093578,2,S01
9920,-0.23989624104446183,-0.7077974006234785,9.195839349497001,-11.944523653454889,-4.3412582621766225,7.602002916575965,24.5552519494622,5.562212871172839,9.868553798370062,2,S01
9940,-0.18015517323835178,-0.4044220068983638,9.204406239521377,-8.333999622723132,-0.6090525260513007,9.120105325316802,26.391405638535055,5.631853834318708,9.654844112987977,2,S01
9960,-0.16317253552453742,-0.33309896861433774,9.315328090141985,-2.038659112668276,6.73188213045872,7.610030166267957,26.205137044350252,7.366532138522389,8.811537961051766,2,S01
9980,0.03676567822419288,-0.0169569391263895,9.544283906123338,-2.988231473517259,6.420935643305338,8.228019827246529,28.056151441240896,8.628837989031044,8.719385066506433,2,S01
