timestamp,ax,ay,az,gx,gy,gz,mx,my,mz,label,subject_id
0,0.031410334099819096,-0.9130653592861839,10.019313773479126,-7.450977403488549,-2.123572956877041,13.64625052801407,29.953500178262097,-12.712990969310278,38.55135270477763,5,S01
20,0.2889826410092456,-0.8305022207707831,10.085608524544837,8.698079929965736,15.705996961082526,14.515993458657169,29.545778535466766,-14.002876525794132,40.18975887281492,5,S01
40,0.3939499897003411,-0.6632141878117308,10.288288203413021,16.39699002552655,32.24043372096445,13.160543916340202,29.01288105329314,-11.324894948103495,40.22849828227993,5,S01
60,0.6726869582194095,-0.444881846980373,10.485278692535575,27.745363440326454,44.425647213603554,2.7720710951652268,32.33205932201243,-15.004033331603933,39.3109421609414,5,S01
80,0.6370534068102207,-0.1781323689865621,10.70574227435772,24.13282913322507,50.70597204490357,1.775339397890317,31.53930161957149,-12.014255183077807,41.825912844783836,5,S01
100,0.9023121147409384,-0.2315382804373271,10.970266101883794,32.482671906371806,54.01705999803043,-2.5111525618579935,32.49031656686964,-12.715555274691532,40.78435235859372,5,S01
120,0.8640148286888919,-0.10727786976246377,10.941217745412306,29.318765384856565,58.320886779569136,-0.4234261716782791,29.772905625199826,-15.305882891283527,41.065351325143865,5,S01
140,0.8873280621430982,0.09851522514935715,11.278882823149031,23.7622194374469,53.32080581038434,-13.276775922573817,33.77889940155478,-13.777266300658162,40.31082032300639,5,S01
160,0.5171082114655576,0.014022123196643144,11.054798838104883,24.48160448323824,50.01074856991999,-11.478391620802256,31.19797506678444,-13.470530484028925,41.247511866142844,5,S01
180,0.6436823963640262,0.01792843987707514,11.492140446706562,15.238791473802376,33.78651546543563,-10.738072294039453,32.15293608846886,-13.480515751121231,40.186764956307236,5,S01
200,0.4589312813927019,0.0383466965721891,11.399663656665364,9.71663261171813,28.7468847264965,-10.203300892274662,32.85246258383759,-14.030845651702403,41.51661555638542,5,S01
220,0.44562420153136373,-0.08143511760613048,11.17519689996078,3.601767233375578,15.884298972658868,-17.399044911042253,32.53510506881628,-16.390863570626745,37.70257331557923,5,S01
240,0.36177426133173274,-0.4251000642018708,11.075471145453218,7.989134685457967,12.45254510377465,-14.142010153058004,32.35848588647349,-13.749889355286271,37.92778537489912,5,S01
260,0.4181264384474074,-0.40883443155709653,11.050488730403236,-0.31844784214254584,5.455762167076169,-12.648103202128716,32.72943974742627,-14.897135772829373,37.306206061792345,5,S01
280,0.04391444840431396,-0.8355047994523308,10.647683516084273,-0.5904095844916069,5.476605793619787,-19.24293850625017,32.559930383921824,-17.230684112264584,35.561720303921,5,S01
300,0.10418191748078819,-0.9408511190684765,10.778133890009231,-6.321751310931228,-1.2324638477979506,-15.656423623623995,32.665957378076286,-16.790301961225744,34.16848860419064,5,S01
320,0.19836049092506802,-1.1693373765454647,10.722495451285209,-2.5136877775312523,-3.0118386820258207,-16.217105889094206,31.701258376455755,-17.349871553380325,33.62464846066423,5,S01
340,0.040325519298180165,-1.5622703479004638,10.417970033509631,-7.230829118895148,-13.217095835300317,-19.196457783206966,30.748799718614727,-16.680005556323522,34.72910056853662,5,S01
360,-0.18686784765047534,-1.4491039993326509,10.239683061416397,-11.366268928033499,-8.538136078563166,-4.614413148256453,31.112498236268653,-17.771600522752447,32.26807154611687,5,S01
380,-0.09440912179561892,-1.6171653983447454,9.866498125576804,-12.542737640853986,-14.4467441550454,-5.830268861334501,33.661535921829035,-18.78247097150818,32.97265382964858,5,S01
400,-0.052758543415219905,-1.6992733883423976,9.919461606094398,-19.5115151885526,-26.677653504848013,3.6280897313292093,32.41108943781184,-16.161729646042133,33.07673078052831,5,S01
420,-0.26821063824647073,-1.9355896790926703,9.883426870620118,-23.053678804321127,-36.201700023709925,3.5138962118031567,33.03792787920112,-18.902201355836723,32.66030335245652,5,S01
440,-0.4590583358575232,-2.053093305844238,9.37779419863647,-24.760253762838385,-42.524111827385305,2.84417801610091,32.54359068770171,-17.922077350366138,32.61312254406713,5,S01
460,-0.4312851010874602,-2.215696614896792,9.304648292122415,-29.39568026149842,-49.25379943529011,8.031523226873013,32.48366615214992,-19.496353919917027,33.8422351118352,5,S01
480,-0.4355850878415298,-2.1231792020896307,9.39114382394272,-30.92901699580064,-50.5296958374382,11.50143039394883,32.31757662184545,-19.446336974213647,33.86312138691031,5,S01
500,-0.4828047297934167,-2.112897717690952,9.40711142093696,-33.645056807041804,-58.55901222511319,10.22094832759601,33.44065360421414,-19.794079630480482,35.216169315616696,5,S01
520,-0.574932687296442,-2.0119195971599173,9.365503811163101,-36.126896027735185,-54.66851984321681,13.593737154475527,31.427977402019547,-20.064395116888434,36.09010669129566,5,S01
540,-0.4972747234808482,-1.987907721598113,9.534504688177678,-34.35824978193448,-49.194759159653124,21.237863823516914,32.497390493803096,-20.430345075194314,35.69990364134071,5,S01
560,-0.2864253734784623,-1.6514334492269378,9.505771257170403,-33.646126908326984,-46.78189500271563,20.49576512521564,32.141226827454474,-20.748544121066686,37.7477793604892,5,S01
580,-0.2944632887521368,-1.5012000194884145,9.670893273126836,-26.978148131293885,-30.820967269961827,23.49217691682411,30.030460023499465,-23.22841430234474,38.907238978605584,5,S01
600,-0.1568313533021881,-1.2970234570697818,9.793363791113288,-12.328067035178197,-16.832289084148165,15.434635187597335,32.33317283551001,-21.785273444467528,38.07530795463697,5,S01
620,0.06064730668523054,-0.8948449395105817,9.900424224556037,2.09975652115238,5.402641415037609,8.030243567392304,31.413318543229686,-22.946979929975264,37.320087980462155,5,S01
640,0.1716469240904992,-0.6366348592329794,10.238432887822423,8.837926294180239,18.382592793977217,10.727225344211599,31.190843675879645,-22.560657012364516,39.81978000431845,5,S01
660,0.4499507832943309,-0.5548234476256844,10.567524592764196,23.87495600893513,30.360198447558282,13.586884450852219,32.46777077442871,-23.770555172122034,39.055096286440964,5,S01
680,0.4396188084098067,-0.44766285755420726,10.614771750782026,23.084689988199784,42.79435644494096,10.454795444256005,32.12116542324728,-22.655901086632873,39.837520978545264,5,S01
700,0.6773065702949029,-0.14620739680301195,10.899038597497503,30.858324105808425,50.883018560228926,-0.5366513330617032,30.189397320656003,-23.92986771500251,40.66581775600037,5,S01
720,0.9973673690780903,-0.20854994826588596,10.89727613322257,26.663044221170633,58.97598253034845,8.390842678673517,29.533254859511857,-23.075256088340286,40.65574057305513,5,S01
740,0.8382956749578007,0.1053388089399826,10.987851455296282,29.04131214048549,59.34279596115074,-1.9367129389635949,29.710180031801936,-24.110357227301378,40.639088899093224,5,S01
760,0.748171889113141,0.19134071335002545,11.326326294345886,19.702410502659585,50.325986269632985,-7.835987550954911,29.51189964299766,-24.405783792197038,39.49487877548801,5,S01
780,0.7250781788446515,0.13565833474428424,11.333558658082458,17.596750308797102,46.12320746735076,-4.735138552958238,30.509121430682736,-23.081333011697673,40.579706538312934,5,S01
800,0.4585484605837269,0.039630879572338434,11.400694878082035,10.392995182310859,30.203325273413807,-12.135670287649098,28.947197110312867,-24.230349988628312,39.8372246436302,5,S01
820,0.44473144977649526,-0.1667601989207307,11.255375173241324,20.607538358991395,28.989713725814177,-8.983236669860133,30.154444554803344,-24.115102959580607,39.80201596925101,5,S01
840,0.3748299690113631,-0.17938785021301829,11.476733133148535,1.7337924964388964,21.713712351822547,-18.4577242945771,29.40713795376981,-25.24517754871449,39.05934164391783,5,S01
860,0.27908292972787774,-0.3544046396874479,10.92315528110653,0.08556381083041575,12.050334692214232,-15.976791995272285,29.62778204345421,-23.058353943400295,39.058864302020176,5,S01
880,0.1766874776220539,-0.5773404775910254,11.083988012758518,-3.0247551786425633,8.638836031509614,-12.97604884355942,29.03469970851213,-25.084902136087486,36.2727817166707,5,S01
900,0.006027471626528447,-0.8590847584372743,10.758982951024956,-4.509715278748447,4.3996960758554655,-20.452573898154597,29.2546966575747,-23.07466533267503,36.33632588522828,5,S01
920,0.15509433527229474,-0.8893747841050725,10.635533500528041,-2.7406464343912447,3.0278488422677183,-14.0124339124342,27.72077171919223,-24.632387156921006,35.35417077339076,5,S01
940,5.550845644188007e-05,-1.4498403893296579,10.548273729641961,-7.035751174898974,2.4476248334164072,-10.278830903365652,29.374877087061215,-21.38596264329548,35.26848146061651,5,S01
960,0.10014786201614775,-1.2364889799274188,10.301647843859113,-9.3202668907232,-7.489119912882571,-16.244845764443863,29.224918839489984,-22.537837716818462,34.42978546521621,5,S01
980,0.00293522251567134,-1.5723426226120654,10.233181894854843,-7.150454551065264,-11.625358540161868,-11.535067161616269,29.536919254739136,-24.134930763779224,33.33199124463434,5,S01
1000,-0.32651257184384797,-1.80208376038123,9.813273029318378,-16.99074399263796,-18.306260932597095,-0.5509944662079646,26.819466923386866,-24.03314896374816,35.54055551129555,5,S01
1020,-0.08394595595491242,-1.9347721568462262,9.911752407182506,-16.82865209430113,-19.980556985267967,-2.822064232071058,27.858478007135112,-22.336057237672634,34.16233286443443,5,S01
1040,-0.3464863462355079,-2.2158772708197847,9.527845840515608,-23.337079389074066,-37.71772924703476,-1.7730034398858874,26.87380686208136,-24.32539054460019,34.10448090251052,5,S01
1060,-0.4445598157516423,-1.9884973210562786,9.508369343651509,-26.26421790073863,-44.41967278364416,3.5497610581489916,27.44365706239648,-23.103799699873065,33.46270861856355,5,S01
1080,-0.4499379894965877,-2.1407761797601568,9.35587793220312,-37.24637841939957,-49.11827200944006,7.215874603821914,26.089043287395004,-24.240449039016514,33.5391006041452,5,S01
1100,-0.3952755271535787,-2.0530147096067224,9.434724605453559,-37.239096817102514,-52.01159157248988,11.928677573668011,27.198985587221998,-21.560491674927214,34.19989917694379,5,S01
1120,-0.7314171412767813,-2.0395647023436347,9.277685527081308,-36.355866901969165,-62.32378586972105,12.806997369167668,26.65566301460563,-21.47904202846366,35.729915132666115,5,S01
1140,-0.6609448432261472,-1.9806308048883465,9.406428562805452,-38.23524237339722,-58.152554008771936,19.679493672733265,26.239704860486352,-22.154013661293803,35.26378915392817,5,S01
1160,-0.581270666021088,-1.7215139549763414,9.422475930460136,-33.360529295254814,-50.05980253612076,25.516111905347344,25.717218758977886,-21.142777269299128,35.90773040072806,5,S01
1180,-0.3318626742760905,-1.6324595955640082,9.526307430740387,-34.41889043853879,-40.12319560586346,17.948340366210417,25.804741390868777,-20.30820344072571,34.99797788026602,5,S01
1200,-0.30130993885733837,-1.1795016662770705,9.601974083813372,-21.202867908941414,-27.561052064222523,18.879239704621575,24.49558185123884,-21.657746523652712,37.21853563234453,5,S01
1220,0.034291618413380937,-1.2315312355238575,9.680158804277402,-18.357032802020957,-18.474374894065992,20.264856008844156,25.79069529324602,-19.72349146220774,40.45669608126316,5,S01
1240,0.07868009516014185,-0.8799224775575167,10.019220690543127,-2.881659684759647,7.531969908068482,20.42486942213435,25.852797268238486,-20.23476497891404,39.967762356862664,5,S01
1260,0.23494897924706343,-0.6891408525963758,10.219143950689,9.658855507890443,16.78743314334598,11.444093267377852,25.558863113184827,-19.961883647281812,40.3313458156508,5,S01
1280,0.635238385595065,-0.43194051005220835,10.26701339193642,18.100099387468727,33.00072455845158,6.886082071404074,26.637204037429452,-18.319406070181493,39.69866206913373,5,S01
1300,0.7613262772607932,-0.2640917855674335,10.379033493763986,22.58967035254449,42.1854408437344,10.385807105136152,26.51944856719623,-20.865279197079314,40.02917548515531,5,S01
1320,0.8505975416961854,-0.2674566279876428,10.851165156600283,32.11659531993133,52.74983134804537,4.276181318707698,25.127934657568396,-17.76111796955849,41.753368217043324,5,S01
1340,0.7805158249582538,-0.09793470447019,10.819628442249005,28.352106491932492,57.24189215146367,3.6867226309067203,24.843642909664077,-17.82003437943655,42.99663711059014,5,S01
1360,0.7481573595708083,-0.12360669972311185,11.085690755471747,22.16264810548982,56.21130585717038,-0.895841875888468,26.270188485217886,-20.66403167262507,44.294928342500384,5,S01
1380,0.9177617478158082,-0.01642832868529375,11.181877314953836,28.04077715388738,47.721511313996174,-6.875506793627551,23.740111498087472,-18.380419848358144,40.60570005084196,5,S01
1400,0.6060395119657711,0.022358808698460117,11.294330006540413,23.91337683438395,40.89010705885294,-11.705310360898338,26.742879170874414,-16.79834697602267,39.18031915387047,5,S01
1420,0.6668568161960855,0.09116173964576327,11.245490030882735,12.023712233601902,36.15737421172239,-17.450212218756704,26.88083566127394,-17.319040065879086,39.226825607558105,5,S01
1440,0.4637522953394627,-0.17171153689751767,11.185345472748475,10.607606663297506,26.602359994433268,-15.306692272184756,24.924782403307965,-15.352050937595191,40.63992908770807,5,S01
1460,0.44438431930697575,-0.14023397470457366,11.269333561450013,5.663801063253223,15.736025666531212,-15.18840623786265,24.100176745271373,-15.422899086248243,38.31237043840901,5,S01
1480,0.1564466598541141,-0.5140912326043754,11.172242868148023,-1.2528923950084687,11.123987036992936,-15.953584877666321,25.06085515219896,-16.08178055821577,36.197981016105395,5,S01
1500,0.18521489770693533,-0.6589414458070388,10.982262709127639,-3.7413443002494624,4.751402081235634,-19.96039612808259,25.0839901068192,-14.841618973748982,36.59403126014604,5,S01
1520,0.10171107991923548,-0.8073593602816582,10.8560123325266,-6.475504187608853,5.449890349966233,-15.313344968692709,23.53145194130202,-15.020111381573141,36.35606896165327,5,S01
1540,0.13722715456553966,-0.956414801160596,10.635020691645364,-2.9160916773091983,6.6397976242914245,-8.82115146036451,23.429659125005116,-13.876347175690062,34.722520233961205,5,S01
1560,-0.135939899155852,-1.2918312492546609,10.575342920634315,-10.378176523683152,-8.02468530629265,-12.762864628114773,24.861499065741683,-11.836922150170134,35.293388067060945,5,S01
1580,0.3169467612693792,-1.524052265027672,10.266255904609913,-7.799623745203202,-5.127786105549401,-3.2676430137470738,24.156354133766627,-14.29173584360291,33.47829950168354,5,S01
1600,-0.05751864017097208,-1.54253881119971,10.25018807560527,0.046005754881494276,-10.157909211375577,-9.390631493387456,25.238477388545117,-13.589700038105487,32.55209417474709,5,S01
1620,-0.02104700255316848,-1.6983244951774636,9.996186937025788,-14.229901626628589,-18.968871817121883,-3.9350389124398526,26.480925162520663,-14.515141465172743,33.92024637541445,5,S01
1640,-0.22312009211731607,-1.9723802160810404,9.71348409308845,-8.613564137664607,-28.089889759865656,-3.1379834066483716,24.81583462550119,-12.535722980792272,34.01306509708714,5,S01
1660,-0.2763234201074648,-2.1269462846821696,9.64521335152921,-15.799068312141426,-38.073581486006454,3.243630538388508,25.173408202372343,-10.920597999970797,33.14174813571644,5,S01
1680,-0.36133747022219265,-2.167027542904622,9.616453054737338,-32.2314856289771,-43.1053996945908,9.900488659573844,27.344572691979543,-12.093006170277642,33.83846838928678,5,S01
1700,-0.5125769866605118,-2.1727780644982704,9.565562123361518,-23.353596812504595,-47.867827688785646,11.33570474048568,25.908187648185653,-12.260965430074,33.08215740028986,5,S01
1720,-0.4314897864537547,-2.1770941378604025,9.31925354880282,-30.83127259733776,-53.66866075808105,11.447663496595789,27.455472148869013,-10.61926804451777,32.374790566446194,5,S01
1740,-0.7007038355599376,-2.0526349885847233,9.352407628540686,-35.98840990743657,-57.32973264875695,13.496976383767059,26.023603771211125,-10.968141841997873,34.24418854553666,5,S01
1760,-0.6096163668896786,-1.8279244867380782,9.450156058606433,-34.765170070177575,-51.339806899925755,24.705041561532198,25.96625248064437,-12.656098404450553,34.47161072461753,5,S01
1780,-0.44434542967605506,-1.8278995314073123,9.476021578475725,-35.341674182612515,-51.91047637604456,12.11037605433353,26.374274224111872,-10.80785602366475,37.04091140485917,5,S01
1800,-0.29729172793111214,-1.4942331160513658,9.384388696069971,-33.07850095149325,-38.526651038066106,20.39519951062427,30.057048187612608,-11.759679174984246,37.50193396134607,5,S01
1820,-0.12205139671250032,-1.2850981358547453,9.701998477053976,-23.46728379656513,-26.40931695287524,21.12852629766574,27.477443562925206,-11.88534583587142,39.50690676690811,5,S01
1840,-0.13140785835959062,-1.0954155449102,9.974489435466058,-6.89708253176355,-15.416042012980423,9.357665684814938,28.997942652328547,-10.986511164136559,38.48895314523968,5,S01
1860,0.2291046587830795,-0.9410495053154584,10.038075234473343,-5.448212953426654,3.1608443121169865,13.285430774468601,27.68433571806215,-9.933512114491123,38.320931421644545,5,S01
1880,0.23419722659706965,-0.6874808860053208,10.216834789259059,15.88550225942436,21.349365240006478,8.313129424018499,29.948674518431073,-10.913558062767503,40.26092274093372,5,S01
1900,0.5056876612596637,-0.5110984403545007,10.57915317809941,18.389330747920887,35.146807592513866,11.190260507653521,28.903151305533676,-10.964791095372501,39.07264183478572,5,S01
1920,0.5500369444878063,-0.35482267797547484,10.495123289268445,25.700094455911284,49.04477669293175,10.419167583341379,28.848722590630285,-10.957746880713678,40.650035939341265,5,S01
1940,0.7101070301216366,-0.23643220289202094,10.938939112753308,23.916130827990077,54.26787922301167,2.945224367526773,29.264072881497242,-9.685729825795601,41.143863913500375,5,S01
1960,1.1087526518034936,-0.0869829915102962,11.291302859570553,27.60191122151821,56.077698666428795,0.03082868652278159,29.573185390728906,-11.179407086706505,41.62631385981326,5,S01
1980,0.9111998988057618,-0.17021862540953048,11.241359660073366,27.910414506334707,51.00100911549036,-4.9023743409176825,30.167059901153458,-11.472016076186476,41.26222710677685,5,S01
2000,0.8605488665950427,-0.08017255535690268,10.985337747336256,23.662572174969146,57.37482747063283,-7.672045968117763,28.163632575210205,-11.59604613014072,41.50774815960296,5,S01
2020,0.5628428169433078,0.0746658520461218,11.506096131897394,24.403724357375413,42.998061102674875,-13.534309436616223,30.170070532173504,-12.09296406464536,39.10704134687434,5,S01
2040,0.6116472052209789,0.08079313302686003,11.239578682256553,11.328332923289778,33.09419128359017,-14.701546321920702,30.239269377309846,-11.508523174690186,40.25661969648047,5,S01
2060,0.38565357196650585,-0.23227517786493782,11.315133578627982,5.4944528075830865,18.88730548129585,-9.56044817474093,28.899840983382582,-12.933185139661958,39.043614347545045,5,S01
2080,0.37132637897650633,-0.3037142278229108,11.07841454184798,1.2434247893212422,18.65849129741115,-9.904689503714067,30.0084297285154,-11.481014577381051,37.08631481205483,5,S01
2100,0.2113672126163604,-0.3563930453478574,11.147144375239545,-3.455466169795174,9.126436321664363,-17.200084362909397,29.250413045580178,-13.501880720918045,36.449494026990536,5,S01
2120,0.25878760434512055,-0.6248370796195164,10.946907313360812,4.540708623271711,4.32236806505753,-15.384176397639395,31.23626191811121,-13.148364640533455,37.09288850618045,5,S01
2140,0.28672598192005244,-0.7738352865003009,10.853979225091765,-5.998926138470407,2.463702214872206,-17.67367194736829,32.92668081613206,-12.46684665821805,36.60231697562661,5,S01
2160,0.11827248702663178,-1.0309787554668504,10.65432984599909,-0.3647405098176031,-1.308212745700411,-11.119940729941195,33.13733428826191,-12.438767283546138,36.26651543436427,5,S01
2180,0.06083235678028343,-1.178035535451045,10.540640383337863,-7.658254835485648,-3.6209873020450614,-10.07351608342738,31.927219882809258,-15.254458244828049,33.647361093772005,5,S01
2200,0.059468268715178484,-1.4088735011061018,10.282865997972893,-3.2513026937615828,-0.08893481634553324,-0.3667128975369046,32.75529401983295,-12.496845196820248,35.218390538253445,5,S01
2220,-0.11984293420623546,-1.841265766320468,10.044036086673461,-9.507895477409907,-10.3252452759287,-7.0643435951419296,31.33028457036339,-13.496822365871475,33.307474721849196,5,S01
2240,-0.29770634664116424,-1.8419698956445691,9.835196686030239,-10.619241290455811,-15.745255033664028,-1.8025462639842886,32.19106613743165,-15.871546934799472,32.07864600829477,5,S01
2260,-0.18599154626376455,-1.7627177975382653,9.676388893263876,-21.233796219650554,-24.09134772871462,-0.8060099924835403,32.199472288402774,-16.405055010437636,33.41745584070034,5,S01
2280,-0.22749423010265477,-2.079864117287827,9.632727046337148,-22.154011431798516,-36.6131055798637,0.8458089339174711,33.23740205730445,-15.046007332542189,34.58089146184605,5,S01
2300,-0.484274860287484,-2.021949158468479,9.496791997885882,-30.54583495126088,-37.90855566389779,2.8656844097359455,33.43614827763096,-14.925005715671112,33.82802470846065,5,S01
2320,-0.6681385954198278,-1.9961449269778218,9.612113576548202,-38.3780841727359,-53.68584991972068,13.361146559566789,32.367451579985314,-16.36658352856245,32.19626847005261,5,S01
2340,-0.3837183157740024,-2.1158257977067065,9.390406097603346,-33.41413405989033,-52.77329187278868,10.87980393845042,32.092978808590246,-17.436940909291387,33.872462932206005,5,S01
2360,-0.6053069218687644,-2.0557981779023042,9.288038356556077,-36.942612651391066,-57.556314411949934,16.721714874045002,33.6391962847477,-15.536778433471406,35.51562453899524,5,S01
2380,-0.5629462465687991,-1.8098032261567094,9.453451918362962,-43.96245235940237,-56.21117898254243,23.04468982051629,32.32699248661979,-16.54689970482918,35.28176460251416,5,S01
2400,-0.549950826032094,-1.8620948448608965,9.57271807438124,-37.98969658648777,-50.313530289167495,20.969503145299974,31.390702564081895,-16.854137737408287,36.398592829514534,5,S01
2420,-0.32213308340268854,-1.669573551314374,9.510982847489553,-29.421102272352485,-37.29663896557229,15.224737432539872,30.993092317172472,-18.18790746332492,36.83654670437378,5,S01
2440,-0.2531694515071079,-1.301081597237826,9.716055674813102,-17.92784025962724,-21.381961240365246,15.501832481305664,33.52963045911365,-18.012126776823724,39.93958485008476,5,S01
2460,0.12487064699028667,-1.3047516911055084,9.83919309620925,-12.267156104977257,-11.349579029955184,22.433492720867356,32.83961296396552,-20.653632553095335,38.00311655532786,5,S01
2480,0.30043527465702746,-0.9372600439908136,9.918139200548959,2.8551022420502683,13.399674965293025,19.129400613742654,30.8624012312936,-17.933254558926933,39.22085695406668,5,S01
2500,0.3057325601435191,-0.7368031989497403,10.04662433095025,13.910691318968286,27.76984474403065,12.022284231463399,32.25411940068602,-18.48429498511271,39.60990503710856,5,S01
2520,0.746781270177463,-0.6906349690612177,10.52930200546825,27.490185484129842,36.47844083828939,7.422730028953106,32.66672625351986,-19.262659193166975,40.74104404279581,5,S01
2540,0.8129473059512439,-0.339821795546105,10.684198393561699,24.67691006607149,50.07003582794801,7.368157303124165,31.925113089505054,-21.225071771363233,39.34854887892761,5,S01
2560,0.8303512250382948,-0.14576840717387263,10.937511621480486,23.03177882881268,53.344715116576396,2.276451315417224,31.754705625936317,-20.534772697303687,40.95164068299904,5,S01
2580,0.8087532950530505,-0.08696318600567887,11.234044416027732,28.62630221607297,54.382567418174155,-1.9505718018433993,32.819970852387954,-21.40093395048434,41.50817059055916,5,S01
2600,0.8646765128657006,0.03994084357183916,11.122659052667743,26.164550740457763,53.42612473010604,4.986652072458895,30.97744852757784,-22.230035665153732,38.779060201397215,5,S01
2620,0.6379033709780233,0.1202390682861734,11.354863323678074,19.87267679062825,48.36150669097803,-4.866198521872111,31.05486555712687,-21.897556641653765,41.37844299938556,5,S01
2640,0.5388081902192785,0.1572094950148815,11.21274255045727,20.82992060089841,42.77084341165484,-11.173364137846812,30.69811229284668,-21.146214466488864,41.136280033571886,5,S01
2660,0.5630630951109138,-0.038226585758445376,11.438661256225434,14.586535368400408,28.213523176001516,-11.814673565860527,30.00428101956787,-21.151202154116838,39.020174938203276,5,S01
2680,0.352810067622911,-0.24287268383133043,11.256571028069631,13.176148223247942,21.181183672517818,-14.611893701631521,31.033147535850134,-22.153656231418708,38.95410660733753,5,S01
2700,0.4805230766251213,-0.216070585138559,11.23611320105546,4.71357905506808,15.210453918459255,-13.962947530774704,31.797597838479145,-23.953234713127333,37.926407942971586,5,S01
2720,0.289810456355651,-0.46831966911117184,11.015855296356852,3.454213863487106,4.349844490095978,-20.32961122479891,31.39342211362905,-24.530192308539913,38.67223032546698,5,S01
2740,0.14184750213541591,-0.7480095845311794,11.011611101574204,1.8922724743737076,6.957674416651034,-19.065292889531484,30.488530608181918,-22.553919530684624,38.27554097382964,5,S01
2760,0.02922106411482467,-0.82352665770554,10.889748356297186,-10.26868295357049,5.174933344735894,-17.481354724953682,30.870863025493495,-23.356305204554324,35.86193398378044,5,S01
2780,0.04850431473414085,-0.9784773130166589,10.718025064648602,1.4294951645625424,-2.108101868636717,-12.439969989115083,30.47479113642581,-23.538272705021264,34.68647934480407,5,S01
2800,-0.062414783678954144,-1.3838125593014492,10.592447725789679,-9.539219996194849,-1.0443179267729954,-15.926379617279318,32.7045664376718,-24.391399798723054,33.008794119563824,5,S01
2820,0.13555027316856075,-1.3403263958952158,10.28813514114608,-11.259692246600803,-4.508410807236885,-13.562545205043792,30.87840627295479,-22.87520903503262,33.69472927449273,5,S01
2840,-0.10368862251981095,-1.6944860018303305,9.976670223159877,-4.553350166209747,-13.256538630614285,-6.788333524122232,28.134319591384703,-23.672718958267396,32.50207128700357,5,S01
2860,-0.04499092506840377,-1.9495012981248203,9.95667474116763,-11.284955592455997,-18.98534225558301,-4.623205202765972,30.506652532269758,-26.14917990023196,34.4876874880477,5,S01
2880,-0.2500459082022043,-1.8900432358807109,9.602572446429527,-21.277436150466905,-26.07508038352578,-0.5125561950141769,29.369911490002202,-23.9907344735513,34.41809346946678,5,S01
2900,-0.19859411326880747,-2.013801416897916,9.793456113799937,-19.806478717988558,-32.95217494801726,4.794505151647475,29.0447278234567,-23.26589742785458,32.86278615327899,5,S01
2920,-0.4332409903817108,-2.277063468168058,9.684788036369454,-24.663722504728117,-39.41860389906511,4.224533534670326,29.136881189218098,-24.83170082876771,32.60290094997671,5,S01
2940,-0.5764464001866996,-2.0800059981627133,9.445672282976307,-35.29871327269857,-48.270870578250005,10.378785641251946,27.495171671488094,-24.045985598198893,33.46414995244867,5,S01
2960,-0.7655432659281601,-1.9844118875106793,9.396769999599112,-36.765245560466,-57.53142655585286,15.011487075845483,28.144569013617645,-24.40705369522115,33.59840039087491,5,S01
2980,-0.5387108007574137,-1.9133373348187475,9.384670074392277,-42.54786211240042,-62.92439964123036,17.892124366899754,29.126800010590742,-25.65481439365765,35.17104652676289,5,S01
3000,-0.637150645247929,-1.931376373941926,9.28645580401986,-34.002984038852354,-58.97699259957661,17.94112445322652,28.06644341539447,-24.08440252158924,35.87402769945615,5,S01
3020,-0.4767469836120818,-1.72715701918177,9.5084194436631,-32.94662778259059,-46.28728782264135,13.712213187707555,29.17624221173058,-24.80990973455398,37.21133398723593,5,S01
3040,-0.46141940884525434,-1.5104517842122915,9.7830018199092,-27.39882624821794,-39.72938603502405,18.14968397516126,27.554755146701076,-22.720965006871438,39.67677592526256,5,S01
3060,-0.25759439904658565,-1.384102994072102,9.798185612016765,-14.70441002642428,-25.33052875255937,14.323668001553235,27.35258113387321,-22.356585357784667,38.94572290938166,5,S01
3080,0.08169170637233837,-1.083395720829946,9.939574130326475,-6.364291788173136,-3.0236890239496885,19.780367884725084,25.97724805497534,-23.96414075383495,39.34112811493319,5,S01
3100,0.2626955597752051,-0.9679558476157979,10.185477546257127,5.103849679617132,11.220620260263301,20.76835562518884,26.165221081202265,-25.794286099379526,38.19063075430413,5,S01
3120,0.3270882047657371,-0.658887992996555,10.265737619102742,11.387396399390795,25.350547615053944,13.629556655536046,27.9409024213252,-22.954321689676995,39.725455579153994,5,S01
3140,0.5853167787209653,-0.5288597253170428,10.659906829010309,21.26969704142369,32.74083541821433,6.672586936297191,25.700278825993102,-22.455630069893463,40.687383863622635,5,S01
3160,0.685549268973836,-0.25784315854938694,10.686253711270897,22.96766937310105,51.1269073876145,4.645489906110891,26.8744215269807,-21.54645777040179,41.17045261231174,5,S01
3180,0.7175938012442271,-0.03974643536672828,10.90565044847301,32.94627826903656,55.81459073718577,4.384291391056049,26.386038676873444,-20.923213253009692,40.544122578096236,5,S01
3200,0.8403620140939876,0.10259724115124133,11.120284541188028,22.830945997539843,61.542116397049895,-4.621699576835264,26.28970512231395,-21.997364407113672,39.31765851693001,5,S01
3220,0.5593140820473869,0.13705689677782873,11.127987122610936,24.023667067281377,47.76683032393373,-4.043830351054227,25.80896435381319,-21.266446047908914,41.88064875514235,5,S01
3240,0.7706682351373729,0.22967258067817603,11.25142247030164,28.859100530104374,46.76547983962713,-5.433290228343748,27.45395404719852,-20.74743120988458,41.043956222445196,5,S01
3260,0.6259775692752899,0.015139798465792983,11.423141986151743,10.067778486070274,39.22501241055537,-9.993777490543913,25.816145551105688,-19.346549169071587,41.54293850627226,5,S01
3280,0.5832367888439713,0.030858945655061976,11.481988628340561,12.77888495066058,29.3542295687329,-19.974643382515634,25.88306478014897,-21.142780618055603,38.76039088718912,5,S01
3300,0.581106581562912,-0.11960482265976295,11.211232126760146,3.076105679036668,17.844848831336083,-8.241684072907637,23.66182334652466,-18.166938198036473,38.899354127383305,5,S01
3320,0.4156749824139099,-0.06522156403491501,11.284399146147832,2.118952109027508,11.741007374792984,-16.55186977559177,24.786081935508584,-20.015586135726902,39.55485062676869,5,S01
3340,0.1634104516361845,-0.4615869450696287,11.253064068707243,0.8696664765072715,6.424004349530944,-14.416917262392097,25.23715446775143,-18.054299394918893,37.599877321165785,5,S01
3360,0.20199687077347517,-0.8166412703906876,11.016981553513446,-1.2669298132904543,2.8445434053801035,-14.584678738931673,25.108232918158457,-18.898859914458924,36.23300014274299,5,S01
3380,0.16373794881246928,-0.8439159953454975,10.685588781974046,-3.9933856090079725,-9.9165732237025,-11.872838811493274,24.603134309591294,-18.165751463048785,37.260553217833184,5,S01
3400,-0.06971052204441516,-1.2233532894487789,10.596699264554427,-5.180254770775732,1.3041151249703955,-16.226326289033555,26.161437992855507,-17.62439729677287,35.29217375601347,5,S01
3420,0.0028037209583710587,-1.3980173686249782,10.396429216027219,-5.148914517572785,-1.010591133057045,-10.937949515349688,25.33619822737917,-17.5105206608967,34.573044446478406,5,S01
3440,-0.08636618498336399,-1.4584547412855604,10.292546551092947,-11.127322358039827,-7.99772052979681,-9.904593962260163,25.044505320850924,-17.48452674105092,33.83004992986119,5,S01
3460,-0.00023552996973930096,-1.783570247969907,10.040599215188568,-7.215741654830595,-18.047668120358292,-8.115782037421132,26.026062997673122,-16.477968711175567,34.246601110632966,5,S01
3480,-0.21336744844659236,-1.9284624206308505,9.724178489577916,-10.731240798212035,-20.816996299297426,-5.17121607699068,24.738965010719667,-15.804407052823239,35.67325353595176,5,S01
3500,-0.15592400139848198,-1.8544948921373128,9.734488098424645,-26.049210282051803,-29.634806360265834,-4.591253157272354,25.199998023421003,-16.674738435830918,32.819457218061736,5,S01
3520,-0.3542577255516929,-2.0340671804884023,9.704718629726552,-25.573828067746454,-38.42746701059362,4.597094923551704,25.343069911313552,-17.72886933365404,33.118298482768125,5,S01
3540,-0.4867719586830318,-2.1829491824397502,9.544087403726456,-25.486537376267783,-43.47826102300816,14.3957532245164,24.78936591117418,-16.385628001687014,34.282135682996696,5,S01
3560,-0.4312610122760261,-2.2877010283379082,9.44462500720656,-35.50545633333179,-54.86663447709943,10.062966668551402,24.657549478779927,-14.799457869951866,33.190852808532284,5,S01
3580,-0.39995023124193296,-2.124337363494978,9.571144798621658,-36.96194455076468,-57.12088844007015,9.70015868455548,26.36982561336554,-14.435263863292208,34.05384837989198,5,S01
3600,-0.7875766287542799,-2.0834869557887457,9.46329705819844,-35.74859773503778,-56.33409756753315,13.289411500316078,26.197212411356464,-13.07177404531761,35.105944501360625,5,S01
3620,-0.5408635677469008,-1.8648787005911414,9.428863821464468,-36.350597224920705,-57.616087632841406,19.49395933716201,24.694111841090262,-14.183479544219727,35.88870778337041,5,S01
3640,-0.3816306689812239,-1.732503796210401,9.533627810017226,-32.281056159204574,-38.53760469741174,24.41890737157076,26.121883444156666,-13.647959158566072,36.21088136005652,5,S01
3660,-0.28245314206856753,-1.4276799630983095,9.851076590135712,-28.043579408192137,-34.07803799720618,15.813352957594875,25.416518467308748,-12.73872970681515,36.91518350653461,5,S01
3680,-0.30003547497312477,-1.3841912418475384,9.803238883496734,-15.935475332014594,-22.08498412568412,21.273583509375285,25.71746745216181,-12.510562781553997,38.85065784318991,5,S01
3700,0.04601799897144288,-1.1156754976501086,10.097646943076237,-1.5790140039862024,-7.390896316927525,14.89912396418588,25.7745381500521,-12.099800362760309,39.01415029615473,5,S01
3720,0.5104670877749903,-0.7890091315128578,10.038677371303491,7.239710109722362,2.4638235137711453,13.544589999988768,26.544119379260337,-13.082951150727244,39.89607521345491,5,S01
3740,0.4885474531065498,-0.4784758453249821,10.382633485040234,12.658535680193836,28.750274959960485,12.50423403617078,27.13557712009372,-11.502071514788181,40.757967097184974,5,S01
3760,0.5616884727344837,-0.5166728198217463,10.540436302926013,19.16910070342559,44.85501764859912,6.78276427553931,27.334322112311742,-12.610717445600521,38.14857085054716,5,S01
3780,0.6124882186952934,-0.21718592768093933,10.696358694021564,23.135417152793295,46.69778924702468,11.035008649671296,26.51132091588339,-12.287105636910365,41.581137349497695,5,S01
3800,0.879828966246857,-0.056409496456084944,10.818830830645803,29.769952614384284,54.70619128656278,5.381810506744696,28.550598239641015,-12.618627982773347,41.137774050692435,5,S01
3820,0.815905260590356,-0.03386291144431411,11.13982307636024,24.498515402011872,51.01715373830326,-0.937838709939251,27.91051671335781,-11.28736563962981,40.8377672447525,5,S01
3840,0.790329051530858,0.28818116863722226,11.24235572830619,27.964491878876135,52.575036765921034,-7.077302446356848,26.20691482634104,-10.747979531628914,40.48719368759634,5,S01
3860,0.6182232263943886,-0.1455015031368005,11.364991464049211,20.69946072427407,41.154247034358114,-3.75558304034139,27.874123261646666,-9.329679844783712,42.010026750339655,5,S01
3880,0.4765764768716769,0.07216523741294789,11.276715886478188,14.643923922915143,36.3872626193157,-12.492784732555853,27.216550427729878,-10.773508366418463,38.94377604915591,5,S01
3900,0.6138854619126294,-0.2159662509488822,11.286157658299196,8.352665745792972,28.443307091014532,-14.835987248378537,28.69589372222669,-11.724718791511936,39.5302738155862,5,S01
3920,0.5731042569694647,0.05550315464102318,11.263024934129524,1.997867115672304,27.70899701341938,-14.74682953967046,26.982020986895513,-12.155060429760724,39.196133055011984,5,S01
3940,0.16952648667964498,-0.438560147815531,11.262255519677229,4.0305695381156506,25.05175459986069,-17.506941970641577,28.227895122722074,-11.46003663772425,38.66749429660598,5,S01
3960,0.2829158774071988,-0.6747492782786739,11.043921935199055,0.8794141079722957,5.781361897499578,-14.733798668661711,27.518983239833418,-11.400245326239636,36.06433487525089,5,S01
3980,0.2840221035970954,-0.7088883108718846,10.852738727183214,-0.7229516462151935,8.175647107124162,-20.905638597966647,28.522850152757613,-9.750078336158241,36.97345580545109,5,S01
4000,0.1257766271321507,-1.0476078190371745,10.583101654161997,-2.3362434086364914,3.556628673928249,-15.612772654024111,29.381349324144395,-12.4441860804181,36.59216376560374,5,S01
4020,0.02800800960786863,-1.0474560265363713,10.559214585759948,1.3390606449221591,-3.8119361223974417,-15.027761858440519,30.071733038091242,-13.819865595424439,35.0529667556889,5,S01
4040,0.07106375596603173,-1.2641335366535318,10.3012082356453,-8.579543458637508,-10.81200734008887,-10.446259974763853,30.95654737476349,-11.63025038336271,32.7591573155747,5,S01
4060,0.15395348064049347,-1.4468804968952056,10.168601592883208,-3.3656735872237054,-11.236587583134682,-5.592210095018237,29.612662268469144,-11.375126894967478,34.67084327213996,5,S01
4080,-0.16915783209939153,-1.7279902059632504,9.899513739943744,-8.532784378096792,-10.069141610059498,-8.610405829163936,29.28860883820559,-13.21605773843731,33.668853171818434,5,S01
4100,-0.06038960054387349,-2.0520438326222306,9.907849843041587,-11.201378759944657,-21.084710274982417,1.3570694436630388,30.523600261250937,-12.551006374375218,32.727688103531776,5,S01
4120,-0.4343955125346277,-2.0509739901788007,9.50529796013204,-21.215251762480094,-25.802272701842824,2.508595560843339,30.720540364552896,-12.960975243858197,34.85040450954091,5,S01
4140,-0.33462046363867404,-2.0086326800847107,9.576882801664091,-35.21577801049604,-39.745482661859,5.127513424829785,31.196565337508726,-11.294764000762772,33.05674062613613,5,S01
4160,-0.4465299770510095,-2.1563563481694747,9.489757810976652,-34.48989345988074,-44.325161494551246,10.634435314363229,29.822657170479783,-13.802503642136433,34.812741414829304,5,S01
4180,-0.5257559662891022,-2.0969060536212116,9.270631130806011,-31.441303356560486,-54.84028608127827,16.037961233552448,31.129552979852697,-12.864158787533007,34.41660947483141,5,S01
4200,-0.5068205410383969,-1.9000226186051754,9.490882170159876,-38.990949103833366,-53.7097190365886,12.650520388172973,32.432111212610764,-12.356540736101746,35.10867688788299,5,S01
4220,-0.40943704113992196,-1.9025895764236194,9.529976336720168,-38.059607216851916,-58.9464435392718,13.434341306650973,30.76922389838631,-11.389868893519909,35.73331917156548,5,S01
4240,-0.5245926266682792,-1.6930353320190628,9.416560869927109,-35.89986166262617,-54.49054152240139,15.717267352478288,32.293914711394336,-12.858290391965909,35.723512225050825,5,S01
4260,-0.46337017994813945,-1.7005019298436692,9.48353962400694,-32.99053683675128,-46.023190460055154,23.04767442200862,30.715708393578538,-14.093962690353171,36.04622549725078,5,S01
4280,-0.36751571166487906,-1.3941060805729433,9.574407512442352,-23.932310052303826,-33.255398945397054,28.703672474247625,30.004199470393694,-14.377904618309916,37.07962966179671,5,S01
4300,-0.23121657427593226,-1.1991343610230052,9.719662371742304,-8.149293302438434,-15.458438910105636,19.92120177511361,31.508900187954282,-14.172260299884744,38.347406279867,5,S01
4320,0.10325365493760076,-1.05835288062982,9.784507801217423,-8.749406967040718,-2.835509593682459,18.200921355835323,30.301235575500794,-13.253423859327507,38.135171299317534,5,S01
4340,0.5664008479418003,-0.6303730182799157,10.064895678977289,0.4138306772457847,14.958033505420335,16.297556043572058,31.474945261143933,-15.249166874838751,38.15956826480178,5,S01
4360,0.40503622497634106,-0.6854239440396603,10.39455086707625,17.55076372050742,29.13466822487905,10.493089550122994,32.91239042716276,-14.730067688177488,39.61660978317328,5,S01
4380,0.5502119487717088,-0.3130474273348439,10.537810257756991,25.868282631774093,40.81304556575329,10.198309551453322,31.923883500678393,-16.177536831592906,40.52982621658188,5,S01
4400,0.7012418922301477,-0.13459541237733003,10.811810296140859,33.95667877806054,52.025713410485075,2.993238396318087,32.102056706322486,-15.16331966547921,40.418650846691996,5,S01
4420,0.7402139370764286,-0.14501507701864103,10.95598886889744,31.774928873564416,56.58284277786326,-1.2358236416208506,32.4243391350725,-17.939590284409825,40.45725261501353,5,S01
4440,0.9157153131729746,-0.059736702049184444,10.97957693509011,34.471439799027955,55.82941033189954,-2.6682627227294287,32.57253639808104,-16.696750980625787,41.85267969602919,5,S01
4460,0.7879972014779442,-0.13105910253773642,11.267303906648856,26.81636424514873,53.275983583974,-5.1417345343285845,32.897960139818366,-17.55277038713445,41.31130116252833,5,S01
4480,0.6959744434517177,-0.027234732363417564,11.384801633916135,15.753152274508704,38.610286947836144,-4.991827574228074,30.452829924831676,-18.267344610618046,41.853308396363055,5,S01
4500,0.5938826995842514,-0.05391586850771865,11.328136378427493,17.029772428053413,38.19486554777138,-10.222930880232763,33.7737712201198,-18.391251116153605,40.875882540035555,5,S01
4520,0.4363528470515642,0.03151121962787659,11.133546019110666,10.897535203258268,32.794781624862296,-20.08734122498101,33.35559022617491,-18.71713920696936,40.91852471429225,5,S01
4540,0.426932735108005,-0.26316385913299656,11.27908578106769,4.364441785449574,22.896643152713644,-9.716288053933068,32.32326080525459,-18.29151865052486,38.760748793812695,5,S01
4560,0.37394055854773933,-0.403366067790087,11.275345099971144,7.186982810266673,10.310173281480306,-15.381474371774342,32.209199335177175,-17.320141915726865,36.83928508130448,5,S01
4580,0.3364332924646673,-0.4411033519756669,11.046144423784126,-2.599328726786542,9.22138973168152,-15.982603952842831,31.58952504334245,-20.75610786060745,38.07097278361343,5,S01
4600,0.04933166413126579,-0.7098905976449015,11.036901704559902,-3.1129595875664466,2.0722966757218924,-20.0276472180618,34.49869117101241,-18.135043581817385,36.43511636968929,5,S01
4620,0.1710259499734142,-0.8944344023671347,10.782916845841049,2.8539967664654684,0.20029015439300069,-10.930619378743975,31.972485754613068,-20.194401271625296,34.74654675376446,5,S01
4640,0.09429226592321585,-1.0414043611034538,10.590415512214118,-11.041936469954031,-2.532001011668797,-15.75870610387951,32.11858372760284,-21.250496793463668,36.20891993362027,5,S01
4660,0.17892011323077897,-1.2455485824068329,10.301077041111098,-3.360341479308749,-6.585979888874891,-18.10520873600276,33.633877629445166,-20.693501007498597,32.96206454910103,5,S01
4680,0.12328072054114365,-1.693417337952706,10.013962912947937,-13.627938648546497,-7.00733489662501,-2.8400465112892523,33.00721680858966,-23.61201926278113,34.063979712928436,5,S01
4700,-0.023337927107471138,-1.9055467634393943,10.074885742387723,-9.978182834491044,-16.148956606120773,-7.748631186951231,33.8082272442209,-21.396604939305515,35.94115352729638,5,S01
4720,-0.3205622032612597,-1.8539668708112202,9.932818527669335,-10.845949395850289,-22.22535868952865,-4.666461584789356,31.92892436178028,-19.440764882327585,34.44403059107917,5,S01
4740,-0.24793866307159004,-2.1489271634934126,9.865185127912024,-20.946262296088406,-30.461774382854383,-0.16900591550796507,33.219603564711065,-21.535502272557405,33.134368596418284,5,S01
4760,-0.4721239705525734,-2.069250819706971,9.50100289097073,-21.837053685362886,-41.10209048151582,11.022908660024187,32.76744322622132,-25.198582531660985,31.99412355602919,5,S01
4780,-0.4775821722255372,-2.148581047470869,9.435372791808868,-32.781400691007654,-44.62635429343029,7.489961250760663,31.88931215353812,-22.632662959643618,34.06526152984122,5,S01
4800,-0.6019827803963947,-2.1043313889720574,9.418643205325774,-35.09813580923333,-57.96488054930479,10.423868314240458,30.873683768777433,-24.501554648837907,33.23208750157073,5,S01
4820,-0.5513185498633061,-2.0438426427156116,9.205188605080917,-46.271295476717825,-55.558909959889725,12.38138790273497,33.284969127824326,-22.753523776072846,35.59774659596414,5,S01
4840,-0.7217977151157502,-2.07519898439363,9.358794238849137,-37.686885527665595,-54.50702718935425,20.55145391871553,32.54795336845886,-24.498926398570887,35.34418166588666,5,S01
4860,-0.5064596288715829,-1.7517929899454205,9.465711147918974,-28.820018784920503,-54.59995456119781,11.2743123163976,31.777804700376347,-25.099055934301973,35.526105985267236,5,S01
4880,-0.40509608444321177,-1.5326148939623991,9.543591044312723,-24.567102656199637,-50.12327457831863,9.911005994278167,31.107905349404728,-26.84515138953659,35.70190108279413,5,S01
4900,-0.22284736792235413,-1.440061106623617,9.702372200993324,-23.774603521236557,-29.163354857353454,15.442844798813534,30.32941945950883,-22.74093755696699,37.962432197256724,5,S01
4920,-0.25882992005833416,-1.1721889395165503,9.956027895506827,-18.806422742161278,-16.104298620333758,21.24235100581115,30.5513194748131,-25.284254884006362,39.655608512855025,5,S01
4940,0.22577700099786846,-0.8380366293979475,10.148853004015658,-3.050386690724948,6.5566243478112565,19.916124335092896,29.29897730045013,-25.83229041115639,38.95210227262325,5,S01
4960,0.4025449800056107,-0.7044662093767962,10.321035604214222,6.871245053626679,20.28039695423444,16.408543612174597,28.908211680985676,-24.151802741496084,39.252240981768615,5,S01
4980,0.42740420908100907,-0.6546724699433089,10.356778016886159,11.571087775153298,37.31373543556483,8.962566792468932,29.512915479096137,-22.790588595306993,41.119263496238155,5,S01
5000,0.5396139123833487,-0.22203990499443854,10.586301628533612,23.63822491264139,44.12271167329292,3.157581943799944,30.739303062064085,-25.52873317608151,41.36551553555903,5,S01
5020,0.708073529459673,-0.2681951867148095,10.835615940299812,32.94281269194387,53.49832129042548,7.00317711481345,28.228460266636315,-25.055177146828452,41.411429961079044,5,S01
5040,0.783140863157982,-0.11982200898155433,11.044700340519793,29.13821910202191,58.685635879614864,-5.892899078826783,28.551963423722576,-24.185374474741238,41.221383958386426,5,S01
5060,0.8044255609194665,-0.060489327566732115,11.043437053306643,24.70767913712274,50.752885889265244,-3.131574265701128,28.629925329709902,-24.061476529290704,41.83142888341679,5,S01
5080,0.7180314164259577,-0.06517392553849345,11.290168764252442,19.910312738894195,49.94851507194058,-8.870176269557028,28.110224691112077,-24.332082430736314,41.6153689589242,5,S01
5100,0.7001105115626804,0.06846699369728868,11.24186093086875,24.793811775478176,47.659631267020394,-8.636311675883666,26.85944787949431,-23.571410050745136,41.16749752883389,5,S01
5120,0.5843286907052307,-0.020580639937294955,11.186601043791,12.534211750448112,35.995817461411086,-14.335333869031073,28.26939846034176,-22.358821272428806,38.583215597808874,5,S01
5140,0.5923664936851727,-0.11175463552088613,11.262283874926586,8.22277076481792,28.001713331610304,-17.975042715542667,26.93663123017749,-22.550304658914555,39.31197158964536,5,S01
5160,0.3577422412609075,-0.15874535439983606,11.28608363223534,7.349299363159914,24.23895615268966,-14.709648955688477,27.13685150054452,-24.03726523077113,38.18959033163078,5,S01
5180,0.07871660288163129,-0.3487466678020223,11.124033687972782,0.3893116773913601,9.160213138439829,-18.794748269420683,26.33657423643005,-21.509114844955636,39.09807122046136,5,S01
5200,0.18660550097005435,-0.7885788094294908,11.276907678735332,1.6094214355617753,7.083602669403899,-22.815904017169395,27.441214211011772,-21.986523283986266,37.12449156135561,5,S01
5220,-0.0364267670289512,-0.7706653808842714,10.86209748679352,-1.0472984544803872,-2.3750861053492693,-18.85056737726557,26.621748960775566,-22.993810909980635,35.782985001500535,5,S01
5240,0.14422677355905103,-0.9495412901900409,10.688784492039176,-5.127098852947874,7.506661987895611,-16.052867501148828,24.386645093339993,-24.464292330220754,34.15968714179024,5,S01
5260,-0.00515202920116993,-1.1179415926228662,10.543348064922123,-8.584647881051659,-4.736229503591392,-8.847137212222577,26.525822405891077,-20.949636672395773,34.639089626755336,5,S01
5280,-0.01765317157746288,-1.1897960637932594,10.475170465847288,-6.9094724676117405,-5.730256568168134,-16.429090232829772,27.237442878831164,-23.667534733223935,33.54197072025815,5,S01
5300,0.1242430062531723,-1.6727582609588645,10.08249823060094,-12.909405625679558,-8.849372803332006,-5.811266180868136,26.80793306886743,-20.493955203111298,34.01494845061697,5,S01
5320,-0.05796996152835532,-1.8310716380970176,9.785684642212857,-18.16781156214881,-14.320956712525263,-8.16013137477836,27.011579331831896,-19.846083134140628,32.5720404684799,5,S01
5340,-0.08649945123100744,-1.8842031845496936,9.702698382241449,-21.999390323369045,-20.74911801666629,-1.7883454790452271,26.12770881112591,-20.12047280952268,32.715609462344005,5,S01
5360,-0.35161622166469164,-1.948883038100099,9.673585201962846,-13.7801035441875,-29.868194873740507,3.8676035383485545,25.78030124981963,-19.022535257830143,34.99803801782083,5,S01
5380,-0.21225886976378902,-2.096275362906915,9.679953788344864,-24.119317068596484,-43.7997486641832,4.8957299886840175,25.54729994570136,-19.10263513092492,34.55071865882128,5,S01
5400,-0.7178999607877755,-2.136341432614314,9.425976360450091,-34.41166228392482,-49.99804869781593,10.251273393697511,25.62690995037407,-20.357452472120492,34.674183866126775,5,S01
5420,-0.4798970153612877,-2.06908934269275,9.438010915226366,-34.72928791876924,-60.24118201090825,11.372973912266211,26.38545604826667,-18.65664250974978,35.26030293139529,5,S01
5440,-0.6665352999978891,-2.0697559562761754,9.362454445523202,-37.18442011555106,-54.59854652475333,13.670450286555312,23.032135744444417,-18.514225578634075,36.881694555331244,5,S01
5460,-0.5772047818399564,-1.9405670563496646,9.473805074535116,-41.06114037631407,-62.89192956252883,11.814896080328579,25.76318034119928,-19.340522899774335,35.32777733257982,5,S01
5480,-0.6688958587874808,-1.7693857559827397,9.51090922668025,-30.9469635191805,-47.002273081041665,14.836055889226179,24.72071705164837,-17.780973825237837,35.470175606100064,5,S01
5500,-0.4210354371245114,-1.6536154019110139,9.444404087764799,-28.452368048365027,-39.60580484592741,20.03784800681307,24.112367600743738,-17.00508775084046,36.72135412386115,5,S01
5520,-0.003427593258418654,-1.4822951124317467,9.713936282290792,-22.192405307314957,-32.99410103979997,17.497198993794,24.793355586100013,-18.639892771825252,36.77815891328915,5,S01
5540,-0.11403125231225006,-1.303542560163615,9.876317952677267,-12.69770039588228,-16.683019704911104,10.222175790209468,25.118961513966223,-16.213690360387616,39.32821132396265,5,S01
5560,0.2121538227992788,-1.0097193422926405,9.9027974190197,2.343024561709594,2.82831891670752,22.83151753398616,24.235775742574845,-16.865277524439687,38.46607481487621,5,S01
5580,0.3656691361306763,-0.9981129382242098,10.118071425542338,7.3578304447998475,17.82060360159256,9.835904946649281,25.81888337999999,-15.283928854373464,39.387890689858075,5,S01
5600,0.4899949316370983,-0.5301515586543306,10.34125769895517,18.910026959793317,33.34200732476507,12.498585003058356,25.946169733680755,-16.78954449063037,39.40219642974478,5,S01
5620,0.72914701109829,-0.40290159514773566,10.649732228078259,29.128816184574692,47.7342048357784,7.211315884353066,25.92326186042444,-14.48526478341325,43.91156064225966,5,S01
5640,0.6818629966040449,-0.2626178483451608,10.815565770479527,32.67977040552569,55.113811277365684,-0.5948260020276713,26.071803257962795,-16.411884219853885,43.24704544568053,5,S01
5660,0.928894801107021,0.07123462038341757,10.961622243525705,35.81518887547907,58.04577198257198,6.063885286743296,26.205422465577804,-13.398473139033353,39.73068874907575,5,S01
5680,0.7352714496936008,0.09773673507826405,11.202248104083651,32.317204389256396,55.72256340833217,1.723229405504231,26.694408089636074,-13.27125207863762,40.0155574118129,5,S01
5700,0.7031722236920028,0.0807029565047562,11.258099653813833,27.758728024216882,47.24223474340906,-2.6405152733687984,24.477662402847756,-14.620562938780552,40.7429757608671,5,S01
5720,0.6878046870321343,-0.05698281466418623,11.232617578837766,18.8775269466442,41.541673466650224,-6.571877997258253,23.815507376300772,-11.629944871645186,39.88090612400135,5,S01
5740,0.5354620389647827,0.16655389332845585,11.377856608167304,15.249689886782186,38.013334115068425,-10.87053801980004,25.221155936761157,-11.42690974926207,40.620451334127694,5,S01
5760,0.4497345735395485,-0.14152203317179243,11.35523798338374,10.103232874826006,20.75294847859043,-12.993211936283021,26.60881906981318,-13.497879107159799,39.06029625599038,5,S01
5780,0.3907339676195185,-0.21971862505150122,11.237233803837238,5.781926978952183,18.03809922759286,-20.26757887878067,27.20091388691741,-13.553936291295429,36.58066832451265,5,S01
5800,0.29833415462803214,-0.4966137538987473,11.296883665680655,-1.3476875296421555,14.71649860915063,-15.066630814949407,26.021738726848444,-12.034433004071026,37.865447423443015,5,S01
5820,0.13852528871833986,-0.650818383482155,10.992206273799358,2.7975555609275533,1.4723523318393126,-21.691738092254838,26.506836204646763,-11.12892349093802,37.58175453092292,5,S01
5840,0.4298222634892688,-0.7737383441699983,10.776863212164551,-2.9269147040564483,2.863491171765215,-20.360424522570245,26.885018776106936,-11.627811416770259,35.642361469284054,5,S01
5860,0.1259775939762312,-1.0240361403710265,10.727422080067022,-8.263644815434183,-3.3952255426914775,-14.184534513835406,26.97567383694637,-11.595715203638779,34.57384237934444,5,S01
5880,0.17926712242915316,-1.3056886063626238,10.553328769298796,-4.7603559944157885,-3.0642776071937576,-15.35438917225259,27.01460726505072,-12.185860687762236,33.06072832403541,5,S01
5900,-0.03728192727542273,-1.4552993724321266,10.231547507861706,4.0027544710841925,-5.937252994426028,-4.154721915980361,27.28637640287423,-11.839757085077514,33.760441692252485,5,S01
5920,-0.08112559352356519,-1.61307080400007,9.906591761221973,-4.763508106731088,-14.195403038525686,-4.203437523004826,29.119014629579105,-10.444281336000032,35.276327059942645,5,S01
5940,-0.2374516138901898,-1.8684748796608908,9.99957233446184,-12.820886674782425,-18.06546538881022,-13.638427727558827,27.55582102819052,-10.88640815772158,33.92591319880333,5,S01
5960,-0.31245571453860777,-1.9301665580273157,9.676706899550759,-10.716354572334096,-15.008814641915343,-5.101174585141417,29.757238097943183,-12.134294177751567,33.36816417164101,5,S01
5980,-0.3173278515718727,-2.0134791596202746,9.69382341676324,-23.592564434225235,-33.828594071276754,-0.03772549032912986,29.975252077344418,-14.591987000265705,33.7119062343519,5,S01
6000,-0.6117461574968625,-2.1634484007320434,9.590050472318223,-30.528901236637395,-42.41983690524269,5.169130644380763,28.29338138217741,-12.225088472151574,33.73537186899617,5,S01
6020,-0.4767296746749633,-1.9937510167961014,9.450958495512637,-32.19997810289239,-56.174880428958666,4.8082143099782595,27.356239619198593,-11.686233072877522,35.28194398402401,5,S01
6040,-0.6978954860089217,-2.1005740022009656,9.303345917002307,-38.45991132751676,-53.28842963019118,10.43653364094478,29.665159402588156,-11.495702887089681,33.6501690611494,5,S01
6060,-0.5841579418040194,-1.9827806944392268,9.516462315217359,-33.138852864794934,-64.19660437482801,15.60756977047917,30.02546627965024,-11.18765594977166,35.82077259283638,5,S01
6080,-0.5477264533256336,-1.9989500315713176,9.444168123458777,-46.698422660869056,-57.14251710242045,20.220248400006096,30.210564159011195,-13.033872001049428,37.56996269700167,5,S01
6100,-0.4359194227198352,-1.7515596870437682,9.634814593910102,-37.119916057051,-46.88550480908125,14.827684542805704,29.797518906003152,-11.708482900655419,36.5078111958707,5,S01
6120,-0.38382762293970696,-1.5417875735559121,9.744467406663349,-33.45283965974424,-41.25587116988091,13.684481005398633,29.802913511090704,-11.88931342552091,37.01547980845592,5,S01
6140,-0.06780984628222994,-1.2799819438911673,9.734282351043813,-18.345831482673788,-29.726239852039303,21.470559350351714,30.046013044001604,-10.751290823756484,38.17601111262073,5,S01
6160,-0.14723404277882757,-1.1848680082198235,9.795353258982743,-15.936993334233104,-13.539382281454035,15.382713814296768,29.91653515281121,-13.483479311516437,37.907386438243385,5,S01
6180,0.3125314087184914,-1.0464373317241125,9.903313831237094,-0.7433058091730871,0.7412840331315318,23.183625032066274,31.84750754130873,-11.512039702753817,38.82348054088504,5,S01
6200,0.2880085609451466,-0.7437942804836069,10.295549607694056,6.470778551975992,25.333522032449366,11.464695520388029,30.799219877714066,-12.55068570670951,40.1994517863752,5,S01
6220,0.44991734507860615,-0.5095123643713417,10.474236708922898,18.297258674235827,29.00339259157915,12.054053420027902,30.137981275038772,-11.755143141924133,40.24062754284376,5,S01
6240,0.6259527379723192,-0.2297442173333731,10.671155616229758,20.98841574413188,51.455061540961864,3.894330026478155,28.750143299504444,-13.140606747121966,40.74801214217241,5,S01
6260,0.831423842922172,-0.1365168659206035,10.886400061207828,33.63012480013356,46.955600656076754,3.4076682064654897,31.877672899704237,-13.332081138566345,40.835844623198916,5,S01
6280,0.7995492511968512,-0.07262746450391454,10.841007118948253,30.303073245530353,50.73363580941353,0.20496939880792953,32.08780994249905,-12.932212912114968,41.09645345626002,5,S01
6300,0.7711834853210686,0.05032104842455934,11.24378638466446,32.38015846420849,54.310859921052774,-4.033210324508113,32.53028488398092,-13.027230949431786,40.76817066916432,5,S01
6320,0.6406475592136861,0.05259616036928033,11.157187123293877,21.78607241429942,48.71316227626365,-6.743892910094218,31.932479858268216,-14.434755818055486,40.02630825239675,5,S01
6340,0.5915412105367779,-0.01920135478734185,11.12968679310284,23.422126808595028,40.10678725561351,-5.887826671812872,30.795060668414575,-14.133439013783459,40.69543191477986,5,S01
6360,0.31079937588697754,0.07064870725500008,11.249166301905376,16.472248301652108,34.403146584939044,-17.152832625722198,31.506197946625484,-14.247006607411034,38.52104659040308,5,S01
6380,0.5251350418843237,-0.2196891944011844,11.26888358581018,11.366003284577438,21.16655009210434,-13.172862414105492,32.49974080430929,-14.746072555433706,40.259178783573866,5,S01
6400,0.34965768765815314,-0.1815613418387497,11.2326819454472,1.9965257981896274,21.40417458605352,-15.079488874589783,33.342990191550804,-14.44709497515634,38.33764949650688,5,S01
6420,0.1772567720751752,-0.4294164151539609,11.072562355076064,-2.1140398468646273,6.6697229916762675,-13.406845507880133,31.70115900344341,-15.021720936074889,37.11832583861538,5,S01
6440,0.1810013333463607,-0.49641500837833297,10.914343782867881,0.7051388025342442,2.8616102116152193,-14.973083659294296,32.026088720162505,-15.971296066078041,36.5129345123719,5,S01
6460,0.01382723652392348,-0.8076885933206086,10.647420464533838,-1.9159171793871153,-0.22638976285740875,-21.036206742405493,32.84988412342827,-16.378906946172208,36.044078261839374,5,S01
6480,-0.06754982051373318,-1.082716368704621,10.784369674322258,-4.823544475213396,0.9058543726642323,-13.548315497413801,32.58216779551369,-18.356820117819247,35.88589302262163,5,S01
6500,0.12794376534069613,-1.4192717224412932,10.466597923433184,-1.2481066003830241,-3.994762354023324,-11.921360099481717,32.681405583067296,-17.232012089603536,34.73927316311381,5,S01
6520,-0.21945766320114105,-1.3203870542299885,10.114711392412747,-11.401718070738053,-9.554783429219722,-11.102384069668174,30.383431754334627,-18.129382576502174,32.14694581483983,5,S01
6540,-0.07517273722757847,-1.534799240344321,10.163315766142665,-8.785339017153312,-9.584373245362151,-3.2077865593782273,32.78660195569199,-18.969499039746964,32.7343486031963,5,S01
6560,-0.1500487570611935,-1.8254324021493495,9.913747639165498,-9.69984272311347,-16.01165823863092,-9.208221556840993,33.95926165601763,-18.614832987705253,33.491076618830164,5,S01
6580,-0.25513231206945475,-1.9833537531536334,9.658691731748789,-14.10128302228938,-28.64484315418728,-3.729968724756344,32.56697585300225,-18.282027893025273,32.986625543995316,5,S01
6600,-0.2108705103522334,-2.0299028898752796,9.665866670775921,-25.508367339895575,-35.90245191136325,3.6776032660973494,32.20434103606153,-19.361864068550247,32.32972229970544,5,S01
6620,-0.49807760618867314,-1.9792486491978298,9.418978681404356,-25.787290553647402,-43.80309125360296,12.348081895819094,30.495452615225776,-20.907188012297933,33.28396369578002,5,S01
6640,-0.7772683489190406,-2.1250724974987323,9.645367196589754,-30.36425197684968,-45.986501335932644,6.949057055762907,31.862432990405416,-21.666745553532582,35.05880334747908,5,S01
6660,-0.6148005700769568,-2.137465809352158,9.473897088383842,-35.30932641082219,-61.686071985616906,15.359199827055116,31.462677951230297,-20.879961921108347,33.662580934735786,5,S01
6680,-0.6845344606552882,-2.176031540655379,9.418991672028676,-37.30505714182033,-58.96553735037027,15.963609448276257,33.411267890369466,-19.632908125599876,36.229524394129356,5,S01
6700,-0.6286503018163417,-2.1467475970672782,9.361146056733363,-35.726894578059245,-60.2091281456865,19.583129980730085,32.4813383412763,-20.43988560077375,36.123201998665216,5,S01
6720,-0.3391017153935669,-1.7547664705094166,9.578047628334271,-38.072228463503485,-54.582779850119785,11.476539941544019,31.58165415946953,-21.108582756530573,37.69214401502859,5,S01
6740,-0.36888105932473847,-1.6241471838094559,9.542896171052714,-30.34712687903764,-46.224899093046595,26.69988098670874,31.662998936797663,-21.43408116600475,38.04691575619915,5,S01
6760,-0.15133981540521665,-1.3743620962463072,9.784850438162621,-21.446945297290423,-28.234783630843115,23.382601543008327,32.77688103871277,-23.61796421906903,36.94606091159361,5,S01
6780,-0.06857740914156604,-1.1080761109881399,9.738596110228256,-15.439428270008811,-10.560516243769897,14.479444837622488,32.0423182946996,-20.33485714006419,38.8732152330039,5,S01
6800,0.2115474333540469,-0.9293594489080959,9.98176663118957,-1.818912424102856,8.373170482868588,15.02192213994538,31.407054431425973,-23.432062893334248,38.82125260250075,5,S01
6820,0.4740937522726597,-0.7795067731827181,10.296040912817316,13.490740452799386,30.17296197632381,9.817114385591351,31.616060903965394,-23.43924541384389,40.73063106982167,5,S01
6840,0.3836097572327407,-0.3576801270264603,10.516961653208234,21.42896507197916,35.06904609043412,7.494723119931422,30.719705986727423,-23.992090840745455,39.464562149896864,5,S01
6860,0.554974168312673,-0.312149454297776,10.644097935778497,27.056292178445826,50.436794753158544,4.974178586833579,31.00291026700144,-21.947612963616585,41.190876694368995,5,S01
6880,0.870723491706453,-0.4251780529306565,10.75023424693098,28.948339394550455,53.18969250310952,5.773399774922586,31.728320575677454,-23.376917020220944,42.86135968329637,5,S01
6900,0.7348512770895942,-0.018159715161392136,11.16157376292088,28.373386490772265,54.96740841498959,-2.3770346036431778,30.06482654087831,-22.063241338797432,41.745150480829885,5,S01
6920,0.78977465946215,0.03508377516861752,11.13248885087019,31.769572927602507,51.51331101458971,-7.893451082206026,30.193622565852476,-24.511200494428156,40.80188116768404,5,S01
6940,0.8284081030407444,-0.051971069577320006,11.496487652145788,30.319616793191155,50.81047156715381,-7.307961998003543,29.855362541450777,-25.02005239090755,41.298934986316226,5,S01
6960,0.6863408389980159,0.11967759168336098,11.262368139696445,22.192329005299595,41.8163086436121,-9.34469627224911,28.81099323106078,-20.673522616662687,40.57431053656165,5,S01
6980,0.4391740164218758,0.1498094214754889,11.400094024239502,11.746682585051651,32.2058517910261,-11.944296244622794,28.699601280385355,-23.371205798874147,39.94802524626574,5,S01
7000,0.5100672053409037,-0.05358687107816551,11.162838238851128,12.80176118048799,20.586207587530915,-14.093636572516427,29.48592988368464,-22.569233176307034,37.47385703735278,5,S01
7020,0.3150078516782782,-0.22503522261362405,11.171763488563686,7.091579634055628,9.997332884735666,-20.775817935515402,28.259688457980268,-25.077109542651094,37.95988837006935,5,S01
7040,0.24663005460126425,-0.3694661668968531,11.11224420066121,4.3922295656743975,10.249853405929382,-12.86411160505572,28.835380905785083,-23.364873417340288,37.23744220389575,5,S01
7060,0.15900512762223462,-0.5714062393815322,11.045417950499427,-3.8176750456544997,2.864811363514524,-21.590807610318947,27.446104443518532,-23.06795569378514,36.15283080602506,5,S01
7080,0.023124632962901973,-0.7665378987910698,10.847064005955527,-1.3018432333814443,2.506984462328126,-18.719976685249897,26.477103436104354,-22.746344055016024,36.75535450451485,5,S01
7100,0.18303565664983043,-1.0526701717679783,10.469589827733206,-1.0804858016213408,-3.045799135793401,-17.37192583472904,28.704297460382996,-24.48950168470646,35.44033751167912,5,S01
7120,0.017503442929580393,-1.2774517528509024,10.366645326729433,-0.18541900407954692,-4.094219462429717,-10.889873281444357,27.53003722597733,-25.470981593605917,35.10495304494474,5,S01
7140,0.0051675841050096705,-1.5227253166015995,10.404032001573068,-8.53511929366314,-13.248050404326593,-9.33712613162899,27.39174881993401,-23.420263096432034,34.51557174711405,5,S01
7160,-0.2590699497837461,-1.6019650964824377,10.259650488865512,-4.714255104263799,-16.024130485133995,-13.489391308073708,27.09542256247864,-24.38455401533444,33.72571768383389,5,S01
7180,-0.043031668734284545,-1.630851090493865,9.79669324099357,-15.826766026812528,-22.720224153703562,-4.743934627766908,25.953136782102337,-21.663784924228153,33.47315914849452,5,S01
7200,-0.23380688798827495,-1.9203920808746315,9.7570039873471,-14.667380430336852,-33.159389172649874,-1.536967252221514,26.799001445601274,-21.474204434895768,31.1626508564212,5,S01
7220,-0.3322458721521787,-2.2016392721551723,9.620290168047976,-19.15729053350445,-34.949944593060714,8.44231623840635,25.826459959895686,-24.189032872678872,32.48925888053303,5,S01
7240,-0.25874815154529174,-2.0512302931331696,9.434994575986655,-26.604749792312777,-44.2205618801925,6.746747587696838,27.1194290103245,-23.9796264024026,32.757258837166546,5,S01
7260,-0.5028382226306412,-2.1654429255519867,9.394399734667513,-32.277895544214964,-45.606268707577414,10.047663436485369,27.01213374831338,-21.977982498040312,36.15601231103869,5,S01
7280,-0.6968917679256537,-2.1595069293098077,9.392033892787234,-34.56947256997001,-53.43495147648265,19.64436164808273,25.707337965637116,-22.60492100430175,35.23889922721572,5,S01
7300,-0.5681526827988512,-2.0971405539850645,9.368122450959806,-41.30478454176359,-60.13827530811559,14.533792334956935,26.4257922066045,-21.878226895558896,34.661652777630295,5,S01
7320,-0.48372529395691966,-1.814372686971365,9.440320501586116,-38.47545413861942,-56.10070268841987,22.123302253646987,25.301401143570523,-22.341829483616937,35.782191845291855,5,S01
7340,-0.383513541187967,-1.7694907817104246,9.729170252233384,-38.32387570100499,-47.722989310075086,18.95621164556328,26.3560691940157,-20.00727719670796,36.60658146428971,5,S01
7360,-0.12751045013659834,-1.539297952416007,9.678174962048535,-25.356493207509015,-35.39449086497878,20.12152321407092,28.1155597086397,-22.607468090562477,35.894973580794215,5,S01
7380,-0.12361052215014928,-1.4098985602124385,9.76545233060469,-14.429536165455804,-23.150527194131246,18.913264191581806,25.788133311784694,-20.98412085577417,38.617610664885454,5,S01
7400,-0.04160425398616199,-1.198040392630526,9.935697672598339,-5.59732917059007,-1.7807285314257812,17.795464576168506,25.96439875775485,-19.78301595154522,39.202695896885395,5,S01
7420,0.4108574391315092,-0.8626484326493424,10.070266975847527,4.706917059830174,12.081022165813383,12.462454062385158,24.62040093467766,-18.889655106321932,40.72238296606207,5,S01
7440,0.38236827242968274,-0.7406707248193318,10.397681176122667,11.958038631225392,27.31034324638279,14.219848659684617,26.64015913958078,-18.275056893518656,40.14414520412377,5,S01
7460,0.5222355296355216,-0.3021067965892077,10.42254040650872,21.67343131129079,42.28093020863217,7.983155221641886,24.260575567201577,-17.570089693481357,40.73930867228837,5,S01
7480,0.6039217915200813,-0.22919366898164123,10.736820189642097,29.36317923419593,47.73584009908733,8.043896997640315,26.425208758981253,-18.945922015286104,40.36513332967231,5,S01
7500,0.743743624303477,-0.11054408590753342,11.11590596552335,26.142768621463198,60.51986262451596,-2.9643546853142744,25.95122830104428,-18.496423192004766,41.04504161651884,5,S01
7520,0.9656837819746148,-0.10734014945172111,11.04037521869787,33.001858947906996,61.07656432606599,1.3466207533672954,24.607814495837175,-17.541677087706802,41.43887075203976,5,S01
7540,0.7965429742085814,0.15425465073138034,11.278108543536963,28.208433824262148,54.23885109092873,-2.091893508823865,24.906380403301135,-17.58854319864414,40.286947012185394,5,S01
7560,0.6575754767008849,0.029730702907373563,11.308990707568613,21.641648120631903,45.002027039046894,-9.187616484536262,25.12374568350047,-16.575013644372874,39.39735188071358,5,S01
7580,0.7449240399240952,0.21475292188793038,11.318983736389796,20.41190940702561,38.219963315314125,-13.773232200160725,26.09997646914364,-18.829885295346983,41.10872186407518,5,S01
7600,0.48857021550548485,0.002169446559588728,11.277038466556053,12.343102048694067,27.538954374850558,-11.753559462012545,25.00488159084817,-18.425764127579974,40.983592001399465,5,S01
7620,0.49057748698093506,-0.2318470824645935,11.33473251014613,8.735357041222734,24.502550540456816,-17.48978263571426,25.66542270008578,-15.9503306241312,39.862975231859046,5,S01
7640,0.5421090551719666,-0.27302438992887296,11.314590525015669,6.150239036627881,16.81581811273223,-15.681488269391545,25.939345511577503,-17.5270777704637,40.18160606399983,5,S01
7660,0.4164721495275554,-0.4505843693153474,11.011061682681634,-4.453140973949027,4.897490410975081,-15.945851133043805,25.854086334818376,-15.289721032637198,36.57708805026995,5,S01
7680,0.1724524048758882,-0.6723584754956871,10.93321089006324,-0.8990157222367503,4.462943808216615,-20.225362799363417,25.29715126049406,-12.675934649387797,35.09754076439289,5,S01
7700,0.09055621259619843,-0.8366472019692781,10.734657735181,-1.7855887036991898,-3.5612600199763564,-17.421862231948612,24.79345001653669,-13.672304820375832,36.93536322461995,5,S01
7720,0.16413024250075894,-1.11985115826517,10.621113612081757,-6.8990006322846495,2.607605351407315,-12.954676175352477,25.797907580449685,-13.1296336033035,35.79348445746595,5,S01
7740,-0.014510920002879749,-1.404401595647679,10.324933767237878,-3.299429156857251,-10.792895673103164,-11.907954651817215,26.111119214203224,-14.583149646471206,33.6455208314093,5,S01
7760,0.09506159435407968,-1.5816636065099685,10.06531725564842,-10.917333765701592,-6.175855615343996,-10.55138009883539,26.57673737816445,-13.293042095511884,34.62734535905075,5,S01
7780,-0.07726774455055671,-1.6663831204119384,9.963004065133678,-5.983321584004849,-17.881734437677334,1.7260639663298893,24.99458940461662,-13.481350836969213,33.521403508260924,5,S01
7800,-0.052166347362071985,-1.8853605969845588,9.732289348401006,-13.140687917452567,-17.30382247755179,-3.7249709599972056,25.74165548008197,-13.235781629348331,33.33281366819703,5,S01
7820,-0.31270348147118265,-1.9768593284815363,9.622815843460309,-17.662880314687055,-26.90016581559978,-0.8844007221076459,27.583598645825482,-13.673153817353988,33.83892384929841,5,S01
7840,-0.3552828520923066,-2.148043835144399,9.653320345119873,-26.61783256079823,-34.57995160971394,-0.10447303926542573,25.321307785553202,-12.355615224178647,34.370616489430525,5,S01
7860,-0.594447878142736,-2.127703633641404,9.485197024886448,-31.368941269303605,-43.023766299915295,1.1353218184641007,25.713400972915238,-11.673187990275101,33.32586332489919,5,S01
7880,-0.4685161804161797,-2.0681563538733414,9.490674007083026,-34.22943238894896,-54.806881961836545,17.472347991111093,26.438739656999,-13.330644339554885,34.630986920357614,5,S01
7900,-0.6132397240704515,-2.024076984594767,9.381523356326737,-39.22160858087307,-51.31016066994596,9.57492363400002,27.71849185175769,-9.813827532552102,33.827250685995246,5,S01
7920,-0.5415657104761814,-1.9142280497944786,9.274716265393593,-35.41850085396045,-62.33604248804677,17.595003506042925,27.485075166960556,-11.241062041601689,35.494795820002764,5,S01
7940,-0.4054647373669713,-2.0075317282858522,9.434218448801799,-31.07162388713476,-60.87275431911965,18.491555991793206,26.968920261835567,-10.88730621755506,34.78220507218168,5,S01
7960,-0.43429934400822323,-1.5539460945626458,9.528842784595609,-33.74780865615277,-43.37587522870075,18.58755320019479,28.23983659758647,-11.880400762057649,36.56225662997093,5,S01
7980,-0.4742182930542168,-1.49671750123088,9.698018572050842,-28.259425454742672,-34.508500396163036,16.271678436055844,27.419559194613427,-11.616284110971417,39.17790537555195,5,S01
8000,-0.18408290776954142,-1.36489979762456,9.713846259101173,-13.15075431005165,-16.47573879855437,16.730218977054026,28.71359283102958,-10.47640092431486,36.585143500198015,5,S01
8020,-0.07048544848115648,-1.1936370641643472,10.03785294077815,-1.75945263175028,-4.269587508540233,18.5540987852132,29.001485083046102,-11.000811599619785,40.56747715437396,5,S01
8040,0.2287766185368492,-0.8557874384742581,10.163517600354776,-1.1330237860624095,9.79015175913248,15.079996044400508,27.11837329956448,-11.641118199535267,40.79882547561537,5,S01
8060,0.4989238106546977,-0.6934624335921231,10.183909522754917,11.17916732575409,26.34437706749682,15.423435757408692,31.83776207964627,-11.00024663609339,40.29155475976117,5,S01
8080,0.5780056055373947,-0.4798393026624132,10.373862387491688,21.20867198202586,46.22474614040398,13.050896926099437,30.351042425134942,-10.372701508733197,42.04066886562757,5,S01
8100,0.873026126388904,-0.4246087418214019,10.714441161123425,25.19463727867957,52.25048814981097,3.951240002912556,28.592064534259592,-11.392347142771152,41.21474056460163,5,S01
8120,0.7046416073168013,-0.01092604477417844,10.674059614411892,34.211254923730095,51.900974659739795,-1.0538805009871197,28.285814428554808,-10.510139379063391,40.726227484608025,5,S01
8140,0.7651662468565705,0.09782133459540227,11.095736001729124,32.829466039562746,56.99368225318297,4.67433459181979,31.841410635475093,-9.593830170270333,40.754367808996584,5,S01
8160,0.8339320244021203,0.2265268069984543,11.140400918113952,26.593408246207673,54.07455613307525,-1.4025904996387637,30.523297292606518,-10.594385470044369,42.01732348162121,5,S01
8180,0.7655958942959494,0.05666260280431559,11.36066639608109,20.19972640413894,42.62355198163165,-6.697588222896806,31.951046119547485,-11.815640768181172,41.37478618617362,5,S01
8200,0.8116447041215589,0.015016402025168782,11.30448821001126,19.42555534241512,39.6658184742257,-8.28492820297587,29.750083179567465,-11.213519241283404,40.59038777974779,5,S01
8220,0.4073092931616098,-0.14134685670381764,11.327023956904284,7.4376415903877335,29.36929371184479,-15.971583535813208,29.33257034869203,-12.612616437577667,39.95949903151255,5,S01
8240,0.38088169504180525,-0.09996926016758864,11.153644727612086,14.114344043361083,12.038032560113717,-14.543440348328742,30.872000629896284,-12.47994206457538,39.19546641627996,5,S01
8260,0.28577566774442703,-0.299509090174347,11.17036928736705,7.900491185610103,12.060370579859773,-21.49431337054312,30.383357063843167,-11.965617974418059,38.85516944058168,5,S01
8280,0.2895079984502462,-0.49702414975901715,11.01393313554515,2.605140230155725,9.769127268491834,-18.91596370915285,30.603214209603475,-11.976882062445563,38.32205111898329,5,S01
8300,0.18103231015341187,-0.5859987510380034,10.843948318786603,6.7909393059196335,7.201540374682538,-14.185874545310256,31.161251424423885,-15.534176041734604,35.993368874906864,5,S01
8320,0.13882769774777448,-0.7517662598870911,10.771642682652708,0.8681049236175253,0.34911916624045713,-17.308009820114204,31.88746232082632,-13.553305820954332,35.184373354507876,5,S01
8340,0.0715481564258136,-1.2248063787435717,10.466507773980267,-1.6521557144036505,-6.684797351221541,-13.197570384333613,31.752213003421495,-14.372589939279816,35.57968731878796,5,S01
8360,0.0022911545309000497,-1.3467515822039722,10.500541399326604,-8.194800949175606,-0.8946037916781668,-12.236259837599695,32.413339763702815,-15.20852335912765,36.51352864499597,5,S01
8380,-0.004771295691590724,-1.4981917227674402,10.02829630074476,-9.156677477211549,-8.848983770581441,-7.666752540746222,33.21454319322762,-12.724832707357102,31.79078662494977,5,S01
8400,-0.22855205185494806,-1.398592587630382,9.958128449485057,-6.812859571947394,-16.005708188384776,-10.603232992152591,32.69616561603486,-15.46545923822287,32.64074295259472,5,S01
8420,-0.11131992273980665,-1.8561531959743227,9.879919427229055,-15.813821581340662,-21.195165509555878,-4.505262625486708,31.81335857341589,-14.557678796343112,33.6398476293085,5,S01
8440,-0.27109737126131805,-2.062948832604289,9.664490249976634,-23.208731222605167,-33.42084799144857,6.288148291072746,32.43455685447377,-15.401776745639822,33.61122043436856,5,S01
8460,-0.3100833031194622,-2.0348167027064004,9.53040357816308,-22.11151486354058,-38.08762818915983,1.0467138755057452,30.903965169511768,-13.497346094485668,34.35951497405066,5,S01
8480,-0.5453287711551519,-2.2390984288076137,9.35731442135081,-34.87925968538407,-48.764364038931845,5.212763226185624,33.07321310776721,-15.491260237848161,33.63166613724001,5,S01
8500,-0.7074102777617739,-2.042395719228604,9.347003463295788,-36.45220454691385,-51.74793714440035,8.229071184192774,32.70375093198182,-15.77064304780946,34.022506315871894,5,S01
8520,-0.49223514179610794,-1.9237713035443014,9.258921210879553,-36.05575893222478,-55.649451392746656,13.294241283590235,30.87335312483089,-16.47346424460325,34.018270770036075,5,S01
8540,-0.5472757104976791,-2.052696022111324,9.378493346567176,-37.0328235522687,-60.66949641952192,18.42642101755727,32.24418990759696,-18.20566343542086,34.567638599863415,5,S01
8560,-0.516968946670678,-1.9458669318820403,9.42077734330993,-37.556804636281456,-53.512396614637346,20.38931373199101,31.356010748240546,-16.876766524588266,36.04383300153708,5,S01
8580,-0.4028769417102789,-1.7098554958116943,9.549953240117102,-28.274938877712383,-49.57597634556777,22.445134014625737,32.51319756829211,-16.703531594767057,37.4090263121204,5,S01
8600,-0.3510934340199504,-1.5639731748641053,9.568884751044724,-19.384843586039754,-30.04583091220406,13.476460379061065,33.58390484332604,-17.86209857265562,39.10550601024461,5,S01
8620,-0.3458538323630297,-1.3024024819845248,9.959874025874825,-21.02789324506089,-16.462071693733993,24.88363990305107,32.02124398235348,-18.86043088217839,37.53781854427144,5,S01
8640,0.225763481725957,-1.1005475195251082,9.82577200523528,-7.914970278785324,0.18215158449981073,16.262002220095738,32.40797261082723,-18.338256139047715,38.863652373876945,5,S01
8660,0.259218603719631,-0.8288264038538802,10.079340530046682,0.34668065720593955,7.2472731103679395,12.44978571606365,32.215694226563954,-20.569078376753794,38.84388303109502,5,S01
8680,0.5178077737030011,-0.7090748374667126,10.292775579876931,11.277849999799944,29.478414421046388,13.122202372518954,32.72865250775347,-19.992814608002682,40.6045835763346,5,S01
8700,0.586929354392948,-0.3659802096824855,10.381100258241261,22.017789067791504,42.95132509962465,9.102318187568502,32.707235112461035,-19.079502348195852,41.79242542984812,5,S01
8720,0.8802488433776734,-0.41145457373198824,10.777883717011514,23.389023278997954,51.312267697047446,6.039324268697047,32.284905078816365,-19.52731059215936,40.48459948616563,5,S01
8740,0.714531007772189,-0.06936986100766318,11.020042030797006,30.93748670985614,54.411681668541604,2.8695240166189566,31.746548154698445,-20.019592836330933,40.36070291057361,5,S01
8760,0.5854533749171689,0.12593334253162175,11.136504316761634,29.48772916114501,61.542062723860276,1.7798456474067241,31.419835128097002,-21.363807235835658,39.961463811926414,5,S01
8780,0.9188693182688404,0.0513308938988665,11.25130259886557,24.907701184352824,48.91416693236188,-7.9862941510041985,32.0741001094556,-20.972029018863232,40.994601276452094,5,S01
8800,0.6582578301881119,-0.16716579653474162,11.350915522883803,20.559027441487785,46.286321173755326,-9.138674426082826,30.904751144807857,-21.453268871005218,40.68155753760925,5,S01
8820,0.25969310858867234,0.023610324745145655,11.432785702373112,17.42052886685517,37.60389797863885,-14.2486745468834,32.501325097422495,-21.278632658078195,39.26913942961454,5,S01
8840,0.6100345294902761,-0.003933960768891062,11.389815306800175,10.933250875927179,29.45112167774457,-13.910041496258915,32.34319915155188,-22.24930533573459,39.006617760563515,5,S01
8860,0.4127472885350332,-0.2185306393762945,11.24371248592915,-0.8427998317327683,21.23458939354557,-13.030001075902385,33.619101178031045,-23.284728291047525,37.63752271934097,5,S01
8880,0.5249218942563819,-0.49733819609399615,11.151382153418435,1.3910813966137914,13.69929905491714,-18.253453229859204,32.33775935752075,-23.803443720405983,36.53807986275811,5,S01
8900,0.15851418820597538,-0.3140394837423379,11.161838696274335,-3.543448198761577,13.54915151579366,-14.627083789278005,31.192306276447287,-23.34120502624193,35.73361391619223,5,S01
8920,0.024569375448625322,-0.8774820766580198,10.895753221173868,-4.357656492714405,-1.2331632539134956,-9.944990269572681,31.614399008381405,-22.645748710879197,37.446656152374956,5,S01
8940,0.038798887763534746,-0.9975330819191643,10.83237693140684,-4.237272834895144,0.4025328183438166,-18.91598669561688,31.26721151039581,-23.684364017019362,36.60657710975143,5,S01
8960,0.10029911500196902,-1.344399874372269,10.537966319137427,-10.991874334358506,-1.7900256580776697,-11.039625776244533,32.30145530627514,-23.985527413150606,37.84597238340967,5,S01
8980,-0.0226991590303149,-1.4762576830113474,10.48251193476094,-1.147060481620212,3.6389712526191405,-11.893402660621438,30.71492361277716,-24.599885607147392,34.36388725026649,5,S01
9000,-0.1304329681028264,-1.5178861452228603,10.045618585915793,-6.458612739348484,-8.183961783216835,-12.054557239984176,28.185477656829466,-24.02048159077361,34.32846929164786,5,S01
9020,-0.11053096171374141,-1.7594992556789137,10.063843868782156,-13.77434284250159,-11.582150636830182,-0.7511756174012693,29.909708618184606,-23.38798708614112,33.19205385333234,5,S01
9040,-0.22049864695124813,-2.0780856814038335,9.845218047032493,-11.806441752969832,-21.616961102376013,0.812562311160366,30.211843747731795,-24.516941129450895,33.22044233111953,5,S01
9060,-0.29932462556798733,-1.8431007888486612,9.72643203491584,-14.832817162178195,-26.665187930322116,1.0143224765101067,29.910462358981942,-23.103209790363746,33.85271254576992,5,S01
9080,-0.44816201528898814,-1.9562740461801893,9.635035012980838,-24.23338732095129,-42.955662517517865,-1.8048285902542136,28.677565849585882,-23.10884147059845,32.73497933033866,5,S01
9100,-0.5013952946811526,-2.1895151251169094,9.325904857094233,-36.84739149646153,-51.163987759057186,9.481535104828145,29.80100608235743,-25.600363580066382,33.03313251519744,5,S01
9120,-0.4061795512514015,-2.1266464877538764,9.284467777188636,-37.72768383337019,-59.642518355574296,13.99730993776127,28.40068417544725,-24.160611088860364,34.50815344961236,5,S01
9140,-0.5150268731092469,-2.197455619125834,9.33843603837208,-45.63139700112333,-63.86768145144358,13.470060647129321,27.76397198864734,-23.212101044654958,34.89675281715215,5,S01
9160,-0.7741762216193637,-2.114082553216936,9.448577935452958,-33.53559995569907,-58.12152017338222,12.629194722404545,28.695972350126798,-21.31520932662977,33.044725038077004,5,S01
9180,-0.6880722406947524,-1.8980277926410065,9.41961533578374,-34.35982786826736,-57.66792294967353,15.215366415349337,29.8153195541494,-22.83426571565207,35.532361970123844,5,S01
9200,-0.4910141323656806,-1.5833504383930312,9.64243591956526,-35.757812489473466,-43.32885399034063,15.785041966078603,28.15487577309003,-22.959120890401998,37.21276116230877,5,S01
9220,-0.4295413468795459,-1.3136785162801898,9.662714296019528,-19.390266047319006,-33.63840727229085,14.018763960463856,27.824296125398906,-22.982168578128185,38.72735364271474,5,S01
9240,-0.07693011316053505,-1.1866711012201205,9.756003320774804,-18.60699094195615,-17.5015081898373,20.08549142150444,27.384873399437843,-22.606391754000303,39.46798923455828,5,S01
9260,0.2731794719714723,-1.1142243739466577,10.036945670682918,-0.23425682022438377,1.3369515165705554,18.93042645563501,27.90477742472935,-23.944535305600354,38.75864126361929,5,S01
9280,0.2615505808297454,-0.7947293775506534,10.265427191510742,8.105235778217562,17.826425512813213,14.180670679384606,27.57153037088565,-23.6222205085974,38.901485642976546,5,S01
9300,0.45762682343692396,-0.6623270798822338,10.651624937703259,16.560140452047797,28.249297548754946,11.296855635770978,26.337783331792085,-21.427453148932535,41.54430897356675,5,S01
9320,0.5782766245076822,-0.640855514071444,10.599982259059736,23.254908469173873,44.507661989762205,10.227146123110284,25.79825090304506,-20.984318714472693,42.48972274205402,5,S01
9340,0.7596212388610863,-0.369319507589469,10.86250746409381,25.394917198160087,50.416329247461604,6.398082287257114,27.66653568233669,-23.00464199649153,41.1053979712267,5,S01
9360,0.6686456874259893,0.00630019400112776,11.157074704509949,28.669357968368377,58.33014769153707,-1.8902646585557537,26.528255493077882,-21.51499207210113,41.783571136059976,5,S01
9380,0.8163586514425073,0.013649493157510517,11.33620485478033,27.7700335506388,56.61687617132237,-4.849774206333157,25.751566351665485,-20.886130302647345,40.56919501190315,5,S01
9400,0.8738406361275711,-0.07144047674209737,11.293552219818618,36.19028957993217,60.13338860824788,-3.4178768704141436,26.108057164636755,-23.211947633050922,40.038277422247994,5,S01
9420,0.8776425417187235,0.09840818939130644,11.15306335117377,22.412343238654643,43.549088146200496,-10.67381705487717,25.78744382030748,-19.245279181584102,39.72850526550104,5,S01
9440,0.6101504218074308,-0.02837249933269627,11.244128837789408,15.639717703907014,30.16167766145642,-9.30678780198956,25.618802815398723,-18.650748597866205,39.43378838941119,5,S01
9460,0.35555482453225473,-0.18460420504195701,11.296305722463453,13.249373437216821,30.66730836304959,-13.348891517705782,27.783304691184053,-20.819558406860626,39.27932112931789,5,S01
9480,0.3377984426548466,-0.06735827616538467,11.182581816832386,6.055764766839656,18.989336750324323,-19.078671747710466,24.349570878160286,-19.90049466769365,38.937307521075525,5,S01
9500,0.19450611058451112,-0.2316036870353032,11.204727842968385,-0.6070265394385994,9.283117949286563,-16.732954682318702,26.587424899536064,-18.315383844078703,38.255800879399466,5,S01
9520,0.21177871698270895,-0.3228778652629465,11.072397942090266,-1.0079039621221058,3.619269381408449,-18.449664322690833,24.760355228327057,-21.31320026025574,38.108026144053255,5,S01
9540,0.2501483862236784,-0.7193038186091929,10.65649699047446,-1.5413969892830526,7.043627146225302,-12.1690760291759,24.392303983659417,-19.247350081148277,38.093119808449366,5,S01
9560,0.005387347391928088,-1.1711817561216353,10.821772800348823,-4.449499664471253,0.051966544496504286,-15.859273141031656,25.229480768542235,-16.398828942951237,35.490585824503604,5,S01
9580,0.17027938347827604,-1.2018468366958026,10.639866786960877,-4.8731895111521695,-2.402216251072094,-10.132959309980862,26.30886739541162,-18.74918176608007,37.271153302477686,5,S01
9600,-0.05143741098577623,-1.231099221383323,10.525222342068771,0.4137464869913501,-11.564658755522963,-8.545296779303662,25.506418727292235,-17.6020930991503,32.95213097602267,5,S01
9620,-0.1921435274624245,-1.484464742604861,10.287234596948753,-0.46353509349425703,-12.956826380557594,-5.479850172511285,25.32789333510906,-17.16550466687808,34.43089732308549,5,S01
9640,-0.06582017012443517,-1.6637144131956931,9.95284099810971,-6.505850206993594,-14.15412272579489,0.4520530965878006,25.684005134451887,-17.213592450492257,34.24676220570912,5,S01
9660,-0.3483707583427802,-1.9355744102274393,9.93701969001196,-18.390578730955625,-22.406072414161336,-5.1400703614364485,26.53733672132599,-14.893332102893034,35.31246436800534,5,S01
9680,-0.280308063857044,-2.1695618071119647,9.801776367117522,-15.805881785879087,-31.29332590072253,3.5181022825884134,24.634565504450457,-16.20063448494423,33.12430918991875,5,S01
9700,-0.31624979441482426,-2.08569141072668,9.318200773208195,-25.892589769476544,-34.50127146941819,7.591576714099531,23.122806537203587,-15.40211083883583,33.53187499022734,5,S01
9720,-0.47577951671043395,-2.1064636584217955,9.582066718546418,-33.063296573609435,-41.23910523554212,11.783513271590921,25.681528223304245,-15.723267577413418,34.07146051447883,5,S01
9740,-0.5307739065170373,-2.1936332806661687,9.356210732408664,-37.250894094709615,-51.55171464970083,11.486978933855543,26.51231989346598,-16.497083295616555,34.5900634668166,5,S01
9760,-0.8205747020645306,-2.0689335409503524,9.309619732792536,-31.974338325714864,-55.9394570572137,19.16324174816417,24.14394516687902,-13.48328928232133,34.31947070877132,5,S01
9780,-0.5355664463332559,-2.026738540507811,9.447840244165212,-38.997417775593135,-62.73709104302209,9.97493074253281,25.999823013902457,-13.382702658385025,36.119765244032614,5,S01
9800,-0.4873594280711466,-1.8418346728528434,9.381632684354987,-36.16047574051268,-56.13905561604933,19.967746346529015,26.305915718052855,-14.264383554756591,36.21054809303237,5,S01
9820,-0.40502622068792726,-1.665247263438892,9.700862383941008,-34.00139088420769,-44.81993518344041,23.86367539033148,28.006856569844686,-12.700269581400532,35.64641942361587,5,S01
9840,-0.08391029786747611,-1.471102357861554,9.635264850249825,-24.249787929328157,-32.647271934412174,19.567878136551087,25.762481846849276,-11.800978704014211,38.91810000069281,5,S01
9860,-0.030236072506601125,-1.0858030543731105,9.909439288576833,-10.970398235560285,-11.692164631125525,18.143578745461593,25.482492987220276,-14.306220573478118,38.87304784134247,5,S01
9880,0.1778729804986695,-0.9814946912248099,10.070277572896673,-4.2714993787606375,6.179594233936048,14.499869551386643,26.12471623042131,-13.029986219203375,39.0506655612354,5,S01
9900,0.3405937011730026,-0.9282343343838222,10.330622787185247,13.156511798271481,18.989886560388285,9.78852629042641,26.40561825852253,-12.260710339522326,40.136214735264716,5,S01
9920,0.5461799402290892,-0.7027222132096773,10.380040749946211,18.62834270553836,33.60990060214694,13.994957532617919,26.99093828105789,-13.605161109523916,39.18626814376137,5,S01
9940,0.5736304622883428,-0.5122133758599039,10.593141237040514,20.01921305452522,45.57048556002574,5.695811679274049,26.000739095152888,-13.489699310171755,40.84076408801008,5,S01
9960,0.608910197432804,-0.1596573569946343,10.745868338471302,26.162442911372064,54.58179351848363,4.952794517928019,26.3114482450038,-12.110545049301525,40.695145029992005,5,S01
9980,0.8057144229293408,-0.19565220693496604,11.07140662020964,27.563052777411475,58.410037641912666,-0.9235312026938419,26.128592301073226,-12.544471063252043,41.20673474759625,5,S01
10000,0.7535876654295319,-0.119442872159925,11.086188076023337,28.718305774269414,54.71222356884848,-6.558180204064557,27.61781481646471,-11.051839791171517,40.48902943067661,5,S01
10020,0.7123525925079617,-0.05917271010002351,11.346192935992189,25.33348589331941,51.16880549737859,-10.914095902123886,26.682700213869524,-12.643773011883724,40.154419096210574,5,S01
10040,0.5855193708065333,0.1369850157058662,11.330969337810869,14.668946600274225,45.3249351633148,-10.434496097538258,28.27860012922715,-13.52193613988194,41.16962616152251,5,S01
10060,0.44674383051309663,0.11565200383811924,11.309775916549832,15.944753332938312,37.90911579046685,-12.268646532945766,27.103518358474712,-10.387319102450835,38.939695347163195,5,S01
10080,0.30861057213363585,-0.04851908390199128,11.406946736558444,11.299830653756395,24.572527167291053,-13.501795408379632,29.0936317320005,-10.380077049443985,39.355116481108674,5,S01
10100,0.38802127541072884,-0.5178393739109024,11.228955287596955,4.234297405298869,19.430128932714517,-12.079942293608378,27.677629959504788,-10.63556409643213,40.66647033303772,5,S01
10120,0.3435382715276011,-0.3393100768444908,11.193793389971264,0.9471665736553936,8.368278533965187,-15.086008302663338,31.105153481273216,-10.058249535155014,37.36517490944971,5,S01
10140,0.2726662305739893,-0.5884368900956725,11.131353278899864,-0.049860335537516676,-0.3109549137349805,-13.296731723480624,29.251754377387055,-10.574401782155125,38.52131368017015,5,S01
10160,0.08431148826882867,-0.828912359046595,11.052751477893208,-6.991801551769392,6.660162434406415,-14.218733797418704,28.770458659790602,-10.326363075142993,35.33469258384608,5,S01
10180,0.079020752535294,-0.899696809112049,10.507295397919236,-7.90838410085468,1.6204100534150754,-17.052259380192254,29.252524478469656,-11.016818233790808,36.16251934949036,5,S01
10200,0.025918343875212996,-1.3884112878476835,10.356400778426387,-4.148923297147832,-4.7695318695718365,-14.514951077480783,29.392600929130108,-11.69906366109973,35.82311118273189,5,S01
10220,0.159850138430452,-1.410486947099336,10.360528299204292,-7.476190749563823,-6.8103658828459315,-12.21911643149748,30.901292874696573,-11.704264443400387,35.01008118694747,5,S01
10240,-0.02045012146545437,-1.754004864575675,10.071954942748194,-2.2873758439008123,-7.903345051217534,-9.320396688772862,29.2428494230792,-11.786893965207936,33.74733356908182,5,S01
10260,-0.08809630958857184,-1.8372845183557323,9.907356742833496,-11.954686455346176,-15.276648355709309,-0.6375684909780827,31.2133708661737,-11.86563006471265,34.75263221302397,5,S01
10280,-0.32169766558889024,-2.0432053291622636,9.805846026564,-14.856456500643045,-25.512998222141523,-3.7503144508470023,31.338509499277457,-12.957361069211434,33.77122603531289,5,S01
10300,-0.3346062920393763,-1.9518245837220112,9.719443737476823,-19.306270227294775,-34.27668773916604,10.258777150919224,29.602161097233438,-10.879205892482839,33.99271961853516,5,S01
10320,-0.44263170911687355,-2.341759315423036,9.453788200305468,-26.030167715162243,-48.387034211059984,7.283887585017246,30.641617099938674,-13.198963864339987,33.03169584308493,5,S01
10340,-0.4498474016320687,-2.00895372207722,9.45605660732588,-32.847325708069796,-51.340383041013766,8.989374617627837,30.533201149265896,-13.11105652286103,34.20176033390019,5,S01
10360,-0.6753388332597697,-2.179965436715988,9.332023427464557,-47.28222721501173,-54.21096685385608,14.010955831071112,31.660413727018298,-11.964852838230001,34.761577643223276,5,S01
10380,-0.5180654511965456,-2.1620309548303362,9.293790432163567,-36.359533774247026,-63.41949234442131,17.019828213834536,30.423594423292048,-12.974038068919125,34.506428280424075,5,S01
10400,-0.6721116103958176,-1.8390433842458203,9.443105470453357,-37.86384075291785,-62.24623104056808,14.27756530021165,31.644621862708814,-12.383037133456947,35.09199878946427,5,S01
10420,-0.41060005977954017,-1.9612511216945467,9.514086747225154,-30.18202510928496,-57.31996004025759,19.675508348583588,32.15037665876845,-13.501992019293736,36.048085555889514,5,S01
10440,-0.32611639990469077,-1.4886069459925566,9.683700406567697,-32.484491001886724,-39.42010793235606,20.29411142816744,30.661250126245015,-12.945667528295285,36.32123561861635,5,S01
10460,-0.07923482195399764,-1.4161343606154635,9.64936053655177,-18.380065659327126,-29.23084574643489,16.444423374367673,31.717574599099873,-13.944872274372416,37.644261151132234,5,S01
10480,-0.14234984497949524,-1.2304680149602212,9.759348071556152,-10.615813891609516,-7.872527769458243,18.238534108707487,31.089419867910163,-14.68865572358996,38.591868955404564,5,S01
10500,0.2645151693304579,-0.876109766760303,9.933606105594405,-0.38167943810781946,5.272626023901244,17.14932936422854,32.11957867760211,-14.172696741627112,38.34983145000763,5,S01
10520,0.22717644641172113,-0.9551979005482909,10.273339858671408,4.690994636627138,19.580791102442387,14.301251223633633,31.32545773294328,-13.320954276755558,41.11861376122419,5,S01
10540,0.6703588513023377,-0.556524451987577,10.471282123499249,18.9623386400256,35.84920197151031,15.827452757961805,31.724128561959933,-15.415711200220812,41.02785202732092,5,S01
10560,0.7497996145552428,-0.5403074313067604,10.549613915909143,24.710803022399066,33.16633475105361,3.681004606285087,32.57280849534937,-15.387567876487566,39.55262725399303,5,S01
10580,0.7770851378953998,-0.09082644718870214,10.91491417069482,24.088862450667225,56.10498454687183,6.813626601018251,31.0109212673243,-18.359793529312,40.16370884227896,5,S01
10600,0.7645279697550782,0.1254704284740669,11.000114768985657,27.886844947316174,61.10637947466522,-1.2402135524547195,32.47291192237735,-16.27523445814373,43.139297917747534,5,S01
10620,0.7062110496974716,0.0005993113646418219,10.900443528285473,27.77710977918897,54.815350509422856,1.246141831636749,33.11276399056358,-18.716735945481577,39.65825122391522,5,S01
10640,0.5670819777046775,0.17302547371910207,11.239644257210308,30.549449144193776,53.31516359943921,-3.3414996700961423,33.56728707243376,-17.676363688438713,40.5857011031503,5,S01
10660,0.5198785030993611,0.015113398864824504,11.269791840446304,17.073083227770592,42.32727268018678,-9.754198082918133,32.26904936764913,-17.381956557975755,40.28366540044627,5,S01
10680,0.46243387254473756,0.03208833443434406,11.169549998075547,14.312971025405115,27.887225941446143,-10.624889292780002,33.017978188399276,-17.789340859571062,39.79812189433525,5,S01
10700,0.5346117114459936,0.018455094595290683,11.413820762009676,5.390841563374944,21.550476309031158,-13.65538495100804,32.72397595662119,-18.336584640965462,39.13443306467552,5,S01
10720,0.4148814818681158,-0.2061469811694426,11.24592321778469,0.7428987866626606,16.364516526186033,-19.733692402716457,31.867105772468843,-18.786239105558458,39.81668527038005,5,S01
10740,0.10636888948428179,-0.35560782185560164,11.00050562548226,-0.31943324177671784,8.644047296497874,-19.53574614593054,32.51350148960607,-17.536235735771054,37.8284006565574,5,S01
10760,0.1647194886317349,-0.620129325605822,11.038191925573958,-6.1859207000281975,-3.130754440854907,-14.245848882766674,32.82505486640383,-20.778071322618366,37.703410606114836,5,S01
10780,0.027279810272435576,-0.8281168735777806,10.847131774574988,-3.036500383679293,1.2735327848410896,-17.900231547791357,32.12588160045157,-20.269839313266665,35.084423409619355,5,S01
10800,0.051834277505816886,-0.9814584225043206,10.677405873370027,-4.621144804151253,2.1235499780719085,-13.481285208234858,32.32894188646141,-20.457526989488372,34.794432389900386,5,S01
10820,0.08314357154837018,-1.27706103245413,10.516514847554983,-2.815882006405593,2.908388845322526,-12.965517367272232,32.590370127637556,-22.26352910079596,32.98448013514022,5,S01
10840,-0.14833063040611938,-1.555443330180187,10.186593856233591,-8.116154410964256,-6.0183692080504265,-8.66732370089227,30.336884291710312,-18.842111169490288,32.91628770430187,5,S01
10860,-0.033626136446702926,-1.6670109175826315,10.169431581142648,-9.562350891009585,-13.051287732458585,-8.069954602996996,32.00622514252625,-22.050779032834953,33.90848274124269,5,S01
10880,-0.24657837796612478,-1.7368040353919416,9.780569958629286,-10.028109276488593,-20.83745749691948,-5.370228603615116,31.977252928151447,-22.62928251053296,34.1675582127106,5,S01
10900,-0.1899309528090288,-1.9338168673291765,9.662014395713992,-19.995346564165633,-29.03040973327717,-0.4740382342777313,30.88297064565695,-22.23166319038092,32.040683624577305,5,S01
10920,-0.23314713452559618,-2.124167264260923,9.632888757468763,-25.63345179161137,-33.425494938179185,0.19510925118792366,32.588526228120784,-23.550680074642596,32.74313135521011,5,S01
10940,-0.3508492030824345,-2.066974447094318,9.392665377377186,-26.788032992470228,-41.25739465274945,6.667549751387359,32.31804893269659,-22.12536692233553,33.80738500368392,5,S01
10960,-0.6177808407155725,-2.276986138622713,9.313019435471698,-37.4121023548319,-50.18378514330753,7.1258892457865715,29.371483287311005,-21.103001728670563,34.342177853932114,5,S01
10980,-0.64454305483485,-2.3466151904949926,9.385290342976704,-35.50089437452495,-51.62372555776139,16.970568061926937,30.606616714034306,-23.975837037227834,33.96106030975232,5,S01
11000,-0.6313603384598249,-1.8936192799973708,9.316908568485113,-34.37660215676785,-58.21340716728413,13.441258046516307,30.431429733729672,-22.513326087015997,35.464999599977645,5,S01
11020,-0.5507919323370031,-1.8751933374352927,9.425418359063542,-38.016429161759554,-56.10328232253768,14.563149642696256,29.107218324414813,-21.748245802420737,35.263883032119594,5,S01
11040,-0.45294512606235615,-1.896443828022065,9.601666056524497,-36.91116708936548,-53.025857591803664,18.424456002383014,31.426990695194675,-23.69615419975365,35.367499825898264,5,S01
11060,-0.4943031550046637,-1.452191559719561,9.57896738002682,-26.516528105605765,-38.59009828966999,22.080309670323967,29.29291841487511,-23.592111185401045,37.65607903644146,5,S01
11080,-0.3082768137114422,-1.1886321305646235,9.552787449362874,-17.562858839300077,-20.549840218591424,16.511130195527887,29.893527376989528,-24.72184536219116,37.84748040312015,5,S01
11100,-0.014868544477860152,-1.115673390855131,9.720177329877362,-10.546490554959494,-12.232910274466626,17.407397014315855,30.80098947025951,-23.28884648472124,38.96626520369204,5,S01
11120,0.0633561056974612,-0.9431191210201983,10.079659266253435,4.248002556894849,7.031359834024664,13.332347662404752,29.39304082212381,-23.47861023883349,38.93877203891659,5,S01
11140,0.4212737441759651,-0.7146365403596078,10.177944465851338,19.659416047813128,24.12803062286962,14.10311798412054,28.919503462748953,-23.08293319137836,39.727942106840736,5,S01
11160,0.6145586114383896,-0.449698060312429,10.518804911551964,18.28908654000585,33.05114275140094,7.801687986036699,28.301243252079637,-24.084962921924067,42.1253796893666,5,S01
11180,0.6207394583818528,-0.3141515516665974,10.769561879134592,23.071479818694257,42.13932038444077,6.380249754375902,29.142505383200554,-23.714037066479683,41.2072680756756,5,S01
11200,0.7462525297493452,0.032492278601088914,10.99623562216495,28.139247717472823,54.88172948464205,3.1035895242546188,31.210735826267623,-22.85137806770144,40.68053446952811,5,S01
11220,0.9309302724450934,-0.03755750189907987,11.027081247855207,28.09890320015315,57.55807511560237,0.09225667596157916,27.980304328621905,-24.13315506431913,40.40366929138416,5,S01
11240,0.8058585195741947,-0.02942036924062457,11.039198148515037,24.943636791917164,52.735087094349126,-2.7763664292354044,28.754784607272153,-24.35496316367039,41.46261160479761,5,S01
11260,0.8315967819247211,0.022336929911514314,11.215272691011116,20.70512209973904,46.70402441796017,-9.754041460203966,28.346537413517222,-24.028864558513085,39.359434361762624,5,S01
11280,0.6893869271581325,0.04201610813916136,11.396127366840703,23.659039502949422,39.02516177251957,-6.3179185862029845,27.375293168508666,-23.407917821975055,41.32326223315525,5,S01
11300,0.6509405936530869,0.04725883410666956,11.297631851835018,10.945648256707027,25.97695613914558,-9.372772352006175,27.48879475888605,-24.647332879875627,40.50511331782677,5,S01
11320,0.31986578446884495,-0.20966227897007886,11.248399498971455,9.704805261967824,16.10321196637517,-15.822019200333903,27.891618956756112,-23.80977843096179,38.53413745743573,5,S01
11340,0.3489227476780491,-0.2460541935890088,11.283416218869164,0.16918085543321482,17.727010138721617,-16.56920450153224,26.0004307130003,-23.046257899188266,38.1981363343259,5,S01
11360,0.22219438262846514,-0.35680529714709497,10.949710425584112,7.0651304483751085,5.699367584754958,-16.037939693142636,28.94161747130925,-21.986596121069923,37.52772127836289,5,S01
11380,0.1768480211159376,-0.5895106346494132,10.977688401951719,-6.203266077994711,6.221048656279886,-19.321364233697864,25.778647871158974,-20.879842711605583,35.374378087911865,5,S01
11400,0.19843111303939845,-0.7619960404254715,11.050207373015162,-1.3269604795449674,12.434838517206385,-15.166230856657103,24.93314482686144,-21.91569321303396,35.11499791175285,5,S01
11420,0.24995558513606905,-1.1204801407863798,10.782017272128687,-5.403724878462927,-0.5289616629878384,-12.182383376165982,24.98085128509515,-21.851237253982916,35.74059032513912,5,S01
11440,0.024475417302753252,-1.4175833058663727,10.473661073477404,-1.843451141591625,-5.743457991566494,-15.291661306476666,26.57344866854454,-20.58386525290727,33.686369062025875,5,S01
11460,-0.0663062461710224,-1.402331804979232,10.211976280197604,-12.797806693923214,-3.44890291148797,-12.653886284144233,25.83686214234592,-23.641575860461757,32.815720717060785,5,S01
11480,-0.09151950378308168,-1.4861022368598444,10.305985643692598,-14.365805903637632,-22.25404119228396,-8.150422832960409,24.44838826369532,-22.199755669120943,34.295699457574926,5,S01
11500,-0.2503890900315504,-1.7886814513091358,9.79193813392445,-13.646077655407282,-25.136393315229792,-4.926442755679966,25.46727890299401,-21.062061458446248,34.55752921946813,5,S01
11520,-0.35508480202380466,-1.9591756961497233,9.831143151925748,-17.83115796701991,-18.878710832823778,7.352337004084755,26.30023338959306,-21.53365728939147,33.25594210057113,5,S01
11540,-0.34185491413653324,-2.1082737711221187,9.503600186656483,-20.301334834221585,-35.40903691820349,-0.16041951568577872,25.46424309617945,-19.160059686202477,32.77742094365847,5,S01
11560,-0.5327946762874284,-1.9727122802727757,9.637790711170034,-26.23041077898645,-47.59198531918558,9.626386119933018,24.194113381823136,-19.480318961609832,33.350551719416075,5,S01
11580,-0.5514401612548844,-2.0253349508676917,9.255138913658463,-29.967804281016686,-46.19569869647836,9.507628375189698,26.689057513618522,-18.466511782512278,34.15888739865751,5,S01
11600,-0.4909008335712298,-1.995934557224263,9.611121406702289,-43.65557138095117,-50.50751400427477,7.825883058706549,25.728764388819982,-18.02212506632098,34.60056582881238,5,S01
11620,-0.6842067503923785,-2.1299634909325547,9.19693734207219,-37.85724337589586,-63.36124246991209,15.655305594699552,25.09533470972656,-17.810457863718643,34.5402059111516,5,S01
11640,-0.5626230647851507,-1.8557690396960889,9.478426728029383,-36.5770515990714,-54.74843084913036,15.143747015975363,25.132752058907663,-17.960151274995425,36.14363330363712,5,S01
11660,-0.5416816845388087,-1.8449944970795904,9.404988544358108,-33.43477922199896,-47.40128124841556,16.191570560417556,23.957332509870973,-16.170464404375615,35.83232769569814,5,S01
11680,-0.48941235840157116,-1.3810351151596605,9.509248748112261,-30.836724723628496,-33.91780411764951,16.21234568634678,23.674077001755172,-17.160074759285607,37.90908687326701,5,S01
11700,-0.13749405143660715,-1.3670417247951094,9.547400571366722,-21.4720959735299,-20.784229720023372,16.242996950156247,26.774769034407434,-17.305610504531362,38.49030361410262,5,S01
11720,-0.0530396766641901,-1.084623044948608,9.686173276427478,-11.996231482171648,-8.493777831456466,23.132915117416943,24.129297029739384,-15.437515799322222,37.154535073524414,5,S01
11740,0.443987255884122,-0.9812270722078194,10.087169744657924,10.046201390778858,8.045501106832988,17.65652267684754,26.04480296405544,-14.676690721839725,41.31786118828626,5,S01
11760,0.3554589432053038,-0.6974276286200889,10.29586174944665,19.737496039717932,24.64993284063903,8.679730658274744,24.81535926468971,-15.567378549241285,38.623718280146356,5,S01
11780,0.8368804085026128,-0.6719763467240829,10.407632502221782,20.184332489302,40.9528727343516,1.8085619201760434,24.346799606751077,-15.779043590732707,38.32792136338916,5,S01
11800,0.7877410104255564,-0.31119236859826727,10.679095784928746,23.817330580293145,51.69757334914808,3.3811030372913318,26.051384144297185,-14.563206242890354,41.94985710616017,5,S01
11820,0.7958265886562808,-0.4011803442341504,10.865296159722257,36.822491789572595,53.02315646151269,-0.7087256778233845,24.594740360904567,-15.418890811915958,41.07534703665522,5,S01
11840,0.7279621696502995,-0.07381851842980314,11.05681033039971,32.4889225777897,54.19582054500918,-2.2721103682111203,26.482062943458565,-14.657404106932418,40.65800484543955,5,S01
11860,0.8306575913781088,0.08107179464483072,11.201129796331744,28.460290068979173,57.41764102210945,-6.605158040259274,26.278133946268873,-13.929051323034262,39.13558136707982,5,S01
11880,0.685843137142052,-0.07130571669057963,11.031386200570612,24.127633146569607,50.565401195710656,-12.100655237145514,24.67128291033447,-14.822526943950685,39.599454795700396,5,S01
11900,0.54673759738381,-0.06189876035973641,11.304466844989674,14.221200459145681,34.93672089780257,-7.164107635518693,26.15593038091623,-12.688176279950227,38.38329831645788,5,S01
11920,0.5367486538954997,-0.10036537526868253,11.300510228792874,12.043441773269674,33.08252438866732,-9.860477211307547,26.619424890474352,-14.007929481668727,39.73525104785096,5,S01
11940,0.4073309072851453,-0.03352862394878673,11.441244773489272,13.089135142199865,24.870079789538206,-13.93708409195998,26.380000413859484,-12.01762986669825,39.85340214486883,5,S01
11960,0.3346904981993098,-0.446995027816763,11.20737799778219,7.455508315772634,13.97807546303067,-14.30601652046828,27.020894623106827,-11.500826245932888,37.46846393691313,5,S01
11980,0.3231727870317853,-0.3779620917025169,11.005008780691497,-6.292205293064545,6.719658036930146,-19.126386055767256,26.053970583767,-11.92569873181014,37.82361695239173,5,S01
12000,0.27902165302760257,-0.47407379379566467,10.981095384549366,-5.809432914942291,5.594170275969208,-18.517095428191762,25.83938958211371,-11.124565709775595,38.980248688852384,5,S01
12020,0.01439904819651125,-0.8301607176252703,10.813250677536523,0.6802827197858461,2.7108488391021277,-20.339759394159987,26.079087207405507,-11.014653817157775,35.618447875545414,5,S01
12040,0.17413395645094157,-1.0950914793066242,10.556536054438709,-2.217019952185908,-7.288706270669576,-13.156274978539304,26.972155003613278,-11.97636539898862,35.207110377576925,5,S01
12060,0.16006177822664952,-1.3349702260336525,10.520694801539163,-4.305127814548409,-8.543164470306051,-19.952404916816924,27.270145753810958,-12.177604619088186,35.53903766671969,5,S01
12080,-0.1552850313596779,-1.6214897954195997,10.144536573210411,-6.668895735215872,-6.182529357117133,-7.290438396542994,27.404385312009595,-12.505708458850226,33.123905569627766,5,S01
12100,-0.06620770247777735,-1.5013169132032844,9.865664422420963,-8.078348629930233,-12.283481285703544,-7.264625248288811,26.80169859149455,-9.132417935477115,34.15348164110525,5,S01
12120,-0.31559645534015224,-1.769309158534846,9.881752353433235,-18.70598823077804,-18.90318642079992,-7.300449655258923,27.64360323844323,-11.960829927107639,35.16661164235728,5,S01
12140,-0.3146098576683446,-2.014231005192821,9.840425173050363,-19.46705162160201,-26.071273673799826,0.34734271881438233,28.373749221462916,-12.720109348417814,33.02889006996287,5,S01
12160,-0.4279355431673554,-2.0516910425874437,9.533444031104024,-21.33536876319188,-38.31809552293221,1.0296554708012562,29.514913297209926,-10.782375372451222,32.46380807915057,5,S01
12180,-0.30101858711089935,-2.1962803590926656,9.583437607804454,-27.505814666154908,-45.27147392494393,4.622012274836202,30.630524072807376,-12.182128827145007,33.36687314256895,5,S01
12200,-0.7431768999205882,-2.1995238138822266,9.548692136349686,-33.36689661178426,-52.793230336368644,14.980758244130003,29.883986154447598,-11.033032481964376,33.64340373507103,5,S01
12220,-0.6178831398044154,-2.1321144441621036,9.249548205068526,-33.18986219383039,-60.1825179592957,11.52340140560962,28.23309342668585,-13.837899603275497,33.06666946978065,5,S01
12240,-0.817092230241162,-2.095008395939085,9.221617547654395,-36.582781103909426,-57.5173657539814,17.158590333832173,29.164873765092516,-10.934801140932382,34.98301148371192,5,S01
12260,-0.4766600917331667,-1.7804691488689675,9.67270519598343,-34.7990826176014,-53.65393005693873,23.904531834709132,29.905959017956025,-12.122549339905461,36.3298797607958,5,S01
12280,-0.2954504493684067,-1.6832522295457057,9.334532224069736,-36.5616255754801,-44.15919893904585,22.671433081030415,28.260389152882976,-10.718691509240015,38.096942587327156,5,S01
12300,-0.36779540324929993,-1.533390204448421,9.600184448507678,-25.109240580404826,-35.15918397943459,22.0644494178124,30.85422046663956,-10.041035007543076,38.47365805194216,5,S01
12320,-0.2832304783418518,-1.3904246196677965,9.635105525971253,-17.70917409587939,-22.734463422639898,17.52829984451366,29.872497841435525,-12.507453561168989,38.753853523635236,5,S01
12340,0.04249697989232184,-1.1918887429723533,10.064442499939425,-2.929255390727911,-4.232295301047155,10.761730025366747,30.191441551236828,-11.268836689126413,40.03129125937007,5,S01
12360,0.30236856941771423,-1.0095122564863275,9.981988646274184,7.8767904185984206,14.434259126624305,12.798212846740254,29.174269675308643,-12.826665994249442,40.14889338561988,5,S01
12380,0.5465737219482177,-0.6420146130623208,10.25492197231642,17.016373275018577,25.3261809854195,12.53529529715852,31.053796951451783,-14.225872610609471,42.08380160624363,5,S01
12400,0.5917088632200331,-0.5108994156871212,10.517977878230708,21.639039738724907,37.56417519248469,0.5232897769164623,30.905389907264237,-12.359645936578092,41.32042029065898,5,S01
12420,0.7319436452464233,-0.3514405386999232,10.780800744473561,24.017630730577597,51.55806056942041,12.156951600375292,30.46556715404217,-13.379413917981124,40.560253990072695,5,S01
12440,0.6964555578530806,-0.2032611059670303,11.041312125737422,27.599277343715045,57.27837354487254,-3.844722374900218,30.763093254209814,-14.087045740377874,40.84067876777077,5,S01
12460,0.6898555701922664,0.019397349524814686,11.074379964395444,29.71820688878893,53.49292374591894,-2.3073894910972004,31.665724068536267,-13.263119887167562,40.67299546697099,5,S01
12480,0.7891383922464354,-0.06994378243607552,11.038510977353786,27.675097206882175,50.53193608323581,-7.96928336495545,31.734552020842447,-13.07040385270447,42.35535663089883,5,S01
12500,0.6275378968974834,0.29417608907637294,11.339801585116042,22.02542164334634,46.30925781434047,-5.983162129174339,30.63712341142833,-13.20435402131776,40.79071139518735,5,S01
12520,0.6453040364364983,0.10492266370830444,11.239505491478534,25.069862054104586,44.192360121861235,-10.89515902100136,31.031723592867166,-13.428386023588356,39.739912766128896,5,S01
12540,0.40067938572486816,0.017079668693228273,11.510443897035437,13.576352359158133,30.03772234624543,-10.698285304330108,31.89418579113971,-15.09405104112599,40.226136375885204,5,S01
12560,0.4017180521903285,-0.18693081099447567,11.242974263807993,1.2363402535760786,21.650416336162746,-21.59049215680721,32.753091027087365,-16.481466547553467,37.56340322719684,5,S01
12580,0.3792408020856286,-0.4962137008113306,11.165971416355802,6.066605255548802,12.774441736659885,-12.582963365114168,32.04493951497285,-14.523366201390164,37.3527582053133,5,S01
12600,0.3648972914619856,-0.5770824450113308,11.071295637435998,-5.202475666751544,3.0889062833009975,-23.15546091680328,33.30121089735007,-16.59152356387125,38.92710880346331,5,S01
12620,0.3135100308384555,-0.7579294555187317,11.04522259509638,-12.691433825336631,5.894879868151055,-15.784662805122887,33.39694381126202,-16.834234578550266,36.68871237449742,5,S01
12640,0.1369835727796586,-0.9381346122507157,10.702607037399487,-1.5499646029002747,6.65993215047835,-8.293764137549678,31.665778697720643,-17.989470522884446,36.18009641801456,5,S01
12660,0.12028961317116363,-1.1764784293260728,10.583873691478187,-9.631788499598922,0.922077416047627,-9.562520155119342,32.21497165401563,-17.065319308599395,36.22837695716212,5,S01
12680,0.06166086211371594,-1.2781412042504443,10.334832675010386,-10.054449813245814,-8.212953485707882,-11.106898455028556,33.612280495583114,-16.186598311134105,34.660352940436944,5,S01
12700,-0.11479630560449508,-1.3947742145106503,10.055479285530637,-5.715848444810022,-3.6322090136179908,-9.440227640638522,33.125516187807406,-18.132292171537177,32.4005627550525,5,S01
12720,-0.08838339407976645,-1.8314782462319932,9.940454170216956,-7.023793902793881,-6.904575535087921,-4.351450204717644,32.6802281358958,-18.623258232070935,32.48046118907122,5,S01
12740,-0.21022624105279727,-1.9685952805881481,9.779490093183872,-15.731175447466299,-18.287729323489916,-7.457728180151147,31.368369129071464,-18.005670381263332,32.69615479124646,5,S01
12760,-0.40782339576981286,-1.966943856807131,9.73638896648172,-24.259180254768626,-25.982829902770508,-2.3677387426497116,30.911186689172602,-18.798511368167027,32.49022209366866,5,S01
12780,-0.4636769778063099,-2.1517648108583893,9.400859643751849,-24.08942113522129,-37.3804552243941,7.545356206525911,31.979611839402803,-20.385816887166836,34.00064474108227,5,S01
12800,-0.5915164148703832,-2.062777118280345,9.632898564862499,-31.653284468687538,-49.243583412759335,4.7224686066695405,32.99615381257418,-20.010245828083644,32.77063362862963,5,S01
12820,-0.6548334935741494,-2.160783370399561,9.582352585739992,-34.157450018801455,-52.306683779953914,5.5293987924358685,31.38403409900306,-20.960297035073037,36.12763312929164,5,S01
12840,-0.5483474883904508,-1.9508539180146747,9.441130150514272,-31.757412296530955,-61.10178379203511,9.335410130184806,32.08020377310966,-21.0878846921229,35.59443941767134,5,S01
12860,-0.6917366045681586,-2.0023251593712184,9.361388800107115,-37.036820943502725,-59.67321649947656,15.683585236198837,30.405211907975428,-20.618603990897263,36.91916460285177,5,S01
12880,-0.5713261698533828,-1.813662194464144,9.537423532982363,-33.16897430649591,-52.323525648184145,12.871745378162496,31.944816538702007,-20.855370290143092,34.99352056115267,5,S01
12900,-0.4267456846815708,-1.7037782122348117,9.494519494678642,-23.840968309716562,-50.04589549312209,22.607811973727625,31.197905142409674,-20.08592327140191,36.530085675690096,5,S01
12920,-0.14961167316143295,-1.4965952144680101,9.711950748677967,-25.21609214860721,-34.68629738309493,21.210984578284346,31.954789182787305,-21.342073901925126,36.751776143494396,5,S01
12940,-0.23966558897408716,-1.3555361689114949,9.89309558352293,-13.384662690332004,-20.850844106568612,18.604419562610495,33.154972533866086,-22.50477866576295,37.481784651768784,5,S01
12960,-0.013310303099284965,-1.0696162063517765,9.86925298890349,-10.829543007125231,-1.157534661217274,16.945076482799692,31.80962744562042,-22.433542111437067,40.10850969804438,5,S01
12980,0.3810918286563485,-0.7658048953751566,10.139738805385688,6.09419225557066,13.21367671024717,13.092700992021616,29.906805248973413,-21.996147096641977,39.780762643325204,5,S01
13000,0.4572824546450335,-0.7195658060273544,10.278954437615758,14.312212482529777,31.838177987593735,9.227561180496162,30.237841515112557,-21.54042237665276,40.343554366131414,5,S01
13020,0.6056162680506367,-0.4826328439150705,10.527615879734833,19.89571894237686,43.43155451887808,9.94304464984382,30.579386360786923,-23.82560262941495,41.960759843616444,5,S01
13040,0.8195840305653729,-0.21091998383377036,10.691456075112105,24.72294435410276,56.890093868744984,9.208266578711656,32.005378358071525,-22.09510918965158,42.64947098806047,5,S01
13060,0.9072119721847213,-0.0993056855192056,10.916955747152768,28.044537407685635,52.32891301329273,1.2927557339752656,31.089412089464524,-23.601179507317614,40.77415089926302,5,S01
13080,0.7018633401720515,-0.11404589926440781,11.062416616527269,29.157885053115958,58.478412085499365,0.39523201982991696,31.466128822544896,-23.761247544888338,40.1755653449813,5,S01
13100,0.8527318532305161,-0.0696261346316733,11.163271690594543,26.281866671778506,49.32885681629609,-7.537159418553525,30.48770094656146,-25.265091050755856,40.42645115008718,5,S01
