timestamp,ax,ay,az,gx,gy,gz,mx,my,mz,label,subject_id
0,0.12657573493730317,1.3546878126823458,9.935457003150779,-3.646040443305209,0.9219023734604221,10.465676259662734,28.636579646132287,-10.615570149737088,37.271600028902995,4,S01
20,0.37699003664909503,1.7367038401613917,10.296656918582128,-2.793362521075479,10.314333902097541,14.631343575098178,30.40885365376787,-11.308394301031843,39.85161641076488,4,S01
40,0.33506829331356264,1.8652079769294085,10.527618652438312,6.309386208830058,26.2891335639637,9.368807386513678,30.00740219667466,-12.750513648957028,37.6703955247105,4,S01
60,0.5075113395285419,2.1512666794007056,10.700916081494341,18.243135959052477,39.54763795294123,8.001990517675582,31.775006254443536,-11.058504469309439,40.77780732549613,4,S01
80,0.6534100329108675,2.114404158856406,11.114314431032263,29.31110686541582,38.85488622367642,8.594306538458433,29.751630881859384,-12.764982195127033,41.48151932064486,4,S01
100,0.739479250345693,2.327173561262021,11.14290927059044,20.96716080092313,50.767748016023155,7.848143662560608,29.899061287777062,-10.98227678285595,40.573632734127045,4,S01
120,0.7310902641929667,2.4195177574699414,11.376297451222829,29.30527778144351,53.30073340226121,1.0219760278755454,29.99682380715041,-10.882374368519352,40.6754046724917,4,S01
140,0.5248344510241088,2.426802597678066,11.703273580038479,26.770125937645485,50.34770336167819,-5.443749197171526,32.23504484873315,-11.469683919734265,41.07569078396196,4,S01
160,0.6831024019322349,2.494049239379614,11.565322683523,21.43297584890351,47.22180398186964,-1.6620486770752678,30.45748323477711,-11.001689096715108,40.89403555359367,4,S01
180,0.6857636440239644,2.734712711408948,11.735622009544237,17.708610773455817,35.662668134582994,-12.961423987422387,31.347367200431254,-12.394739078690101,40.62310884307901,4,S01
200,0.5498342384898328,2.525293800697516,11.449015210144065,16.83858309025975,28.06331231159825,-9.518473175148943,31.113889009251587,-12.10145476760457,40.00636182557221,4,S01
220,0.4700490153871384,2.4683003028392414,11.467560661845843,7.7765897788642695,26.306477128102557,-15.8414340924491,32.42194181936482,-12.298491444512198,40.195372029864366,4,S01
240,0.420523834858357,2.410229896644238,11.22441219666547,0.9514627717942981,24.671475280560585,-12.573277398020558,30.239521345088114,-12.05478985480668,40.46425307651713,4,S01
260,0.19870528416880529,1.9208465651021416,10.989190635566382,2.200348428762453,9.767870880978814,-6.576983973816772,32.037618950623056,-12.618057163145203,39.017012422889856,4,S01
280,0.19258513033270008,1.989140973923823,11.026018820169758,-2.8494816665806795,0.43012719603664995,-12.053357007018747,32.58021178158967,-14.245639233071135,36.11540864800796,4,S01
300,0.1807762032843419,1.432068218494642,10.814871165042318,-6.036189506460093,6.058611089865301,-10.16841438992178,33.60026332040338,-15.265237884354452,36.945250958382566,4,S01
320,0.27811243726549906,1.402881847714966,10.53810900655956,-0.3820009186502764,-0.3875294036334176,-12.692127876601683,31.578329366057652,-15.278327614713225,36.867472885581705,4,S01
340,0.07350170929294239,1.2551121762658424,10.253164336075896,-7.206571145660776,-3.961171640739116,-9.940174531505571,33.54241978292195,-15.110642998579197,33.72703174336145,4,S01
360,0.04670012095441649,0.9402444795319593,9.811629102359682,-9.758779322685935,-11.616864022022735,-18.160864744831397,32.579908244675195,-15.603553499403036,37.11095245085431,4,S01
380,-0.07377490428679495,0.8778279067384751,9.71833836331275,-6.258426566826234,-8.83876615803527,-9.023409363443845,32.1737937426126,-15.410050959596031,35.4096783006696,4,S01
400,-0.0631023996098656,0.731431584423502,9.530934371481925,-11.974764706399135,-13.043984750745736,-14.530901070985726,31.415242160556012,-17.323956822670738,34.67482795145078,4,S01
420,-0.21067764123887675,0.5035474155106825,9.234449993823693,-12.186523670037129,-15.205268249339793,-8.797882470359282,31.2799409665877,-17.54167688735273,34.74985747337459,4,S01
440,-0.023513935819520437,0.4460269498766864,8.98524368868219,-12.371107931944039,-30.55935798049878,2.702679505637006,32.42706595410162,-16.303425330286125,34.23659483668935,4,S01
460,-0.40352516649708137,0.2941763669361664,8.920558394000226,-21.623090157118703,-29.536887084915254,-3.043190265792727,32.44451752194532,-17.321442876815105,34.199596777657696,4,S01
480,-0.3086907684097099,0.2888626423678899,8.922408295016579,-28.711723156134173,-45.04102928284379,5.763637355031107,33.39054615093717,-20.15320489500907,32.64086665655372,4,S01
500,-0.6135164730705418,0.16710646007295382,8.99045077472065,-28.30558138053282,-50.84670392234996,8.581939854798762,32.56199911934695,-16.33470366969257,32.51648062733666,4,S01
520,-0.45932073177516,0.0641974998602533,8.989273963640557,-29.87484890056331,-55.08697363234462,9.680731768579987,34.048325055824726,-18.753644409438095,34.53323174220836,4,S01
540,-0.44413953441893994,0.3078707537627451,9.15439593042079,-30.576437338445345,-50.964529486877616,12.94769518529505,32.94984714114386,-17.623287997871614,34.071624657745126,4,S01
560,-0.5024957069305439,0.44270320229606325,9.207509591064,-29.9536258459273,-50.31644294766672,14.3212481172977,34.25694783252059,-19.485406586702986,34.83632380531809,4,S01
580,-0.3894212229505578,0.5937567227015899,9.134454747401893,-31.34752199802286,-47.915961020089604,16.71405174616498,33.49065474553654,-18.261099325423217,34.76083210138128,4,S01
600,-0.4006857838441339,0.8847654861073868,9.409563554402359,-31.356959228157532,-34.98551367912984,13.564629350692206,33.18846462852471,-20.70290755366631,35.34368870634276,4,S01
620,-0.35733367169294317,0.9238393181781805,9.57456343070672,-12.670347112809527,-29.129203965797128,19.059032928901956,32.72611047421002,-21.90909546208931,36.01252109108654,4,S01
640,-0.06794208841399554,1.3261517912903027,9.699975970911993,-8.368439706661658,-12.668189994635888,15.74231025161386,33.522441164112564,-20.61490049396631,38.87295424790089,4,S01
660,0.16074594414120305,1.3449099144957675,10.117846852683961,-10.790112616466022,0.5346860659166117,16.090282918885354,31.447077819872785,-19.567218156193604,37.50203350734694,4,S01
680,0.24725010046377824,1.6026816024910426,10.315856091737421,6.7806657702156015,10.253243252820461,9.030531028721276,30.324033434539636,-20.87258399139575,39.19015991439096,4,S01
700,0.5441337409049725,1.8331673026799562,10.345708261323656,16.52084544841996,23.313933386975393,7.534924947592266,32.59106386050545,-19.066425955438014,37.25520947465547,4,S01
720,0.5519053821782501,1.9852614045376782,10.72063798037296,22.686325440347872,35.969187785225024,15.449155683972366,32.482079369839255,-20.502017796958356,39.8507536180247,4,S01
740,0.6749187080979236,2.4001282633846457,11.1914128304477,21.637002546252237,41.907899240429344,6.293060271386279,33.3289630438977,-21.566281158266,40.17749865393586,4,S01
760,0.6486151633063922,2.195589794279718,11.246940362557917,28.496602914389324,52.609100014770355,8.93228626615858,30.382506610537803,-21.81633695872094,40.358914448335526,4,S01
780,0.6892211500092729,2.5144000563066555,11.396169195916178,30.751201992602095,52.963372031132394,-2.2114654111100926,31.912949278549593,-20.565074707483134,39.93873637595021,4,S01
800,0.8121329715590534,2.3610900466642972,11.545616807382167,27.677157599517674,46.241242288297265,-3.8466952488872805,32.31633081255427,-23.496097062288136,40.223833051003844,4,S01
820,0.5192650503126426,2.617215012898477,11.421445840644909,21.734718975008015,40.50409653464468,-0.892598450470469,31.218064218929484,-24.897164091087948,40.264865666626605,4,S01
840,0.355184626851616,2.720983118430577,11.71640047062901,19.662224581910785,33.17409904197339,-1.0373479463714044,31.488975251236834,-24.308688638634916,39.66876754314012,4,S01
860,0.3924141064335691,2.5384314775342425,11.52604675946406,10.20991335712046,32.70256360629754,-7.220506531503922,29.32923935320126,-22.80109698711521,40.26211939262124,4,S01
880,0.41362516611651656,2.364802552380995,11.501132105227466,8.242586075621105,26.325661538938267,-11.714661899548803,32.11444166637592,-24.123279366654174,40.132544612932264,4,S01
900,0.23643502675124226,2.098970235542955,11.317189898966738,5.541516555013444,18.636953883096034,-13.958847309415333,28.894135200706735,-24.536483398835315,40.19709346632477,4,S01
920,0.32702851999694066,1.9704323801669272,11.112552244449963,2.502685909788794,9.594455534173676,-12.2094249810026,30.547150218645935,-23.100503502838517,39.843685736900134,4,S01
940,0.1202133036034555,1.7361548700753686,11.133875518078254,4.444891018315068,13.128784545876336,-9.866704989542301,28.895988777871455,-24.105221330625017,37.428104343296425,4,S01
960,0.10035028780177029,1.4367259478250427,10.409845817458361,1.5837303810749228,4.162947303176597,-17.059635291924792,29.14358271218383,-24.34664431803523,35.36876365881206,4,S01
980,0.04137746026571419,1.6989033652552252,10.44434429368824,-4.362251350702529,1.622984531200254,-14.317330660389432,30.33572837827123,-25.02190418997034,36.27177708876375,4,S01
1000,0.12919207883235417,1.0747635046433668,10.383977945339527,-3.8847332739790503,3.218042704454006,-9.853697503478665,28.878965986677137,-23.81146915170099,35.415064789955,4,S01
1020,0.1185455013002197,1.133900064328085,9.988881948459,-7.995811272314498,-6.1613671204128515,-13.91559155759098,30.602517733856008,-23.75872802864689,35.132492736207126,4,S01
1040,-0.13050879899969875,0.8100404766961078,9.78197452963618,-6.392475295771167,-12.66154650643524,-9.694339209841692,28.971013312667992,-24.368983640416392,34.86162804357672,4,S01
1060,0.06896431434936572,0.7116052427197932,9.583467590457722,-11.992712332558977,-9.927252057978112,-1.3390844166666152,29.658642808163158,-25.89918880444316,34.431553642028334,4,S01
1080,-0.12132318250849508,0.503406537766163,9.294336854878845,-15.306432010041586,-20.454530186531603,-1.1722492479832423,29.42377937576964,-24.857918551668064,34.427348231693756,4,S01
1100,-0.1875914120283704,0.24295768832324288,9.196665687620792,-21.775977962609677,-25.51742028765051,-6.846878054741769,27.549762341921582,-23.54776011918693,33.40470276362599,4,S01
1120,-0.14310751222299362,0.19942948611639721,9.070776385753963,-25.56322444553441,-36.58048332412629,4.366126471587101,28.182080339511785,-21.628720374232792,33.65372225212745,4,S01
1140,-0.44076669950375813,0.0991600277611639,8.914500540938485,-31.685861072403913,-46.76106002944927,4.22071661922603,26.31107229778846,-24.428454015064705,31.919587764926657,4,S01
1160,-0.2959228816150582,0.1285658800694028,8.957279926778847,-28.10684990722832,-49.70626971556837,7.359180491020584,26.94654766756616,-24.053089649915705,33.83914295601172,4,S01
1180,-0.5448121501475366,0.20742062503219616,8.808934278379825,-34.976763879894804,-55.804623548585546,7.72822854960355,26.554107745076482,-24.04476019056798,32.553729857000484,4,S01
1200,-0.3944394420632741,0.19591567826017414,9.17611938256153,-29.369731684585734,-54.30865041577856,8.83114978301007,28.028870301297694,-22.921127463949,33.394121694504406,4,S01
1220,-0.4679564603171592,0.5090054079915518,9.091183142312204,-41.13341342130876,-48.849405629205215,17.400425672644932,25.765778338562725,-24.18481145066548,34.156238364784684,4,S01
1240,-0.43348522403954004,0.578815161606322,9.18437639103705,-34.11319226732603,-44.399132130418174,12.383175854893766,26.59763412755256,-24.273083924347826,34.444534788295286,4,S01
1260,-0.4169107988933034,0.6095612455095352,9.322230333278469,-25.79407635968154,-36.228925289357555,15.727024776349023,27.700354066050064,-22.084879282413233,36.131363076264506,4,S01
1280,-0.2028470085123706,1.043364910394521,9.539783053833107,-23.1174547004786,-22.103130355171984,13.112764663673593,27.70549614229224,-20.598255410098147,37.45361979647719,4,S01
1300,0.20458820932419833,1.2092247483949308,9.880284525531653,-14.37928751832774,-19.035827515231766,16.218733161499937,27.162766761765177,-21.945717849985254,37.06558786138402,4,S01
1320,0.24691987922952968,1.4336013638351932,9.977625107373514,-6.847160303892651,1.8952320792000676,15.582229449623899,28.112259764773004,-22.441433321174983,36.31380554989987,4,S01
1340,0.5230982846410355,1.7273027457416201,10.400971639800336,8.10633288159909,13.764019203572538,15.7491074403276,25.90664648586492,-21.494090305126026,38.04679288596963,4,S01
1360,0.3466716388710351,1.8808765837851604,10.761325532631226,10.784833492491337,28.973925165668977,4.343928606947236,26.56256568871114,-20.231608898775406,40.02422001383032,4,S01
1380,0.7035367211905648,2.1136497004659085,10.701125484567315,16.733517296679285,40.31203886323967,9.624286356434217,25.95717919293628,-20.592276978674946,40.77929641851539,4,S01
1400,0.8079300267483026,2.2985530879253186,10.911622984199004,24.667013281603047,49.79746210658212,8.992692089702404,25.04968331558549,-20.092007119738028,38.46134267385936,4,S01
1420,0.6649608217663777,2.244493045270164,11.327550361613055,21.49945910996271,49.21157306920994,7.851264611118838,24.546406994625464,-21.23124562743113,41.55121252525636,4,S01
1440,0.6573024085793672,2.539350856382148,11.344844399646488,24.09814584919777,49.915081739679486,1.2471942654365527,24.75452745365692,-19.08361330542816,40.86927995619013,4,S01
1460,0.7159066271746195,2.6245503100254837,11.585625164863472,21.44498469372744,51.89438636375125,3.0341417705658733,26.424573425722304,-20.388588817497237,40.690277239412076,4,S01
1480,0.5939498786826408,2.684241655125525,11.566780175803673,21.518862169853126,40.52592314074133,-7.90724245309012,24.308673249627347,-19.30415912772463,43.408326642164795,4,S01
1500,0.4832979670548314,2.5665136524841063,11.660847145244395,9.112657309509132,41.51470917100029,-9.283832282202471,24.65035242533918,-17.519027068804135,41.10080708358914,4,S01
1520,0.3848044159419729,2.427243011728684,11.56835293480403,15.803654190419241,33.834773770252,-7.535006109191103,25.735886272203714,-19.097736043059008,41.133547201893855,4,S01
1540,0.2804667246453919,2.5332136825392806,11.42570801156972,5.521054526162325,16.008382491696914,-9.243793883729072,24.13935632347839,-18.370406130266506,39.67424168301781,4,S01
1560,0.3066317169783659,2.2622451734065714,11.280911045873006,0.8487788403140515,21.605025089123938,-9.300139262398377,26.23371249945951,-17.73722866315532,38.9796569107877,4,S01
1580,0.03791333650737399,2.1120095805022583,11.101886469717684,-4.002039466011453,8.377073463656473,-6.831272074721238,24.69442873864524,-16.190035005344846,38.28830301204601,4,S01
1600,0.2459063562322011,1.929180631006003,10.870606804586618,-0.047485890537098285,4.399644463644141,-18.792916867135453,24.030075033615994,-16.567462066970737,39.031698441581874,4,S01
1620,0.10763581680198375,1.644308290572572,10.615217048625405,-5.1799030120694605,-4.336198039984303,-11.84869996801181,26.333222696339963,-17.85462026418515,36.384905004338215,4,S01
1640,0.2282541725363981,1.3534632849352668,10.559366650469824,-4.062658170167046,3.8508064590546756,-15.621763596756955,25.0934284422542,-16.50723339844269,36.314316947031834,4,S01
1660,0.15477529425942727,1.2632046787763231,10.028696881505162,-8.53060406479385,-3.41882942093699,-9.32690352799745,25.916537206304298,-14.393121231022945,35.604241384307386,4,S01
1680,0.1094059615641594,1.0181720797190388,9.832258509408375,-3.395557856821906,-6.152827879482027,-19.671047196479442,23.547424957796483,-16.119806986219174,36.710747095544065,4,S01
1700,-0.05347218727907735,0.7996530089700966,9.502464721270877,-11.018518578350676,-16.040550573119944,-8.778222430253809,24.771033768177418,-14.861819056295218,36.35838524737668,4,S01
1720,-0.059485761034900775,0.5055137758290322,9.563242784735804,-10.886354053418717,-16.63632653742771,-4.011783028981995,23.94196434417321,-14.504815794470048,34.91391871016576,4,S01
1740,-0.09106943795258354,0.4373398561961042,9.263081307831904,-13.227996943089824,-20.49401762597079,-3.9069420377600736,24.780241423518426,-15.851813492187933,33.71058397230022,4,S01
1760,0.09118625242530629,0.36688331039849376,9.340186074628415,-15.101082797582439,-32.582549609624465,-8.60892374143388,26.41806797195614,-12.953246252831415,35.026591497157646,4,S01
1780,-0.3049082296947303,0.27862762526336876,8.800778645475205,-22.96971048324678,-40.09555149639948,-5.020860561578992,26.055638740811922,-13.173672942102073,34.596833408921775,4,S01
1800,-0.2683419572075566,0.03426882817354619,8.928555444705381,-33.68886856745914,-40.26726020634667,5.454240170714544,26.59263363339855,-13.692946863556532,32.675665592241856,4,S01
1820,-0.5726233152534465,0.26696296470978215,8.955738702286792,-29.20237958505399,-47.6848680933127,5.414567900047567,26.619254690787773,-15.70679407925409,33.21497258082921,4,S01
1840,-0.49168434286926155,0.19775440982076553,8.900544173589806,-29.374751556048274,-52.51207496692049,5.548516354391517,26.376765561188165,-12.01577578346799,34.073236814484794,4,S01
1860,-0.41305883939159715,0.2987647050061213,9.000677629013198,-33.79040680246634,-54.740753212424195,15.847907194837118,26.34866539983454,-12.183030801785034,32.885838296091634,4,S01
1880,-0.7007897304118581,0.5151371667338378,9.088314536500915,-25.845407213303123,-40.57218621686091,19.906725613296715,26.626823451794348,-11.998206948409361,34.47079371077334,4,S01
1900,-0.5601586473390872,0.6870705326582736,9.358176104356186,-31.26628238446628,-44.29903011816635,11.081137449246823,26.83721397598392,-11.944931189499254,35.02868705300281,4,S01
1920,-0.20373017537621593,0.7414761180387692,9.473164097647063,-20.23025246341596,-36.55189481946871,23.726162050624517,24.808211258877108,-13.713400578370099,35.1931616473617,4,S01
1940,-0.24175186641933696,0.9494073503976683,9.630548601199804,-21.953749486782364,-21.92931785053985,21.59196378993243,27.512441377835497,-11.600629222956528,37.22252645104469,4,S01
1960,0.009736383090698367,1.219504783838843,9.916359737945813,-7.005657955312966,-14.135450300126132,8.875839964965138,27.913366591770128,-12.810420654039293,35.544899323377436,4,S01
1980,0.080208201638318,1.6020236114016024,10.05395370036398,0.21393380109956084,5.544532737662531,12.356047532420565,29.138002918556893,-12.439543439939836,37.47569131835729,4,S01
2000,0.15327501054006193,1.6449809067281662,10.36675275484699,4.832518453700755,23.107676066373504,9.901966757490355,27.814984705792725,-12.812118352158908,39.91500642360057,4,S01
2020,0.41511167646681413,1.8504210012936255,10.507152867747285,12.294289247289512,29.265666944247616,5.747564826433287,26.427932825048366,-11.36647780934663,38.955410275737705,4,S01
2040,0.6779808972272479,2.183058577633593,10.892931479853178,21.285955329250562,45.50684211795847,9.52813937462602,28.14766481804177,-11.209172150612671,39.939887320342,4,S01
2060,0.5969273893053867,2.2920637991992567,11.277883704460436,24.84424505804873,47.465603243577974,3.203518066104237,28.814510198167802,-10.322728180786608,41.48877346850887,4,S01
2080,0.5590528459487353,2.6022144795669364,11.267823074954245,24.164795515393756,50.07063405155607,1.6596239775332804,27.270102164573714,-9.009477348208819,40.58231334550284,4,S01
2100,0.6247473130562179,2.38596660412011,11.222575241430084,25.9022277313225,51.80329890221734,5.359122443586715,29.491570809499215,-11.25345794008457,42.31873456560951,4,S01
2120,0.5976409091281202,2.576789624020252,11.608084483411831,20.26188507283792,48.0903180949671,-3.8006068602304164,28.341154146850506,-12.275257397966133,41.81770989676155,4,S01
2140,0.5423633556029154,2.5233356161243,11.61189264048894,20.871084461594286,41.0297107176096,-5.214915246480408,28.247466496358747,-12.035543976400511,40.61011782647239,4,S01
2160,0.4306463401667059,2.7286315429957924,11.52668319354486,22.38571382560322,40.39637551686957,-8.349443625432245,28.315451796921497,-12.443500607542312,39.47732800586468,4,S01
2180,0.49589156635779885,2.513633907587735,11.706584770174432,12.222290423722889,34.47831927331864,-7.803666169828949,28.46454049756211,-11.692375061679684,40.12451274923781,4,S01
2200,0.47215698171060516,2.3876744873319447,11.457021203343118,10.866184383614417,25.159936286172286,-10.215204828126451,30.480900610656434,-13.204626566671855,39.09777731547863,4,S01
2220,0.4467694878705162,2.1899133758280955,11.099035355166357,-0.02070059782826217,15.342022584404713,-16.78728894962493,27.806019702964154,-12.53691122310849,39.94708263142896,4,S01
2240,0.2790804506418718,2.009040145636059,11.092311598638085,-0.6147851091861751,13.58981612989386,-10.369072805615222,30.808961513809894,-11.574424636237701,39.20065966780111,4,S01
2260,0.10687480027299862,1.9094343628793318,10.836444857850202,3.6160392746999372,1.8604634161013147,-20.520371496396272,29.392773128663777,-11.612576203042085,36.84252481685608,4,S01
2280,0.20977726543962566,1.6141404532451014,10.508552985703696,-6.82237243761373,7.784600235348743,-14.373653368041158,30.968648004873227,-11.105579279851668,37.29729591517624,4,S01
2300,0.04719267741721922,1.4246166101415143,10.301082522664146,-1.1380618646026353,-5.085556396291649,-19.284597277524032,30.894324827403636,-13.111113201720302,35.7183575699659,4,S01
2320,0.11895800918281714,1.2771426785666102,10.289024053166807,-4.328385574166621,-8.811041317276844,-9.898829744338954,29.802729444486786,-13.277642407592122,35.823046089758094,4,S01
2340,-0.010613078351331046,1.0286951092975931,9.93261186306884,-4.093587091948605,-2.1024707159038396,-4.655833240427523,31.349903065337216,-14.440535552249983,35.486064603355,4,S01
2360,-0.05290496627819494,0.7739775442218888,9.687932838577478,-9.968897331897491,-9.947806671916284,-15.016455950698118,31.236269346316462,-13.723141156345008,34.18876757150335,4,S01
2380,0.01388834716478217,0.5904112679753115,9.339356997690501,-20.094994072300413,-10.214530757235806,-2.099940391439221,31.665738680059913,-12.853486026726342,34.29344695252416,4,S01
2400,0.06465772574185907,0.31182111880869373,9.291367501497392,-14.62790530684999,-27.379209357971323,0.6821828941812312,29.776493461224753,-12.130938899873694,34.50464870968348,4,S01
2420,-0.17744479488708761,0.2917611665916387,9.198442374852686,-17.659669875626367,-30.81974601812612,-4.190187130868933,29.70714044450557,-13.637380039567631,33.45662431805134,4,S01
2440,-0.2952894773097644,0.25320542547172065,9.082965464277004,-22.4971204273199,-38.74105749895683,-0.6152973594030763,30.93405548790187,-13.182105961240945,32.385496318702344,4,S01
2460,-0.4432843833547926,0.12737253539222695,8.71627231703149,-24.513386405982335,-48.65051256696663,2.932507413740103,31.097395681305272,-12.763931976007107,33.523738241544024,4,S01
2480,-0.4853177767593798,0.30979953637259294,8.95882101468553,-29.147834991042668,-52.1580744134436,13.350645761282893,31.552842302988253,-14.472482871409898,32.62314130151398,4,S01
2500,-0.5204451607929905,0.2163886333330372,9.107427407941545,-35.84281852924145,-45.958131637999436,12.828416951883838,30.34176881520249,-13.76039215403101,33.77882965851123,4,S01
2520,-0.5181990057105456,0.3722187080222294,8.948822458270802,-38.41217769933594,-50.56389561071393,6.005515687873617,33.23576485096342,-13.439075287798104,37.45581471650755,4,S01
2540,-0.3337210945104291,0.462148619696459,9.127751427488898,-31.16424908531081,-50.38007343886454,10.200864735560643,31.330183867939724,-15.56714240029813,35.2097637330138,4,S01
2560,-0.3931208804154491,0.5456868521543474,9.122115074596824,-32.540755921062214,-45.29271194752397,16.23764249193706,33.55102865757253,-14.905368682662845,34.08539446792615,4,S01
2580,-0.17317128222929576,0.7422216080741817,9.62809474642001,-25.165400028661544,-34.404741400176285,9.186193900424623,32.63483245379932,-16.03782924464328,36.84421561676659,4,S01
2600,-0.24147484141163503,1.0264745706097322,9.755204583664236,-16.310760468403938,-22.321729222786953,16.605219610457006,32.202123364926734,-18.78856616954278,38.40434118226124,4,S01
2620,0.25095093379989464,1.2655831047512693,9.917663315458014,-9.01961818128412,-7.61905398342316,15.982775969216624,31.005389917426285,-15.780365488258669,37.91085361508544,4,S01
2640,0.1795839619591012,1.3195620984483882,10.145791152132789,5.545978169066763,9.390521637671046,10.74502004632187,33.309511946222855,-16.53084138093198,36.909207458049046,4,S01
2660,0.3173502258114776,1.746348815308165,10.332389794275812,3.716430560361064,11.94987557271763,1.8457770199433416,31.262743901575853,-19.666423171097478,37.57004491552252,4,S01
2680,0.36186472167101136,1.9185905501247542,10.427728204797088,14.394509722499524,29.45987061790398,13.893201564008624,31.15446349361742,-18.41152721951297,39.213953717613165,4,S01
2700,0.5562797266207626,2.193747757269989,10.862724329238011,19.019934915385203,37.27060205357601,11.102360344766105,32.38559176061875,-18.007216742748728,39.87415045948902,4,S01
2720,0.6699327196578314,2.3313607501940745,11.023935325965416,27.100428543234667,42.40335085751023,3.2804936998438277,32.36509719856538,-17.936852271151295,39.98064106359876,4,S01
2740,0.7100697150681318,2.4618433796876937,11.212198766458314,25.776448326360786,47.13875302625542,6.18709561659313,32.59459943578154,-17.705423285298593,40.56760297033139,4,S01
2760,0.7480867729333045,2.4986002895856747,11.315077845712493,21.34552813772966,49.93030154668911,8.263683728497675,31.412658617059595,-16.661628382335987,41.72319564660229,4,S01
2780,0.6755118621915243,2.5973087470850516,11.538904452726825,25.63024495897208,45.89419729617052,-0.21175521048363122,33.61569543868407,-18.75560471643107,43.678451382835625,4,S01
2800,0.6272326372577731,2.480809752528616,11.42850969392652,17.119067495116848,41.13335621497519,-3.026833323459397,31.933596091653644,-20.34153195663906,42.40577601667445,4,S01
2820,0.6398720079400388,2.432078005181552,11.51236132707916,11.86493154355134,36.10329318092036,-4.83988038266501,31.721245421648764,-19.125566230752128,40.762875519512285,4,S01
2840,0.4305242583191836,2.4580861668835916,11.583739645945576,7.054139462383929,25.46813728191689,-12.863769753997024,32.60392971833012,-18.690373453187476,40.36533256296267,4,S01
2860,0.42269700427403434,2.231478077851497,11.327918268451638,8.397087160524375,18.937012228316817,-14.666686620400938,32.73819323134221,-19.878440288649898,39.05259621648108,4,S01
2880,0.29037110437178676,2.366736496525065,11.215639294065545,3.301766021598458,17.799135085879318,-11.235104716799079,30.531419117359246,-23.36696134845951,38.3395078630534,4,S01
2900,0.343773954010974,1.8988848047288494,10.920033942455273,7.999887643404063,8.551431311651895,-10.448621661537713,31.5449219024091,-23.86172694897325,36.6364535364329,4,S01
2920,0.23585978502705662,1.8410799334150407,10.755778308795247,-5.387902685121064,3.218472940944552,-14.902210438901765,33.82739631996917,-21.886684695513722,39.111026112324275,4,S01
2940,0.05388977722203482,1.6327959779379166,10.58418043504136,-5.650444933561661,2.9375477491726825,-10.344907349240536,31.264432180486086,-21.710106218079687,35.995814556000774,4,S01
2960,0.012047923125674334,1.3235749367246659,10.370828087818133,-0.625025574609376,-1.8398580543420806,-12.860039149047347,32.05466553013242,-22.579525209304947,36.61069642714755,4,S01
2980,0.008214719039252305,1.146305086686745,10.104937336156464,1.9612485696715138,-5.731468831879376,-14.75712143216842,32.2547191268012,-21.8330345441687,34.151283089571905,4,S01
3000,0.016049356132379233,0.9728370607648968,9.888647492871828,-3.934865878145602,-6.830575594433591,-7.10767259302543,31.08678630325729,-21.832782095326635,34.64397288833291,4,S01
3020,0.05793637705657005,0.819978542979455,9.924217874481249,-12.770431142697472,-8.452451553528885,-8.01647084239532,32.22904450828214,-23.72540597197179,34.18126676759166,4,S01
3040,-0.11944846044254182,0.5889287683781377,9.377802775566769,-13.368383861890539,-20.473358830483274,-8.489087865873804,30.531220614221052,-21.955309704518427,34.74348823337918,4,S01
3060,0.019899694155780828,0.4400246825607284,9.206745375367012,-14.07246618516405,-24.27561242001908,1.6069958178595365,28.561644260774177,-23.346916928553473,34.61501907149737,4,S01
3080,-0.3409654229188014,0.4831530772658012,9.171091812090486,-20.276276000322977,-29.611116354150703,1.7463499776114708,31.733516458664962,-22.22685361061761,34.488757647336314,4,S01
3100,-0.35052226840430645,0.214375434031357,8.953322969815268,-21.838382634965974,-43.82693674443512,1.3621662081613657,31.17504849066294,-23.62691962102525,32.41005520832381,4,S01
3120,-0.31200852134601786,0.38526281023156084,8.882230793870798,-25.17371444985516,-40.198985881705845,2.4417636556663034,29.61365665512113,-22.33322316254843,33.23841606372368,4,S01
3140,-0.3649035668754219,0.14417528886046788,9.097742488458886,-28.297076612021073,-49.04869734839644,6.1630728144273155,29.67507844837888,-24.8897171143218,32.85805669124891,4,S01
3160,-0.5149905060986997,0.3198472436266291,8.9290736536888,-25.973209415366362,-59.748003587186474,7.5168302249166565,29.633219878115355,-23.71702535960952,32.688793317369985,4,S01
3180,-0.7175572482140593,0.1949319690630974,8.834658476673715,-36.85447993092867,-56.59520006395315,10.07263763201094,30.076083898740634,-21.42472278127284,34.40655101812817,4,S01
3200,-0.4560118816174429,0.5565405909480328,9.016820438074339,-31.486916830187738,-50.2856605872367,17.969652101996484,28.543714252148675,-24.40670889532424,33.437644337580984,4,S01
3220,-0.37742432298723627,0.7507208398479757,9.388939604529318,-32.63889216324981,-46.05354462515078,11.207783225871975,28.45196525734748,-23.64420695786419,35.42282678099462,4,S01
3240,-0.322678275517589,0.8912826157508742,9.371948336512819,-23.938570277710195,-37.12032771664333,12.603429948542585,29.236482066910366,-23.687803607500143,33.73104133807906,4,S01
3260,-0.09033677196236009,0.9308563364995519,9.700966585049517,-17.605655070580625,-21.722557070532456,15.853394022520686,28.428555061969124,-23.422117392690822,37.86282289383388,4,S01
3280,0.05750676576822889,1.4675251442458956,9.873261434817092,-14.189120704483333,-8.365338543009909,13.530508612523429,28.675713671348657,-24.509018868712744,36.6741062752729,4,S01
3300,0.16066813296230686,1.381966896327261,9.982503348263895,0.4294081649832302,-1.6040056406684726,16.902293948683408,27.20404169097455,-22.864511226727963,37.779224440754895,4,S01
3320,0.2599108293074806,1.7114952633851102,10.270176766678548,13.230144936979183,20.86016123447113,15.256703362518197,28.20385751966636,-23.6965779931192,39.2790579117643,4,S01
3340,0.3004442747968821,1.676938080097383,10.79884785545628,18.226100990428943,31.708467183636568,8.095503591154957,27.412416226993678,-24.77657812430342,39.232279611522934,4,S01
3360,0.5686613086742955,1.983254980301804,10.999106378068578,19.22875183191123,39.95312552365519,11.449085606248577,27.888741504781496,-21.194716558514664,39.31160608285807,4,S01
3380,0.7292370926393597,2.323213764281908,11.151785233020599,30.491565347178845,49.63219420896904,2.3285944536280034,27.82720730687229,-23.94931083871442,39.727624159551816,4,S01
3400,0.8301796048111619,2.2847381430799145,11.296051426255152,27.22954961973729,52.423559779558715,0.5974124698114779,27.17071929561536,-22.974972674722313,39.8077128689887,4,S01
3420,0.6303296882935258,2.4702384443796084,11.407500528772438,21.99155878374457,50.8852307194345,-0.8884535212077039,25.65598935339576,-23.978279111009027,41.03903616062919,4,S01
3440,0.6968150463292984,2.6635234781688792,11.494471506572177,27.207200691628127,50.488665786284685,-6.959322114670969,25.402113910768545,-21.962675859550124,39.94901237294879,4,S01
3460,0.5219684785892372,2.8336109580085607,11.48461745131353,24.737825987645497,46.289520438140116,-7.484601614592728,26.37441329718572,-22.38251662906803,40.66911518609626,4,S01
3480,0.5010748401853284,2.519988381140196,11.763450838270689,8.759991113131573,38.352606738400475,-10.596164057030938,27.38711523345954,-20.74648376525626,41.69390022954349,4,S01
3500,0.4340217288123346,2.615808236817466,11.527916556008877,13.300930296382294,26.63118956509674,-7.7045263329437645,26.00485256944029,-21.10971467415056,40.12478948433155,4,S01
3520,0.2437315198022334,2.394890864853873,11.473111505109005,3.8477455825069056,18.73387832035,-12.270555211171464,26.398202002422224,-22.415725217505916,39.036898866897786,4,S01
3540,0.2754780274313488,2.0700507685613903,11.25524546216123,2.905187435632744,9.31487138075916,-10.877310748489368,26.50187118773068,-24.07498063686399,38.9837346339773,4,S01
3560,0.2207926584886184,1.9991965661696278,10.984375293289876,-2.8814311114189635,3.1593039155403604,-15.30660986526039,26.516213835830136,-20.877551351150856,38.692003010722225,4,S01
3580,0.2491627933373879,1.7564756127216523,10.737785459331358,-7.874570400528422,7.626922505472096,-16.46308743897735,25.726743330902693,-20.226809294659926,39.09552695741879,4,S01
3600,0.0149509998739763,1.612608127198142,10.718249947941397,-2.1127928608962314,-0.12033187413406998,-17.86010715792384,24.428938477595374,-18.514501743665672,38.89816134130605,4,S01
3620,-0.01564189505495353,1.3492724718591576,10.420041354471657,3.6635638727084334,-3.417473417520231,-20.112913921808584,26.53855673451202,-20.4817135884308,36.26102936264632,4,S01
3640,0.1135859444281927,1.2137141548552952,9.985542289003337,-7.33635182051759,0.906621872771485,-11.252084343932738,26.611269851924312,-20.187932258335884,37.15818246844403,4,S01
3660,0.16273301245510557,1.0751206601794714,9.926052707380272,-10.473472510018059,-12.882974989685096,-13.504527404748943,26.26407704594889,-19.409343000646174,33.62092837774694,4,S01
3680,0.05784072873998932,0.724386317340536,9.575696724854511,-7.869584429813642,-17.044538360305985,-6.864234859683747,24.712886867091264,-18.767802377975784,34.46632346846505,4,S01
3700,-0.05654610826559356,0.6844193280544564,9.47193690194114,-8.945481168948422,-15.029397646339744,-2.613202707431647,25.23561091428241,-17.706090936804834,34.17693677502379,4,S01
3720,-0.2221005099189284,0.3955399362788004,9.301852176335206,-15.488630571998641,-25.835244683323808,-0.05703951817674657,24.405030577100504,-19.099101089526528,33.02698430886479,4,S01
3740,-0.3502385195442742,0.5883708672833412,8.99879344067312,-23.713824795569277,-31.219403408574216,0.8729699140392239,25.46866656984383,-17.281076901267497,32.83162973828798,4,S01
3760,-0.2929978511547181,0.4893585141285495,9.19352948430734,-20.801007059022194,-39.11119066443323,4.768218572341215,24.046123171629134,-18.07850774039879,34.00844842242943,4,S01
3780,-0.45482128581307546,0.13865830112952846,8.76851466414161,-31.28963744753835,-40.306632302926346,10.702797657787684,25.3024436568466,-17.80235785396475,34.0239553535184,4,S01
3800,-0.5178002365867321,0.2803537063595126,8.933516668518587,-34.202799726423294,-44.52622868995492,4.545103120148144,26.636635072465545,-18.637730041052574,34.505840198353866,4,S01
3820,-0.35616868642808097,0.268280201698298,8.995780030387253,-36.20315797535862,-59.42945855474986,8.181299664810814,24.854301672206915,-17.262147353683115,32.63254141538138,4,S01
3840,-0.47205127616095977,0.3759824551688718,8.817596246386467,-40.67599041422719,-53.36184830607903,13.999756940605664,25.56303777017544,-16.08922234177383,35.46102365575994,4,S01
3860,-0.564976642748116,0.4756187758886446,9.217078065688808,-30.560156919728147,-48.25913763988149,13.176604047095713,25.157609846241296,-14.924152577008194,33.64713413822593,4,S01
3880,-0.48098522984015446,0.7797462427108817,9.293386391009259,-28.68082374970838,-47.20364774991842,14.92745409882706,25.591678659989306,-14.39294959397191,35.774737766591116,4,S01
3900,-0.050246565952172056,0.8102788878707963,9.47083304916587,-25.90095240096066,-32.70501329586974,15.419426146977992,26.25899859801318,-15.707634794131494,36.78310619457781,4,S01
3920,-0.015197741107134136,1.1219660417375543,9.49644701650568,-19.32106098561754,-18.930156624144857,10.818072817750478,23.264427632533582,-15.957667864436447,36.8126852933902,4,S01
3940,0.03418263134159634,1.453174815979871,9.973223577632377,-8.377771947455866,-1.4958235030669396,15.370906356859864,25.50741686150316,-15.243498436615633,37.011825622261,4,S01
3960,0.3536294029966648,1.5724672602530612,9.900739610864395,-4.33167598551283,5.6826784982248,11.121022036076754,24.999045169698803,-13.165007812581228,39.15107133345168,4,S01
3980,0.3539598520541529,1.731094087643269,10.494839487873021,6.710799567267833,22.152888272445228,9.61206062262204,25.052117978509294,-13.830620636436542,39.18901498470021,4,S01
4000,0.4860814873651653,1.9788636353643752,10.669786381383119,20.878275684190736,31.102903116586656,7.118698771550783,26.965067339388757,-14.487956608831784,40.98851050875064,4,S01
4020,0.5303305970969984,1.9185848800945497,10.939855564303137,23.831572473228455,44.93003585672334,14.21740411557487,26.060171370887254,-13.929580715181595,40.80044614143373,4,S01
4040,0.8827681956938437,2.399445208903561,11.197064106615294,27.068204385683128,48.49329405942201,6.3901540992136106,27.04386849422934,-14.249368247265863,40.11652536077428,4,S01
4060,0.8212159408370335,2.4374622113219413,11.412871617342162,21.77954751514119,53.020602387945154,0.2596017974472301,26.28451555591198,-13.610514701155505,40.64924780510364,4,S01
4080,0.6261425446303045,2.497428222231105,11.548638507643572,25.02205627321872,49.64875526274477,-3.4323976428667957,24.947128295140587,-12.622941063427813,41.06369632362219,4,S01
4100,0.5774573181606895,2.5266909846139725,11.640948029862045,26.39547154532493,49.863632240993844,-2.731140747378015,27.317828868532594,-13.647598035591994,41.12600683760369,4,S01
4120,0.5408772707939132,2.5667713055817085,11.658817514791467,15.758365233712606,40.70063522168839,-9.544208806687626,26.337049991000804,-12.97187364075819,40.15321666326181,4,S01
4140,0.3799836349201997,2.6255664475377256,11.711603548686117,14.273926433161432,33.45822405122391,-4.9145424250596745,26.44074683352235,-11.843389695600806,40.700590347752296,4,S01
4160,0.39988980590956513,2.5112130303668287,11.514157822404933,7.677535799362523,27.2200952034318,-14.831375219596058,26.45264465407171,-11.047746684295465,39.89674397376385,4,S01
4180,0.35081426712747044,2.318686630730258,11.215841304491198,3.8822870861400594,17.688116826951727,-11.045961831487423,27.85821883658628,-10.130677105183128,40.27238390556142,4,S01
4200,0.1981030360073104,2.2307437504579455,11.260630397774253,6.119245959503158,12.732981258973057,-18.53550743414006,28.843434205793628,-9.848505787469426,39.24365760947132,4,S01
4220,0.16861461490749147,1.8203446422476701,11.052408716808978,-3.4664503358060554,5.745634475558025,-19.81121777855553,26.404663709996214,-11.664983609240208,38.10844164560386,4,S01
4240,0.10185863729108517,1.8193732599613306,10.796085674190056,-2.407892460433021,7.24570615231132,-18.974950079597214,28.632607125036508,-11.763727557117612,36.00066005355062,4,S01
4260,-0.030788022687023298,1.5217754298310977,10.479543189762301,-1.897426942654194,3.33215024297951,-19.696081356117766,28.36841740281457,-11.29121545828868,37.75339833326616,4,S01
4280,0.16970558587959472,1.3889787233444235,10.304277735713663,-0.18235798775370338,1.9120544007432765,-10.257899933340141,27.474862766863385,-11.044025761506536,37.51756271205793,4,S01
4300,0.12754541655732518,1.085103338192135,10.051215275688957,-3.7648656441338346,-1.5925780298522134,-13.982540107964121,28.866126908554072,-11.74066699851199,35.88310916790924,4,S01
4320,-0.0065810625255128125,1.0283906901688329,9.859705720882236,-4.180585625024075,-8.865343605006165,-6.625319684461418,27.236864348184852,-11.064802935314646,35.993319885065034,4,S01
4340,0.007755235143317482,0.809995984623382,9.458048618510071,-15.054965603759577,-7.678202450190752,-7.803881473078766,27.949938379510417,-11.99994067019786,32.49578482681541,4,S01
4360,0.10857118815783437,0.5911318690873859,9.507185789743565,-6.949762539829856,-16.54289402835151,-6.974145262812355,28.765956261539944,-12.187614590559786,33.97198924083804,4,S01
4380,-0.18156168088108318,0.4530430536882522,8.919465540518726,-16.567757505677587,-25.34640461513997,-7.212822809080693,30.721731384755806,-10.79283634870527,33.890818855669096,4,S01
4400,0.0021715695400206098,0.3124206056551043,9.141082216704396,-21.935886716669092,-34.24707191564699,0.6688522609022226,30.215124024698127,-11.008867431796395,33.70243724006822,4,S01
4420,-0.3334495196457351,0.34825513481733616,9.03102765335075,-22.04227202356563,-33.24984091818213,2.6382740108643246,29.71048677192558,-12.454844687690061,34.665702602633424,4,S01
4440,-0.3798391166795124,0.2346366150476113,8.879973184621042,-29.146570541258612,-49.93144111263483,9.128327422047617,28.85345699933549,-11.114283865627026,35.61586512395611,4,S01
4460,-0.47822720293592214,0.364326397468064,8.910683928052455,-34.85422163606679,-54.261957041344274,12.36717412508428,30.12494410690436,-10.622326654730145,35.880146214090225,4,S01
4480,-0.6468869961262186,0.1942071636346449,9.14498331424388,-35.24727502450655,-54.56331445804703,11.022891527034886,31.24388316762771,-12.608062570433951,33.35790655068638,4,S01
4500,-0.45280073012948174,0.4810112376335188,9.013988021270556,-30.519165389478754,-47.36115296063822,10.364414929160171,31.591513346436976,-12.48893177400333,35.27873553230654,4,S01
4520,-0.216622197737141,0.48346864618390456,9.143221252458398,-35.48417716489253,-49.195960204165004,13.505270762867507,32.16350256619302,-12.348363411775917,33.950577658883645,4,S01
4540,-0.3971378866288686,0.6880066165072487,9.34856735454335,-26.70111713209406,-39.74184923993054,19.714064065914993,31.215808302975635,-12.771601938412076,35.54981392684749,4,S01
4560,-0.24864839540885705,0.9224882364341784,9.636784154757331,-20.613324499795922,-36.768206083673796,10.383623849987261,31.30725997745472,-11.269459957148076,37.45362615080161,4,S01
4580,-0.11828992747207959,1.0726338308425476,9.696921580783503,-17.511187638616562,-16.589053645593395,9.808223306865026,29.977834205220688,-13.73522253482724,37.55998008168777,4,S01
4600,0.0369547190491656,1.577891561245462,9.900754429470231,-4.746335869605227,-8.230505562213239,11.079401927527337,30.49557601538206,-11.695564681208282,37.20676614288084,4,S01
4620,0.12141864454546114,1.62582722535515,10.112705701316546,3.794943023790358,11.93202045918696,16.298299656077532,30.887333025979235,-13.689786068886232,39.1264460025408,4,S01
4640,0.5601737286616818,1.6937861888842949,10.458475461773462,16.479341835152603,18.455133054105247,9.552219583500232,31.830516475446938,-13.69845784885986,39.20321601767564,4,S01
4660,0.5275183218208557,1.86897205031683,10.720834027787832,9.961410994147531,37.45868946787513,15.753074152723595,32.947236118655255,-14.030363053784807,39.738450464530615,4,S01
4680,0.5514231164228919,2.200436884193281,11.011918945442337,16.968595947643937,42.02889792674131,8.111075864420274,33.692296068033116,-14.539121467888997,38.251866315127145,4,S01
4700,0.7074140897161522,2.079236301058404,11.137823430217269,26.70171347451915,44.02706692793633,12.292175738117795,30.892221385856573,-15.497025325689618,40.568786406834015,4,S01
4720,0.7407172414907549,2.2924679905745498,11.267947736926452,28.38065433037909,50.45441906292319,0.9604514037670088,31.556580633293915,-15.057142614647054,42.20515833741281,4,S01
4740,0.7020209172787678,2.5009348407631316,11.431954229921336,27.083190396801452,51.513230326401654,-5.669446758494132,32.557343153764506,-15.4395984652256,41.81919339035133,4,S01
4760,0.6237616684926885,2.533861385365323,11.531137944417077,25.408178648054033,47.23914129188446,1.056317593030156,30.486631182133713,-14.498773314441898,40.424012868423105,4,S01
4780,0.7913933164917043,2.3964875905796337,11.619430287486841,19.256807744456093,39.38686027586365,-11.246671551387957,31.220286811637614,-17.627627414423728,40.78414123971929,4,S01
4800,0.7689952169002211,2.578573716573407,11.475899573020385,16.304505740237516,28.090484388941036,-6.211143536726436,33.74045953535048,-18.505029562125692,41.44933294096935,4,S01
4820,0.48733689943060277,2.4570531578321115,11.340009193091472,13.405711242243942,26.450479224013726,-10.723639733206538,32.716738617585264,-17.591347649207265,40.76546885275586,4,S01
4840,0.36086671131150383,2.4064536715160605,11.370440384182073,8.26362681517583,18.019541505559573,-6.826949502515756,32.077666701090386,-14.969818600473705,41.99344299613621,4,S01
4860,0.3484524120239262,2.1897771315164314,11.389813095123541,3.543752326002852,17.380361496523253,-14.568367409237585,31.40044809329863,-18.251004994039953,38.08085024985734,4,S01
4880,0.24160404417082015,1.993759952436995,11.139063947809868,1.4354964947400228,14.81062467250457,-15.292780376953592,31.943072320226765,-16.611798365035952,39.66514378979834,4,S01
4900,0.09461310848304998,1.820491769062186,10.730778916026514,-3.468795658541442,2.401872039902943,-17.156135341968326,31.31812110925509,-18.200503590085805,38.01510515819756,4,S01
4920,0.05750087035761916,1.5712259027707978,10.545149747873003,0.6055550041894682,-1.7773916965071697,-12.985439243788646,33.070067413797034,-17.85206851216777,35.2268058166297,4,S01
4940,0.10215068124552952,1.3875882040175471,10.259305940779036,-2.285769974613827,-4.206272050367189,-13.848549173394112,32.569132462089065,-19.124232784193964,35.76779543295921,4,S01
4960,0.09805944168998108,1.0686977987452382,10.16289608093047,-2.165933152295614,-7.45983228512019,-16.163237891644435,32.36983471903873,-20.76615679985538,34.25359849505543,4,S01
4980,0.07170824739657085,1.0352746481341435,9.760021701021328,-6.279157991992459,-15.665423621224978,-17.59847952134309,31.20574721274537,-19.25209443026889,34.7101061866892,4,S01
5000,0.21271832587613385,0.7823296269795204,9.5117416396521,-7.5290166062891455,-12.301430518621316,-5.479334701805287,32.39780088684489,-19.35365471694795,35.8504065503149,4,S01
5020,-0.11714320590703864,0.5689233137674419,9.340361260605166,-9.567842559962472,-18.86722067639361,-7.086420553737424,33.58131723106573,-22.378280155291712,34.05211755528579,4,S01
5040,-0.06124635081380567,0.48630071329048624,9.166987594192447,-22.680112691863503,-27.506097236572753,-5.124124204481058,33.48513748180329,-20.695332066026587,32.87029897473757,4,S01
5060,-0.36081643343080705,0.1831453674246738,9.022964939661017,-16.938469436589614,-32.159383779589305,7.72371540015993,33.14702364587197,-19.40706539762155,32.28896922724567,4,S01
5080,-0.4434634328492978,0.19572538814782814,9.016837667048632,-23.94891349524487,-39.045537000874205,2.768973694343722,31.904260329567663,-21.434224537426275,32.28244601905797,4,S01
5100,-0.5089943970786147,0.14528242755520304,8.787105231731406,-22.055872820830157,-43.833968835897466,8.047682711482604,32.17560817994059,-20.928641280895835,33.3371266879472,4,S01
5120,-0.3651016992684767,0.34667056172797694,8.820658179898219,-26.318087065955527,-52.78243975010104,12.368591923737565,31.348495323738263,-21.562056783070098,33.19531047216853,4,S01
5140,-0.6958982661743709,0.16126538497147502,9.084421687530062,-30.456143304149826,-53.37331144069971,10.418796697834587,32.47938848516771,-20.953086462132344,32.065870495068395,4,S01
5160,-0.6824755622133493,0.4639156497399725,9.011090789670254,-39.03700394557058,-49.60005071377941,17.048977767392277,30.579603752253693,-21.720268627648473,34.62964785305419,4,S01
5180,-0.5486294409850935,0.5980728373128288,9.003025298169378,-28.583544321188405,-50.15877315137015,13.204802505591514,31.40678694764696,-21.908811908341143,34.79582903507877,4,S01
5200,-0.29771248412873896,0.7593965592001575,9.388663870654334,-31.9821235095185,-43.23233484685094,14.164707102945036,31.339417894354654,-23.3855750639011,37.15811093705499,4,S01
5220,-0.22327796177689566,0.8571701963550673,9.507617825006752,-21.98982400016322,-26.418126071947736,13.837418427060049,30.51683510270947,-21.971392534574804,35.67846239908175,4,S01
5240,-0.01350264348792976,1.0377500175566556,9.613573086832888,-10.092472099396801,-17.300479188779747,17.67098268020942,31.21874714145188,-24.976642769013843,35.883601029187346,4,S01
5260,0.03973345093023628,1.4764635102069144,9.976233759691699,-6.716692513000657,-2.4168631633559006,11.194088526747125,31.46213097255673,-23.188573489302804,37.10254926745437,4,S01
5280,0.2662549366444615,1.7621617652981936,10.225919207482308,1.1236856232251133,14.232274007398205,14.047841723939973,31.42326448896193,-22.263759704247946,38.76997891821476,4,S01
5300,0.5625568586652069,1.8640518260307506,10.385308374202218,9.460956012443258,20.819349875915556,11.840762612285253,31.346857015149293,-24.78437085594053,37.72352253862292,4,S01
5320,0.4911010333746847,2.23618391026564,10.689751077186953,21.66299304796915,37.70031252877005,14.025780047365044,31.49058843234219,-23.612126952093497,39.815559538948484,4,S01
5340,0.5241853275952572,2.254052156210743,10.865434486757946,25.877074039563013,51.6033389865117,7.40671972854262,28.901322966616558,-23.556224797565655,39.87207078381752,4,S01
5360,0.7752023891615116,2.2882196064784286,11.077308615310729,29.407619899529355,43.27147441620464,10.283162783206587,27.29200247798267,-24.03753735771304,39.98481989968524,4,S01
5380,0.6654593844845661,2.6406752384095986,11.467797231268577,29.082023551926067,48.91373131936684,11.192610435285944,29.283291703444686,-21.438719947902538,39.67973811344955,4,S01
5400,0.7049124413925726,2.538632577212601,11.348193814417057,26.14277656994984,46.4744525249085,1.41951109745838,30.29323910487019,-23.12111154848981,40.54619848184039,4,S01
5420,0.5391945723580093,2.5302109954339147,11.488336609985286,27.39478115297989,48.29243824889531,-4.009922155445686,29.51204713250319,-25.55596561138333,40.45619047786058,4,S01
5440,0.6366999171589154,2.5344561276549995,11.751049129365295,20.784020606889637,42.928125708960884,-11.499419492759724,27.18834816766557,-22.62214520009964,41.40158666410525,4,S01
5460,0.36912157929027434,2.523837535997911,11.504103766018437,3.681849738691283,34.43019604565739,-14.018614411514358,28.44087366789289,-22.737385482273268,41.17922841584478,4,S01
5480,0.3194356025002079,2.4164223691885915,11.502284920901575,12.589127497043876,30.149341945640618,-15.731706998193419,29.27369258618213,-25.288654445095702,39.9748870671391,4,S01
5500,0.317649830555205,2.4092850702060136,11.449446372689378,2.0146632247291194,18.501476945411163,-16.985943847570105,27.280813058285048,-22.2713961564149,39.50038546057517,4,S01
5520,0.2719988460526534,2.092331487680829,11.14875585786146,3.8460080378531485,11.521956054209301,-9.438339530741224,25.392093488576847,-24.096741055360564,38.653034397188115,4,S01
5540,0.3190196607606808,1.9876379769229289,11.109567785891137,3.5962927027298166,11.429825243427823,-11.790472178830056,29.136971883712246,-23.026704643400727,37.639086833164654,4,S01
5560,0.2504181997358266,1.769121110848747,10.855179580104995,0.5148991690989559,4.128189998806929,-10.965962357962157,26.583209977703902,-22.862837992371368,37.07850290036393,4,S01
5580,0.061560939332021516,1.5552583647334615,10.365925160120659,-6.771758440001195,3.5023412278286683,-16.008585809727553,27.138080071466497,-24.162059885845476,37.55384863437511,4,S01
5600,0.1895644900049613,1.307299097136877,10.417622514667753,-6.922622409139368,4.159320639464972,-10.935160663067656,26.461919427391766,-20.831941516411817,37.72108845427233,4,S01
5620,0.10275625747338055,1.1425007778024017,9.837014740350584,-5.680197271081678,-6.488837787600196,-15.185957113154128,26.20388439577416,-25.512895254902027,36.305314222865604,4,S01
5640,-0.04083153371177803,0.8743704835845028,10.065859318270189,-7.431704356970705,-9.338683929771507,-9.319485514108907,27.36644326381679,-22.138147246410252,35.4080658381623,4,S01
5660,-0.11299832759187439,0.8861539877671589,9.643191108840636,-9.413031410096586,-10.910199772431298,-4.853246740163339,28.62375830872467,-21.910800112374915,36.07548306920884,4,S01
5680,-0.11158499925748314,0.4752142543634406,9.340466691784732,-2.6385134727055393,-25.55728256138202,-0.7516149311069539,28.051923805768972,-21.068618291632134,34.05950779935298,4,S01
5700,-0.282658065391181,0.32557297022964704,9.162463307632866,-22.92178368099458,-24.052015280643225,-4.58062423311908,26.47014944328895,-23.122292323529486,32.188697679723674,4,S01
5720,-0.2972577205275392,0.28261893989635084,8.962811609918125,-18.823583977081704,-33.852301526583446,-2.297795332039475,22.984798625804018,-22.71735678481899,33.61113039053521,4,S01
5740,-0.5153687630128223,0.18464285672030079,9.065608094330484,-25.085976767589024,-33.92532980072733,9.328523418426663,25.873447666539757,-21.999597680264344,32.45070181010602,4,S01
5760,-0.4092212138809237,0.0731615073447251,9.039260750779217,-29.093863603317004,-47.3130103013051,10.766816118785027,25.165351652943833,-21.299737320752577,34.25162048105178,4,S01
5780,-0.5779126667629478,0.21170315625040104,8.846029493814598,-28.661864711648587,-49.07666532584632,7.590975535055367,25.13903517441645,-20.382686161693073,34.53128821610149,4,S01
5800,-0.5086072685916948,0.32827410449443895,8.959093356322654,-29.02012697773445,-56.47566914955482,7.081445403713253,25.935277589856074,-19.73575515430162,34.900813796215814,4,S01
5820,-0.4977553930364208,0.3646491777571742,9.051279882975226,-38.30713248848722,-52.83884908018974,11.36875894649821,25.420354339221912,-19.42762612304968,34.6521065920248,4,S01
5840,-0.4177117697638063,0.485765557875733,9.142170498551772,-36.11365457716953,-44.28321990737513,10.331716355084797,24.58790876989137,-20.74329094951438,37.366587469415336,4,S01
5860,-0.3324180565825855,0.7713799763710123,9.26768065203028,-27.234151949407583,-43.3920463588842,14.12530978015521,23.914469032732757,-17.1226511986007,35.227436721859746,4,S01
5880,-0.12734717116128297,0.9267576868670966,9.439119398632826,-18.65113337807319,-24.48744125260958,12.660524333920732,26.35194901273682,-18.770285355509927,35.685092526418934,4,S01
5900,-0.08777139885759816,1.2983770802610366,9.762149745091154,-15.158349143070293,-14.43054128295643,14.319251806833941,25.08630010304836,-17.56256959105454,36.626075946540276,4,S01
5920,0.1594665120872526,1.2717060377121385,10.031312228930004,3.587720124214945,-0.34205345159292655,17.424894455982262,25.394244602875467,-17.85487996136054,36.860237365680945,4,S01
5940,0.14203671115716873,1.5711605448740822,10.243258122926289,1.342225403129631,11.23902656382893,14.159355987080117,24.99408625420256,-18.16259117762739,38.95755947222139,4,S01
5960,0.15800914084443368,1.878395075827162,10.505082676472338,11.00496362270814,22.25719866753882,13.528143739118342,27.199553965512433,-18.230696875277935,38.8082645147572,4,S01
5980,0.4911076753138216,2.175055420666285,10.867565961788197,16.08226377276053,41.88386043055651,14.522878392893427,25.24199392800995,-16.176832832957874,39.84840083270255,4,S01
6000,0.5753091345988948,2.123078096981695,10.951798242354318,19.60318996857209,44.58664665777814,3.3142140310140626,25.87149236628175,-13.945119237778677,38.94246252873973,4,S01
6020,0.6818291657153519,2.2001845513860774,11.136968765891528,29.497464791446443,45.32027702074571,3.2773640791027687,26.11304675898502,-16.777435003652656,39.67648243726155,4,S01
6040,0.72896104497004,2.34735345388112,11.356592642372613,33.16448430964737,49.79243762994858,1.6272518490512016,26.18710893789449,-15.833172145727675,41.24086560606053,4,S01
6060,0.7860694369665391,2.6673533968674263,11.373426399712702,24.847940892666337,49.344596474543515,5.842544519174187,23.92727934347773,-14.15724821095309,41.85254365952859,4,S01
6080,0.7063692007547826,2.6538873997175663,11.496133976721817,18.225223223885525,42.88779723035462,-7.314369894691173,25.35987860602481,-14.764103427029536,41.455441845818775,4,S01
6100,0.6231381199489877,2.778648924812102,11.49000414341371,21.576334540248364,38.81780186322726,-8.724450709129574,24.207278502929565,-16.01028423855433,40.98402797797074,4,S01
6120,0.4740761190519893,2.5336662346202474,11.542073431357643,15.461629868458772,27.367760308478765,-2.717439035747526,26.180063729121127,-14.77539463976748,40.42801358482884,4,S01
6140,0.42760351422013876,2.406672608834969,11.300651851653935,5.9830601618993375,21.755095379323897,-7.842709563126819,25.627313863914203,-14.749621429865645,41.43002401640976,4,S01
6160,0.18544396159248444,2.4121594974380822,11.241314980928296,5.037592991155177,22.587937987303366,-13.747317208671413,25.935160614892915,-14.311958870806503,39.25678835200156,4,S01
6180,0.29895938306542946,2.0784339634248217,11.125775862311313,6.627698306372085,12.648051486639552,-10.699816171438604,26.21252177507773,-14.31339087422332,40.4774400342389,4,S01
6200,0.1484618054804283,1.8973804147796038,10.940679945940312,-4.298023318103969,10.516897511125727,-18.109884187185298,25.60062994680392,-13.69863990583796,37.568564258493836,4,S01
6220,0.07144864106997298,1.6203282329511683,10.82678093141377,-3.310410698733797,-0.03915781668924745,-18.647847603524117,26.085845542484797,-12.221399528947305,37.4076959425398,4,S01
6240,0.005617371576775526,1.4176200358324793,10.360150045333842,0.1904218735858727,0.3519038468288662,-16.893866089189725,25.572663823646838,-11.84562343431282,37.916235298350244,4,S01
6260,-0.03790019706869996,1.3342802498621202,10.138056851491818,-0.44948187849649734,-0.713515796852294,-8.349762934722271,25.736090719808267,-14.24411222928666,35.64261939238449,4,S01
6280,0.1051067695255537,1.0994160969007025,9.94620588555254,-5.622553301442677,-3.737012383002999,-11.401551523077378,25.92847242461047,-10.054821530851825,35.45823796433177,4,S01
6300,0.024590204607571886,0.8413716261151623,9.630230333820565,-5.473083121926324,-10.029989401112465,-7.267616312344537,27.264039947213604,-14.389595953830518,35.452452636159556,4,S01
6320,0.012132638953307823,0.7091035132470802,9.419239330448503,-12.853561611130626,-12.97977762511768,-5.800573482199751,26.12431828055759,-11.310508858880283,32.57270816786689,4,S01
6340,-0.031196279146846945,0.5740535299038461,9.269599059879669,-10.859388312074802,-14.701033594026521,0.7062806889170851,26.616937078572146,-12.446598105361181,30.710477892191474,4,S01
6360,-0.07251132959828785,0.21216053620160602,9.163338139995833,-16.381507335056845,-29.209162620669147,2.04444941073576,27.936292661473107,-9.52596913150851,35.25844752510527,4,S01
6380,-0.18461164613843797,0.3433595703845702,9.056392104903283,-22.38610534661081,-34.92350205816771,1.7843553918111499,28.790000716431223,-13.69002041246192,32.92843109661804,4,S01
6400,-0.4494416989302007,0.2501690087150146,9.071683939472676,-28.40270812516971,-47.95769602006672,1.0595442027753164,26.90075673855059,-12.360276082251648,34.77887697046555,4,S01
6420,-0.520406009960148,0.15087290745337187,8.95013938230196,-28.948302395220455,-45.71377821500044,8.41606093510022,27.790624456125,-9.898678313873127,34.442780532629484,4,S01
6440,-0.4360636149610947,0.26158881071026197,8.873645143540365,-27.58101625364846,-51.93143051605721,8.787447238330794,29.540273501168958,-9.97687507347343,31.821824537364687,4,S01
6460,-0.5554476179916618,0.311530540285901,8.756636511127798,-33.84610826729408,-47.53481697268936,11.565811658596635,29.177335202498114,-11.799211705458816,35.82758642349245,4,S01
6480,-0.36268912935434117,0.4307191925352462,9.031371747655026,-39.364991197718886,-47.83454428968388,20.322188042235812,27.101897973105633,-11.785552656090028,32.354889888708726,4,S01
6500,-0.4574422609971066,0.4680942123779292,8.982670869282876,-30.406045216289957,-49.465324424791916,11.7863890533762,28.679214419060777,-9.395076219511816,35.97379007030334,4,S01
6520,-0.27145801811585457,0.791645537747433,9.495444394214001,-19.876683102520463,-40.359033975365044,10.112359543526022,27.800447368796096,-12.693263567686515,36.240885124137804,4,S01
6540,-0.2997472986415356,0.8730646289141233,9.587625604878857,-19.41884822453984,-30.233688500972733,13.523478353252687,29.65122437641703,-13.358741724405975,38.464403790236574,4,S01
6560,0.024014759249244483,1.1293756479507406,9.73048173811663,-10.899911149722808,-12.189187707759137,15.117739113161692,28.61749937408253,-10.525938455360318,37.00898782642934,4,S01
6580,0.1523461924854121,1.3245912206945047,9.97255107231893,-6.719477106480232,0.9720401642873948,11.145993388434013,29.687178503785784,-11.218476678761876,38.31598346094135,4,S01
6600,0.2567365781719797,1.5813937856450522,10.311348829383979,-2.9118345859333354,17.65206542875048,16.46523696761024,29.496652075693675,-10.272387753330879,39.26579188186373,4,S01
6620,0.3338600597509119,1.8409178931663497,10.496201574373083,8.35693826160518,27.95921261588083,6.597922156484367,29.465179619675215,-11.672413823267034,39.809947590160974,4,S01
6640,0.7210611386644848,2.1361417794398614,10.827371967383366,19.718986494641104,35.063292971998344,9.778168269013982,29.894237273158183,-9.16605187999853,41.61102044004921,4,S01
6660,0.6391264471522484,2.3309192112291615,11.10715743945001,28.091704547676816,43.677737932273224,5.481310808357455,30.283887339771336,-13.015340916247414,41.34904951641032,4,S01
6680,0.5250341884213489,2.360506522933027,11.296485786752713,27.764240505326867,51.828909687656875,6.180411754715806,30.039566902485053,-13.286773083987253,41.09055949110261,4,S01
6700,0.7358016437629066,2.6288644747149763,11.354467250534533,20.81687461073052,43.56036333292816,-6.200571682574886,30.066509741908312,-11.374184744242035,40.040689554136094,4,S01
6720,0.7907489620519664,2.661574647728475,11.493760925289251,24.729230402403115,51.11910863754601,4.9626136586609775,31.488105730303328,-11.092411602273728,41.627247615377264,4,S01
6740,0.6091950742825013,2.6222721157088156,11.691888318967136,16.686291992157585,37.71589711367588,-6.041370653569606,31.298281011904223,-12.837990037764142,41.53884334099016,4,S01
6760,0.5559145062571013,2.379749056482702,11.518538278004637,11.606743660022058,39.0956260877314,-7.117739170307596,30.4948623842945,-11.449896963740319,40.17485856128739,4,S01
6780,0.4808790584778474,2.5050668886585994,11.529386048222328,14.457042431038943,31.192181803983413,-12.400410469022622,33.08117434150708,-10.732195938920478,41.43613051232594,4,S01
6800,0.36679661541876696,2.232064059034686,11.465550473185381,9.642719900461667,18.60484453243542,-5.508985849498868,31.265190726430692,-12.859666885047723,39.8293535527353,4,S01
6820,0.3821695851247211,2.237148747548685,11.179581526997104,-1.4796359592350194,18.597810721161736,-15.017289382221469,32.65228309367957,-12.849369866807068,41.42759843930271,4,S01
6840,0.2362168808919362,2.164324799337371,11.144389714607424,-2.070687851466819,9.39071219009902,-16.11602191407129,32.27750476890635,-13.076912736000777,39.04211207456047,4,S01
6860,0.23132428820240566,1.8075772006565618,10.871065110733438,-6.701901819441352,4.449434212935179,-9.369586269792885,32.029503097244,-14.985077383783468,37.198993915590044,4,S01
6880,0.09651409858765254,1.7474278912341532,10.819513150080851,-3.5871249988514293,6.228118413091843,-8.748798936622256,32.79199489460463,-16.030935423943255,38.53712726084083,4,S01
6900,0.16038759371893682,1.49717462010017,10.447953284741104,-2.607766137500704,-1.0420985900198927,-16.99989379817339,31.49078130361015,-15.766662085978972,36.293120247694084,4,S01
6920,0.08232849803941882,1.3774395648583875,10.161603531898264,-0.5301919185327031,1.5992977443940248,-8.517250849808937,32.38201961172001,-16.752680583559954,35.87926999169328,4,S01
6940,0.03719394907430977,1.0168484606071613,9.966691778249942,-9.142408554935894,-4.0406065033220155,-12.19796930156346,31.502451532312843,-15.70929922888266,36.50233859825571,4,S01
6960,-0.0428506776088535,0.8932619979918166,9.750854459921419,-12.962379532306691,-7.533639740021129,-6.965859424389743,31.061323515556047,-14.027068344846482,35.18393531738026,4,S01
6980,-0.018132954746777397,0.5670894354711371,9.50256072915029,-17.711412914128587,-11.37743248527153,-7.8462901161026135,32.958636322887884,-16.707746590769215,32.721497868157435,4,S01
7000,-0.009829166291467475,0.5143936803426596,9.349750943843372,-12.248382355840661,-21.028591613224936,-8.367418820568721,32.08630179631169,-18.11754582316138,34.18089711995462,4,S01
7020,0.028414974724397316,0.24360612959862538,9.325981319570712,-21.371957804650993,-19.120407447381485,-4.430653789362458,33.36148628516716,-15.000538528022636,33.667575236554114,4,S01
7040,-0.1689789918344395,0.20720048018616793,9.079469142959638,-16.59861207930607,-35.26038168685092,6.620512887446518,33.13402265143753,-17.89220290457849,33.624676563252244,4,S01
7060,-0.24734880769078707,0.3985658496360654,8.889732977016138,-26.817774601983025,-42.43323709021856,9.674943382630174,31.87567589886361,-17.337662998261507,33.02013558640945,4,S01
7080,-0.34018488697885596,0.31397309335704576,8.884263393822975,-27.872582465323372,-50.46702175046124,10.610568814115497,33.75408523603303,-17.905409413933832,32.81922364454911,4,S01
7100,-0.5543961480036841,0.183808596227939,9.058068302117045,-40.03952580792995,-52.71657266295757,14.602851104173213,30.993600048920175,-17.150417063477626,34.68215604442651,4,S01
7120,-0.5978976729079911,0.10391178675922191,8.998126003142303,-35.98343074732377,-54.67821176883766,15.548095819228362,32.165265012648575,-19.64649563039995,34.88644155942025,4,S01
7140,-0.3839819014284077,0.32576508214066285,8.9513672453376,-35.96457166277706,-46.031074622625326,15.965058374635175,33.020364637274554,-18.641332032721124,35.30732171425882,4,S01
7160,-0.5064010121079852,0.6215129319962382,9.011437788094764,-33.74572512228404,-37.05991340791924,12.2958186564554,33.552913017026015,-20.17750833385011,36.04092284795068,4,S01
7180,-0.28376321773384316,0.764897925791957,9.321791552090827,-30.18922207579011,-33.254166929394415,16.821453373786788,30.716849495737932,-18.396295740718408,35.39985487721065,4,S01
7200,-0.3622993836894691,0.8479605267171062,9.597098582532608,-21.674386759531387,-27.902232190932892,15.581099282287502,31.664076853863836,-20.544137459857023,36.60880382772448,4,S01
7220,0.097807918665987,1.266603733344676,9.653306824438896,-8.770273160600393,-11.389729292264606,14.595498023172018,30.89716966289508,-21.358174790283613,37.73158049884797,4,S01
7240,0.29181385092523227,1.3884747272379385,10.093515010778255,-6.928239985292855,0.3833437941114002,10.732027349497175,32.004794333729215,-19.565211264074225,37.11107383730889,4,S01
7260,0.5758738149684896,1.7747501506758256,10.42473100107755,8.107305207057578,6.712708858808905,8.111869725534806,33.22113233648895,-20.913881575851445,38.84203743782222,4,S01
7280,0.3537636804351426,2.044058147166313,10.637161205477543,10.554620306607777,28.87451523842409,10.878271545947344,33.06943533773388,-21.974855681939264,38.40232630714512,4,S01
7300,0.6287582470763997,2.1000871666044736,10.705581839322221,20.98839752574663,35.428677315279884,6.720657999285541,32.03725124117145,-22.55393833083836,39.19286863838112,4,S01
7320,0.7426759544945948,2.388760707009561,11.06471611739373,24.190250079558417,52.9378214394713,3.150443432795154,33.120393339622055,-21.67061906137572,39.951614277841045,4,S01
7340,0.5810201764113982,2.344810625770258,11.414234953193457,29.05403636112523,55.3410613333715,-2.5842410968721246,31.001289825850463,-22.09808618853101,42.389388172342066,4,S01
7360,0.8175076565334194,2.3722728213527393,11.351522130730688,29.197016923728494,50.213370028466855,2.5150724313106423,33.32650301605683,-22.997174580970565,42.24293775157379,4,S01
7380,0.7664808577032588,2.5416202515043285,11.504204704081145,23.63170059431783,51.62257685905697,0.31266195760186377,30.99099852678271,-23.096290571726072,40.84163225174851,4,S01
7400,0.7552948908988754,2.5481388418523103,11.639291589422859,20.52117728186456,39.31342130507392,-5.749479334563431,30.242510845611715,-22.321832837220562,42.156329756347446,4,S01
7420,0.5032861247335145,2.582857934378175,11.632429008612823,21.93110103993141,30.550413691985963,-5.295114357410496,31.619562824283342,-22.084366121099734,40.55276057960032,4,S01
7440,0.36562432851244453,2.2987366210149602,11.350494609904345,12.587813083764697,34.07917130176705,-7.556475560094929,32.93900043595485,-24.448068837951435,39.55301919154713,4,S01
7460,0.18850311092337554,2.5073643313321603,11.390868417303631,8.378604446590831,23.297706060989015,-11.404164368203805,31.19785221926519,-23.939870506707724,40.49233644986957,4,S01
7480,0.15870940947815326,2.236214236287767,11.14038741104198,5.714912592800011,13.932367436671312,-6.624168378196184,30.00276755216879,-25.768954596316036,41.03366010008712,4,S01
7500,0.06658131961114638,2.1954041483503453,11.074564695789704,-2.8464148516528383,13.80466802879623,-11.97523008486327,29.160550975324462,-20.806988887264534,39.04524952488853,4,S01
7520,0.22676363881398776,1.9380176489963234,10.818103751558862,0.9987729723518042,10.450675777304742,-14.581092636359415,28.365479651762488,-23.456247772297974,37.21859045585533,4,S01
7540,0.1514752188255606,1.703315585763829,10.606717603435486,-7.398308571812612,1.896354840821045,-7.628690859261644,30.150971476057745,-22.769038902305894,36.52282602818036,4,S01
7560,0.1667924841149285,1.6086037942413274,10.500748498736398,5.1841441240789505,-1.5548229465346992,-17.630291125338317,30.053613071696773,-26.580094575128566,35.64199799935138,4,S01
7580,-0.0034862015383036182,1.3055349205813707,10.052136508665885,-9.314453561789836,0.8014037434347687,-10.205502239625586,28.394732506783328,-24.10387566666336,36.6167034787765,4,S01
7600,0.1288186727224424,0.9642504091017277,10.07265767042991,-11.513137603768504,-6.101142102201816,-12.699666035242808,29.3517563020105,-25.222101024755588,35.81367409299975,4,S01
7620,-0.007800997456673897,0.9553960103322106,9.806860091484094,-2.3049100240060794,-13.626145966511412,-6.57303340307894,29.525195276900423,-24.27910282202291,34.61868612167889,4,S01
7640,0.11141450241547009,0.7654671759752116,9.362347679974626,-11.026810075013335,-20.965755244085422,-4.213406349128112,29.67532881213903,-24.77090951122296,34.55263005107587,4,S01
7660,0.027010557776930733,0.42146144907230776,9.181179225360356,-13.878230540622408,-24.013280961325517,-3.387939535786092,27.1889333943561,-22.903678021535022,34.04810159954209,4,S01
7680,-0.24864869024905914,0.47452715090184777,9.29254380630666,-14.186420955229888,-28.141713597522102,2.6539964061368067,27.918070892121808,-22.059938239147677,32.275535762582074,4,S01
7700,-0.34126683893135146,0.2295270188890286,8.942806031991186,-23.899178324644208,-34.894230773282146,4.8696328733345515,27.16817304939488,-24.585302969509044,32.5350256547849,4,S01
7720,-0.40843677923496957,0.08176399383916574,8.927974639446576,-31.68824027109634,-40.74470981312916,9.001376518588811,28.20783867267905,-23.50659894563509,33.9715454014333,4,S01
7740,-0.3693514376625461,0.15929472484502358,8.777421400312011,-33.07713427103162,-41.98820622097406,3.295068899902726,27.13995030956612,-23.141604652352182,33.388540996435644,4,S01
7760,-0.3652622392119119,0.37893944110631983,9.102871817531025,-33.456364893345715,-53.40777279596992,13.717027414111024,28.29637678486683,-22.2769832075423,34.58311036282399,4,S01
7780,-0.6573839923378407,0.17965825793251433,9.075615003807192,-37.499024829935806,-54.37727637600986,12.230797490861532,28.389088365687474,-21.530067421713124,33.41770605529563,4,S01
7800,-0.4871525445713034,0.5459412736210234,9.030260010781962,-29.14794821880428,-50.11627837352882,15.358326230020065,27.268573691730964,-22.49900046096394,35.11362662216968,4,S01
7820,-0.5012065666666901,0.6264874003789351,9.28458609064098,-28.827525912667248,-44.447019759673125,19.60212637578374,26.800458546977154,-22.545468543219705,35.75995176672011,4,S01
7840,-0.32414013131603414,0.9369768673070027,9.510647909415498,-20.14057853812367,-37.53039052665834,15.281866383284688,27.62071826191703,-22.330818840336526,34.569397072093736,4,S01
7860,-0.2853719484828504,0.9349314785309484,9.65530628597117,-17.86774044255624,-22.64667484907577,12.897471551882122,26.982956072800846,-22.54307024138133,37.142006556484965,4,S01
7880,-0.034199045872521455,1.1695979742218425,9.908382063191617,-15.058346951194327,-13.800385323043306,8.94420367036434,26.601549794313705,-22.058541789046572,37.37219631493581,4,S01
7900,0.21138826871146266,1.5412624790848157,10.05232129221156,1.7919956974348752,3.9425835510557654,20.599733499647513,26.979220700914706,-21.902914279407593,39.81055772060805,4,S01
7920,0.24484930686918577,1.4564570758032476,10.250047582596896,4.957505672052544,14.411036286422373,20.02537800270719,25.522086971521823,-20.31173467633584,38.08797941606123,4,S01
7940,0.5872223983713674,1.7407993785296383,10.737815295564834,8.681207173156299,32.72079234487663,18.370257911510706,26.20889410018077,-19.38500074149715,38.991252057521045,4,S01
7960,0.5038493340041407,2.0033016572316265,10.857039409275234,21.876704672035586,41.14626047946012,13.729910643547202,24.662127699670073,-21.50117124892494,38.23555318443664,4,S01
7980,0.708032933647096,2.1646223118869514,11.066889157926198,19.146102434811088,45.624882739253444,7.711137298709178,25.62858374050323,-19.907928341262295,40.790179234562814,4,S01
8000,0.7736627041491251,2.3871663707220594,11.441351588805464,22.963600511844685,51.15665801690117,-8.096049476285353,25.61409889826736,-19.213133729423056,42.02973628531556,4,S01
8020,0.7660600463057433,2.400721109984356,11.443372281940247,28.44255652807937,50.926513087698524,2.48069676648671,26.289986628297843,-20.360391703142746,41.110136694955465,4,S01
8040,0.7715234628306604,2.6660516139578356,11.705561545020556,26.547459016010027,50.694340242808934,-9.685285174750062,25.79617062152353,-18.728738397081713,40.796803762014946,4,S01
8060,0.6520968800784468,2.597285105615332,11.650258235649632,22.647422199145343,40.57437506737593,0.35319229653747486,26.565641167680706,-18.89067840986022,41.72109297923535,4,S01
8080,0.5470611034038614,2.4374276303582096,11.742922282062983,18.038925306482362,33.99317911160325,-10.770511980440954,27.342666178062096,-18.6577295933837,41.131543414907554,4,S01
8100,0.48053352026462826,2.503108480650223,11.490749269144228,12.400819261636837,29.63767966131495,-11.555019093856654,26.201450661069174,-17.44128656694393,42.813533901780744,4,S01
8120,0.42250965962241394,2.4479683962782226,11.236139266717775,7.857153643858536,22.986253262717668,-10.130602090250296,23.346143444702513,-18.32299625043086,40.513202726217116,4,S01
8140,0.4130550916943726,2.2228266876396914,11.271794925105697,2.2288115103604715,19.753093064572493,-14.967184433089622,24.832721198916126,-16.7454416791203,38.16269947907017,4,S01
8160,0.3488575329275471,2.043770237914037,10.941003883311607,1.6736070376422214,10.471455368257764,-23.52983243475439,25.939375698737777,-18.43183743131601,38.493454416753984,4,S01
8180,0.16619454489599078,1.7365084219933369,11.094407390105795,-3.0287416480244707,0.5045414804866379,-19.908221317895418,23.369286700494637,-17.524260711781423,37.18415098114592,4,S01
8200,0.1424689700597643,1.624046149819833,10.567343724266244,-4.2183163745347905,8.62829979387849,-7.899420558807956,25.506049492776906,-17.122453612339907,39.10123572640587,4,S01
8220,0.16560759724267915,1.3286451518193534,10.315503266631216,-1.667601308061898,2.0359049963001468,-11.070498329147235,25.746404873419927,-17.831310820397537,36.88889576906838,4,S01
8240,-0.025607523461275955,1.161608376681444,10.055276763278217,-3.4907820985744866,-0.8326351839681034,-10.548738008729103,26.36053682307215,-14.965767724499035,36.51551854735925,4,S01
8260,0.014511155701501507,0.929111696846513,10.041644163555688,-5.326610716066942,-2.176618952792815,-13.908560384710285,27.07452166758384,-17.03047863411902,34.48612491105128,4,S01
8280,0.019253813068331987,0.7828244433673328,9.67958033629561,-4.8526944733252515,-11.405033167655448,-5.586952078329048,25.261590842951627,-14.881842357944373,35.02180248096006,4,S01
8300,0.04940325068464929,0.7249925593901687,9.448673947917502,-8.817957576941623,-21.402697071005477,-4.89867678177104,24.346990593534866,-17.06188372412236,34.46302993509029,4,S01
8320,-0.07679467130238224,0.2851832542309511,9.250007853998884,-14.014930951796245,-24.99241333768037,2.464669358611197,25.209498850035978,-14.599631664439364,34.843008594541914,4,S01
8340,-0.26546194363676734,0.2733390060209455,8.946654067955391,-16.511579274344644,-25.435979662926627,0.21559566391515095,25.916125901901857,-15.32367872878811,33.97841234296929,4,S01
8360,-0.22254705266196648,0.08414505409061432,8.864539412920747,-21.072735529451617,-34.81643631048764,3.777323373633444,25.508931545371397,-13.926059777435594,34.271387139058255,4,S01
8380,-0.541160453254931,0.2574880633349296,8.914897647214094,-28.1815231856042,-45.533289954511936,0.421010139278032,26.01749474209308,-11.617678823432941,33.70185594175764,4,S01
8400,-0.417383640163957,0.19601663770703043,9.006874320042497,-32.75124977807415,-48.073980029941524,14.886479830270803,26.010851518055077,-13.375281474124805,31.979681809296768,4,S01
8420,-0.3990789272855565,0.23864406692586082,8.893662062054545,-31.15126722773083,-55.52264409701286,10.460742022153504,25.39795242905742,-14.299008364939809,33.53897428887382,4,S01
8440,-0.44674409336532417,0.3446398085924077,8.977935823716782,-41.27385381925632,-53.310636789656655,13.65779175117099,26.43713722056531,-10.875257298643117,33.94398696884193,4,S01
8460,-0.4575272837206402,0.4673881000625136,9.098208325414408,-33.80945640597762,-49.592547480807056,12.226066103471187,27.366258006859617,-11.737577195476444,35.046593935135675,4,S01
8480,-0.4723616599543188,0.5184069888275535,9.1693629030908,-31.754994377161932,-40.415115040972424,9.80179533135909,26.35300610708322,-13.56040603898925,35.39005926634146,4,S01
8500,-0.3347384710077894,0.8678548143379226,9.415216129893624,-23.906368112797256,-36.45543771768052,20.1363188107859,26.797724480897564,-11.849366431757332,36.88615422833138,4,S01
8520,-0.14849935010853607,1.0836393229518098,9.77213757476606,-11.973430181043494,-22.412039862541608,18.043340257000835,28.784588613544443,-11.912573572381167,36.53616367024734,4,S01
8540,-0.05896288016121656,1.271258136314157,9.86829642102008,-12.599563371054856,-15.59791367547114,16.59260093706913,26.278268364659976,-10.801191368293289,39.74775000718257,4,S01
8560,0.18450883289845854,1.5176388584791058,10.061510563411332,-0.33838794917142945,7.407504443693049,8.998740959282907,26.037574284914978,-12.087924832868563,38.402991175052115,4,S01
8580,0.34426787113834384,1.7999729497359347,10.451424351976629,7.52214610377042,4.190431060368208,11.990960476748826,27.218340714254918,-11.50970013014248,37.733616882913154,4,S01
8600,0.6737892414848202,1.9481470179382903,10.592542289624268,18.150684163596658,32.63776632995668,12.718636399901465,26.723506871506846,-10.624693414055399,40.78697003350502,4,S01
8620,0.5503946169835552,2.1071706226217986,10.931827995604332,24.989888631961325,37.91183741566481,7.271518700468546,28.924686597352295,-11.716242378154504,40.63533789618413,4,S01
8640,0.7913547850035209,2.2130542293437085,11.193058251049248,26.650296879979308,46.92343624676553,5.591221975949303,26.239136264131893,-9.82916522513996,41.79535640717511,4,S01
8660,0.6590916004140307,2.491647707378695,11.221001522461362,26.91023367576275,50.83653493332444,8.86008022142875,28.89268833351328,-10.760819226861543,39.36811067537842,4,S01
8680,0.7405703761510675,2.5101819374732677,11.360803654341609,19.817541043650127,50.412204004957836,2.6229454414718223,27.766640373172425,-11.836660017449777,41.24103882820269,4,S01
8700,0.6889097778156044,2.5750354833137132,11.544780877554764,21.615393835267724,52.628316103596234,-3.777148954425694,28.748582949414377,-11.944067591343739,41.14071286836695,4,S01
8720,0.6340440652747663,2.666127001860925,11.649300645260674,20.43130926792425,41.533830086189454,-7.402705065579516,26.811620828415766,-11.65800521643248,41.849741088226544,4,S01
8740,0.45276342918707413,2.5640292789161623,11.679972683149924,17.97689903456364,34.154689626962785,-9.614477216265897,27.226436057003987,-10.809123487648147,42.107326626707206,4,S01
8760,0.3706786419851469,2.3622582200444633,11.301500910178634,13.695041217457089,31.039989980102572,-9.520743475441051,29.744610139834975,-13.76891819701212,41.7350626240121,4,S01
8780,0.3287339355145347,2.3351628853789785,11.226309842858342,7.157125746092357,26.889646597831742,-9.47210874404521,29.21449631173075,-11.957996309280682,40.45237999647404,4,S01
8800,0.3204371185105105,2.2864592926440723,11.410947295207688,10.508354407819137,15.457536785755845,-10.384373873864579,28.30303752144382,-10.560801412334436,39.88919249269054,4,S01
8820,0.12734172984123168,2.077351943256297,11.061400105428872,2.818386017013519,10.15721146652534,-11.470589710611645,30.15172867712446,-11.258085871208992,39.711322617385655,4,S01
8840,0.10348376959435415,1.689548892881941,10.909762227677234,2.6053799243867948,14.268447603765399,-14.60586818983669,31.14758018390594,-11.718957723645191,36.87139471449013,4,S01
8860,0.04642099651944193,1.520708040068939,10.48036411778989,-5.805733736777773,-5.0275022730200485,-14.84481923036737,30.934750041244012,-11.473814231713252,38.87667718086272,4,S01
8880,0.05519973426754343,1.400880488973355,10.442530562182727,-6.047445806268251,6.27238606516792,-16.736501883729716,31.733278515362528,-9.850323204343942,35.941043067520994,4,S01
8900,0.03269229889795301,1.3131534985177107,10.030903880059125,-13.025065959992904,-3.4094055958680984,-12.952983782752026,32.3627216066497,-11.877898672522488,36.61676878805976,4,S01
8920,0.07162256149173307,1.076481964306558,9.835425566692463,-9.438123763020904,-6.562658134102154,-7.956941963459148,32.813091756539805,-12.452059949616642,33.87749598772523,4,S01
8940,0.1519579965659677,0.9599419178440809,9.537419328699757,-11.677871391275179,-11.018758603791081,-7.2662095174564385,31.94948231443923,-11.188147316279363,35.61992114723974,4,S01
8960,0.050868638490966754,0.5157208082243661,9.478330829878354,-17.538654583398397,-17.15752950853875,-3.7751620618195907,33.48099186236621,-13.850165612706874,33.7234614413544,4,S01
8980,-0.1231131391451327,0.45869837649030504,9.051064809775673,-16.616519415538384,-26.885270394185532,-3.3501654427074556,32.64123802239122,-13.898684357389847,35.26893437072762,4,S01
9000,-0.2129534066913303,0.33090574844452203,8.955006730414276,-14.335173583735543,-28.90879628621463,0.820469428577181,32.27800882227805,-13.863267616893115,32.219473989303694,4,S01
9020,-0.3855589230016532,0.2481831960415345,8.941140105578613,-27.675850647912686,-35.59282925814319,2.5020856654000903,32.08978309544959,-14.636224845196763,32.80146531535891,4,S01
9040,-0.42495906051903864,0.31932026487083504,8.958059962384544,-21.72957130866918,-43.457125849289184,3.748772649925962,31.134124937922838,-13.63017559393792,33.12786117250745,4,S01
9060,-0.595864585703788,0.043076146441110755,8.905776205529186,-31.48685636260636,-52.064600490540016,16.860548133050642,31.585257706537526,-14.746786936143973,33.582510442385,4,S01
9080,-0.6573706752646439,0.20613730259036694,8.848451644897748,-32.43884237185298,-52.13616447922837,16.287917289865998,33.1800985296599,-15.002548365859631,36.332842261971216,4,S01
9100,-0.3316244831189108,0.44363078500042835,8.82216257008754,-35.430947659170165,-49.5285851904818,10.065270743580397,32.449347828717976,-15.361261059790385,33.9214940955176,4,S01
9120,-0.5554963496382836,0.4813590825264658,9.066270804788523,-35.62972528694959,-55.8215659000399,21.162459005117448,33.08834447026126,-16.894394367726797,34.976303451711104,4,S01
9140,-0.46611957578040464,0.6287472205441131,9.34070137975507,-35.13331378931487,-47.23074347477031,18.43893435786293,32.78225161019091,-17.070104969318976,35.62102925572458,4,S01
9160,-0.19217698140001252,0.8656785242515774,9.379966693779135,-25.240395854371336,-39.68049989051078,14.374716138095115,30.770885495961032,-16.24079043425337,38.60706593549554,4,S01
9180,-0.009387434849163434,0.9641259284076895,9.603462777790842,-15.38565145027107,-23.388548004392934,13.875436503539616,32.71699894010575,-14.946654666292968,36.905504245439374,4,S01
9200,-0.09906033910362552,1.2006507252689327,9.724763923333681,-11.518537258038123,-14.754239808045597,14.226426314164303,33.46246737636382,-15.185786154525733,37.88289210155316,4,S01
9220,0.1388106524017071,1.440002600482182,9.942171326869756,-2.6027952527652527,7.766159010097179,8.020662670038345,32.364446955816135,-15.59559646296592,37.284012552209845,4,S01
9240,0.18789568100141896,1.7507070695012836,10.314306886554604,11.256126709962363,15.609750966982965,13.029878928677775,33.14568748696411,-17.516125920519418,40.70061492893235,4,S01
9260,0.666104583314444,1.86422870458361,10.667252124590933,18.509551339285892,33.0086687923314,12.14275564643112,31.97322741219137,-20.463382452188426,38.43325330957942,4,S01
9280,0.7147595597297027,1.97003591983329,10.937858694443499,21.51860978181075,44.464781861647886,6.278064617128022,32.87528376531483,-19.089619310822215,40.0984762461594,4,S01
9300,0.6998803923714687,2.33884969193469,11.098908943600701,22.71923641949503,50.84728013257003,8.187540895124773,33.81110134902475,-19.74632068011443,40.984440848227685,4,S01
9320,0.7555441800838677,2.286473246221474,11.052386444452862,24.916535106756033,43.15875213237068,3.663124209148408,33.13039947713863,-17.34044201324767,41.194063069583336,4,S01
9340,0.759784764758546,2.5835324330834526,11.455379404485463,20.303759297263404,47.22283617008374,-3.9734182540583753,33.6339694918119,-18.74249269040329,40.70576729338248,4,S01
9360,0.674870248161406,2.678035283990521,11.654300350714905,20.93925026862937,48.08559191868556,-6.761931386744424,33.10731779061009,-19.36859730583739,40.34658506131433,4,S01
9380,0.6616383852267617,2.6871596247966023,11.72779581892236,19.0353233488068,45.029153696337076,-6.470279758844571,30.608685113479318,-20.82847678856333,40.829306359281134,4,S01
9400,0.7640962390005454,2.5400496542911046,11.455327072384875,12.842716610187914,39.71374228114175,-1.6784231847912205,30.996561584157963,-18.8568060639006,41.32811333370498,4,S01
9420,0.4325515946680598,2.2309532145381774,11.400633712761056,10.06944083027112,24.38319473814463,-12.335847533558587,33.12756744708194,-21.10106357283434,42.10988750485453,4,S01
9440,0.36693719443116113,2.26218347074143,11.20046294418197,10.132541196280727,17.966637406276586,-10.6964847788558,32.1616515864776,-22.306663926694355,39.495317168642,4,S01
9460,0.12865788322484908,2.3206367642608385,11.26066155825093,-1.8858968242611658,13.764897708907899,-14.202157609725088,33.14049845230902,-21.808852010815926,39.33096336813056,4,S01
9480,0.09574137565415938,1.9754562782147926,11.124938795041295,-0.7801108550715075,9.824364544356188,-13.771577682038211,32.74350453850625,-22.98583091761813,38.34767777451331,4,S01
9500,0.3218366110075457,1.6219928527774201,10.857867087560255,0.5016209852582305,5.750764354426026,-12.779823891472917,30.57472520356052,-22.04340175045666,37.59860432105955,4,S01
9520,0.10670563663211,1.5958055767557706,10.628247431510054,-1.059616646941841,1.8663168765250167,-11.801610054435018,32.03282973096283,-22.232352375251253,36.88948660171035,4,S01
9540,-0.12123089152776514,1.130966072836647,10.280475795295466,-3.088541206351935,-0.8239243119084176,-15.27069296258784,32.73809079466156,-22.422118664865003,36.74927258378381,4,S01
9560,-0.09421613470253357,1.08874841864437,9.967943214601368,-2.5879409117250933,-5.004779507344009,-10.653555922963122,31.298374505294948,-20.97425312500196,36.11605463281163,4,S01
9580,0.10112823916337843,0.6923708394969696,9.876435055320018,-3.264546849303131,-11.282714712110765,-13.60270710951974,31.842451254828227,-24.626826307286528,35.7078942918937,4,S01
9600,0.0322546124013563,0.7584670772868325,9.606012733749028,-2.033201648396852,-15.923670328381261,-2.821493291157791,32.09196148630744,-23.171861058044446,33.1191442929858,4,S01
9620,0.040808115559219676,0.5781476110866217,9.569004701749027,-14.523399744993096,-14.914691060623042,-10.607154486336077,30.58449065989675,-20.148666290585957,35.65533557575785,4,S01
9640,-0.10998326355500582,0.4157967780944266,9.340706074896225,-15.470246718142871,-21.294913053203786,1.9269021663247514,30.85094832392263,-25.56334971784557,33.78497015338768,4,S01
9660,-0.28446841436053294,0.4356974652114142,8.984525822578895,-13.957636705633824,-25.676165781763043,-2.441428935992239,29.454655793035705,-22.72017219304645,34.78443741753469,4,S01
9680,-0.4399122766568324,0.18015850546919,9.060771384199992,-23.01935159342173,-31.49300331997706,4.603698192889837,29.094318243073705,-23.35910346887654,31.825537579137766,4,S01
9700,-0.3247729653726159,0.295067504849578,8.920041323541016,-24.13860382911147,-44.422033773763395,5.498040258551784,31.23761553070999,-25.099629897946397,34.19926100359338,4,S01
9720,-0.23640772905506682,0.3009273338088975,8.902912120958625,-20.73395295253685,-51.55388261567933,8.649139889960939,30.47883932685238,-24.28408823287138,34.797564626662236,4,S01
9740,-0.4699579012527362,0.35840884749323,9.095755905273284,-28.73957721807152,-50.42239229355959,6.754648677446112,29.183738248358566,-24.11607784573457,32.85966276848307,4,S01
9760,-0.6300991418655485,0.2789107185011576,9.016201788602206,-34.21546632111894,-56.86318121714789,18.119980422212613,28.614340983573197,-23.868558631953146,33.925786946045704,4,S01
9780,-0.4973787271626382,0.28574273166518804,9.133340841275212,-26.777637145927333,-52.21356397270677,14.680566667128433,29.489145882853144,-23.242328136006883,34.577611915575446,4,S01
9800,-0.4444779739904746,0.6754272805201296,9.228834381369689,-28.962511990268045,-47.840101381072806,14.527053309715903,28.009512380580393,-23.54827010254036,36.40151996741128,4,S01
9820,-0.3193888583459219,0.9271816917317339,9.430442226677403,-28.649925266459856,-32.12090680653599,19.991068046859507,27.79520432070595,-22.805488190421165,35.29764788301007,4,S01
9840,-0.08863654253827435,1.1213723263784503,9.75899515421692,-17.164308025748376,-20.531747113232782,12.377494333109349,29.736459850306197,-25.21775238925285,37.33795126068991,4,S01
9860,-0.003009208417282111,1.0926186451058348,9.95306826076706,-2.2212777448159984,-3.726461036056601,5.9898287850263525,28.40563596691218,-23.630847577561042,38.557113094558666,4,S01
9880,0.1760434212525477,1.5420205742145594,9.96368163209692,2.701600252470336,10.498354810841617,7.441353745965096,28.4628882213102,-24.199450511173726,40.920806404127774,4,S01
9900,0.36007732164678696,1.7058420413968411,10.409060884014606,12.136189933442939,22.841614979081417,9.258798628649712,26.939768604612844,-22.967168568746764,40.466386824063676,4,S01
9920,0.654538516873959,1.7202004183577937,10.58681006517306,20.557530916007256,35.26693303341094,10.501134585840772,27.575482745581585,-23.166979829062416,39.549340019271966,4,S01
9940,0.45848272913450205,2.153498806763884,10.891187816576316,28.624798442007847,44.83846120821303,8.38270032602981,28.726770747975813,-22.614139524168763,39.24010284286965,4,S01
9960,0.7136219186284627,2.2727648782831755,11.141111069741866,31.766291222165552,48.19853731462585,10.438912007533492,27.426221723799923,-21.96053440873324,40.06587731341453,4,S01
9980,0.7483723430243264,2.523488380842882,11.261084696557857,25.390894850561004,51.63914636814646,3.034151552445215,28.460862355611756,-23.25637438870718,39.648118539920816,4,S01
10000,0.7326377633542012,2.4677425769152226,11.51541789619689,19.912824141971736,50.82237191716331,-2.692723523180017,26.93729621263224,-23.870636199971816,41.48776206072031,4,S01
10020,0.5351759742710506,2.56599798839973,11.449660048524517,20.1186154727769,43.8597906731397,1.8133430409181748,25.5751398691031,-23.082585024415526,41.513881203303896,4,S01
10040,0.6159645374012391,2.487652041039152,11.343143182525916,22.594206461217876,44.75697256167703,-8.629746771771593,26.204365625917774,-24.28621669928651,42.92755077024828,4,S01
10060,0.39411743481342243,2.6477548206601025,11.51525117515015,13.804502591590431,28.563603040223065,-10.240394878808821,27.05940863995016,-22.55526516692477,40.52734262403933,4,S01
10080,0.4092937454258496,2.215214229037393,11.425567723755679,9.125757819055863,31.977580011356164,-12.137410169966335,26.614710580913098,-21.328719349866965,40.24186059219489,4,S01
10100,0.29658702893025657,2.359900329849848,11.31919459468381,5.807520765144747,23.589894548787722,-15.720456752901926,26.56186867007244,-22.41343938736222,38.78859634471389,4,S01
10120,0.3551344643069029,2.192462285935768,11.161213594901561,3.4429309707694022,21.533588195551868,-11.767858268546934,24.2277804447512,-19.338211833433906,38.698106654331184,4,S01
10140,0.2069898478694508,2.0099091516808127,11.117384708633814,-4.298560022839651,8.77737592132048,-9.578386172739858,26.792408843751428,-21.208437229639323,37.99547384047728,4,S01
10160,0.20168703150986078,1.951002203928833,10.780147039961125,-4.019519304559468,5.900506388537862,-15.128340762844624,26.93116857516179,-20.824016673342097,39.30290879299952,4,S01
10180,-0.016970239188952144,1.535111009695118,10.364549828160046,-3.464185571146593,0.44469508507057953,-13.920106169121825,26.581044681318843,-20.689893303618284,36.14927507055259,4,S01
10200,-0.012454429198908212,1.2846782047692007,10.34802238618538,-6.125496621233021,-1.1036205001781116,-13.44313685734661,26.3502340182148,-18.284351699119547,37.38158875116108,4,S01
10220,0.12600055940259167,1.2802421724127964,10.069131468904171,-2.606175987561296,-5.933088776356672,-11.678459843642479,26.72499295194164,-20.06165493914373,36.77464032522439,4,S01
10240,0.03755662192272768,1.0293082566558454,9.735602994515462,-7.334650738624928,-9.085243561345226,-13.265797983572405,25.203744738146284,-19.235990755142637,35.866310664918174,4,S01
10260,0.22716024901605195,0.7414298576033262,9.612066904728428,-8.471390372754097,-14.589270360463377,-7.071921972217559,24.709092528108435,-19.987691549046275,33.267869421492314,4,S01
10280,0.04637721836390902,0.6322675525068193,9.505790283990411,-10.892965584991938,-23.906702387072688,-7.462669497690612,25.22860021168011,-18.94073940259974,33.80012106788668,4,S01
10300,-0.3064255772914515,0.34744798877529637,9.359757173501023,-13.047406912246231,-32.02577123536209,6.880157858622034,24.572385958254635,-17.840949049946428,35.78230889080415,4,S01
10320,-0.12341838363011781,0.24555344823418634,9.153940089087834,-19.890594426895095,-24.43240294868815,-0.7217860178540826,26.417523873638533,-18.458681572912816,34.399897378462725,4,S01
10340,-0.3423209619430504,0.11451375145496864,8.967860939423906,-25.557023846676106,-42.68788522986901,1.115669575396053,25.88179702686947,-18.904796642704483,33.9919163701598,4,S01
10360,-0.4972874728116232,0.2908924541602223,8.758680813688406,-24.281853662325677,-44.94331965911555,6.70906915597281,23.83910163767635,-16.53144634526596,34.74026879920011,4,S01
10380,-0.37189577885187997,0.30389133615431413,9.11276031185103,-28.450414933135537,-50.946639927813436,12.376384865975893,23.516033492751518,-19.09007747540511,35.086515457684584,4,S01
10400,-0.6000836427110992,0.2941152270710912,8.922937763141839,-29.90905554634492,-58.69368934609272,15.209301272169354,26.903085011416273,-17.830614339514174,34.28409682428144,4,S01
10420,-0.4931686859164319,0.2812235275801221,9.1684674980984,-33.37839923790231,-55.72162235969486,12.019625887258757,24.227941696516602,-17.332728714166024,33.89810633143634,4,S01
10440,-0.5060240507135652,0.4997155944563409,9.10878292890298,-32.02867767324052,-50.24548106223641,14.42777898848251,25.28376014157672,-16.07683141807837,35.80892392225856,4,S01
10460,-0.4015396966103709,0.7598166451471544,9.326961843760404,-28.928439603604648,-42.04778554173484,20.119130616768402,25.569088206837133,-15.61314434639134,36.00839696928524,4,S01
10480,-0.24930640693144326,0.8406863291863866,9.351627033395824,-30.42773292249719,-30.407470801149007,13.696643061054866,26.061962313771218,-16.025924856576562,37.80088323392662,4,S01
10500,-0.18446986393188128,1.15274283656459,9.610104577223984,-15.322646070586064,-21.813949705326916,11.415491368077442,25.709263301661622,-14.40518785320614,38.367054667870654,4,S01
10520,-0.05510689562529711,1.3491363275221893,10.075782671184971,-6.098926345413512,-7.9401860630825505,12.5110247676285,25.970685757711188,-14.735499920153309,37.90761209008204,4,S01
10540,0.3054107413334429,1.544444498637712,10.082841779074709,5.134594893302238,9.045578380298677,15.921691619029163,24.72267423030735,-15.144220318584244,39.20348700610772,4,S01
10560,0.5447978343501623,1.8680635927380183,10.617780956965095,7.609776427720589,20.108424687013557,12.69196366671962,25.510892404037477,-14.622536956254727,39.040866999535915,4,S01
10580,0.43434276904921365,1.9737280044876566,10.792422902207253,18.12214978300569,32.39716065426164,9.040350978131311,26.811917668418868,-13.225610565296556,40.770049006251654,4,S01
10600,0.38246893599121556,2.147111773276666,10.885308669608174,17.91723780336176,35.16971450390409,5.450911900884918,25.6267953978442,-11.73654343795322,40.1052616822422,4,S01
10620,0.627793119642816,2.2726033421116307,11.0097876759505,26.736501385380922,47.83763923147172,9.687874270537518,27.06675636951494,-12.680483751910398,39.80140120342315,4,S01
10640,0.6819898014197865,2.4830065386259523,11.528032408528535,27.596038107471795,48.83875170313331,15.924935294218287,27.615731514666656,-12.502042351530179,40.82631423681849,4,S01
10660,0.6844901243662215,2.5138105319513127,11.396973168946674,28.60572830603039,41.222441436606374,-2.1385593648555132,26.843589270861933,-13.017692273880028,41.683771855121556,4,S01
10680,0.6253287409803466,2.6085029899339385,11.429263967654311,22.87918888165957,47.30710909620823,-1.6042087752424012,27.823356761390876,-12.14068747770392,40.247202782170234,4,S01
10700,0.5302231503059683,2.598798362635979,11.592212691106546,19.985345587269165,38.90729192705326,-11.117140615895208,25.80150685684982,-11.524829781000916,40.930821455901565,4,S01
10720,0.4794609379243536,2.551889637831885,11.451211927426707,16.659145198296596,33.72023903762015,-8.813235383020043,26.97798054550768,-14.18587220977097,40.007908997368325,4,S01
10740,0.4569652179599546,2.5196607253404983,11.351435171316504,13.555080879290617,29.855088652251037,-12.39242654488546,28.24445714389589,-12.47335453424516,39.855863169793615,4,S01
10760,0.4434493350412957,2.327895141792374,11.486211907136335,2.449484364826688,22.121238755663065,-17.3733581117095,26.64782200148859,-11.340110747686076,40.51786714743754,4,S01
10780,0.40744002690046777,2.2073870589139495,11.067312937814409,3.4724900438085937,16.516412459935456,-14.120973393849384,27.89295906099653,-9.692493103668578,39.50094838212249,4,S01
10800,0.1291548682571153,1.9685012329428273,11.056871725138897,-11.288588538710933,9.660229993859163,-14.527582881574826,27.230071079819993,-11.532889171424976,40.59900071368645,4,S01
10820,0.014348050512222862,1.6328925375316585,10.672881044642343,-7.778667355212374,1.2116995099248629,-13.826812504905863,27.50032100879168,-11.915742158098558,38.296218741052996,4,S01
10840,0.12138878889795374,1.6409073921029538,10.401296016118726,-5.85649496752842,8.746041472624032,-8.213071148677248,28.25025609971448,-10.485351278150759,36.32295509474352,4,S01
10860,0.0937636238260475,1.549520860065981,10.452705837373275,-3.7046391442883353,-11.098841068088621,-17.09419043346064,29.48535157955891,-10.224556396350593,35.55157065929113,4,S01
10880,0.08318813355765528,1.1329022669891176,10.113500551646181,3.810385463164441,-5.423469550381156,-13.539028344927427,27.566001706385222,-11.834939752883171,36.70688227674599,4,S01
10900,-0.07472184030307477,0.9327905662650782,9.631265003947426,-10.0692439017905,-13.432561806534132,-20.14127193076545,27.991575437229272,-12.418921731738955,36.8591006257577,4,S01
10920,0.03317179619156162,0.5986228075916806,9.606401387181691,-8.236038174548682,-12.084099863302583,-6.531304422744791,27.57367737155371,-10.421040557407935,36.038086788270725,4,S01
10940,-0.020697800155843396,0.5755714805175762,9.47516992435165,-11.61974976980882,-15.074713053144613,-7.770928929417572,28.40530095304178,-11.468361946650852,35.217928750272726,4,S01
10960,-0.14145725950645877,0.5754283004507414,9.321222153858695,-14.464224656226826,-29.711001164695244,-1.4022695866348234,29.480629597847507,-9.14127335874471,32.77396846019611,4,S01
10980,-0.41678062051613884,0.178379900004829,8.900932461760728,-19.015271735036933,-30.479811705937767,1.440958900255966,29.86495374844197,-10.87751451925405,32.54159355509872,4,S01
11000,-0.3776486925072913,0.28076176966786914,9.246038709376522,-22.417808105123406,-38.19902143369373,1.5227909332730256,29.85966858023979,-12.04448494850244,31.155363340647693,4,S01
11020,-0.2908586248990269,0.21144428432226292,8.887242715633477,-29.6374016365336,-52.406604510657175,9.57430379717936,31.113685107586473,-12.286177377783346,33.29254403516138,4,S01
11040,-0.4769262588387675,0.21226057345869592,8.75586004204381,-38.11828510866124,-54.94977319227976,6.630853453274563,30.740854816070147,-11.705121257545144,34.775607601726136,4,S01
11060,-0.5242504671174557,0.28686137167315706,9.01066662670484,-35.467558743683114,-55.61722479480824,12.076987433397488,31.580189158005105,-13.911396906611444,36.136008802542904,4,S01
11080,-0.5306691964910158,0.36798418085715867,9.003727851065543,-31.71099539240583,-54.91795368062387,16.459624503854823,30.46309119573812,-12.862843968127919,35.497725351246544,4,S01
11100,-0.34493337434381555,0.4964131893793446,9.206011988858002,-32.894791153131195,-46.737655124993324,15.083312940902722,31.87041901872516,-13.709798661322452,34.248641322939704,4,S01
11120,-0.5568404960884195,0.5832125382689484,9.378235125427658,-25.07487757783768,-39.40900084213734,17.249181184801095,30.250309652897652,-15.035094554596128,34.67361189979326,4,S01
11140,-0.1355319752234667,0.8622335762813256,9.394150129310121,-24.486300883579514,-28.798626181485883,17.744529490528695,29.241608920780006,-12.26625065962886,36.1256125593835,4,S01
11160,-0.04642506858381504,1.1127884836605468,9.709593138777828,-15.150890064535034,-18.535844698553518,14.626421404849806,30.49946084570235,-12.973788588211663,37.19768439238507,4,S01
11180,0.14828507469308494,1.3627241351822048,10.028615262178121,-5.513040400751054,-0.8077366971004161,20.6160176915142,29.829676322660365,-13.494448136073935,37.903214489108024,4,S01
11200,0.2634460430372987,1.6962065412224978,10.294873819584348,5.363623618242975,15.242543752197214,14.168874157967975,31.892743507679587,-12.765662290705276,38.02751573452329,4,S01
11220,0.5202662290331319,1.6372988978602934,10.551008863669063,7.8327786296005675,21.699582615276288,14.92036168476955,31.22228501051193,-14.748781941941857,37.833294502558005,4,S01
11240,0.6156184292582956,2.0118711622556757,10.752002648134686,17.91064199745549,34.33506874434954,6.434691613618899,31.540269860839924,-15.271190172559452,41.978130871049004,4,S01
11260,0.6096419320566215,2.1384671588650868,11.022759286111567,19.443736497319,29.07202289850298,4.813083110062255,33.403074917657165,-13.468508996922782,39.45350142572282,4,S01
11280,0.7349818069715132,2.3400446348610786,11.24266798096944,26.36221487758252,49.11193601710906,8.630859114064277,31.042517320586366,-12.732905683650454,41.27843974604187,4,S01
11300,0.6339627566664208,2.373779975471416,11.612973961291969,25.087106116893263,51.28461600239626,7.031161050732483,32.16359128974884,-15.839299532169685,42.02299788760368,4,S01
11320,0.7107458414455489,2.5122081758913786,11.350267154861506,27.292976401310554,47.19489127947823,-5.072642235950019,32.548151737526865,-13.661141678646125,43.22142709069349,4,S01
11340,0.6834372561814175,2.647406452893604,11.455623118498265,22.026095264799785,44.509161471640105,-2.3739799148362373,32.971443881359995,-16.086164217302983,40.04243608665624,4,S01
11360,0.44722602776920406,2.4900835322149364,11.637717975889865,24.97357619181253,42.31832130540585,-8.19423910359381,32.06667211522846,-16.320375956418914,40.7106107974781,4,S01
11380,0.23704584827391692,2.3757947134829993,11.570902650190218,15.398741546649124,38.071381905376235,-8.50550961451425,31.558099793206242,-16.553105812810855,40.884645183181455,4,S01
11400,0.3374867893305568,2.562025100683122,11.349183499207307,7.659233533613711,29.33765985548262,-14.902421261215418,33.082171031151375,-18.84084951091245,38.6352360797079,4,S01
11420,0.21413061987959603,2.4106733695656857,11.277097852860598,-0.7789294757141993,18.06391627905294,-11.298460542143571,34.72909356699879,-17.938209526896955,39.01797320220497,4,S01
11440,0.3153450103795453,2.0171293870412623,11.216312887627257,6.038992267233712,20.225101328512007,-11.352701260366056,34.26724068721832,-17.628967167218878,38.2728338214448,4,S01
11460,0.16477197109340264,1.8899679483083063,11.004503043153614,-2.1799595112367314,5.787195237271399,-11.678876165712124,32.705401450219746,-17.83602789958859,37.745746382033886,4,S01
11480,0.11251315562376034,1.5515686349868218,10.702281374865324,-5.074496079828192,-0.5302453042581765,-14.016364889379366,33.12483361853888,-17.409819972465463,37.60714395186781,4,S01
11500,0.013684372973398348,1.3935128603834779,10.605221332899168,-6.19630621027534,-5.4879174539588504,-15.389055576921955,33.08752560213864,-17.948898174072678,37.081103037265066,4,S01
11520,-0.01951974453882467,1.4477067329915183,10.232567017615319,3.0264044238273407,-5.5248477769642585,-14.36053173163915,31.32035968330704,-19.05779885082466,37.225615107922,4,S01
11540,0.05752320984961568,1.2576071785773728,10.166637755547992,-11.660042278788836,-1.799329263150889,-9.907881689945263,33.78373712159797,-18.371582998825858,35.631351165027766,4,S01
11560,0.05356488808813615,0.7934678611964818,9.724702096635726,-1.4903812718065463,-3.794977537602807,-7.396668197452257,33.62947683237807,-17.591197180313063,36.137109330388384,4,S01
11580,0.04239653242370116,0.8672643183109914,9.468805759456107,-6.763650517574058,-17.434019582019047,-7.287900399145374,33.24250748712651,-19.1736236514932,35.14996189059671,4,S01
11600,0.08885610227866136,0.6026330083846636,9.433731932740637,-18.59101653173622,-17.518419146235374,-7.3610562875277115,31.48606203517861,-20.550181791696147,33.19602305158037,4,S01
11620,-0.097015462691875,0.45502709464189,9.299415088112106,-11.296971963924467,-29.888707011907155,-1.6820067951165183,31.48385236520587,-20.168082149617028,33.61354494989392,4,S01
11640,-0.26171153621067966,0.19273309155493684,8.957674531110577,-18.504851028741168,-34.26612548360973,-2.9819228371427298,32.05649399988974,-20.053590535050805,32.54545682646466,4,S01
11660,-0.49876929510210366,0.2971368078675075,8.955647413278934,-29.87907544128659,-43.35117123812827,6.343492824725955,31.676032631927693,-22.17001637179594,32.366982452584125,4,S01
11680,-0.42737999318425357,0.24671196261803185,8.798834252683816,-29.662776795622836,-50.24481232348167,8.140890706420107,32.231516227413806,-21.49329579299777,33.72589309351791,4,S01
11700,-0.38991123065405275,0.31485915684539734,8.921315985227253,-34.75318408985049,-50.45136646698817,8.863332656291302,31.588960690783814,-21.7376222171806,32.42147935140774,4,S01
11720,-0.5628490415850038,0.3104727182493263,9.140786382830266,-30.32080000984473,-50.802612192825876,15.13376565230183,31.922498581597036,-23.442640524063986,32.94910871336085,4,S01
11740,-0.5313445362199933,0.35070565161315853,9.064862269867023,-28.52241474361537,-52.754046352902385,10.571763957645055,30.026406778213822,-24.091291888353567,34.54240045907008,4,S01
11760,-0.5443159762953967,0.4172208461900458,9.064931649345558,-29.212877736585018,-48.44638440407609,15.232886282347007,30.101483992406447,-22.11750171066085,36.14263467946279,4,S01
11780,-0.3574525737049219,0.7795418996315044,9.362782000500829,-33.60195412192698,-41.813691197928634,17.540297605536836,31.69015483748309,-21.869668661886216,35.85247548223741,4,S01
11800,-0.33527398501633987,0.9824284622225568,9.634611998706681,-20.378935409425647,-31.67206511296094,16.70273503345012,30.312689825452498,-24.980103505386847,36.60421043199428,4,S01
11820,-0.22302887322981232,1.1046360357690024,9.786939567602175,-4.945953071445367,-14.16076455439868,17.677690695535215,29.67995558007419,-24.991887882321645,37.339912564503415,4,S01
11840,0.021692139996498702,1.26865007418192,9.89929772678161,-3.025869031654119,-6.262977595883498,19.248182057828757,30.76485056480911,-24.535563717950712,39.019354717311366,4,S01
11860,0.0688678272550769,1.548595253445116,10.172378613942122,1.3719317329782648,5.963882957408414,17.799679163321752,30.548733328073777,-21.2972686820551,38.864337390762465,4,S01
11880,0.4057562453985246,1.7336545045582585,10.44137230658224,11.49249977765891,21.84712715379842,10.646943101005368,31.192914943948537,-23.732453641724973,37.79249046857796,4,S01
11900,0.6043007436504885,1.9202596382387163,10.933794798906423,15.043723182983037,41.861519882597634,11.006663462747456,31.186606944235503,-23.992859811788307,39.260883000964455,4,S01
11920,0.611190734952388,2.2563433694373543,11.046410619432194,26.031116055637842,51.914701789746466,13.348792476976444,30.609968967492307,-23.337693772911617,41.87916626757438,4,S01
11940,0.7372316528416449,2.471234015497343,11.248213644746542,18.93799316341425,49.88856631390449,2.8164696514595144,29.15112211219813,-23.935451613812262,41.31920027856229,4,S01
11960,0.6652970032937049,2.5519180658947986,11.405281600165509,25.70005326278307,44.852566108389574,4.479901977270544,28.222279546520667,-24.22449900062089,39.88901690346091,4,S01
11980,0.8698629060340325,2.6341084289223753,11.45547634933479,25.228572020365526,53.29379818183417,3.61735229720098,27.958710538721498,-23.40147484480813,41.78680212604441,4,S01
12000,0.44885630419931755,2.820967016625804,11.583169742997066,24.057403322428538,40.38125978915852,0.020992030188591193,27.79781545193423,-24.000295931481794,40.790776153266506,4,S01
12020,0.5078266797341214,2.5884943231809276,11.720742044609365,18.9424824253686,37.24924765145927,-4.652810347041363,27.371453420146096,-24.598029589331347,40.10880242377781,4,S01
12040,0.3438855044030045,2.4786837287186287,11.498640996422695,13.036147136093568,37.17147294690863,-9.732986685792163,27.682314334158818,-23.834081286687734,40.21070474803849,4,S01
12060,0.49965041073794814,2.484285985559203,11.321540689371044,16.01853382956224,24.050695275663106,-11.994847708960656,29.088393974648238,-22.852562241475695,40.506642128086526,4,S01
12080,0.13696076255337936,2.4147550643472404,11.452193996968898,4.669702718623573,19.453840053546937,-14.109639829505024,28.25865292143782,-23.037486337544234,37.037618115983186,4,S01
12100,0.06292223025178775,2.1658171474866483,11.28503485896776,-0.13302781687399712,15.316046210910926,-14.813221040321567,28.389688455774213,-24.861286924752225,39.72706721558747,4,S01
12120,0.22729661873242163,1.9856096970227435,10.904738152730909,-1.9378604605010508,7.269322373373529,-11.440442596361347,26.24645150262579,-24.923072946455374,38.03315940451934,4,S01
12140,0.12818435129918623,1.6581689685937977,10.81899281304325,1.2368766053674571,4.033553702409058,-14.30631094437632,26.659680039188842,-22.64142115997796,38.23177861190625,4,S01
12160,0.022317325992105883,1.5412352635487887,10.50164116835716,-0.823448062925459,1.9563092693738853,-15.487124031616768,27.68184831325449,-22.383623779901406,37.58173997887881,4,S01
12180,0.0546004560883239,1.17190640946439,10.171902697509122,-9.468787037294174,-1.6187498340112116,-13.290058777748332,26.795189245318383,-22.586509477541263,38.1631567457408,4,S01
12200,0.2352365492845249,0.9834059754565714,9.854865053583028,-6.728647174420374,-4.380515858311131,-15.173905146677729,28.424208732517975,-21.147377608447066,35.82362385389708,4,S01
12220,0.06402993414935093,0.8878447018595343,9.541042344157486,-6.669724127647609,-8.572689262560838,-17.574474557709156,25.260506445158164,-21.399959978190388,34.5311273426702,4,S01
12240,0.04269318394040369,0.5972894720826272,9.680565068042046,-17.899134228328197,-17.07226645516578,-4.6811198402505525,26.893890338314264,-21.929723463984878,33.99195163514409,4,S01
12260,-0.22852657316876732,0.5972042871890046,9.331665002512414,-16.88701318391565,-19.799584561033626,-5.857072728670413,26.745679155796953,-21.4004028244978,32.99272704235328,4,S01
12280,-0.21100177565503478,0.3757660291678567,9.009792387998406,-20.63771128275632,-29.93508196980449,-4.912867954470432,25.681621134514288,-19.784897816012315,33.84698514693146,4,S01
12300,-0.25430607988686105,0.29945683872304046,8.850674720135846,-21.899552738011945,-36.813431698857954,-1.5078983358915523,25.888792630965007,-21.365116797353856,33.08406863617566,4,S01
12320,-0.21788862691662872,0.2622663332587187,9.043617806988435,-27.58537673336845,-43.83979136059001,5.776414301344379,25.862028099791118,-22.21484292666115,34.32977085521864,4,S01
12340,-0.2625732753324842,0.26022646121492227,8.989655672102678,-34.28348041359785,-50.09918354942768,6.9823200689218075,25.65525129445222,-21.90589209056232,32.20844206803328,4,S01
12360,-0.4691372964578765,0.07019927151596103,8.876876839338246,-33.75084098859142,-50.0405561323517,6.978554484753264,26.824621606866256,-22.78073378241961,32.50797237267842,4,S01
12380,-0.4942569316488178,0.19535368564590594,9.067314808412675,-27.031086102377795,-53.22733804582233,13.528121719319065,26.120986078207444,-19.470566391312083,34.65567911021741,4,S01
12400,-0.5891430358977623,0.4215397716446875,8.986190750077025,-34.09049813142914,-50.882458639826204,12.04738345655374,26.21016901811394,-21.285131703492723,36.07686401686535,4,S01
12420,-0.41321462220318117,0.41623584288063026,9.100672677573568,-31.56718970506076,-45.34919939443334,9.338636619502273,26.426179423344426,-18.59173965590134,35.23536198784065,4,S01
12440,-0.30550927750029444,0.7392741051648213,9.40404371795376,-30.699430126405602,-38.673546406762725,13.51637230424538,25.01807880243815,-17.316404689357704,36.39041409212153,4,S01
12460,-0.2905197230434333,1.0009853060473353,9.613347505876714,-13.192080565688865,-31.186251591529363,19.51475763126073,27.115907648080142,-18.905140842149567,36.042076923440185,4,S01
12480,-0.020946063731183795,1.2355809679397853,9.775156913251314,-10.519011306496067,-15.866450569016745,14.18004185075957,23.676227863911507,-20.100513463962507,38.21432157373409,4,S01
12500,0.23611893668514264,1.4191569916157298,9.77039591451138,-1.0601943035947143,2.010200365424721,17.41173305229213,23.506054395722934,-17.70746708600847,38.22167838006048,4,S01
12520,0.12381498955620351,1.7416507420154528,10.135614877578412,7.136523525953122,15.871010437217237,14.86882667183056,24.427499279892672,-19.997100453169438,38.14768220109728,4,S01
12540,0.40973929189944425,1.7366390697229743,10.636342222964132,13.628424027826224,24.020357938111424,11.000900046010775,23.953581056875805,-17.854749812838072,40.183360223833276,4,S01
12560,0.48252550719383025,2.0236133635204547,10.845649320233365,16.711006451487254,33.63655759728284,12.866522116875293,26.251255268107442,-16.173662998943875,41.06160579064174,4,S01
12580,0.691104876803959,2.261461220511754,10.994476762211088,25.711790652563415,49.1096904773465,6.281892792325067,25.13075973752478,-17.31527722730811,39.722332252723085,4,S01
12600,0.5827990331289458,2.3187353500156846,11.173743966166692,33.8272859704371,53.576639796077814,-0.6602075992476869,24.819160143813775,-15.76299074842214,42.22114685093014,4,S01
12620,0.7449779363818219,2.62640590789335,11.430621801630313,26.387443261632313,43.528642567211165,2.4484975215160243,24.87860079012885,-15.68126526445306,42.38205726735047,4,S01
12640,0.631655683931944,2.785946884358852,11.428276261900717,26.722031090943005,54.36018393471221,-3.7999119101648744,24.03721052280068,-15.769337316800863,41.55102261814522,4,S01
12660,0.5699216400118661,2.4666102694636347,11.462254586403914,16.940107938162935,49.32566936553676,-1.4577739777277565,24.507896186158177,-16.827487143263994,42.93491386470916,4,S01
12680,0.4193137789302652,2.621690376099532,11.727880926959187,13.253727433798087,39.68057338339398,-3.505035312386853,23.72632782066168,-14.904744660250731,41.350973311743914,4,S01
12700,0.7283391404947893,2.5995099124203893,11.551037053866816,12.804866636793996,33.82375540283039,-10.929061957804134,26.304000218012273,-14.538748822305259,40.45214340431604,4,S01
12720,0.44046633092706844,2.4828911167021976,11.37035583893885,2.2397783521448433,29.12546708782506,-11.330180386058935,26.427936934910058,-12.906384134748343,40.73899013113101,4,S01
12740,0.28791675368916864,2.2544949942503063,11.416834502097794,4.556613565992227,21.05200886660269,-14.825751589609895,26.641127651746363,-14.508967773749122,39.46606767791966,4,S01
12760,0.23209899026877814,2.087764705817178,11.23682552244676,1.9019906219212261,11.290280293775355,-14.79938694215787,26.427296489431964,-12.355328009154043,38.14728573890715,4,S01
12780,0.31098557488174494,1.8897279479892741,10.755867628421266,-3.4139969479002716,1.5839523331974148,-21.456015530532316,24.78211056222799,-13.017311891022263,39.720342963599045,4,S01
12800,0.031216006665691673,1.8108634072203587,10.779404137743223,-6.61835581187975,4.972163813928219,-14.708419794641582,25.086309932207207,-13.952634034047195,37.32474568948108,4,S01
12820,0.18831879969343496,1.3908803661221603,10.409698506456872,1.9959113745592605,1.6302777568491031,-12.344903337379037,25.7105837372628,-13.457084595822407,38.0981155893368,4,S01
12840,0.07195854591706663,1.41197968318855,10.245842045041705,-1.5734893082364927,-0.8925720166279809,-7.373132110907031,26.062253685792122,-12.34567675224836,36.78490777000131,4,S01
12860,0.2284896146845494,1.0695265208949085,9.758606050265472,-11.803069354150352,-5.934260729326115,-10.659609207914077,25.37801499252545,-11.860347723595858,34.55704211804325,4,S01
12880,-0.04721699533912649,0.6626803265263908,9.772856790637654,-5.768350613213164,-10.689764411628017,-9.11117620907489,26.558360587823106,-12.338336829869844,34.18618671426471,4,S01
12900,0.0031438363204456254,0.7487424750866563,9.534324587704273,-15.004506243472715,-7.166623974222328,-6.55612685135368,27.610421290631436,-10.682514629988,36.09294132007663,4,S01
12920,0.21105294047319223,0.2953604037092795,9.269307569365132,-16.303000380353538,-18.316572561182458,-5.956995960325596,27.104490686702054,-12.005337638221416,34.42068118620237,4,S01
12940,-0.2661188009604796,0.3248248755148393,9.278324204583601,-24.095563724569516,-29.023026476101325,-4.6244444888977245,25.36170564918862,-11.65100835483888,34.022225962090275,4,S01
12960,-0.2446989600949516,0.30884750724924587,9.112312279424225,-20.133940742978574,-33.52576975699726,-1.252111558515788,27.3051630836604,-10.736081234957904,34.34280302056601,4,S01
12980,-0.21472073724748694,0.25764520751490466,9.057444846189103,-24.794326426001597,-38.38624055719664,5.670100387509595,25.7905830691166,-11.17486198175035,32.23280269668835,4,S01
13000,-0.4135342964194676,0.21921680051157627,9.01102921473677,-25.845554396154252,-46.856445855740986,3.4204892254109818,27.753158289603302,-12.516336313535374,32.49961461826198,4,S01
13020,-0.5264422006094351,0.19985588776137692,9.069701391343187,-30.86307948981361,-55.93070779874465,12.37179948674307,28.23830300683165,-9.38842037894399,33.83672828967073,4,S01
13040,-0.6040528579877436,0.3718857608905205,8.943325594640745,-34.940559960971456,-53.448417767609925,16.031981280530772,27.507408965888,-11.772917438405042,34.65364239830367,4,S01
13060,-0.6218702725700419,0.6221419843909597,8.998298698619358,-36.16170042705706,-55.732618726896014,20.85004321044091,27.96347858210359,-11.98153358556701,35.29543383086546,4,S01
13080,-0.2763278119216901,0.558352027526291,9.257365285713307,-28.8845219143141,-44.68513810113106,18.364629459252072,28.517592624557047,-11.386134734734096,34.494687706026646,4,S01
13100,-0.37476887865214803,0.7275615694535968,9.411707923164029,-30.486183518342916,-41.92534104863785,15.43331968330685,28.7993488092183,-10.710422835610437,34.75721245838483,4,S01
13120,-0.2158043852605727,1.0222654128695832,9.543401607525913,-22.86042891072376,-26.796042451733342,7.767281390668664,28.718670007796955,-10.59632536573813,37.190419778520756,4,S01
13140,0.06655066332630982,1.0584605154754219,9.730163477441934,-17.12660927224954,-18.98780164894863,13.37678255794453,29.442018412306275,-9.83770537962577,37.74183138606865,4,S01
13160,0.10838943921716518,1.4549798166930992,9.901763765521569,-5.2797672210411,2.827949146151492,10.437105214283763,29.270887507487302,-12.296531585918391,37.63656499997185,4,S01
13180,0.09009569920284483,1.699799696259262,10.23146718990806,4.109729246750525,16.664683576136834,11.057201514839937,30.5087669111818,-10.943910745784942,38.837450011109276,4,S01
13200,0.4543384903567985,1.9257129553006318,10.677716919640163,8.601170660625748,22.006910005110313,15.029410182498383,31.25632358220141,-10.520396529835972,39.1131233455211,4,S01
