timestamp,ax,ay,az,gx,gy,gz,mx,my,mz,label,subject_id
0,0.09906246911440658,-0.09833056152421639,10.125276588723933,-4.810553666237475,1.9643507943167535,19.647273665697696,30.52922081203047,-10.373414133302486,36.817565623028266,2,S01
20,0.3839103127042883,0.4654888846992174,10.455524878837265,6.883097080324647,18.73579991060841,16.44541717944116,30.26872564229214,-9.370506570730115,38.917458304609774,2,S01
40,0.7067345086264886,0.9242272235411557,10.616118784514766,21.035797663685933,31.987701062943902,19.13183095945269,30.685360706952594,-8.871533556228462,38.98638224164726,2,S01
60,0.7661031768344547,1.2050911077290059,11.020188436142156,22.384351915965393,46.49469014033989,11.010235753634452,29.90847306909104,-10.508876299316125,37.78434937156732,2,S01
80,0.8838449457629484,1.5792894169687581,11.13213235848774,32.004628234063865,51.62180394339694,4.576480141773435,30.050360846378112,-10.648950741649715,37.917703205370984,2,S01
100,0.9310416249232304,1.6694153203254853,11.124612458575225,32.789131541047446,55.15785249039756,-0.4956004032901934,30.356553578782613,-8.729937308146564,38.81791449831681,2,S01
120,0.8754992301680494,1.6134111410548995,11.225762342082325,32.94839699476183,49.569685001327144,-6.722139004380306,31.089695392793136,-12.653459353367392,38.5783092454706,2,S01
140,0.7753962894358186,1.3235829191111277,11.196641969313378,25.7987024098869,47.412566957672574,-7.503701284712866,31.856009980475616,-11.9660756454833,39.8482867675456,2,S01
160,0.5110864313346095,1.1837650303243612,10.881560278446432,18.416876257725736,39.98570151407125,-15.20114364727299,32.0071343458066,-9.720557684161687,39.73189153820576,2,S01
180,0.41503508804108435,0.847332315315698,10.692955460041647,13.549617968737113,27.46037151370641,-18.008213824021393,33.91152496993507,-13.782393419043984,38.393191435008376,2,S01
200,0.2671717970783236,0.6251426738269912,10.41142816658026,10.464317951478801,21.60471835199383,-16.21166949041688,33.222691878140196,-11.940135774168333,39.13634619686652,2,S01
220,0.08265151237393707,0.29214184063556836,10.416648517593249,4.432638938412997,13.685294605819866,-20.321729517721057,31.979346182395542,-12.30363312247132,38.292290109359534,2,S01
240,0.14371085696045527,0.23811931069989117,10.37570739361602,0.15869736670769807,10.916208497849617,-18.143071302670222,34.482709063435756,-14.214937932593193,36.677322057973285,2,S01
260,0.03945716116519973,0.06308987127301241,10.186003865454065,-2.4986243596617834,2.2207277979398174,-17.461929242422343,34.293174048684385,-12.818299237102362,37.83451100623666,2,S01
280,0.22449395197277763,-0.2284999552230742,10.168844479552742,-8.578834761388652,-1.693759871933296,-17.135191362259775,33.28127776633026,-14.081658846603005,36.18479359590354,2,S01
300,-0.0703793091179585,-0.3212202706522377,10.06984477224573,-8.78849568045667,-3.9654825326365364,-9.035808423320452,32.5343096907279,-16.42207274042214,35.87499630140885,2,S01
320,0.007681644210099897,-0.38782798294468684,9.916955888699327,-12.018908855062197,-15.04626948187645,-10.303354616619554,32.86470028888087,-15.686964159951392,36.8015679388643,2,S01
340,0.019262808844548215,-0.6949011822372211,9.83791986425451,-12.511369423067976,-21.750711681417492,-1.7189119637625487,33.26129763693723,-15.076856184565054,34.66849154114291,2,S01
360,-0.16551817416997336,-0.9069561749800681,9.759627935620268,-21.25365146592831,-31.58111295348737,-1.6497721572950494,33.28022915962684,-17.440857015929318,35.95142466458526,2,S01
380,-0.12280050580128693,-1.276784469720972,9.438466902303828,-30.728530184902695,-43.05692780926034,5.056270296836453,34.60547135280615,-17.99105169617363,35.40829921998275,2,S01
400,-0.4042747392728585,-1.5268888147528068,9.278894341786062,-30.95115682274451,-48.786881816892006,6.028454864922152,35.04058996245165,-20.592230471259878,37.31279833339303,2,S01
420,-0.5639635780909352,-1.3652790699520299,9.224541541809462,-33.636381671078,-55.89724125265711,9.087893965900788,32.623078831322836,-19.833352959957715,35.22116907588156,2,S01
440,-0.8406988895224606,-1.8875193880109165,9.05699433640022,-41.86491958524514,-58.54032792131672,15.329516846726973,33.182928723233886,-19.471622271996594,35.83320256330632,2,S01
460,-0.7053931367833047,-1.6896536563956865,9.08920556925051,-36.86124585289106,-58.35864039186028,15.289790895517513,31.83474949924514,-21.705316206765456,36.29300338132798,2,S01
480,-0.5472670968382042,-1.5084057132924733,9.224515478909884,-31.832268971293292,-49.28323535538133,18.77276991085311,33.033128888631836,-21.43932848161124,35.68180622925761,2,S01
500,-0.3256532664504175,-1.254000060357107,9.474850923122137,-28.962074793896516,-43.11047906421381,23.633942508517016,33.02162754405141,-19.638496357633798,37.60096256871458,2,S01
520,-0.23812554232835018,-0.74400085324825,9.576004369272248,-16.68866579264521,-24.707545686974466,21.844770254009514,32.221882584862016,-20.970699621908974,36.6719662416521,2,S01
540,-0.006460034153782837,-0.3381989880316674,9.981348107086896,-5.225948117897058,-9.320109726135708,14.905039951961383,33.6661347076912,-23.266993079477544,36.52523074652151,2,S01
560,0.25001141989533515,0.29686164763252076,10.337245577813237,-0.7818544838377948,10.207301902817182,14.484450367246248,31.443764660473597,-21.098301717397757,38.1379018568772,2,S01
580,0.5581069198532613,0.6946831036660266,10.634743132471634,19.2612558776364,25.519571370354996,14.893067727038874,30.239653713246614,-24.34198603333939,38.66634942706545,2,S01
600,0.6898215491731109,1.09014331120708,11.006410317640116,23.727132938113908,37.48161475862113,10.975237705698673,31.578091663745745,-23.74645282689398,38.32395363016229,2,S01
620,1.073586994226495,1.259289578124202,11.293282375389511,26.137784681115395,54.63289316576201,5.430310043251236,30.38691675158407,-25.46045469538131,37.993522180959644,2,S01
640,0.9507703281114299,1.4883974864015264,11.085343985676063,30.31016592644323,54.16675391067512,2.9807346539446877,32.10323782901865,-24.739891587640088,37.57542495506406,2,S01
660,0.8636837956766957,1.493414363548132,11.186603306077192,28.064287678474695,54.525302117961346,-9.815888384473796,31.48972483697459,-24.312444393190702,40.35705168131355,2,S01
680,0.8989881751398138,1.3652138696069709,11.064613290581143,23.3501377097759,46.39344132632186,-10.539495931592473,30.424469201443348,-25.60980058930503,38.03832490645855,2,S01
700,0.5690718276426958,1.250179916552775,10.936335235852825,22.739776818893922,41.89810982251019,-8.83885626261394,30.279088941253725,-24.891060481737746,38.02537766449024,2,S01
720,0.5170422305743627,0.9628729256429196,10.779317228583391,15.010096110717537,31.42485265657216,-16.3450970490511,31.323080940716338,-24.842598222776836,36.87196558667958,2,S01
740,0.16898365732414353,0.8171898402238407,10.720595919397503,7.6048933382796475,20.735001711273398,-18.780094426904974,29.51441657375198,-24.43359917721102,39.88665366313938,2,S01
760,0.23452101585430687,0.46581252981679705,10.481605438627788,4.1345417552176,20.46932775551195,-16.56438315338155,30.873365396541885,-26.436312925542126,38.18999825063079,2,S01
780,0.19076361327982544,0.293326814236752,10.145084795060507,1.5076297895923112,13.692523790694167,-17.592077023976863,29.68120905007631,-25.417562396580035,38.26377455427269,2,S01
800,0.1654622826189896,-0.07740947000450099,10.163770027436088,-1.8656631575994629,6.406338993056379,-19.59375020289259,29.00417436329203,-26.628626366099816,36.485542662240114,2,S01
820,0.06982443083477935,-0.05611852432478132,10.097125136245701,-5.169318943679334,-4.362444459886834,-18.25903304075458,29.15875518047995,-25.56556248339343,36.73338799891709,2,S01
840,0.05059999042609017,-0.28043960103461407,9.993171066165171,-6.565079672798042,-4.2657365498929165,-14.485196636469597,27.322840595720812,-25.599787815174246,37.35497305183381,2,S01
860,0.21514272552711905,-0.4854313819023904,10.00057796659822,-7.230519380215876,-5.963703600810816,-12.09269450123447,27.429765485607017,-25.772085683123407,37.7781322583811,2,S01
880,0.10179505616736689,-0.5552228739762597,9.81306358214718,-12.574605524243598,-18.920222285676388,-8.480980787795234,26.45497598713667,-25.17370519934669,35.111338283142985,2,S01
900,-0.07068918581859995,-0.9328336513997717,9.689944687554505,-19.150332396308368,-26.213534186587097,0.8056396412962926,26.607920171529557,-26.478331599420393,35.71545952041987,2,S01
920,-0.41428886753888394,-1.1405931907013025,9.542316860051232,-30.162529298113924,-36.12975536668984,-1.9441218026733642,26.097870323993938,-23.143142713683634,34.98599876652218,2,S01
940,-0.3288223821603291,-1.3548199652510853,9.404937841282369,-27.912855973645495,-46.61195420290677,8.087593977423724,27.042448421983373,-24.167345378831424,35.9703574666687,2,S01
960,-0.5451444337387928,-1.4543319999176632,9.325232248704719,-31.8616722897845,-48.538905903411845,7.002552743139187,26.99006263334395,-25.467375846826346,35.16355594204684,2,S01
980,-0.7557675063721022,-1.6703809898240054,9.220947203926976,-36.21225579694592,-55.12511660179597,14.720876141137719,24.919964153451076,-25.56818922920619,35.071011146846985,2,S01
1000,-0.608716384894101,-1.6915775244306002,9.036068878582322,-36.626429202699114,-56.30822698129853,16.841123418512076,27.572317500306497,-21.722015214124575,35.77229285387915,2,S01
1020,-0.6053135273653888,-1.4884992455005137,9.139752088085677,-43.335283402449726,-52.1570220476857,14.222550435458357,25.378835598780107,-23.289475380164724,36.363674647496694,2,S01
1040,-0.5659602260931392,-1.2092351657163274,9.231404262428132,-28.41345783623505,-44.82574194769626,22.99549117152751,25.99911077293953,-24.036408934877926,35.84352038740282,2,S01
1060,-0.3495964997774993,-0.9008411923973312,9.547875405467359,-13.497651881641342,-24.70551845635893,20.442222604024554,27.043254088171505,-25.80029559752523,35.19291970861186,2,S01
1080,-0.10700426559800116,-0.47551048386022454,9.972980353418007,-10.36601871776342,-9.747770266258401,18.888348094898483,25.31837554062471,-22.81978365392215,36.814559636626235,2,S01
1100,0.1853709325272838,0.2173427260762611,10.128951212976089,0.4016255802320776,4.956162949456156,18.477037774382346,26.53676051205976,-21.542596280219318,37.189198896567376,2,S01
1120,0.6014646841254511,0.5749740844838718,10.626678061486501,7.8047865494475905,23.70340916775932,14.98182485451084,23.029288936594583,-20.964516210371773,37.29904145975636,2,S01
1140,0.642549551062483,1.2575515810988522,10.842433338955681,21.909437816356355,36.370897522936545,13.724674258878958,25.48916870407752,-20.399480871256003,38.29710742481567,2,S01
1160,0.8537256375582812,1.1870147642214217,10.981525769700115,24.60002969876303,43.041020395213216,4.309947853625757,24.429503389469566,-20.21214572958243,39.440018889613164,2,S01
1180,0.8911412866996529,1.4761012873072192,11.30194854475373,27.131807567600912,57.5567570467506,-4.341449872507894,24.790831573295627,-19.93353560119578,38.48628497116479,2,S01
1200,1.0273869886916964,1.6455123483780918,11.311234193592599,27.98708128139827,52.1261068469846,-0.6792200161008087,22.656022237787848,-19.939884308466226,39.9184699684563,2,S01
1220,0.8521251218862254,1.544582375143619,11.167883589105811,29.408988367648487,49.447853645498654,-7.910510363165743,22.83633183684645,-18.310743989066964,39.57970339951636,2,S01
1240,0.5958385044220761,1.3120637763219545,10.890833702699027,19.25141521909428,41.747949850067826,-10.870224989152518,24.372741264453225,-18.985744440907965,39.05561586933283,2,S01
1260,0.4860008629489101,1.2179469590225487,10.987457356428555,14.729388956927924,32.629721894084135,-11.892650851779733,23.18200144934979,-18.71834061004809,39.41371574917321,2,S01
1280,0.31376134674827133,0.8113016977845233,10.665338384294614,19.531440801825884,30.17964443009395,-14.614247240789464,24.35017539567344,-17.88644775722225,36.505317037822,2,S01
1300,0.3674055238554581,0.5315276561477669,10.338503967520396,9.64624837211105,17.623600278481227,-18.964850383297694,23.724084921177823,-17.699200955141347,37.83474335592344,2,S01
1320,0.20284310081333753,0.34986095831571873,10.261487869682865,5.963746126615386,10.886125318181321,-17.136357385022652,25.178358942499163,-15.067376156867201,37.93457944787775,2,S01
1340,0.16581156755850396,0.19468774169511238,10.18876893689106,4.72746019985675,4.624938140586325,-18.055345837402623,24.278331079157073,-13.810909361530701,37.31720113984925,2,S01
1360,0.1543884457938184,0.016190388670512396,10.2652317401891,-3.368797836896243,3.9537359399258154,-19.344710177108905,25.82194043641477,-14.809844087237664,36.903348582501195,2,S01
1380,-0.06717948305540145,-0.23208779574817598,10.177536685838682,-7.648135376572675,-4.4127064005251135,-10.537729152778986,24.77998327084675,-14.97343477751334,35.81098175690771,2,S01
1400,0.01775361450260006,-0.41269932397073644,10.01373378463593,-10.623783787636885,-14.436351632054203,-9.892553072935874,24.368648048948803,-13.131076117485948,36.92741840878369,2,S01
1420,-0.028004156491908766,-0.5577491299986499,9.975032655898637,-16.564461330944663,-13.546888382397572,-6.374032480437801,24.330026683960618,-13.275483942044325,36.961948880640286,2,S01
1440,-0.0008042223452420644,-0.8761573332892769,9.76511500402966,-17.457990403453536,-30.537356910883513,-9.637692199556055,24.33707337014151,-13.287695178868073,35.39543384404699,2,S01
1460,-0.2587326130260137,-1.0714580135383527,9.584346377234974,-22.758923983438688,-30.98882955428294,3.1159377546985523,26.031745037853426,-14.180958532690104,35.99709865823472,2,S01
1480,-0.37079979505878236,-1.4910872059974614,9.491920968434917,-31.615699900401832,-42.14582291629612,0.07712526981757539,25.044148643920384,-12.340652409353156,36.00613221077999,2,S01
1500,-0.5483277741900202,-1.5089068717997114,9.292832902534244,-33.341348717443026,-47.83788280837577,7.49536022194879,24.87452077827524,-12.052509457328803,37.59062798692431,2,S01
1520,-0.5189752407566599,-1.6947691925450157,9.06662891270843,-35.580017068486576,-58.05340494250073,13.409085633190495,25.997717463625385,-12.076251911524317,35.4650364673936,2,S01
1540,-0.7257800466025159,-1.9348390852447743,9.093441627405959,-41.03846334257908,-52.93606824994508,18.699981557545193,25.95016588882515,-11.731848133100037,34.76791467385314,2,S01
1560,-0.7518144730372025,-1.5997858753105827,9.137944310289612,-39.20955632785228,-57.05948151243581,12.269242250457895,27.032764336987526,-12.209764225168161,37.42327933881858,2,S01
1580,-0.5433763800447091,-1.3820785065641386,9.336898702458212,-31.85079875232728,-46.24917770045727,19.1615824432684,26.239925889065827,-10.127393910974714,37.26306702630942,2,S01
1600,-0.2936039198037118,-0.9563323772855337,9.582263782372149,-30.727480496860245,-32.187901894816505,19.465278400264832,28.32673861375124,-8.87357027217909,38.559440114219,2,S01
1620,-0.14028419670926548,-0.6325877177925354,9.936481476107693,-17.35047683420456,-21.039558175420918,20.12110642805925,28.0045000772867,-9.374016435524732,35.0412908948563,2,S01
1640,0.07050973135986605,-0.015588238802665487,10.15420781515889,-0.01868535662653681,-0.38841025431876597,19.448981438052684,27.142672559738454,-8.624848964453061,36.782552628398754,2,S01
1660,0.31598139142527915,0.4210109732584404,10.41442258083193,6.595261039498383,20.43114603710333,16.45009548916676,26.810086223162433,-9.901888018074992,37.50461062408857,2,S01
1680,0.5942725303840561,0.8277801638616722,10.72302738437749,18.11933010679657,33.2130429780894,11.370497086956055,28.411445187822213,-9.78349691778353,40.13666491796745,2,S01
1700,0.9067388953835307,1.3281765296157584,11.097541918274828,25.787793126039773,48.20099695593608,9.763696660003758,28.01300277144624,-7.821091298159306,39.056505325773855,2,S01
1720,0.823267554598699,1.4437813928479135,11.156218938705257,31.365390880281307,58.79955219765637,-0.060360105594704394,27.99564424509126,-8.52078509345599,40.718928733394755,2,S01
1740,0.8202584337763777,1.5565259348190452,11.114894241603514,27.778813219843183,54.79557902294172,0.9855660311369184,29.31247010401848,-7.866033349481313,39.31178592580079,2,S01
1760,0.8240961635528016,1.7007728615520952,11.166677754200709,27.62079856952162,53.217524236083904,-5.442954914123496,29.02914855714497,-7.862334999994856,39.885502035123736,2,S01
1780,0.665967119271233,1.345312523618331,10.960285304059191,25.22345352071737,44.22347494015733,-7.217308183721935,30.10417179490748,-10.871832598897855,38.11514093744798,2,S01
1800,0.5014322799939017,1.0574572349531066,10.969527237390434,23.007356519311884,36.454369315151645,-11.867722031598978,30.23633008540819,-9.264940877290709,38.2438547945845,2,S01
1820,0.3543440937897324,0.8942739646646178,10.836987582959233,7.548879327023937,31.594109908759112,-20.29662369846775,30.767347640877734,-9.822583730448494,39.62313684250592,2,S01
1840,0.23107716044855584,0.7078841602369745,10.678089034417384,7.7385652438176065,20.536250805828892,-16.249984666584105,30.375218107184143,-9.947883387898383,39.125293236227385,2,S01
1860,0.20902749991259983,0.36290489726242825,10.248783359886891,-0.5515818460878483,16.70583244711776,-17.81697840872935,31.009015428852354,-10.133196790601556,37.674735750642334,2,S01
1880,0.027771279537641913,0.16707023858796272,10.264926279382102,-1.274322100265076,1.8633947546752598,-16.881716168427783,31.886710575593572,-9.65685205761346,38.431403228557535,2,S01
1900,0.15636412534007776,-0.01218213552278169,10.299391055857592,-5.785409675552454,0.29525340444184933,-19.63527360853102,31.144522500724886,-10.459829894013051,37.5551597820689,2,S01
1920,0.021368133581433413,-0.23344377601648691,10.202142077777243,-4.212192275686125,-1.9074482029665887,-13.095651598460357,31.65175301552294,-10.595993233879682,38.28096175083449,2,S01
1940,0.12544354794315807,-0.27778067700541764,9.955860731399175,-5.173452312965406,-13.269516948485778,-12.49186747008518,30.79056574831666,-9.527314876115113,34.59645489444806,2,S01
1960,0.1585145562677706,-0.4504341986597679,9.955406361930907,-10.222523372775388,-15.688245947713526,-5.187430663635958,31.525970950664924,-11.728345207228461,34.37684258926785,2,S01
1980,-0.01916770824967949,-0.6143709259352412,9.835111484606932,-14.735567503902555,-21.95722187500874,-10.95565702315738,32.366970649770224,-10.088689008185536,37.257507741550114,2,S01
2000,-0.06787499989892726,-0.9684139168902313,9.689758841465057,-16.26964542997684,-30.39771695199873,-3.6450608844326378,33.215947082022694,-12.688407482974775,36.40530633694814,2,S01
2020,-0.2229400102096941,-1.2832759713497282,9.470490313278534,-27.16078921833667,-43.17832714330747,-0.6848584821217362,33.54505021905603,-13.626243499931356,35.48278251828454,2,S01
2040,-0.4569148816637829,-1.4056281725730493,9.328039952919315,-32.732303689575915,-49.60836412706119,5.85957655947855,33.330613389867196,-11.947335463890807,36.00168155031234,2,S01
2060,-0.4829481529741496,-1.716284011927752,9.156797134943012,-35.733450533546204,-54.01321267418929,15.727791085849825,32.94050206366293,-12.90835979308552,34.803246608866075,2,S01
2080,-0.605748400081512,-1.8371059428581242,9.130109563297474,-39.872979958616156,-63.92171256521186,13.40617145682453,32.49454614178978,-14.312031128647497,35.854661369476155,2,S01
2100,-0.591152309532788,-1.5915538860121374,9.169844293228794,-43.177463433116685,-57.057756794414836,15.393761636497256,35.22140058417557,-16.450764506465333,35.900835292644786,2,S01
2120,-0.5992999531332146,-1.456346015029899,9.106506419700498,-35.51439809373536,-49.76797148453088,15.709440991853945,32.51417148290671,-13.811354653788563,37.22257527569943,2,S01
2140,-0.31368805943266365,-1.1200661143616364,9.402445070961134,-28.06717196083291,-41.55041440400184,17.5422703972986,34.63161808838892,-16.864423125371097,35.78886438356581,2,S01
2160,-0.2582237686132062,-0.6914993794414741,9.797062034647883,-19.860815131065205,-22.78186354198308,18.87339437267984,31.933383110274526,-18.262249953150125,37.25566430112835,2,S01
2180,-0.03935370501391483,-0.27178851083985645,10.205769944791951,-3.9728884917996097,-3.5642015737923893,15.699013174269874,33.5565482812285,-16.055815145746777,37.900113540629775,2,S01
2200,0.42743477986163114,0.27800769938152187,10.291553905171444,4.973490104620068,8.745049758268454,14.799052831658653,34.691747640544705,-19.132406699294698,37.044382976543126,2,S01
2220,0.6261495347943155,0.8057911749802864,10.814916843347513,11.329479480694275,22.750542302276827,17.46931815543936,32.43550952016356,-18.091095392298904,38.454257617942936,2,S01
2240,0.8084962779686681,1.285061744450443,10.871187465033383,25.584032600189357,44.48320257937678,14.9385632638013,32.478626497855245,-20.16048102829707,39.12449771983408,2,S01
2260,0.8847830123718701,1.3686266589961995,10.988894635210146,29.454551795444242,53.4333337695824,8.965602522907647,33.55590462665134,-20.35273214646076,38.242330627466856,2,S01
2280,0.8757085764579506,1.6905702994966207,11.249930422876051,29.341837642091487,57.71720302446576,0.0436079125373402,33.552137250136916,-19.090351324163606,41.79411366063835,2,S01
2300,0.9885027890393948,1.5687232064062213,11.018388244466594,31.253523310301755,58.972198034444155,-2.6085796707656215,31.70416902854242,-22.267474633169833,38.904445698363965,2,S01
2320,0.7175552373847132,1.4859385375410596,10.888227424941048,26.865545136441796,50.87180066083292,-6.7687960695281575,35.560178842900484,-21.19031356594843,38.530290885447435,2,S01
2340,0.6469645809601109,1.2084227060288357,10.820433150434743,23.94895626510268,42.197452924280576,-14.231018735661598,34.068762167064776,-22.245735305818656,38.83804869031865,2,S01
2360,0.5419900893193714,0.7655950569893699,10.72568941251431,17.99528255500475,34.1345102230247,-10.41824956385089,33.215818499931416,-21.390468960060183,38.4503096848986,2,S01
2380,0.2428218593602395,0.8024725776116277,10.678000932739502,5.76032463356471,21.305666652615034,-17.09073577608331,32.55059245193681,-23.592287935054863,36.756436326934356,2,S01
2400,0.2749658683590339,0.48416126904123974,10.448050045739528,5.584095504229004,17.940773404846286,-25.850089527299787,31.70481409652128,-23.15102767169692,37.696917462772994,2,S01
2420,0.19968618982329844,0.3592665221927117,10.27484872215838,2.509368633715243,11.061052105678648,-20.57338923156467,32.40003407858269,-23.01232154393771,39.804896009245915,2,S01
2440,0.016855812864957034,0.11115480887464113,10.284343584751005,-2.982935712976313,2.2204933910690112,-12.58274701145196,32.09312959261833,-25.2535082281918,36.54394502450027,2,S01
2460,0.10329850183767546,-0.31820010494361867,10.182399598913571,-2.017635350677214,-2.3586392527454283,-16.118331218613033,32.9597026097932,-24.71486051792307,36.44079132239653,2,S01
2480,0.105276562842391,-0.20499034884013123,9.991174818984472,-8.502845205867661,-8.895746545821247,-12.137056015438805,31.03181200857101,-23.8005989321051,35.49042822780328,2,S01
2500,-0.005499537540981647,-0.30082084339957327,9.918568576517382,-9.049923424169204,-15.367905559078913,-6.50076548172769,31.53710567226904,-24.628436636901657,35.33306229897323,2,S01
2520,0.034108942197251205,-0.662287761144436,9.868015285605825,-15.823947664323576,-18.004292130652658,-14.923474917961322,30.671376899355163,-25.295479834305752,35.42107588798986,2,S01
2540,-0.04066299121781683,-0.9904738875485031,9.644593688877453,-22.27345020555528,-28.09919979180372,-3.6130777374919254,30.766930480042603,-26.666894412492304,35.75422364330426,2,S01
2560,-0.22414284794118425,-1.1893294683245714,9.368562321950453,-25.740405270664738,-38.475270914510205,2.5981139895087884,28.84399274522756,-25.01710347170508,34.711366309065724,2,S01
2580,-0.44763278337151147,-1.3627251424096503,9.372965695698726,-27.95420944257422,-45.39652516545832,6.244829895569489,29.129001428874616,-26.301580668465572,35.12594155964466,2,S01
2600,-0.4273109954695382,-1.6454880967428724,9.131903194671041,-36.584888108912764,-53.22357530590538,7.648556886130293,29.972238423259792,-24.685653065916043,34.09762474021822,2,S01
2620,-0.6990554708472121,-1.7927971603512065,9.056488216835143,-37.27146811892371,-57.60594387112057,15.537869809677474,30.702556153459067,-25.59851115544488,35.55938736450075,2,S01
2640,-0.6165636234960205,-1.804576310332833,8.96214653931003,-43.32472056295197,-53.07340505476168,13.771211550056824,29.307487853313916,-25.30163614277991,37.666696087243224,2,S01
2660,-0.6387218268734247,-1.395142599114646,9.133668260386322,-40.26210970638464,-51.718437568256235,17.652722514773952,28.800200312868757,-24.467553975685846,34.944142245069884,2,S01
2680,-0.6077625095752417,-1.1231673240975226,9.328442114372391,-31.080192215973202,-45.281592188240474,21.542898992828878,28.040232657610304,-27.307854556740658,37.10453167970093,2,S01
2700,-0.319201264336914,-0.8757774063981458,9.542214795355342,-20.650832631516998,-28.93448099042243,17.628875415783067,29.444090339658082,-25.46749141303019,37.5967429774273,2,S01
2720,-0.09879902243640915,-0.3804011133588538,9.93822089911932,-13.047185880040033,-14.610972965957362,16.061242449359625,27.035214089129326,-27.086542865186626,38.64024164002152,2,S01
2740,0.21518221600752724,0.007057730444226126,10.2317031792494,1.3541379507817393,4.243078851921451,15.659788446679093,27.590369915956774,-24.922248894563747,37.15930124335918,2,S01
2760,0.4037451289088472,0.5161089712929479,10.761260781294947,12.399251471091834,23.63255205788229,21.446462244240905,27.977567545701124,-25.002074006051437,36.20248299167152,2,S01
2780,0.6283198065473222,1.0832745718255508,10.756731953289503,18.068225178113547,40.07877924510207,15.940518735120008,26.72953130849042,-25.11494413769996,39.30222858240289,2,S01
2800,0.838730140551518,1.4416892123564582,11.055298627727785,25.695987810103208,48.90308177787802,8.949118254054921,26.935014382301528,-23.661861596035244,38.19260080498858,2,S01
2820,1.0019069950448491,1.4964142811731587,11.159821505319893,27.795350851982338,59.04308623292251,-1.3110551536174757,24.4769685265924,-25.312055331624098,39.639932218153625,2,S01
2840,0.8261930152076024,1.6884391391848972,11.239566868309673,31.243049700419046,50.160648550718264,-2.594973860442293,25.929663255026387,-25.40259012130386,40.253319923646366,2,S01
2860,0.723610636487905,1.5681374459492408,10.999583352502444,29.242815016755923,52.96958183561703,-3.9317415769011226,24.11299631904315,-22.856849782274562,39.85941930458716,2,S01
2880,0.609914379228474,1.3670724265618417,11.013679740745651,20.688002959374998,46.99624291562201,-15.828877488272722,25.330734804923743,-23.694371291700545,39.41769171036993,2,S01
2900,0.5185636119978011,0.8955482978836795,10.829274661112347,17.52133304751311,32.324783330836404,-18.510231770573505,25.44626644463407,-23.581184262260535,36.335830571572956,2,S01
2920,0.35977651157173807,0.7538761072695628,10.659843880405417,10.799917478445014,25.96039298277966,-17.101197259309924,27.05704931382111,-22.340723813525884,38.516141125237894,2,S01
2940,0.22843735045106323,0.45810516293296916,10.567664116519275,6.291927552093184,21.281870843151857,-17.194522704927245,24.124525927807657,-20.35621922362173,38.437876667067506,2,S01
2960,0.09677734539258413,0.39815170840894826,10.19643515521062,0.2730690506164555,6.063696196586484,-13.304813359676857,24.621796319889846,-20.524506859087904,36.88434045375653,2,S01
2980,0.10568191074466536,0.054568108237742774,10.309566523444587,-1.2707690545793628,2.106390538639549,-17.58507770593238,23.565939120792482,-18.64430758198114,36.69305573506865,2,S01
3000,0.24136007746818763,-0.11932342396262093,10.275968131001664,-7.522017535747942,6.702059833272306,-22.787999012036977,23.148287456173296,-18.94934533445698,37.79903395409643,2,S01
3020,0.13080031668159903,-0.19449343403327896,10.125962220847116,-2.6880869428512386,-7.707202980132295,-16.366372493606164,24.26743319109571,-21.372198155335777,34.56221244048936,2,S01
3040,0.026022982470016623,-0.2769898033837056,10.055289402688441,-6.218642365728221,-11.963887455775737,-14.602511897315658,24.806605713930495,-19.00704196767037,35.79523408136869,2,S01
3060,-0.01093800074214013,-0.43426825708062633,9.882579203920228,-13.879307348914317,-11.466643160296353,-6.045492994348873,23.973237950304004,-18.358352825309087,36.9472350729905,2,S01
3080,-0.04084684599490099,-0.7608593577317557,9.750263335735504,-17.73476139735252,-28.661120931108798,-7.760831100333984,24.144125444864464,-19.989696054804686,36.02888467371281,2,S01
3100,-0.25142807283612867,-1.027862433381631,9.539145021098436,-18.179258030294346,-32.79312361471666,0.9142415925214192,23.79495884105922,-17.43491470395465,34.39405753043154,2,S01
3120,-0.3412671168222563,-1.2696208676637302,9.278633407752631,-32.33965485630295,-43.48639688636443,8.13650937776332,26.09497317515378,-17.20069676964758,34.4168160438671,2,S01
3140,-0.3398708866776615,-1.5322046152186097,9.1181700612929,-33.654563476439556,-46.80373501325226,11.776596530135688,26.739590670342228,-17.03098569377785,36.60956365460566,2,S01
3160,-0.5172051476142245,-1.634762775471513,9.164383942539299,-39.2267535168958,-58.02760804080839,18.146496548287118,25.461623938234414,-17.50210782226162,35.26582489978155,2,S01
3180,-0.792423176336849,-1.7476865429835335,9.243358998519968,-41.41445663843711,-59.44580274825173,16.778106103649623,22.972760027256083,-15.793784864866069,37.34813125847983,2,S01
3200,-0.619175032716451,-1.5718017502430828,9.094067441389171,-36.737810469981454,-55.36371540040941,16.44129142165915,24.44513548527735,-13.656630011224951,35.10022301910698,2,S01
3220,-0.5780256115754834,-1.3414410523766054,9.344468810721597,-26.14566421518227,-47.51170928208122,16.15734571019209,24.24233162345024,-13.887060710611957,36.57517820014361,2,S01
3240,-0.4921182383195528,-0.9806128456772447,9.571770657156359,-22.757535289782034,-32.59843141629569,23.033911834223602,24.559838166662075,-12.800413640181288,36.24920984039185,2,S01
3260,-0.16838670508578554,-0.427594876720528,9.796505314581022,-17.071959164627657,-20.538206704318913,16.632249299680215,24.650558779256492,-12.042917087934576,36.726231257639256,2,S01
3280,0.15735443233825896,-0.018245036627033202,10.141975335523393,-4.655296476562634,-0.7985783143393048,18.193113779888847,24.730789807664344,-12.689467939563958,36.21862841231354,2,S01
3300,0.4180739623829972,0.508110127789329,10.488487664092704,7.430629045616862,22.144331889802338,6.9613471002706735,23.03290903876396,-12.42757514971144,38.41842005826822,2,S01
3320,0.608492304008427,0.98141948073007,10.72821696577106,16.560683629099273,29.899033587392747,11.25782402573839,24.103693326124912,-12.7352894715025,38.688870895620134,2,S01
3340,0.818544100154228,1.1352319473726475,11.12684204917034,27.58974858410686,50.018311023054245,3.3101432991111435,26.538573554735628,-10.323655979870749,40.61348388929538,2,S01
3360,0.8437193626408743,1.5314215858365665,11.078239232164021,30.37044641859212,54.43675837225462,6.490918874952321,24.747767572066348,-9.283067823746524,38.55095734649644,2,S01
3380,0.9550880227369536,1.5014772532761034,11.283960983924024,30.31568077621314,55.385419653108286,1.7948000664880963,24.1846693848155,-11.566496843273672,39.821035057544314,2,S01
3400,0.8200317363340518,1.6413426783115905,11.219216366203394,25.607645348190864,54.71197500383066,-12.448714422430976,26.701419138380743,-8.899553090095932,39.85974942449643,2,S01
3420,0.7560359535640298,1.4797496384526583,11.081394404803683,26.565863709324802,47.46094879904453,-7.791369341508945,26.77938453098715,-12.38583884422685,37.88326139814592,2,S01
3440,0.5930148427867381,1.007981090061411,10.909798454845061,24.28470796876186,43.817341397925894,-13.650617864352515,26.39578989891623,-9.43342218416515,39.06749161106386,2,S01
3460,0.28161243143880854,0.8154374474716539,10.873565909668761,13.830125047209656,30.042160220586453,-16.89879404581901,28.12591359473591,-9.873007620022188,37.740482206742975,2,S01
3480,0.3511509432661436,0.660954863976069,10.56467966003342,2.5893666021114834,26.84799685964085,-23.230992673756752,25.65481831134685,-9.293880040589876,39.12054402992736,2,S01
3500,0.16984994720906207,0.40048264096146996,10.375074237345867,5.2086919986462545,16.445375216423667,-23.889241037122503,27.312734000004436,-8.363289958245103,38.52566126756806,2,S01
3520,0.0004523136724190191,0.27338684202171215,10.071230144298951,0.5522268257890417,4.414404828213652,-21.90165450545307,28.042260156429737,-9.673237383825644,39.36802541751861,2,S01
3540,0.20877080650924768,-0.032893874112238,10.24513125750425,-2.1508661128515216,-1.749430853701983,-19.195298592811987,29.513263387287434,-8.827414663152135,36.77842391920038,2,S01
3560,0.0944111227062232,-0.06725106970831622,10.001715726606985,-4.794649983036774,-1.967800440708635,-16.148845341235454,29.55229979352974,-10.122920725292019,37.18366636184833,2,S01
3580,0.0533901601781735,-0.35454144455263453,9.99081371121727,-7.774812798659001,-5.114698777660889,-11.262555340632202,29.48063446063262,-10.19640985218419,35.59062940370087,2,S01
3600,-0.044749002975752905,-0.49600646940433,10.068666334376546,-7.093834411671457,-11.070630235517411,-11.311568244305988,29.82833661106411,-10.960103479290478,36.507511088387574,2,S01
3620,0.16526194510776848,-0.696314696384426,9.790892955116956,-19.18204147454798,-25.366104415666534,-8.109637106176438,29.58594732753923,-9.49303069578454,36.72912831470397,2,S01
3640,0.03171975348797332,-0.9782988096371699,9.64748293519588,-25.719038148420754,-28.29417487708951,-1.2946890870839405,29.65977065138312,-9.263174068130999,34.13603500013751,2,S01
3660,-0.16535392586664596,-1.1644487093687794,9.581810506353579,-33.13051360851331,-39.66806083976079,2.498305572632068,29.816683032369237,-8.558433169902553,36.583276932016055,2,S01
3680,-0.49756205911671003,-1.388738572658809,9.260233384591253,-32.34113747479863,-48.46764125206242,2.7734585742009457,30.307384706784383,-11.807041520344931,35.49760859039495,2,S01
3700,-0.6447064393769508,-1.5850883673543312,9.15712251799673,-39.417195063346725,-56.095841256798906,8.01939562433133,30.49295080858774,-8.810779665345581,35.897134753458694,2,S01
3720,-0.5933204697161398,-1.7449563467220128,9.106297808194814,-36.46168246651826,-57.35365431901134,13.823004648790084,31.768206210312705,-11.34717013483452,33.58329771798154,2,S01
3740,-0.7308424367010035,-1.8260246780181388,9.118690341406532,-34.66742802149748,-50.41099353040793,20.144047696662838,31.80391961303672,-11.209154891858129,36.39971388646141,2,S01
3760,-0.5345383744067518,-1.5244822499628885,9.112301067150224,-33.251980826394075,-49.162390632418635,17.756848763927703,32.717840712873425,-11.595281413508744,35.367360704041616,2,S01
3780,-0.35738655950367326,-1.1799320828455422,9.470266864196544,-30.408315794842633,-39.72939986973867,20.759087085698106,33.0468752148716,-11.858298072672957,36.17562257681459,2,S01
3800,-0.2683305718138137,-0.7480277541242533,9.643308191491238,-18.77853660753939,-22.71483995277087,15.670893511027662,32.708914180210094,-12.854212440873084,35.957048402398314,2,S01
3820,0.0026335805997105416,-0.16193516521044746,10.148058674555289,-4.029707368639963,0.9024028386206349,18.03054226522268,31.69138010578874,-13.397194202027702,37.2934685705198,2,S01
3840,0.38546470926074583,0.2386509735109204,10.50009129588288,5.484042432126192,7.354508217556279,21.37188480167036,31.599726601521105,-11.74256599774304,38.08120527118123,2,S01
3860,0.5834107072156972,0.7414521915555505,10.68248384066095,12.032196741769855,34.08742999300235,14.211775628042664,32.344286415447584,-13.976470747807532,38.46185477443722,2,S01
3880,0.6941894807398615,1.3007674893724457,10.894569553392422,19.062018477904637,38.43605057627601,4.975651336020698,33.66230683416208,-14.02641780971061,38.11426299498295,2,S01
3900,0.8839344770608677,1.3984541138307147,11.059374990698663,25.961363381040492,51.69199188490363,1.3950751299457362,34.41525564386211,-14.895201941440945,39.37020069994026,2,S01
3920,0.981442693757002,1.585773144368211,11.207194653690227,27.945639996214165,53.84446953520689,-4.001284488458699,33.55212068813354,-15.058044542781495,38.34842697920378,2,S01
3940,0.8589539691071721,1.584180626348014,11.215720633283437,30.459084626382438,56.74008006648878,-3.9175527369556673,34.686408193070115,-14.961793129586177,39.121473153849614,2,S01
3960,0.7140672744540133,1.3964353904572733,11.221589844778077,26.16181810693018,49.25862746836386,-8.820305073680823,32.512318122523354,-15.503284104893337,38.74328486909621,2,S01
3980,0.5910837657039596,1.143947625334445,10.784641945217425,18.056325820169626,43.200303644324514,-12.084673844935429,32.58131256970603,-16.29343125768522,38.253574318780124,2,S01
4000,0.49906743506910733,1.020773950876963,10.832929217063777,18.32014929144619,32.56646231980216,-12.149756373079528,33.49811365695696,-18.012478492818943,38.57089874569016,2,S01
4020,0.32241345548139627,0.7107455372084703,10.522469481053479,4.458850841758951,22.053116581958562,-18.40382541818408,32.687006886145,-18.263810016822067,37.82572594972864,2,S01
4040,0.2641562163997878,0.36798821216655164,10.352169731049736,10.616949519396524,13.904845680270569,-21.60382071353474,34.465599807725766,-17.32410348997877,39.84274775424952,2,S01
4060,0.1954237517843421,0.22601061999341365,10.23177769874276,4.966775942182175,6.089748799191316,-26.129499281827314,34.39301092241621,-20.301144783976167,38.333843970966115,2,S01
4080,0.15892769999723783,0.09313952164945163,10.307246347308713,-7.345638321651842,3.2473207061822595,-20.71629609299424,33.82469412392581,-17.212848163306816,37.375702618270395,2,S01
4100,-0.016976510799257036,-0.07168618032610095,10.07734277469391,1.3380834604961054,-1.9291419741660656,-19.691375424394415,33.84334727556233,-21.295713363310675,36.68991733031527,2,S01
4120,0.055558801727712014,-0.26010928209602835,10.001257669686082,-10.521198293874374,-8.685391424013083,-9.633582967503623,34.154056603277,-18.985318660061406,35.13052879672341,2,S01
4140,0.08562195601441716,-0.550948533941748,9.886534463727735,-11.158343033233532,-12.109736842174215,-13.252582413441468,31.786793171370153,-22.321750171023638,34.601216673401154,2,S01
4160,-0.04999953281127159,-0.6755894507736624,9.99464528604086,-17.47044113251265,-19.654247436174167,-2.1997357374340267,32.81160912754096,-20.646756441608836,35.09608795990146,2,S01
4180,0.07535682029916436,-0.8474439446688153,9.703905769196517,-14.633754314123696,-27.259099615180396,-2.0771722572446345,34.32748721359053,-23.590203807438048,36.95388102361073,2,S01
4200,-0.19817111029772164,-1.1774011770165778,9.66313227605217,-29.010228492028403,-35.213185532747545,-1.0601904791788024,32.0533022320339,-21.589993972072676,35.69404781164102,2,S01
4220,-0.25615402273523424,-1.2773284848909336,9.383593991321298,-34.16311628896143,-48.73457824529521,6.061824465557326,32.11038838599467,-24.679741962082485,37.28585088353472,2,S01
4240,-0.4228492877038408,-1.6195982500178019,9.155117979990617,-33.26660543634759,-52.762443177441085,12.13698848841767,32.13049027976777,-26.10443718593542,35.661856958552214,2,S01
4260,-0.7375953574438062,-1.798508425032944,9.07444118209612,-34.58495549106062,-62.09848536690268,14.733148371577846,33.27321515176301,-24.709973858846485,33.793395692917585,2,S01
4280,-0.6463195637306753,-1.874790637348136,9.088290482792736,-38.50249218838198,-58.86595674834101,21.082090169811973,31.29365560302333,-25.265890304092352,37.06060620193719,2,S01
4300,-0.7113252850759584,-1.432106782573015,9.247308575403663,-38.612478927720154,-53.120979334453175,21.02224167224429,32.26230234801061,-25.60815697545235,36.3800912768666,2,S01
4320,-0.4897064358246547,-1.1538184823896245,9.330489589949295,-30.155927257195522,-45.727505050054276,19.66876627558977,31.729640455475526,-25.001524047285557,36.088873980625245,2,S01
4340,-0.4010589894345541,-0.9607890945543984,9.653627328417723,-22.075866485517675,-30.061527298726986,21.08487037481684,32.05191877284314,-26.460532746652664,37.85166965245076,2,S01
4360,-0.07553147624267983,-0.39256291584017755,9.713252099750411,-9.971357682337963,-15.86697224344503,19.32133770385917,31.626076603186604,-26.98635156351274,36.1571199580033,2,S01
4380,0.2834068159768651,0.15829434115789132,10.303910252455093,-0.18542916501726214,-0.08428504808448856,9.739622599144015,29.972005008235516,-25.31613790038089,38.66535986467611,2,S01
4400,0.5080978247525287,0.43838629718366545,10.827969848839782,13.663463208294608,27.237173116578482,19.118498842061552,29.2533097016031,-26.29269875404528,38.71752223794995,2,S01
4420,0.5662250236209736,1.0291061367265497,10.838657933933295,24.953894857846596,36.015494623943695,13.314001757349056,30.19784105557954,-26.14121380911935,38.650573634709055,2,S01
4440,0.8629801389660198,1.3815569593287151,11.2539918560889,24.791880810862505,47.25621100521781,7.367315330277763,30.254702341474673,-24.41453590705583,38.953737087741764,2,S01
4460,0.9678095765776266,1.6151570972563878,11.279037839313958,31.480184298013615,58.10202134940701,0.7259529609435893,30.007015943679686,-26.156807641318338,38.791477715877726,2,S01
4480,0.8107090524759858,1.595117859674422,11.308088403701142,31.655089343554476,52.91430173659907,-5.574315335317371,29.629330323145236,-26.493515014715268,40.16972814819658,2,S01
4500,0.8079107646567596,1.550650641599582,10.91285888739733,26.793872418273757,47.2758565368,-10.37301635867795,29.505219431171817,-26.319264600893256,38.384052629311476,2,S01
4520,0.5451333695908376,1.1787381777928119,10.998402704463077,19.5934895558633,43.094860159515555,-11.268846374210094,28.191523667828836,-24.103426649665977,38.886917329802515,2,S01
4540,0.4835262549969951,0.98042303224337,10.723122723699943,19.949103404399207,32.80445899821344,-11.98744580888449,27.126947993957913,-24.05772636744302,39.112949001930126,2,S01
4560,0.4283795425386838,0.6366006213816828,10.651609885766876,12.929162204891608,22.65701979279115,-16.28461779896447,25.55047203653149,-25.114478128153262,38.29119735917437,2,S01
4580,0.3105156309961424,0.488989119849405,10.649571005345146,2.493803146077047,17.44703750439636,-19.606979176810672,25.954353159327987,-25.701354103374033,38.886428115976855,2,S01
4600,0.14105447638457347,0.33837173607996957,10.419533512353548,1.5486210512985537,11.811387471279794,-22.60975778383597,27.8139103268757,-25.747034447743054,38.63156454893807,2,S01
4620,-0.09184682871847258,0.07037595398624544,10.314405122332907,-4.049986202306414,0.7200829754648137,-16.02718341132076,27.146038163702148,-26.262552059715844,36.03243776979626,2,S01
4640,0.22466429048661754,-0.05025343472449664,10.182094421934872,-6.296372417043408,-2.483144077211106,-15.464279765760528,28.167945188277425,-24.68583401228669,36.75651657086871,2,S01
4660,0.10454635615383945,-0.2599555171142865,10.107637354068478,-3.387038731001961,-4.934683583694189,-12.306542789383025,26.137727454947854,-23.820768063024424,36.42781303882403,2,S01
4680,0.16217769187820597,-0.42495188145853746,9.866860018323047,-8.02932875285373,-11.887493756799161,-5.958595137412699,25.3759124661628,-23.20888384474372,36.26655591445292,2,S01
4700,0.09054726693107394,-0.5203236823605615,9.87768224800356,-6.33492405435533,-11.694162377730116,-8.761516883957844,25.857639217070698,-22.226898560350744,36.49917553810615,2,S01
4720,-0.12019265078099803,-0.5429021300880226,9.65823336008864,-19.05703117388332,-15.32948702375058,-1.0045818249484628,27.360197963465726,-21.89352010479852,36.093915033199764,2,S01
4740,-0.20565596119387416,-1.1472001689632392,9.669342561263699,-24.12603695193072,-32.023252359748696,2.2930076911440587,24.73114474164403,-21.066237547611188,36.67922329983438,2,S01
4760,-0.30660021914246727,-1.536833878960663,9.279005635014698,-27.79230408935657,-43.167764351601164,3.6578260699704903,25.57936262728414,-22.338974107772444,35.22157558039587,2,S01
4780,-0.5166828841847905,-1.4148882529984137,9.392884962084999,-31.05858124497704,-53.54128340924957,9.36449450177727,26.230405243655095,-21.21726216567486,35.77511329843334,2,S01
4800,-0.5895409256056726,-1.6878987474455096,9.026848481925867,-43.29452721579057,-50.86210819461674,13.744505174951168,26.276045531627627,-20.176904001113293,35.44719795757641,2,S01
4820,-0.6192312150580248,-1.7276870506812732,8.993275050477786,-37.283306052487845,-58.83288968376999,16.909062211559448,23.984157550874535,-20.58491014849701,37.18976503177199,2,S01
4840,-0.5282063625695882,-1.6721740129385319,9.194691363403042,-38.86883446629535,-55.32777599534437,15.735161853264657,23.283691666739003,-19.509746746653907,35.52210194990503,2,S01
4860,-0.5809438607685875,-1.4335199517793888,9.371273218931188,-28.263399321775918,-40.949465506801374,17.125142730657117,24.225986634276463,-19.271413436198493,37.4247090467843,2,S01
4880,-0.26918749052093893,-1.0401758555780085,9.468714155516146,-27.924766049995657,-36.4560956604697,20.52347711825727,21.141908537168618,-19.009240139949803,36.876844575588834,2,S01
4900,-0.24446346431281304,-0.43269593544984086,9.764001933402998,-10.372296342305312,-14.985891686736583,17.33531254755804,24.28511580184412,-16.743608260943095,36.504846787265016,2,S01
4920,0.18447843332386898,0.09942520521071,10.049886872745425,0.7440848848164601,0.7871253698187013,15.454098909504133,24.815413437748738,-17.748879753131526,39.479201917775754,2,S01
4940,0.3610213019954869,0.5460781225344198,10.533733792655966,7.838303805663364,16.768533997106164,15.318196781549673,23.829151403064046,-15.73914311458993,37.96849402732651,2,S01
4960,0.5734074637786926,0.8326961381473694,10.7283174829602,21.499580513017495,30.73116640905115,15.630299025443298,25.721452154778213,-15.22182643024937,38.96958015360048,2,S01
4980,0.7809137576889367,1.279273749462604,11.062242253846968,21.137027659379942,50.32916204436498,10.834293417254601,24.1060089310836,-16.377219881875767,38.21431489519673,2,S01
5000,0.9118440975063536,1.3666626124631476,11.360338897835874,28.378585907799188,58.82008041037198,-0.09652303164256504,23.4588196989055,-13.72397893019119,42.17338840334379,2,S01
5020,0.8369872048042716,1.4944223391706333,11.151317824207487,33.098271272739915,51.60410608695984,4.964883309826655,23.3994561438089,-15.646070618686656,38.04904203073091,2,S01
5040,0.859813496961906,1.5066662908844504,11.048370243905284,27.810148274827494,47.30652691772207,-6.161353641475964,23.73850491409185,-14.551932983453895,39.3754888368226,2,S01
5060,0.7074214175173217,1.2640017354938309,11.026134010472346,25.5910950656822,47.32120599460596,-8.774306065859307,24.907976787428197,-11.6171535165115,39.65957077061723,2,S01
5080,0.4077023543176118,1.044724960995119,10.752262012126153,13.760509339136807,44.28319392739803,-9.566606100176658,26.87732678663944,-11.92471394361564,39.42896185780517,2,S01
5100,0.3763424078961112,0.9301413778218011,10.747400339149538,14.200066982378143,29.228829875313295,-17.576333171641682,24.660121545593277,-11.131493274189811,39.25076566133085,2,S01
5120,0.2820383220718491,0.5018182485956979,10.585856331465767,7.883087642628401,19.815586256026602,-19.640995116431434,25.93669325710146,-9.69496621925066,38.69170645903324,2,S01
5140,0.19621862523602718,0.5055254821531321,10.42600024949583,4.163042904512214,14.7086776883264,-19.45470451714695,25.493085396314612,-11.419401751311092,36.52159138277571,2,S01
5160,0.08832259873413535,0.13116024889984287,10.344410901516015,-1.3503156905229137,6.402527252950276,-21.756282038790847,24.134070066265142,-12.704957600255701,37.93750768477049,2,S01
5180,0.050575774067380244,0.0847890313360293,10.254405351728975,1.850115661827048,-4.19507244219035,-19.059552750469106,26.68754891994945,-12.116977096490876,38.965753870428706,2,S01
5200,-0.02747170799686635,-0.005073303601534254,10.146246641977765,3.6800721758679797,-2.160433210408039,-12.508447122383904,28.123245215615725,-11.20178162218424,35.177768306341974,2,S01
5220,0.16601758523853535,-0.4528034508541118,10.048980672845872,-9.306110218408236,-6.439740877466202,-11.009492831659012,26.726693243831086,-9.82311013433725,36.06723907476601,2,S01
5240,-0.06387675777515034,-0.4382959958685161,9.782733691246914,-13.16277519648822,-16.54089242317809,-10.890369232361804,26.794694016542394,-10.871448592658425,36.602146649203696,2,S01
5260,0.13639971117023866,-0.7128516574583157,9.716220555664195,-13.166330777170206,-22.26396533903164,-3.4806149026343998,26.126882194799457,-8.817731711354883,35.11224489615908,2,S01
5280,-0.09486477348067054,-1.0072457767455714,9.622944783844897,-18.670912742063607,-29.462525506967378,-0.30993033436315776,28.530774829099997,-9.013970442796046,34.7629273734906,2,S01
5300,-0.2696268905632955,-1.2486839659736868,9.432025570464099,-27.414814242871945,-43.47018782604075,6.678337832988669,28.53199116070762,-8.454650864114086,36.56346473207758,2,S01
5320,-0.46526016239456003,-1.566164914397796,9.376590084547844,-31.857160721903462,-49.55300696141634,9.645161603108436,26.967496562885966,-8.593200988686508,36.58167891457368,2,S01
5340,-0.4642139523746748,-1.661159681972475,9.162343247317791,-42.24570125150717,-53.4648555273593,14.96895796134354,27.22379545261255,-9.509936109150814,37.71229478980373,2,S01
5360,-0.8251301596198729,-1.740752396713898,9.138003287036742,-40.69547784101893,-61.71237549619585,20.885555155106186,28.062136264590862,-8.454439141089413,36.49675550062604,2,S01
5380,-0.6299073938820565,-1.598205468426796,9.123682962323606,-38.64913409800271,-55.74761160986448,16.32784985198165,29.119030221824193,-9.27571206290091,35.86929313976832,2,S01
5400,-0.6413372298721689,-1.533261129555005,9.2155558849388,-36.30996901543645,-52.30859990361518,18.799018725711804,29.433283871425424,-8.250277140982195,36.321677276660324,2,S01
5420,-0.4415071309366838,-1.216263084486806,9.484358382283393,-29.21220164222705,-36.398502127554444,19.1093158932472,27.994309845875165,-10.1634589351257,36.49347148208997,2,S01
5440,-0.1698489324850835,-0.5894459541728654,9.873974816649833,-18.421938139715028,-19.777872732538054,20.43405701330258,28.721727273775205,-10.17489600009701,37.4430331165571,2,S01
5460,-0.052419249035234816,-0.28635108003140064,10.191295529471875,-6.80862944840432,-8.898956871783232,23.18223491761411,31.432504722715418,-9.934054479897657,36.44289087265771,2,S01
5480,0.3751905925040897,0.3656123713569508,10.386264604200768,2.6924234038314543,14.146408264454877,7.833726665670815,32.2550766509641,-9.122716154922205,38.61669158454449,2,S01
5500,0.5995253411138294,0.8816412999022176,10.710408220503863,14.084679283914816,32.05548708764036,20.643902080236728,30.251044189536344,-7.464773504350314,38.54908221589063,2,S01
5520,0.7905493545613314,1.2604945416647348,10.938476303214767,23.196487464195826,42.48689997544383,8.84966409451247,31.234353001977095,-11.343006729768994,37.57066169533535,2,S01
5540,0.8648694349055279,1.4602861491486874,11.161491907098602,29.387893326277467,57.31813775759014,5.936683879160168,31.620935178661025,-11.33799946376164,39.458616031820604,2,S01
5560,0.7593487345379915,1.6924788395194716,11.258020831239502,30.651303613082565,53.34744015422339,0.04699789763369988,29.554454563795016,-10.259637733772042,39.66248499058224,2,S01
5580,0.8702503843123707,1.6395476779223466,11.275529102495996,32.19387459419153,52.85498987915048,-3.392264136372225,31.633693109212427,-11.434226696529203,38.073060809934105,2,S01
5600,0.6284655120101541,1.5125724099791107,11.130375258963998,30.146509144481893,46.45887492189821,-6.453736768147179,30.612503385441183,-11.614950203852036,39.7600079825505,2,S01
5620,0.5609014744074344,1.327957364152855,10.948271792344347,20.12059002424585,39.05297261132453,-15.91386709567931,32.832654328576496,-10.489990152188076,38.9515637446705,2,S01
5640,0.3351223006092713,0.9117518560541746,10.802729906292369,15.104115513579373,33.85514568118828,-11.438044308900805,30.24051132274579,-11.592104827949704,38.852693934476974,2,S01
5660,0.36581092896244083,0.6859933098930644,10.545707263578475,5.191145179091889,22.396781433364435,-21.612558842428776,33.667554418376966,-15.263003367906007,39.522989815066076,2,S01
5680,0.2731742895294316,0.5017459294146887,10.453128567037204,2.1038348461299314,9.816117552036085,-21.24778725217777,31.20278574826336,-13.873340150349861,37.768388275680316,2,S01
5700,0.24442958018053706,0.2294902788980629,10.245234837335676,4.912373849419814,7.645211508795577,-20.647111867660335,33.59135902690352,-15.336761960996178,38.22601953462665,2,S01
5720,0.0874089938237298,0.15955348248590673,10.312721700089806,5.327348959207231,6.5582694206769,-19.170139266549352,32.71714430957408,-15.312564051548504,35.239275647280465,2,S01
5740,-0.003196573932388258,-0.07827605014699561,10.077983785361525,-4.927201950572486,-7.913481641314528,-19.541139609339044,34.76161446456431,-14.057598739228377,38.34182096153492,2,S01
5760,0.024610712657669606,-0.16023524712024248,10.061129075616925,-11.846677096025113,-4.531897172090876,-15.947862297017716,33.579392167963064,-17.200782526138862,36.41756450165826,2,S01
5780,0.012091821830937752,-0.3951612110987485,10.136255636451688,-11.50608554157505,-13.240209586833327,-14.109990562323821,32.16029204269326,-17.40158441624063,34.50692224004044,2,S01
5800,-0.13290664503424618,-0.6810814500706606,9.768588153370803,-13.290097005724562,-17.31213391935638,-8.137246062233686,32.20990551545009,-15.14186409875066,36.1003398084907,2,S01
5820,-0.050459513997371974,-0.7567084519273117,9.713297593448797,-17.666221590179074,-27.98494603937847,-5.546386990376342,32.5434042916631,-18.517416377604384,35.95989889199159,2,S01
5840,-0.387252854771314,-1.0315918524896481,9.612460775157277,-23.84706083834841,-37.83925571544046,2.2725647154470665,32.563209454013055,-17.264689501015887,35.86472685079214,2,S01
5860,-0.3975689966793725,-1.3711812690995795,9.380497259040947,-32.7166705677094,-47.79517967459657,8.302782394825597,33.52274081200265,-19.322021953498393,34.397776150476496,2,S01
5880,-0.6730061276993233,-1.5982486392675503,9.270101432332298,-33.68757705546957,-52.400303960266235,8.253331705759427,33.48712389142659,-17.280521554556323,36.05083444504909,2,S01
5900,-0.6786709606137356,-1.6040645534400781,9.078063292677745,-39.462308151500196,-49.854705865620495,14.952466091007624,32.421429573293175,-20.89415559850799,34.93295114924466,2,S01
5920,-0.690609144579946,-1.6904876195236238,9.092018861316769,-41.990276345852244,-56.24128925545748,18.154004292917698,32.765236699020406,-21.46434614692759,35.432687229105056,2,S01
5940,-0.5731923685319018,-1.4672806260362203,9.11554854668844,-37.58836646161048,-57.4612966282014,13.572146826478576,32.73676044419429,-22.4602439033865,36.551654409484854,2,S01
5960,-0.40720727113243105,-1.3214157582655426,9.322308137196883,-31.706711697029526,-39.90440281906036,20.38256305547813,33.023095730471695,-22.025249393182722,34.955408010640724,2,S01
5980,-0.40132280850411906,-0.8629296298230644,9.673625919235981,-25.23725298233386,-27.048848278276235,22.043889052256063,34.45859627907603,-20.912570932899847,37.530697275279365,2,S01
6000,-0.05695629334829827,-0.42686476761055364,9.876054595971254,-9.589577408698482,-9.122177550708328,13.810127624479668,33.7158002885551,-21.686965635174534,36.52261232176384,2,S01
6020,0.24144767944079246,0.09660907011772851,10.296472623180671,-0.22623493119993388,4.1012230151191025,17.5224350159054,32.172415620793856,-22.46985198861915,39.1054206783833,2,S01
6040,0.3284964104376872,0.6649122812967723,10.65079535436458,17.113363047389047,23.37553889083181,9.823863649287953,33.645293203593646,-24.104507447508034,37.15220571716692,2,S01
6060,0.7285049721677332,1.1919827352138863,10.979699022654637,19.30207809951646,38.819594799333466,7.801340175873015,32.51006318775157,-21.81623160253048,39.225434763501816,2,S01
6080,0.8470114726447798,1.4953573724816989,11.1692505287519,29.490372773911535,52.413230462111585,4.318209238226932,31.93256049723504,-25.808871052374077,38.83993718853285,2,S01
6100,0.7082014950521006,1.5439176721362957,11.050151536442838,31.0989153553796,49.964196139160464,2.424338500804878,30.379447085182296,-23.082623331861107,38.879223735102656,2,S01
6120,0.8238063694988695,1.6742812862522414,11.259302631537311,26.815756075693812,55.19648617737215,-1.868757253001823,32.342828334896026,-24.10579679586491,39.30888817065282,2,S01
6140,0.7484407440662983,1.3929989237614893,11.161345669931066,30.699053430434223,52.662935706348954,-10.547134758879498,30.661080163398577,-24.597747498422518,38.0639369112837,2,S01
6160,0.6391002621437613,1.2168648754475255,11.000332125685226,22.371938112478436,40.01710212401103,-8.590682204819608,32.035997140307046,-24.15803173627027,38.83865444894945,2,S01
6180,0.4650818507014326,0.9754788573822535,10.834127989188444,17.54450003136331,33.321058774150295,-14.301465121494141,32.59890561247853,-26.48076029642302,38.54203446875174,2,S01
6200,0.3908790927496424,0.7326405410218628,10.673693974106095,8.33747767603591,28.194955307818795,-19.239068291306694,31.07188828288453,-25.02827851382553,38.20550924570577,2,S01
6220,0.1255065942056651,0.5112358907009293,10.471070496631041,2.9792093787643434,15.331755348502785,-19.591921526731188,31.143795932464663,-26.631969656435324,38.17989461183832,2,S01
6240,0.041608390285884055,0.22028520096900822,10.236219904871877,5.037986582998729,9.255654530019646,-13.37004952404687,30.579548903300346,-25.974830533626214,38.02562355780111,2,S01
6260,0.13683633793734182,0.2926100193859896,10.269473631035895,-6.532868391521236,9.312757555831979,-17.516946470612666,29.69681816928548,-25.372868202981962,36.72808319700702,2,S01
6280,0.04906553928305551,-0.12041004045818668,10.133285021187776,-6.986851019703147,-2.193497940733222,-15.564051315369815,29.546341619771322,-26.835650161837698,36.154069807812306,2,S01
6300,0.10870248599057049,-0.234452815555282,10.158344476106485,-7.856673103303209,-8.844262352130054,-10.418352750551367,28.685625710013195,-25.28707501557512,37.362826385084794,2,S01
6320,0.18144972774408907,-0.32556074164382165,9.988435253792664,-9.56865094169775,-12.702135860088173,-7.207112642955645,28.66887314406025,-27.06993409393005,36.486963202714215,2,S01
6340,-0.134902798282564,-0.6913628779055117,9.963387117152129,-9.109158451416977,-13.98563977633971,-8.557248383087058,28.183667524930616,-24.26168213424922,34.54593266881829,2,S01
6360,0.03988755675857114,-0.855893535133196,9.667291616546043,-16.53224168220387,-26.702719814901744,0.9405716852879896,28.597123530089124,-26.384022932441088,34.66036858485367,2,S01
6380,-0.2803568173002007,-1.0045929147688801,9.570680636289964,-14.500529124778332,-34.22665870491495,5.852812710771766,27.658782359059373,-25.86885488935226,35.64986997419315,2,S01
6400,-0.4066556342762192,-1.3405064286589516,9.407775330148688,-33.54916908287802,-40.30345897754721,8.12325840715335,27.7915503093442,-24.95165219888115,34.04789759670237,2,S01
6420,-0.534498959015954,-1.6276881453778231,9.215200079652385,-38.037991875028595,-51.0642908151759,13.197339296416123,26.510238453895116,-26.046620201860478,33.993228865321704,2,S01
6440,-0.4586795684078191,-1.7859811116996511,9.05931757724856,-39.316267169086736,-57.92211334599255,15.565190119263681,26.49794076024669,-23.59199786366808,33.36546146846982,2,S01
6460,-0.6939929409154253,-1.7548576132439129,9.060318734059454,-39.16813358437789,-59.23408241096159,17.093434282850072,28.58945075022221,-23.77617916137765,35.2359120639429,2,S01
6480,-0.6308191169017385,-1.664859508672895,9.242375732921838,-38.210049637940436,-57.15933906837091,17.169865984191375,26.262700600193956,-22.518195196390337,37.28592937406172,2,S01
6500,-0.5679284247233887,-1.2999522024851236,9.274312478778368,-34.96398948552373,-45.99339024825456,18.114826932920984,26.831187764571304,-24.008033964833825,35.68485460561281,2,S01
6520,-0.3760410555838537,-0.9316873113761166,9.50853691760004,-26.425261782149082,-33.14018766520294,18.313846417325923,25.290828189659045,-21.878161754958228,37.65352579903163,2,S01
6540,-0.10234408275271675,-0.622264010139034,9.767352668371862,-9.564429903813014,-12.646102798570606,20.368542562661418,24.38254074749701,-22.768651148368317,36.956969294524164,2,S01
6560,0.07865889393051695,0.01375060551432318,10.158835735255575,-6.331668967229991,1.3375188329206924,14.873086007943959,25.702343629181293,-22.278438633326548,36.94635912414593,2,S01
6580,0.38617837732790694,0.6155427393625954,10.416003867773798,8.57580094164934,17.40593213827631,15.237764567905783,25.32647153438799,-22.960250089833853,37.22594949114893,2,S01
6600,0.6011023803894185,0.9009495164283006,10.769638663713266,18.927073170478756,37.83093926831036,8.828780959218594,25.86587221517573,-20.073216714386604,37.97845187690908,2,S01
6620,0.7558346254519328,1.2431722691928202,10.9919514193769,25.148058162183066,47.889713521940166,2.832847299760924,27.631760580241927,-20.953960778831224,37.761405314032544,2,S01
6640,1.0233613954179435,1.4515798959540833,11.121122542784617,34.822350074858,54.08597488758235,6.026970859771368,24.241276462852074,-20.6477312777626,37.60927165658153,2,S01
6660,0.9256253307043061,1.5063758002587524,11.258146380518573,27.51517259162956,55.892549634655616,-5.62754381185024,24.05612266050668,-19.743009029341458,38.96635666870075,2,S01
6680,0.7387048545072986,1.466524795741791,11.14600535769317,26.160692200054914,51.75790904028364,-6.644462728407463,24.413700422659254,-19.12924328155941,38.11613797915676,2,S01
6700,0.7349414219456551,1.3358029798165982,11.075907793312984,19.89196825004856,44.551081961542124,-7.955567848723312,24.968911509975268,-18.790907098950395,36.66482924319252,2,S01
6720,0.49735103479220266,1.1310286814405903,10.749324259267931,24.100242771691374,42.64774851125968,-10.975490212727626,24.126148236969662,-17.86960204468702,38.55337971746779,2,S01
6740,0.4150561543837322,0.9908656986155406,10.610475592152989,14.116121925813555,26.828667518243808,-13.53410833131082,24.331946296207377,-17.714583101923246,39.33851329552761,2,S01
6760,0.3368036836999314,0.6130665544496492,10.461697492878367,10.799489258541083,14.435091229881337,-19.064433969133063,23.96757753554643,-17.006994339900228,37.35695322267818,2,S01
6780,0.30003614521741107,0.30540661453945733,10.321732113491018,4.3193081813174485,15.94511035076751,-21.285496517836613,24.624145779044568,-14.840304371214868,37.83966994150931,2,S01
6800,0.0503669537216437,0.22594830068243277,10.421994573615942,-2.7077415601246817,0.637239137645506,-13.752130415534566,23.704138839755473,-15.20842121872633,38.96449602357026,2,S01
6820,0.11525668849544178,-0.061689552066355874,10.137025577170556,-2.3599134151305163,2.8157060888700043,-19.916436054139982,24.8849878713569,-15.252352267900779,37.56539331564173,2,S01
6840,0.09628522661344889,-0.16193374082195916,10.04789587531419,-5.002537286447092,-5.5356250938373295,-15.220526769101468,25.688634115750986,-14.545138725769881,37.36784251809656,2,S01
6860,0.024577002239662124,-0.307673606421375,10.094641847430978,-9.633532277473574,-6.6250478435463895,-10.386506339960262,23.08988440951447,-15.038412205300027,36.34384639376637,2,S01
6880,0.09573098371898744,-0.3943026367361467,9.917262793532368,-10.402792546355382,-13.694827315359973,-13.878297279211994,24.605533327919034,-11.913820141115721,36.73794474309325,2,S01
6900,-0.05809483430956042,-0.6674829425970203,9.766608607808951,-15.7483554146263,-21.801026297508905,-8.804214738989872,24.123788433085856,-14.859339246803179,34.05813657630249,2,S01
6920,-0.24814426002016368,-0.909471983606936,9.676654385199488,-21.93712492123883,-31.217192828659428,3.31998680774834,25.637598870995696,-13.039008745883162,35.523066681891606,2,S01
6940,-0.31149766239887533,-1.2097211048829255,9.348159812034227,-27.731819734227667,-40.1747077563927,7.99699469291171,26.350548229137843,-12.9972710995762,35.905908864082505,2,S01
6960,-0.3681573147435563,-1.4269524486225271,9.181214950627396,-32.39106213994555,-50.1318649195115,13.825658556217126,26.48642362893089,-13.981854413149984,37.612567304699056,2,S01
6980,-0.6387447067259792,-1.5791558144000644,9.17181487836703,-36.94201229747344,-52.50379675060939,13.088419528134306,24.144184191903474,-10.4214906138435,35.82271065776822,2,S01
7000,-0.6217098575418905,-1.8369808513945634,9.147234885516227,-38.52482902490157,-55.745595000650525,15.220790654179034,26.43884603798381,-11.169713469674896,35.70512500547227,2,S01
7020,-0.621673459595614,-1.6728375766667538,9.102338566328683,-30.591182042050338,-51.479138330471436,25.617486369016532,25.336468304943715,-10.500247506930567,36.10389922467911,2,S01
7040,-0.5296295237524385,-1.463041990780162,9.241354290842931,-35.4423747447578,-44.37985685384691,21.70680970897141,25.510417983061913,-11.157199910426344,35.9217596651926,2,S01
7060,-0.4470872877878568,-1.2379324947162704,9.370339131560932,-29.875757878262103,-37.37384874128365,21.820751530056732,26.53838980484554,-10.428622325268613,38.39597546388629,2,S01
7080,-0.19324534459704265,-0.6851007725273559,9.737340180464766,-15.821498405171123,-23.74091692447882,21.908676145442502,26.00431334330397,-9.60584072795994,37.28962209888374,2,S01
7100,-0.03580864768651207,-0.18386620729233488,10.10143866851476,-6.3690538150178,-4.688350014534749,19.08536985524335,26.02525549884416,-7.8339269631919,36.85790827103285,2,S01
7120,0.4203798265549452,0.2852732672205305,10.456966979682969,5.174479725592563,11.91022885501799,15.670830089047085,27.20630606755393,-8.640206247434966,39.82579770736455,2,S01
7140,0.664409980549077,0.7435004667777121,10.74957096275936,12.390882292101402,27.290162439532732,15.14747623378837,27.289759116856406,-9.961283200804125,37.10428398364117,2,S01
7160,0.6750880867919574,1.191337502618142,11.087587343910734,22.45161495282105,45.56399169346508,9.749590786359711,28.028512109495303,-9.660430127378987,40.61625160560964,2,S01
7180,0.7418754387449279,1.4634808725402133,11.182991569720148,25.974387792027205,48.05987543925639,6.108468014904253,28.17235434170756,-8.323785699769942,39.992288909674826,2,S01
7200,0.7408234684533505,1.4422669607189973,11.107731771614374,30.048605742600518,60.244503264482674,0.4651994773707011,30.50497079078592,-9.06280884644012,39.35925907237335,2,S01
7220,0.8829271569537651,1.5032736637207498,11.208007466078483,31.035190620800055,55.94399946680153,-4.918632562381311,29.509575846450527,-6.639068066513969,40.73750514816359,2,S01
7240,0.7810559838674739,1.4302906056114708,11.0810411177103,30.24802098007758,48.418609568175846,-9.05829281721278,28.57216520679462,-9.383857919645605,40.02828133522577,2,S01
7260,0.5991104911687658,1.260204259268645,11.001393025616858,18.523839063535327,38.110198936042856,-13.83249569965988,29.930485842356763,-8.725144551095944,40.636760566171176,2,S01
7280,0.3008858649612821,1.042086562303913,10.733836399146401,12.137363641132687,38.3619863377886,-15.630933558198992,30.33223479073654,-9.072578946671992,39.21285140891157,2,S01
7300,0.2396543135853555,0.659564851266035,10.542930077170206,5.090522551412399,19.68266014731448,-21.523244695218768,29.487265360248724,-8.276801927899864,39.03529731696208,2,S01
7320,0.21208204364973235,0.46338533555629263,10.378626230769385,-3.292457587381331,16.14104674580273,-21.8707328953058,30.034912089119434,-9.971520259638098,39.03294802961751,2,S01
7340,0.1723172692826425,0.2567154725776756,10.288311019390669,0.36327283464530336,6.793750758851282,-18.35361008507835,30.99078836408455,-11.133995911661408,35.5148610098195,2,S01
7360,0.1361990197556672,0.06676163959132442,10.343794191781825,-1.6263693775746644,3.1766410239004443,-18.061350118250296,32.49793013499306,-10.609011722420995,37.297010393242225,2,S01
7380,0.05264397553518239,-0.13489230197016194,10.123964340247543,-6.222660729723768,-0.6110244103200615,-17.48436179461916,31.301322488235602,-9.407948283139334,36.85640179240381,2,S01
7400,0.11569531803430122,-0.21986313402645424,9.95185435454052,-7.7933994154925275,-8.751291884991113,-16.46584684514105,32.41467251464826,-12.702756237623493,36.282624856641505,2,S01
7420,0.24835751040391957,-0.5042656701979211,10.109078037667448,-9.185062134232393,-15.140341717295524,-15.405245831888601,32.12026597518998,-10.73011733601027,34.07810157977283,2,S01
7440,-0.0007809252290509189,-0.7130474215505334,9.765649869450156,-12.59362785076404,-26.924329513242384,-0.49190613789285786,32.89221605686426,-10.823120732753567,35.96901719753926,2,S01
7460,-0.2510546308619773,-0.8525335481708571,9.549343309929892,-12.63222089059526,-26.883033217064572,0.8983299426636421,32.15107722429663,-13.390271609306371,35.353854246961944,2,S01
7480,-0.23958784497909566,-1.1978515902631557,9.543467765896322,-19.60354558315184,-40.380680549837386,-2.7536000530301314,31.403490805316917,-13.018434009539735,35.33495258712419,2,S01
7500,-0.3664767640459282,-1.3823214900338259,9.227374539791157,-31.523136006332958,-43.60029458132661,0.26573513462577514,33.071796577404555,-14.921722793486975,35.87684926397146,2,S01
7520,-0.5014249294091144,-1.6502632781654354,9.261498589649857,-36.893682962221206,-54.02992569588067,15.54811615332057,32.00803989926298,-14.83376228390711,34.35255572052603,2,S01
7540,-0.8495587122423462,-1.7445425016399707,9.249198570811991,-43.148297520521275,-54.97168411016173,16.802411251411655,33.78690822582586,-12.61009757954294,35.877162090219066,2,S01
7560,-0.5635349050649568,-1.679128127085333,9.187766496064011,-37.19984095375625,-53.37074288287025,18.243734248749952,34.422514429317005,-14.846440087650628,35.439326588753474,2,S01
7580,-0.5976611864370407,-1.5099826944334582,9.290422126104914,-33.22238471134766,-52.568605443885495,21.56390823893765,33.390337367924005,-14.498175454434298,39.08706770372783,2,S01
7600,-0.450764927449669,-1.2022778699260144,9.344645771028702,-30.4701374054349,-41.50790964898504,19.887979822884237,32.34203063897528,-15.9293502381721,37.10485600328474,2,S01
7620,-0.35064559942954276,-0.9321867018851384,9.631880619158,-22.328093985597093,-29.206021698950607,19.326233130442365,34.17194099864831,-16.924647942640693,38.31724726267428,2,S01
7640,0.07791408836544803,-0.44477886228841634,9.961651458863452,-8.315590649256205,-10.956175927158123,23.02610599781124,32.68518755617792,-18.532454869205516,37.91335143964663,2,S01
7660,0.1821709292187591,0.20540252087921462,10.32510825159388,-1.556625865472507,8.675404866742573,17.783952760821467,33.85024953250246,-16.765617568898854,37.805453178619764,2,S01
7680,0.5057317468303137,0.7145263126388752,10.538000709742143,13.971138701091935,18.522279886682025,11.228034147920233,34.742131186452696,-19.115579030296686,38.54069986659857,2,S01
7700,0.5993059556476065,1.1079144762980047,10.938826149813128,20.64380795494854,35.42565591780791,5.43574905223247,33.75436664870374,-18.81741889730887,38.51643343349736,2,S01
7720,0.9109804879713801,1.353973153943621,11.093402859453434,27.005566605900903,52.3427188592963,3.783376392462846,33.823330093453315,-19.72573413167318,38.016869323723,2,S01
7740,1.0036467791630945,1.5384007474790047,11.141468423106708,31.56923794178879,55.27252817642492,0.7277684805568198,33.7535507671581,-19.947972218159077,38.78000571605645,2,S01
7760,0.8621136188691764,1.6938696312664498,11.394275823124053,26.373968990759288,51.29313479183593,-0.807627278816173,34.32105478769695,-20.406448664036354,39.89715153024348,2,S01
7780,0.862800340390112,1.4195437515373903,11.137180550027022,26.56471527689576,43.93058823521839,-3.5410482258761724,32.80421191945204,-21.23182079269487,39.27712038087579,2,S01
7800,0.6439510755572919,1.2310629451850021,10.990772090528798,20.07538464817912,44.595043767614214,-10.974198502991939,32.70877633401169,-20.618671260210405,37.688641269079,2,S01
7820,0.39774136567139706,1.1283715576031244,10.767172280160223,16.91082378412101,32.256463719509235,-20.03449463270611,31.223857244894088,-23.37774131082658,38.36593855987393,2,S01
7840,0.39680124398521766,0.8630950992310362,10.610612962707092,16.196543446629466,20.569281504709796,-18.628856723086383,30.796814378212655,-26.126158061437387,38.99262199842982,2,S01
7860,0.147832770527572,0.4392586593158741,10.407384030931071,6.265980174645475,13.767236286750434,-22.581258079005053,33.2491301447494,-22.276044565805243,38.71016757718782,2,S01
7880,0.13004149288156217,0.27663014261956115,10.326984010915782,6.524613902183732,11.033107290818762,-20.951394457379447,31.84571450179898,-22.156970209556487,36.16289701712755,2,S01
7900,0.12113906466641737,0.13076640675922896,10.384323107311209,-7.519058048396547,6.743586745072196,-16.6674415861804,33.24753279942564,-23.65352254473491,38.106831058099985,2,S01
7920,0.19039564997310607,0.029151432391991985,10.187829426374057,-4.2962575043483815,-0.38500471746310605,-16.60089580898866,31.368924053864202,-24.612938364927157,37.11591863741792,2,S01
7940,0.11724641816643318,-0.09170727071689624,10.100386137999157,-4.882387239695433,-8.32615964570674,-13.524865751583368,31.447320182290802,-26.64646845084781,35.148554997761515,2,S01
7960,-0.005653222748539299,-0.3603102060873185,10.057191259287396,-10.084866220412962,-6.697673447770004,-11.177495133694672,31.409153483451682,-25.55745516128846,35.45632993023723,2,S01
7980,0.20676260989756914,-0.6600459344957481,9.954836736138287,-14.14334974741648,-14.587851408950034,-10.863693445723044,31.358966065479766,-24.297083360981286,36.6277693755107,2,S01
8000,-0.08479683413943773,-0.8658915951352228,9.809918294095722,-16.949805452451415,-29.42963137030637,-1.4240385264103224,30.314769155487006,-25.524530794155783,36.10293407524838,2,S01
8020,-0.1315680937042095,-0.9782606753253771,9.573344214240972,-22.705980705294348,-35.064700243058695,4.619873731505473,30.58148707943823,-25.51456926602032,35.92130522693457,2,S01
8040,-0.44857372359568526,-1.323649629244301,9.40245920581838,-24.281676534527158,-41.334936232723635,9.772384883613265,29.057061706959715,-26.320543920424686,34.41267616871028,2,S01
8060,-0.5708487859152651,-1.638794602456101,9.297999040360166,-34.097334818129745,-56.10819318385007,9.097953785060678,30.102379432321435,-26.31273907069285,33.970698432338374,2,S01
8080,-0.6716123029837551,-1.6265163777061582,9.008886612504716,-37.62224167682391,-59.02316904493557,14.354242911838295,28.77606373838105,-24.362346157046215,33.37965619959273,2,S01
8100,-0.6378319241647546,-1.6891797107484132,9.02287447926651,-35.80103710625469,-55.957777594470585,14.775195702593829,27.35003528097927,-26.257167516303724,34.05873848467509,2,S01
8120,-0.6283239644869807,-1.6896218358494042,9.120492880473758,-35.408520694165546,-52.356167233944916,16.827867450005744,29.305516252780897,-26.567417918146948,36.37624679769073,2,S01
8140,-0.6357592175131966,-1.4514454977488143,9.151295165669994,-30.905720895982935,-48.008148159000115,15.687482649793035,28.711287564941486,-25.57858171228272,37.54237261689967,2,S01
8160,-0.2837436558966189,-0.994246100004655,9.574526661916076,-24.404870823597868,-29.897911156643925,20.476865213811706,28.531919966361738,-25.080866033395207,36.60140665569182,2,S01
8180,-0.12967307512937368,-0.598150088693419,9.852239568478861,-14.022766513818326,-18.005036347117827,17.002017294502007,27.48689973003498,-25.93556240193199,38.530107393215445,2,S01
8200,0.013900077529407431,0.23776348958575688,10.20612716139668,-1.5437764947306016,5.522134923887784,16.251688762949694,27.31265048126837,-24.97325644408491,39.405836872944924,2,S01
8220,0.4005046579616033,0.4722517754834156,10.534642576697363,10.294448215330863,15.803392614668404,19.12072486437708,29.17737837623945,-26.1954268477606,38.5892614955367,2,S01
8240,0.6844414226107964,1.0763064244802996,10.908424558678297,20.358165270762957,32.05661563821511,10.114022211821863,25.667952189764215,-23.709099881049685,36.926760098673,2,S01
8260,0.8761150414309683,1.3625347103586032,10.980724045184646,34.861471827170895,43.03742366369382,8.480132053552214,27.070604571130865,-25.299546177993456,38.261446592426516,2,S01
8280,0.8227733974815028,1.4726961746487037,11.40839934164117,38.12036572566066,54.07714323886162,5.329379999255408,26.740785889033567,-23.716624841592512,39.351925626234674,2,S01
8300,0.8395131552642842,1.5845678959000455,11.225790548375572,30.164942812698893,48.65863609562655,-4.202415768124238,26.910762899660323,-23.349049011952424,37.158902487158386,2,S01
8320,0.88298564008757,1.5535454989164983,11.128970118709029,24.503904352554066,57.021058144405586,-6.185121467420135,26.076261472803274,-22.894267388349753,40.18039220012924,2,S01
8340,0.7029474505581244,1.3256191122442076,11.085691595228239,28.439789986421264,39.90928207645537,-6.016324583416433,24.434733886274543,-24.18478934022032,38.89287541468526,2,S01
8360,0.5151617793636691,1.183712328917371,10.705460859384822,17.421474017654685,37.8458667788207,-12.887987506435694,24.688413922288078,-23.032777747399972,38.00986686984883,2,S01
8380,0.3447424688625976,0.8815439418884268,10.738246558725347,10.820297307987698,32.52585987360947,-21.943409935642908,25.10144484452683,-22.745643280734793,39.674466363054776,2,S01
8400,0.34150895681200866,0.5226793858475969,10.573507640355265,9.377678588240332,23.51518967457252,-15.923597419446272,25.09411717213424,-20.552780214542402,39.46547350227249,2,S01
8420,0.29633579355062367,0.3310549840800063,10.408601667105064,-2.6398147152567537,15.118811201072813,-21.098183696069782,23.939232837913814,-21.463920734095566,38.86269006422251,2,S01
8440,0.08981181861865152,0.3585575872037227,10.324931732467114,0.8520879475154279,2.9856400866324915,-15.814239291467723,23.886096407309367,-20.05210007918329,36.802383997034696,2,S01
8460,0.16850535904550168,-0.03596313226710753,10.16859602983786,-0.09559210727310496,2.3513665309326646,-20.64340267708744,24.012316270174917,-21.827232216794933,37.02342987103205,2,S01
8480,0.10107087450261457,-0.07606993811252659,10.066545231751315,-8.566587236596625,-6.634209390819387,-19.40539176717295,23.36653691968931,-20.522578512102015,34.45185905589962,2,S01
8500,0.15386741688210298,-0.3219467709524573,10.175455428829983,-6.935773164957148,-12.22993053749142,-10.958768401837538,23.23726091349999,-19.449742085955926,36.82779042308408,2,S01
8520,-0.0471488600252882,-0.49498782782210016,9.88562898076299,-10.200509181650979,-11.562012683274983,-3.0973679345124494,24.415088693518573,-18.758802357083148,34.384749280463126,2,S01
8540,-0.056823391256718536,-0.8057869645209665,9.645096443087342,-17.384521792164232,-14.787479204124468,-3.1393671908077767,24.004918379545188,-17.71831817389622,36.6302467392143,2,S01
8560,-0.0172972519492854,-0.9813822752524177,9.708716579257562,-20.086374810385013,-31.448490308474536,-5.5620472464704545,24.224185342410422,-16.40995926536196,36.44534762029825,2,S01
8580,-0.23472607301940698,-1.2944486151863253,9.564748449615243,-25.669512223313944,-38.515090584901,5.803229821192381,23.243686742150672,-16.432388000071633,32.734366018895784,2,S01
8600,-0.39662727516584395,-1.5940542420290458,9.388714479105342,-33.020703699928404,-52.64449074632405,8.641376544623338,25.300954701042173,-16.621666863761774,33.89505896574633,2,S01
8620,-0.6844076813507806,-1.6740128275471275,9.127154456487695,-41.646361266744336,-52.77875080277791,12.982596939879567,23.399170651391678,-16.560334420184873,34.693718115888686,2,S01
8640,-0.7799182390035414,-1.8119169800080421,9.045992543168117,-38.734425219479,-53.22466817703482,9.419907719597543,24.91248448202216,-16.905770684031793,36.43775822087299,2,S01
8660,-0.7107299369379577,-1.635775893019042,9.061013573442594,-35.89016281181539,-63.410821704398344,21.94482885239488,22.628944731141516,-16.09020227678492,37.836665069051165,2,S01
8680,-0.6422430109331322,-1.4751196028147746,9.271944290485088,-34.882161635840625,-46.06338101303877,16.14154182321872,24.65616942832933,-13.652628878197703,36.888925155441854,2,S01
8700,-0.364263346274727,-1.116995967021804,9.498729506322082,-27.175487615456163,-35.91314978947592,20.644824987971557,23.255589226966663,-12.81141882232096,36.049845274569044,2,S01
8720,-0.26215327311249115,-0.6619390729348238,9.74433587929952,-14.250824558982309,-20.52955716222186,21.983456461396532,24.81334043435128,-12.647205599160323,36.69485883442576,2,S01
8740,0.03192477355630553,-0.26046120943896983,10.111674643633673,-1.5953742239404405,1.1742785070757578,16.727832195848496,25.133155311053574,-12.908210571708612,38.39428767704032,2,S01
8760,0.311774274277695,0.42940422545760876,10.342133477844698,8.825244152514909,15.345919098040088,16.429218519628524,24.835614112722872,-13.4451977746272,37.680191258438185,2,S01
8780,0.631841317439923,0.774700302925722,10.726941897299511,14.91091149069182,32.49281069165598,17.621147915959575,23.327678097518294,-11.081145149530709,36.350710501972415,2,S01
8800,0.6221858322705399,1.2153201962768154,11.005040866579156,21.821947876815138,47.13046228362336,8.884789181305733,24.748481863535957,-9.367557403654988,38.070117749701126,2,S01
8820,0.7346603193315618,1.4883946157907142,11.229584275891959,26.360968201337187,44.90072813384955,3.658981549655379,26.02848188070678,-10.92323761444814,38.86904340343001,2,S01
8840,0.8046431168408859,1.56482404063478,11.008107264025561,26.792781098869295,57.90352919356092,4.483317369361433,24.998949110640222,-10.47348469907752,38.25657356820644,2,S01
8860,0.7184952522047774,1.6158929867246417,11.194695963200985,29.56758759633801,56.07652239999888,-1.6067583418102376,26.301759308164307,-10.828306541681254,37.89299794197477,2,S01
8880,0.810882905859068,1.4504770561035605,11.014069760244041,26.10500745235346,51.2559775776043,-9.220436074130138,25.86713437448699,-10.57945008598146,41.34154810055316,2,S01
8900,0.6116548261785699,1.226045282367377,10.76368035597,19.31530360738715,42.146752310894165,-10.932665530205234,26.32293887023387,-9.589265870731444,39.560704065679545,2,S01
8920,0.40227983957084323,0.9403815721770232,10.655595103468242,14.835100945584138,29.0803952545384,-18.424644904484882,26.287481860867793,-9.807929841325706,38.73403728116962,2,S01
8940,0.3178895139621488,0.7082322251686515,10.584202201450694,16.570669897524006,23.088876794445625,-15.903593742894204,27.56240660969381,-8.730591942511243,38.04894185122828,2,S01
8960,0.19445691233738843,0.5528690370272988,10.327632389316499,0.7628472852034909,16.130677371687906,-14.113595399401857,28.421060635974353,-10.109396309462033,38.321241104047864,2,S01
8980,0.05163049870631077,0.055555424804232034,10.281011132168624,-2.98843128804881,7.447608271203058,-18.29707741707981,28.14481684776799,-8.707603317787571,37.28602565968579,2,S01
9000,0.15367425903385015,-0.018960557651051382,10.277126278022596,-7.536824248102193,0.10847991832338821,-20.228682835934485,26.823802975823764,-8.89571803249505,38.33086762842275,2,S01
9020,0.08384301225589617,-0.23865855441704287,10.234721509200988,-2.0014654896463298,2.038390603875408,-17.527011681458447,27.64405314468886,-9.842237101222702,37.71739011978863,2,S01
9040,-0.02943868195492874,-0.329253787344216,9.946084930172328,-10.475704673099875,-5.94154052977929,-8.984261026423122,29.566816301296555,-8.297496246398048,35.30994497359521,2,S01
9060,-0.014999474485982378,-0.3635941881047926,10.041643177132027,-7.26715544669535,-20.030165580693915,-9.057511293929561,29.740368952922907,-10.929334559633771,37.29059502653529,2,S01
9080,0.05997712548407183,-0.656151396881264,9.862062381221605,-14.411227079989413,-20.89687630354797,-10.139407430611037,30.282909009762434,-11.43312936660795,35.98151660519815,2,S01
9100,-0.16283729708539016,-0.7801343159675342,9.727564148443484,-20.00552473310513,-22.37336998631993,-2.6324388339308356,29.29706819611321,-11.241709381758977,35.17847300525197,2,S01
9120,-0.30533949634007274,-1.1880901792118215,9.553408193046128,-21.747279090886547,-38.67521179794039,3.849820236404064,30.0977878790272,-9.256991078991025,35.64489744366142,2,S01
9140,-0.29186348972143017,-1.4774458260009649,9.40089420742833,-28.66548273139336,-45.83340802648152,8.630396906195555,30.230004150291897,-10.138125370077697,34.86594811192748,2,S01
9160,-0.5330083072229868,-1.7390448281942827,9.198402861135472,-38.201843670293435,-55.79044410803614,11.213955645201416,31.858494169448196,-11.227520003506694,35.010719456156906,2,S01
9180,-0.5577975582083821,-1.5651535326098847,9.118017032773437,-40.528038383951824,-54.06575772691766,14.957463581762227,31.250584074661955,-10.026099886187783,35.97057486055827,2,S01
9200,-0.6930218007590697,-1.6386651139125534,9.055934397120502,-37.476797363627426,-54.924468319465525,19.601864057611017,31.524842080484845,-11.205652481015516,37.720314482968625,2,S01
9220,-0.7491661726298607,-1.4761527920463495,9.052363873336748,-33.25928043950173,-45.67135629911445,23.68025667973083,31.614912979692175,-11.211688811416343,35.688291827187044,2,S01
9240,-0.5170029053815981,-1.218968318688263,9.382842158705575,-28.52678312233604,-32.30418818571005,14.588634052959812,32.3036574776209,-9.619551237601682,37.314208133050364,2,S01
9260,-0.3443912964572571,-0.7071527229486649,9.647256705706223,-22.81297000070365,-27.61536171465358,17.237325483811183,32.639997020331315,-11.703165839992609,38.70001832570638,2,S01
9280,0.018488164091718065,-0.3665331271550047,10.04075312934467,-7.650258728725246,-4.913852094432531,14.36371509973107,32.69054578950245,-11.356992412026337,39.91026728668676,2,S01
9300,0.4311327774958219,0.2821241878024933,10.358124738791235,1.972156431369263,7.668433498433777,22.40648612399891,31.587697114024664,-12.397440215174818,39.897039160195625,2,S01
9320,0.507695697038624,0.7416106902546389,10.58207302988379,12.757112698505011,26.14366791607385,17.01747338935661,33.00586428185554,-14.180481653082337,39.23723868269917,2,S01
9340,0.6254135519302466,1.0987562520080039,10.882851081258467,20.451227023450823,39.512901397846456,17.352616982668103,33.28596491096206,-12.836861643228037,37.83778803660405,2,S01
9360,0.906979487068926,1.4674133535450524,11.1597436911732,34.0608068048673,54.10299851348268,7.678067001919864,31.72649432432503,-14.73071665696403,38.65059094903994,2,S01
9380,0.916280593421221,1.4149745886286684,11.285953596301802,28.905601799305582,50.23021647976941,-4.013693467672535,33.06878912993291,-16.447372421316274,38.14955100580334,2,S01
9400,0.8462335153926351,1.6253256497323818,11.08999118171951,30.481911871467968,60.45618260080447,-3.448137723123867,34.427635843355,-13.652093399099966,39.548657939545244,2,S01
9420,0.5837450539592498,1.4677949559681873,11.167152810158978,27.996069953296672,50.16538252728545,-8.535643799717178,34.90314944988775,-15.187658945303964,38.642534588047674,2,S01
9440,0.46017986652881704,1.1272169152182254,10.878569850239995,22.98634713932238,47.793607657319804,-10.231831255587236,34.26001161976414,-17.166003463574377,38.304791725395845,2,S01
9460,0.3813465745493493,1.1837566242111417,10.718335899198369,16.70446311505369,33.46145810623302,-19.480838820528124,34.182128447172616,-17.884941979685784,38.16889887078286,2,S01
9480,0.25839397332814673,0.8488690933392677,10.558487356837329,7.048471935014034,20.78738859085019,-21.481703090958636,31.808204373763253,-17.418016958326298,37.80929090102451,2,S01
9500,0.2268304950203976,0.48586066749470663,10.54201163318406,1.8469387322926138,22.197712935327257,-27.08037285844204,32.01016665486465,-19.470182494959754,36.72212415101316,2,S01
9520,0.10242766898853342,0.2709465112586093,10.285331441738682,9.127403940693767,11.28588198098391,-18.93595776551253,32.159294724307365,-19.02785440885058,35.86872962218039,2,S01
9540,0.038610674661987594,0.1301798990918518,10.32833903853861,-1.4507656109667355,3.8481912679037507,-21.169705302951073,33.16677292668699,-19.15778367269457,37.77725116555978,2,S01
9560,0.01009543360350057,-0.08945603847098174,10.00397609431622,-3.0315076621092487,-0.2660845034582854,-16.748754025629623,34.5643381324677,-21.106106624383596,37.431067449304855,2,S01
9580,0.06252631989624713,-0.15505423250352862,10.009054585043666,-4.822337299666012,-9.683068554321306,-13.80560778061133,31.374343384193768,-20.147479095513816,36.50959222967128,2,S01
9600,0.1072199534845701,-0.3832722436924724,10.078425258869657,-10.880014466682638,-12.133356232651892,-10.624487020365947,35.08292770096426,-20.259454385852496,34.91465263292057,2,S01
9620,-0.08029092326193549,-0.5705699839351306,10.039147938426462,-10.534640297011663,-16.99205306407451,-12.299685621105207,33.1508351736082,-21.734417830294323,36.11303738760123,2,S01
9640,-0.18394647247393556,-0.9041317863368978,9.688653280558453,-16.01736311361398,-25.357584099968612,-5.577849728743537,32.43802944263982,-19.791483160876233,33.681195704676384,2,S01
9660,-0.21939632768342845,-1.0714919750703638,9.496057075533304,-22.268213528156025,-32.77015406014204,0.42532436454444544,32.1143182019219,-23.33292484326643,36.14462252695703,2,S01
9680,-0.3533631964902588,-1.4164896305494943,9.317630112963089,-32.796037560129044,-43.473447531926894,8.007797500355721,32.64577395705206,-23.06500564845998,35.07095874468734,2,S01
9700,-0.35227918809543435,-1.693965751710056,9.089085332785489,-38.64858695908311,-55.18827834531148,14.764607795797266,32.01784118573673,-24.116804704970814,34.7928390147487,2,S01
9720,-0.6997685398389504,-1.7124601802578217,9.105801496730576,-37.99792446589834,-60.13571433255017,12.491610655688671,31.55616411103546,-23.80602016808512,33.715598806543426,2,S01
9740,-0.5663013278041132,-1.5868069277872128,8.98204167260266,-38.16678482277418,-56.42617269485271,13.101818125566831,32.43257589176973,-22.58903545428415,34.69742172199294,2,S01
9760,-0.5924921433859325,-1.5912597893649731,9.206162823423751,-37.088074727882905,-52.66708162163152,19.67644114613878,30.81324326401393,-24.448790800861786,35.038823054156275,2,S01
9780,-0.4609751599689882,-1.302119971101885,9.257509382692698,-29.731161726984478,-42.25330718357719,21.94190036451935,31.540450710492724,-24.43381417544198,35.30577934238237,2,S01
9800,-0.4624840955249073,-0.9165907131389006,9.631963238472371,-21.20925247521513,-32.97301303482617,18.35177255675732,31.788822977137233,-25.243757647350986,36.38193443894142,2,S01
9820,-0.06808419350437708,-0.45648840748834046,9.86646906419247,-11.138792160773832,-15.714176977940143,17.540329586327566,30.461174442793133,-25.853631231513923,36.36210567079771,2,S01
9840,0.19929692895175172,0.16448805607259895,10.246574356252976,1.4950042600953841,3.9093719687315875,11.47356895884753,31.18529846497437,-25.61081916520202,37.56103659009086,2,S01
9860,0.401413139108886,0.6233167421047443,10.672974985119286,9.795898481705432,17.904260786480886,13.878728172301082,30.11522674000593,-25.181041354143897,38.30820452063018,2,S01
9880,0.60556409217898,0.918055141745856,10.925180924719006,18.60889497066809,37.51886320433924,14.105305195434104,29.371483694781464,-26.225773106704235,37.953500554528866,2,S01
9900,0.7465820430606969,1.2711306483903282,11.060143873014885,25.563176005200813,55.546902540174024,3.178124058586238,32.12375312876671,-26.254800379588673,39.12748475272504,2,S01
9920,0.8858874255387935,1.4853765635990122,10.996102424509726,28.0413110110379,54.549190529314906,4.917659179052557,27.449236199274317,-25.526471651462153,38.713407547450664,2,S01
9940,0.8801213815274985,1.6046052082521152,11.153553230079169,33.3418142350687,58.03479466616461,1.1953256577404971,30.103442955476112,-24.973018102137445,38.54294098197337,2,S01
9960,0.7424972386473546,1.5538473332780638,11.209156614100737,29.475840637218955,52.33863034793044,-4.510020666984711,30.169341217478106,-26.6712005959477,37.92738173832527,2,S01
9980,0.751381128505482,1.284594410167977,10.869174803157934,24.289659833140828,46.58104799427905,-4.07595823469132,28.392950157372773,-24.405432442331026,40.597450988277046,2,S01
10000,0.5776881293331549,0.9881185043099152,10.83391486615431,22.706697139446568,37.807728795151924,-15.102975169610614,28.219321095332877,-23.33614573738329,38.470536484681155,2,S01
10020,0.3125281975671431,0.8680151469774564,10.734038448080842,13.087432338008718,27.611116517434432,-17.462333453559033,27.6828314519102,-25.537403084688876,37.57773552181147,2,S01
10040,0.2735356131768582,0.7150293246009753,10.395103000581022,10.407241329196616,21.127347855011443,-20.12827221426277,26.81929356166512,-26.259741552974102,37.443359154730935,2,S01
10060,0.18847628986467088,0.40470979940374474,10.3670456131796,4.249638341841911,8.25717404168083,-16.678191792564437,26.601139384855184,-23.78857400307864,36.22207329372655,2,S01
10080,0.06690317605699331,0.31371935175684507,10.169313719676675,-5.6827752686791975,4.883349790610286,-21.696854195586855,28.103638082720597,-24.83012347691048,35.33275189206659,2,S01
10100,0.3382270322506812,-0.1685173309617298,10.20984300524141,-2.8052891201420507,0.09229458265874357,-21.6341869394947,28.114548432200998,-24.266914814833594,37.26303564076863,2,S01
10120,0.1145833002748514,-0.19527117524999665,10.085929178416487,-4.581673004446941,-4.56211992540334,-17.696393501812196,28.424589486723168,-23.26266554810643,35.139858512575856,2,S01
10140,-0.013875398185637905,-0.2698593015207014,9.9218993253825,-6.307396987286098,-4.663891985160504,-10.740578938521994,27.048719363328228,-24.309665172806195,34.946066596403774,2,S01
10160,0.08120789573895904,-0.6810946725075562,9.845513390547643,-10.27213010853321,-13.611820936155695,-11.077480917379395,27.38244044796678,-25.03859356361627,35.00073256107986,2,S01
10180,-0.25940401078055686,-0.6176169331500316,9.807992957125279,-16.966497476531575,-21.503824618923026,-4.596216301916497,23.303679713153407,-22.746130567992733,35.83003052109143,2,S01
10200,-0.15835333010246558,-1.0394830470712,9.501738922333084,-17.692464056131566,-32.0077486274002,0.23875911136651956,25.979802213551956,-23.99320994114158,34.99551201088011,2,S01
10220,-0.32966345499662963,-1.1431347013453343,9.530988888921295,-28.74301450036338,-41.24311441445534,5.125209924996078,26.372860466806074,-21.561626136380394,35.42577859134904,2,S01
10240,-0.45726655414025363,-1.4894672126393762,9.233129895763824,-31.689609587563332,-51.89454472562443,12.528635550631583,24.439858199334008,-21.84654631776093,34.350286401216465,2,S01
10260,-0.5519000699915917,-1.7329435815888818,9.062070922131996,-38.15906551255476,-52.69932201380029,14.556534796712054,26.356959096302784,-22.177604476620182,36.44300407152611,2,S01
10280,-0.747765884327291,-1.6349347055308918,9.125962297483008,-35.59076654673908,-56.01743559442983,12.9208275440747,22.806417832870324,-19.907114938256974,34.65157894588647,2,S01
10300,-0.5107835900107672,-1.6513393140881136,9.075408812047495,-39.91903070475057,-57.54577646433598,23.89706891557708,25.539638479590256,-21.44130361156476,37.85412847123151,2,S01
10320,-0.6816038386267722,-1.5069551724932728,9.387604323968764,-32.746610906971334,-45.43141466640794,21.751086113076916,23.308821085892085,-18.349521519012384,37.632374411821274,2,S01
10340,-0.41378896111594,-1.1268479592004008,9.494735161108045,-25.481311587366825,-32.10319729468093,19.284695018757855,23.07003565974702,-18.41563881245212,36.671324863504864,2,S01
10360,-0.2307914247388753,-0.7069026280663693,9.545889277374497,-17.762778105572846,-20.021634854649523,21.341368254824985,24.154006136540076,-17.038797887720754,36.41565249546352,2,S01
10380,0.1214338235451537,-0.25946129836478504,10.2329507814209,-7.9392566874782515,-5.227154717976989,15.117557278594337,23.40909770619063,-16.847524395701534,37.76356069024904,2,S01
10400,0.5140169699569831,0.2462571064803521,10.462876991997241,3.3881898781279105,18.1294441175426,15.292578014917455,23.91501592475088,-16.245245284286632,38.891749298010474,2,S01
10420,0.5878505208337858,0.9386873405651837,10.819854048335339,17.51728083171404,38.27472669129949,15.179435120900177,25.50085740837351,-15.846994682131577,39.891236035601715,2,S01
10440,0.7066348231312737,1.2221588520124305,10.981300729770604,26.002294865143394,46.52467255107289,8.391272607462446,23.836259209382504,-16.84739483067672,37.920158146976206,2,S01
10460,0.8861835057747449,1.4326752915160468,11.142357588252588,29.050807891007988,56.21448446302919,3.735991513749248,24.116688040872184,-17.896452750576003,38.79532126726739,2,S01
10480,1.0270234172600083,1.6224117602359678,11.197434105537742,32.140064872021185,55.41857353359544,-1.7242162921611413,24.729712250741414,-15.166300877700442,38.9169207057085,2,S01
10500,0.7868654450632738,1.4925598314842654,11.06610642061317,33.339508214016774,50.55457598981144,-3.8168832420483993,24.044552178803485,-12.275321818199455,40.47584264371149,2,S01
10520,0.7605241359094888,1.429149717072356,11.027177337571343,25.230845193955215,42.754725281805136,-9.116989773828779,22.92676362430585,-13.154725302247428,40.61826738272496,2,S01
10540,0.43989333308445666,1.2980453065478905,10.950267361771326,18.45094327226685,40.85181873897023,-13.330657657593507,24.257045213275404,-10.74603184759193,39.45023896849417,2,S01
10560,0.3500772258626196,1.010390435165995,10.709046971685334,11.827194053532864,30.023722103835482,-20.22188813520524,25.386366359059288,-13.397671087340498,38.91499327766581,2,S01
10580,0.10984222083663482,0.6982182484669845,10.501674509462712,6.7365901893789415,21.087040909274368,-21.285682983858404,24.970606024829124,-9.269079630968982,37.685952861804324,2,S01
10600,0.19551498700630393,0.3558934118279579,10.294656189785533,4.497967845962653,12.266655671807085,-17.673480742702573,25.42356381793711,-10.936293911855472,37.21926818133374,2,S01
10620,0.081756315046785,0.18246641279927067,10.255468570468992,0.15742950169000824,7.2128135745327,-23.846893300517657,25.402737564309042,-12.00594010140483,37.986890946170206,2,S01
10640,0.21017581999988005,0.08594271395482717,10.179722223350842,-1.3639041868763222,4.108833936573853,-24.060395659747027,25.269992341177147,-11.703075650524944,38.37915973528154,2,S01
10660,0.13716035423566114,-0.0878249643605764,10.122250841993466,-2.1397882588924317,-8.63147928260756,-11.768807924851275,26.85153271884537,-9.341542974173324,35.67030257667812,2,S01
10680,0.01362178148829482,-0.28837855398898904,10.025250885444727,-8.882223784435732,-9.47157794883436,-10.114015689278094,26.558756122758894,-8.902872053801417,37.203352549980515,2,S01
10700,0.0472187658441126,-0.46410333478196486,10.060474840166567,-10.454618565419123,-11.390843835333525,-12.951457459586612,26.412836472239885,-9.913996141522587,35.13544930182789,2,S01
10720,-0.09616987182786427,-0.6746897134425327,9.889110865962696,-13.205369188358745,-23.6063599918104,-11.293890212418548,27.587707396955604,-9.387641767109955,36.37267993876863,2,S01
10740,-0.16412341607456268,-0.9165903853001374,9.620008251573127,-21.366504244755504,-21.522155353788918,-1.963223115362899,26.210957722803055,-10.026252451343598,34.006601954892076,2,S01
10760,-0.35396545013507585,-1.0999975148364298,9.350071963926112,-21.802638204386017,-34.98008453918116,3.271831411582969,26.84381254959168,-10.436984931321962,36.53171188691639,2,S01
10780,-0.4801053731638387,-1.5651488038536145,9.335006380727416,-26.11651553845847,-43.792692854474936,11.406672252123913,28.13929316668363,-10.232307972376095,35.85892447353884,2,S01
10800,-0.6544354156954023,-1.6227688957332318,9.115515225520358,-37.35649114559893,-47.67300466743805,11.7249058208255,26.318771795960036,-6.946904328792029,35.17142762414858,2,S01
10820,-0.6912200701862149,-1.5817250792970072,9.13109117498899,-36.922529986606165,-60.851299128638466,16.838199390506226,26.99570327592873,-10.185528097707238,36.95553685458178,2,S01
10840,-0.45426473840981874,-1.5414229554485404,9.014785388287482,-36.9903293316531,-58.90089100272139,15.57738450676172,29.819862525409512,-10.802874763761716,37.67757649255145,2,S01
10860,-0.5268054842567776,-1.5716250276126407,9.145555558987176,-35.45363787697307,-51.99515754306624,24.207307608831126,30.787997689559226,-8.39790008452918,36.51439748671621,2,S01
10880,-0.3540827328905085,-1.1551149561183924,9.46803251048237,-26.211691514699258,-45.59824988576359,19.281836276027434,29.75122757177908,-8.763333993872884,36.758531839738716,2,S01
10900,-0.19560426258057365,-0.704878115073263,9.529649485744613,-21.828787230902176,-30.877700369988677,17.59577974162937,30.038150518349727,-9.303712911536476,37.47018282173067,2,S01
10920,-0.15704349430999867,-0.21356463225435107,10.00344734804351,-8.217977085511214,-11.557109169098402,19.517791355986464,28.671600158795773,-8.721967727225191,36.81606598871537,2,S01
10940,0.2769091542875638,0.19891996158098862,10.183291024678102,-2.1686985063678277,12.08723372784422,14.163889288202034,28.8168178089023,-9.773007690701725,40.042823688695535,2,S01
10960,0.5578930781256577,0.7420482538066824,10.645647272229045,10.848858147421215,23.480497529350853,14.967083450090449,29.924160289441346,-9.414890201531193,38.225393038172975,2,S01
10980,0.7744110494352803,1.0741937360056943,11.08472242912622,14.872023852991962,44.08385974365943,9.466392754785181,30.64313593133102,-10.936365363549047,39.4963884719941,2,S01
11000,0.8548535268737889,1.3228655345095461,11.244214842413047,27.570349050273308,53.57119183238982,6.427222702890929,31.93269853257269,-8.603074137533195,38.77336194921439,2,S01
11020,0.715053514218331,1.5637300539653345,11.073296322706431,29.29687867189499,56.184090828442386,-0.49622970045842807,31.20025449051775,-9.977749465910481,39.094492381664004,2,S01
11040,0.8109138199730226,1.7115901720227074,11.280646580296121,31.430845073357535,48.77484192862165,-4.8218260567482165,31.44301838279284,-11.80055414237928,41.082187462410076,2,S01
11060,0.7061130612675102,1.3899877700001055,11.195536228798522,31.431326198611306,53.67852733647726,-7.048180809467264,33.456609168660925,-12.09443045380415,39.98444720130303,2,S01
11080,0.46588502976580093,1.2320091879045356,11.064497405177848,18.807189928610516,40.34573267984173,-8.106136353848234,31.614648977559355,-10.25908794880975,38.14866013105007,2,S01
11100,0.31806856705011877,0.997073859882996,10.738548925894259,13.2406588380294,37.77949042374072,-15.389759672079544,31.143224985295078,-12.668496659467888,38.65343598084128,2,S01
11120,0.2487385527621128,0.8625243417676012,10.558778306287023,4.061104791750547,25.313355581461305,-9.343373610585306,31.137544638559504,-13.113547297946505,38.145075798517986,2,S01
11140,0.24087193901873313,0.5086741808165653,10.350775471486012,9.629743260226611,15.538197899098368,-23.560554557575625,33.121157242044205,-13.624646327308922,38.40771444076819,2,S01
11160,0.16128820334451183,0.2594978702986625,10.390165664068705,-1.570108511817769,5.125072153729809,-19.22400780217193,31.217598349091663,-13.161325840358309,39.12816951752953,2,S01
11180,0.1966000942170213,0.16570866617235036,10.221397787396826,-5.578430041151527,-3.195394258840106,-21.308627821404823,32.6957337694452,-15.200316088530968,37.6016768396172,2,S01
11200,0.04268762411789904,-0.16035425995203903,10.207226576042853,-2.0550871718126746,-0.4365076931261107,-12.451343414388122,32.58439554479051,-14.563524284228833,38.557970913329434,2,S01
11220,0.2722477824899512,-0.27095183715259685,9.999553162953388,-10.138949443241117,-6.886157819840014,-17.342097108493757,33.81733772380853,-15.140714432851707,36.070568075874846,2,S01
11240,0.10297070514109863,-0.40231340195484117,10.053355802235556,-10.81879066565256,-15.313196054559839,-10.60119052623241,31.852418761480266,-15.492618246905847,36.27968854514352,2,S01
11260,-0.019683139958209098,-0.7627532440662095,9.864458475898413,-12.144738633329723,-16.915833899004443,-4.405332771721864,32.39091431018038,-14.177777051263234,36.10014055437617,2,S01
11280,-0.0315030386274405,-0.8960499320505915,9.801198268108916,-15.711043898100684,-23.056919276133307,-5.625445272934746,33.86601004670914,-15.35109552764555,36.439083074781735,2,S01
11300,-0.17620071498234083,-1.1557149152957817,9.492151607338133,-26.259341141213593,-31.907459037441622,4.363354257121246,32.0912361937965,-18.12235009935357,34.887614958262304,2,S01
11320,-0.5085741407801788,-1.3453966954774177,9.504884057941277,-30.16242713017212,-45.10703544913618,6.633139158965262,34.39322599093849,-16.55351130777975,34.56962941704793,2,S01
11340,-0.360462309937456,-1.4356359959001868,9.063135227441222,-33.85613424629999,-51.37449693767038,7.425006106949558,32.910704801932056,-19.138844058148337,36.92418704504226,2,S01
11360,-0.6100551184258446,-1.8177972516310839,9.145970361640323,-38.75971350444654,-51.51575614849901,7.859600406152337,34.05678616632832,-21.276152030517153,37.38702828903281,2,S01
11380,-0.5811168981803498,-1.5736914581861126,9.031626760400174,-42.583874177666985,-55.088446663974324,16.81840998556743,34.73363687311131,-18.225625701875614,35.44775915674873,2,S01
11400,-0.6616486256079854,-1.5841650747039415,9.172839596347659,-32.74993373452638,-54.8085918256115,20.51646676217088,31.791061864267057,-19.48372111198139,36.773656159563835,2,S01
11420,-0.48778757353272784,-1.3570297651724486,9.376150418329246,-32.01178942978977,-47.76302906526241,22.59614889517582,32.120334714440624,-21.28974760411829,36.448631705751765,2,S01
11440,-0.44135140173030485,-0.8500144479504721,9.455493295602881,-21.965606319740296,-28.498857872803814,22.97608755287201,32.68937189180495,-21.159490941455907,37.7996630784741,2,S01
11460,-0.09737816662495055,-0.6079183174178198,9.901033956059441,-14.704934939151457,-14.707124346782102,25.725383786635767,33.40873132178626,-22.45534731198044,36.959429545366596,2,S01
11480,0.1298845872353451,0.06046038322416,10.221737796857369,-4.92840514977034,5.621346537729255,19.510265551041023,33.74013542000261,-21.303465396292534,37.96636973110723,2,S01
11500,0.4728860368528791,0.5923240556641827,10.531588426492428,8.082108992789571,21.38936722806509,12.352143377988165,31.225674102668396,-22.483304653669457,37.56581352561324,2,S01
11520,0.6807907297365449,1.024414702912847,10.891294037374394,14.528092484529378,37.763214922981646,9.788111943881907,31.669527258313337,-23.251967704980572,37.113617790233974,2,S01
11540,0.7507848772802996,1.381008743613484,11.102428466643977,24.54816538414091,50.29280349956331,8.13842063597074,30.277201409771145,-23.230595059054533,38.388572457617805,2,S01
11560,0.7699722571107923,1.5551870422470186,11.293599490628845,33.09394082213617,55.325312741188895,2.557125365989796,32.329040377500036,-24.545586550150546,37.62045837121804,2,S01
11580,0.7807212441620343,1.5353997952811298,11.143983807270196,23.068671212690884,58.350960240502424,-2.9781123015440687,32.99149039161023,-23.927771415326365,40.03022723475687,2,S01
11600,0.7898363848617366,1.5725920813855851,11.036146779297631,30.4542090904829,56.291983843485184,-3.786811897930687,32.99274383640939,-26.21645367600195,38.18175850206855,2,S01
11620,0.6292056959325528,1.3656953749142688,11.033054680006167,24.103492872296783,44.64818797965692,-11.084569637756273,33.049429345335426,-25.35893497556367,39.099950616683955,2,S01
11640,0.6404633384489635,0.9654979632840865,10.915429301990654,19.616368985950444,37.16771495392662,-15.726488774363586,30.28843540154775,-26.43852963413824,38.588732565335974,2,S01
11660,0.32723841379134816,0.885756527121317,10.547223405059935,14.936836074511504,28.13349247168823,-14.299491504522669,32.02413731984561,-27.085243863521125,37.580187358256836,2,S01
11680,0.2538605421742447,0.7333430580278748,10.387093787714814,14.86690078545669,21.000212827460036,-17.003273271152057,30.91049435253865,-26.988190410224004,37.2903374490701,2,S01
11700,0.23887656218075326,0.32471532772242656,10.31201096239666,-1.4638134530989397,11.151774916673418,-18.994832563318884,31.00726627772571,-25.84782324134023,37.94884674292209,2,S01
11720,0.11957340526141688,0.1793192805911837,10.124899092062408,0.25433973137408383,3.408220233814487,-18.387378505869517,29.923462365581113,-27.513943764125237,37.31323731975914,2,S01
11740,-0.0015764620430595427,-0.1044086170370256,10.198523360681225,2.6756430044955914,-0.9244962860864552,-15.269028863298168,29.935834924041266,-26.818561029133843,35.51090179639449,2,S01
11760,0.02655090034526926,-0.1753256292600876,10.250071087816439,-3.1591598524980613,-7.0900207654288225,-12.936976425877715,29.090909715151614,-26.47723710736087,37.07690861012479,2,S01
11780,0.0804823229371309,-0.512429112631579,9.920457519390306,-4.866329132783948,-13.080886788742223,-15.056686737065613,26.129581673019754,-25.573751395707284,34.494439057888805,2,S01
11800,0.17907571698313332,-0.5647059800833893,9.892947033374917,-16.05918531888877,-15.246678043385252,-10.201341577183426,27.090278353549227,-26.215927954311137,37.1784960490013,2,S01
11820,0.0412139524963248,-0.64605410235939,9.752611345543698,-14.85619450837125,-20.99216822602293,-8.164110780206252,28.28911652179145,-24.53174847173718,35.11021725759356,2,S01
11840,-0.06361280607793957,-1.0655611118067834,9.480368012036253,-24.66631463259549,-26.86428058636258,2.3915045018346324,26.383006554183932,-25.357637979221895,35.39966181599003,2,S01
11860,-0.3046623738810943,-1.288167410997029,9.424136768893362,-27.677551004812354,-41.95914968402166,0.4069962816974918,26.931371894583076,-23.732477268808953,35.05834229902153,2,S01
11880,-0.3985690348623545,-1.5331336183624804,9.315893951826334,-34.635511196316195,-49.78483780423069,8.638093688664377,27.47153469541897,-26.70573987000447,35.60903705648216,2,S01
11900,-0.6039680482851493,-1.6957774742612184,9.070744043193393,-34.30522376642214,-62.160772334492336,16.224534234917407,28.191400402446643,-26.12302169377147,36.91263450733093,2,S01
11920,-0.7458747421408333,-1.6538634249764816,8.950391344591853,-41.530698607413726,-63.609758015355176,19.482764083654097,25.168129955731988,-23.776018001937672,35.50402412924093,2,S01
11940,-0.6947903523350287,-1.5801533896009554,9.15484405546058,-39.26656844630273,-56.213543313765115,18.883002542716014,26.321870306779374,-22.842232516594272,35.442690532003056,2,S01
11960,-0.6420819655820608,-1.517836839750102,9.234968046928318,-33.11840073495947,-47.079072163979795,20.86789407059319,26.335608481036058,-24.886508846789397,36.51321053979896,2,S01
11980,-0.482864837242423,-0.9713195902343696,9.403628540377532,-27.25092480928756,-33.63465474063552,19.885199387081258,25.83764421663313,-23.609688906715853,36.66915268966954,2,S01
12000,-0.15757397287009375,-0.7228220604776838,9.704895036156906,-12.298545070037964,-16.290856410059675,21.493734617914434,25.326091173566567,-24.0732418225062,37.23207219930788,2,S01
12020,0.0737308594247984,-0.1716076711739423,10.036829220308022,-2.7500134749138176,-6.753766196613504,19.829743804476323,26.008175975927458,-20.55619811524371,37.602081454756465,2,S01
12040,0.2164013907109938,0.41220129232067726,10.45678241794049,7.224654748888278,15.512339378407528,17.058260024103035,24.26051607512842,-20.844730270213617,38.13376732063512,2,S01
12060,0.6146187836189989,1.0416106295884473,10.765831203089002,14.9075173036744,28.378276926676577,11.707759232499066,24.38192288724214,-22.73699864989262,38.55500061709486,2,S01
12080,0.7400412143610097,1.3725942435996616,11.00701550823996,23.49174653624485,47.106863950286325,5.4488673335788835,24.67159268664002,-19.37715818815089,39.077725115539685,2,S01
12100,0.7262403704599988,1.587187857468388,11.175893817420201,35.43981053433971,53.75260943925172,4.931791713880423,24.95267186487628,-19.680369310970086,37.46686749485796,2,S01
12120,0.9270994785566644,1.6796343073299485,11.068000036454212,32.283836110817084,54.10603296988885,-0.7871827913993933,25.024606905779056,-19.2984067046948,39.45620117581623,2,S01
12140,0.7906263103230394,1.4973055580534758,11.143228702192454,25.588902514958715,54.49395602934156,-7.880041235659174,24.668554422224616,-21.251815291195193,39.32719339582361,2,S01
12160,0.5541667367550526,1.3355010225517254,10.976832415732982,31.49690411441127,44.18804621988412,-7.348490081683083,24.93090860185317,-20.244894439716322,39.585731273623125,2,S01
12180,0.4731441070636092,1.2151856601838487,10.924948165793625,22.766150204403285,40.496210219099346,-18.154819136071204,25.19098706214919,-17.3305730778799,38.164017508510064,2,S01
12200,0.4971744445966174,0.8602236795204716,10.668088101357817,13.977983607901738,30.802101567510537,-15.144091307259705,25.778045008741323,-18.389164626840092,38.95082862410631,2,S01
12220,0.22886702140045193,0.6688268039821006,10.633604320993905,10.291845848204236,20.33797537298546,-19.768093743186974,23.819008657778255,-16.912180120684038,38.92814630773946,2,S01
12240,0.17567760935586102,0.5534188598909366,10.260418316980719,12.067614210779432,13.80683440049366,-18.969343906176327,23.33198077817417,-18.261258572828538,37.39101651416459,2,S01
12260,0.10017699918124001,0.31402051066572845,10.26210302948358,-0.26316909363827445,7.335559447203356,-22.88631948462401,23.680897732375193,-16.903580729691704,37.75175646389424,2,S01
12280,0.06515234199546695,0.15689003019209374,10.213429606670617,-4.2085033919351,2.0290631352384567,-13.217907334417193,23.628400736818566,-15.216590045269353,37.46772596451846,2,S01
12300,0.23814813952370453,-0.04091400523160815,10.160429795683717,-1.7036757271735716,-5.501938823691711,-17.669932992914074,24.68357817210923,-14.391452262804044,34.391351718994464,2,S01
12320,0.09538346261989585,-0.14025385756875952,10.147231540227137,-6.27092535565197,-5.294448211394364,-13.935492410179899,24.640287627579106,-12.538189368665956,37.70214556678761,2,S01
12340,0.06385535056197339,-0.34531785374043233,9.97650205199958,-11.134560078087254,-10.816988207374278,-12.462912967388997,24.23017521548141,-12.017369795774895,34.87768514316677,2,S01
12360,0.08790820746515002,-0.7305767716002891,9.848588479164125,-13.36987259384735,-19.073346727396483,-7.034971856386402,25.447045110926236,-11.507538706507471,35.32139107372821,2,S01
12380,-0.15598249765410446,-0.911137519882707,9.713282551483648,-17.50292272272749,-28.692671630083357,2.167162864665627,25.62504431431475,-13.233218515695597,34.76813785799419,2,S01
12400,-0.28921168092979976,-1.1173471533320543,9.45121472196202,-27.420721832722705,-39.50570978842484,3.7168325582276607,25.277416384791334,-11.784181181291899,35.56010376996937,2,S01
12420,-0.4182181490589012,-1.3970934088915774,9.296013255304205,-31.574623138012193,-43.98214802452121,5.293829732455907,24.577526379293605,-12.96113005579517,36.63865926272269,2,S01
12440,-0.6048799446864378,-1.675713973021485,9.127491886722881,-34.218792158095575,-56.064741939625435,12.696262949631079,27.05165128850476,-10.627216179794239,35.766010109256236,2,S01
12460,-0.6794816201312431,-1.7565448830937636,9.092661597115384,-33.08915168389492,-59.183391410889016,13.596930927287156,25.39385707225695,-9.561554426720232,36.47796281634397,2,S01
12480,-0.5737719378979312,-1.5295146558651533,9.071707724108046,-37.877001419108815,-55.591619471508054,15.15923571749065,25.360388282131748,-10.361609089271234,37.34895051152261,2,S01
12500,-0.6219730640573327,-1.5450857046639206,9.18870968254105,-33.71830385415243,-47.11902109514885,20.774964159818577,26.863551139628022,-11.449904956885646,36.90949170393779,2,S01
12520,-0.4446354255785767,-1.3632065345389701,9.334898083733798,-30.132824608480313,-43.104267696969615,20.486838977610272,27.679842808274653,-9.61760534127945,37.929600806774964,2,S01
12540,-0.1963513720188574,-0.7483190197083864,9.601116833150028,-20.826131340849827,-25.044711459839036,19.379892408466418,28.39252001406466,-8.268880593590293,38.74901779209229,2,S01
12560,0.030816251820609583,-0.32155253802853473,10.121595765019062,-6.18453013618564,-13.346926858895305,23.129611029429824,24.37907409202128,-9.381928131730962,39.274668993216935,2,S01
12580,0.22879041568111108,0.3397810322759637,10.319224605188198,4.230505559882293,11.563900047035741,17.87749082228976,28.024543516576436,-10.264621582254701,38.819597662895234,2,S01
12600,0.7146109846491583,0.6932807940325911,10.550703538530138,13.401904088412394,31.620806670421782,12.847889099986974,27.878045498105937,-8.147543466494884,38.56709731824839,2,S01
12620,0.6818547047244155,1.155695258666609,10.996705376369118,18.486828971798303,38.449607312401234,4.964165609372053,27.821847274161485,-9.132641036733327,40.22490645472474,2,S01
12640,0.8762763779042343,1.4025077376209272,11.02170263606001,27.292052740007573,53.12239523505096,7.176450332609955,29.090252562938165,-8.495405919548578,40.178120007895345,2,S01
12660,0.9559837017075008,1.6580412854858335,11.108205092635947,28.965330925465114,51.509842606162614,3.2768752616018584,31.02854863447401,-8.679384735978607,38.82850931731879,2,S01
12680,0.738468721111606,1.5524215431576702,11.2352910302391,25.126874165439602,53.99342709984731,-5.8361620721934315,27.833139880307563,-8.963754421686641,38.33532637459839,2,S01
12700,0.76863765771258,1.3948494370979692,11.129547633341314,23.889348192383256,48.605599211139456,-12.862530460089603,29.36366764954077,-8.661250978929072,41.116466179146485,2,S01
12720,0.4597806787025467,1.2068153772212944,10.93421455097062,19.962021022156748,42.90345478680042,-14.188368924564836,30.402969603588474,-10.172005399411574,39.470827339370885,2,S01
12740,0.38672049362756067,0.9071626300910856,10.858153620291914,14.063556295359472,31.771467367114763,-12.208356162186268,29.106626095112347,-9.453026435804743,38.05797478722948,2,S01
12760,0.29979760172534875,0.8729875665898201,10.652243528420437,12.041040867326654,30.606151973461465,-15.779061187056362,30.1345434233618,-9.818984893336472,39.32439332315398,2,S01
12780,0.22195995112666372,0.6046968553862271,10.38706310374597,8.639454293468823,14.630083767763926,-16.624526552066364,30.90082267990046,-10.31940368497433,38.064865904674626,2,S01
12800,0.16081775272058876,0.38934316182446305,10.250487876436436,-3.3028041544017146,5.0863855835517215,-16.717105969415147,29.926549684115038,-9.65284360266472,35.846100671102505,2,S01
12820,-0.044796154697284235,0.1510624050285667,10.353376338531675,-4.534227657815945,0.1719515034924719,-21.038977133195882,31.055506220320275,-11.586532707475003,37.56037878449404,2,S01
12840,0.1491476965619366,0.013652513340747421,10.14746521032458,-8.355406018334957,-4.583883716656618,-18.935227254105634,31.177557691520324,-9.487294572605627,38.03273873113938,2,S01
12860,0.15828160784962328,-0.22493217183888548,10.131815922533555,-8.354100531378268,2.8969650586195543,-14.624687080790663,32.259059805972,-12.250403469042855,33.16763134210922,2,S01
12880,0.0625436366382645,-0.4442037195850439,10.032586445384085,-9.297664337790044,-8.979029743957641,-11.400534248243035,32.07914080592616,-13.838435238696396,35.80054400958184,2,S01
12900,0.07810862508315139,-0.5279145520605935,9.774557295617743,-10.920454410920758,-16.04324173514033,-5.153045754659798,34.06419378642944,-11.688650023755315,37.67136025730021,2,S01
12920,-0.21067892942535724,-0.7869654286156971,9.637309965132356,-20.938202202447446,-27.231483406131886,-3.622770953037182,32.04573442460095,-11.847401008054781,37.000216451220865,2,S01
12940,-0.11707671489971727,-1.1413504382122661,9.58097804735965,-19.286609024440324,-33.687788986080854,1.8465566364301806,32.389952421032575,-13.349904606375658,35.98510238333082,2,S01
12960,-0.5413410514906009,-1.3994414398803567,9.336025072211097,-29.421731292255586,-46.53639190413898,9.772206293258138,32.22678002464215,-14.150892632373596,33.921029711807094,2,S01
12980,-0.5077710484778748,-1.5438685165926251,9.046362701636031,-38.63983505172598,-56.862084937982246,9.767213995073853,32.98821740525355,-13.860753175515898,36.86259259532825,2,S01
13000,-0.6939848140215976,-1.623294981399502,9.092775180406614,-35.00929581470993,-56.777541720932426,16.63854064975473,32.860437452488796,-14.179420917609997,35.450008897454595,2,S01
13020,-0.7362117109685823,-1.6554150799109848,9.071991523937253,-40.682415208753234,-51.40089385071918,18.316610535861667,33.89534790272258,-14.281712448419654,37.48984628374485,2,S01
13040,-0.6577084937237851,-1.5807470700199038,9.226709053619373,-36.53957965492498,-53.30086732644551,20.609084980020135,32.96274347774954,-14.894305771098594,35.42533639099414,2,S01
13060,-0.4129398656604366,-1.45913159619257,9.331358537664379,-25.93147706921912,-46.62676883186245,20.957731760736753,33.41988594874326,-15.651928866662471,36.81106944382642,2,S01
13080,-0.2569546360795325,-0.8732406452590544,9.54864153043289,-20.184301318098854,-31.698028207874025,27.291612463627544,33.13676135295536,-14.526224732575225,38.33400640841513,2,S01
13100,-0.17919006894002407,-0.47301241134566097,10.036533505102252,-18.14191453692849,-13.225187424461954,17.05880417033449,34.235805680785134,-17.03818641648759,36.6599577408886,2,S01
13120,0.22294777162531426,0.05147697190846502,10.383454761478719,-2.343309541794052,5.634062682356637,19.655936284874247,33.39060107202977,-16.260435273447023,39.06622792329899,2,S01
13140,0.4468881034359886,0.6224653324448621,10.518962291113452,8.458126422913402,24.039113094937118,16.705078217010183,32.70999119167139,-17.334037812113642,39.76599737853988,2,S01
