timestamp,ax,ay,az,gx,gy,gz,mx,my,mz,label,subject_id
0,0.16510538945192876,-1.063287822133188,10.082645725265577,-8.558618900156947,4.632099080423512,14.128060230190131,30.315329049640944,-10.899806727819083,39.37861111270238,5,S01
20,0.4371433039081528,-0.8833040851261889,10.200473733338235,4.137566334494887,15.867555645070365,13.90005160367626,30.21559110825133,-12.59031805074494,39.48008306712879,5,S01
40,0.34172256822410774,-0.5604327739857131,10.301672391373856,16.16770798002708,31.0434337004618,13.0636472065743,31.974836302720206,-13.450281678523535,41.853013699670534,5,S01
60,0.6200400768485642,-0.5298278550313065,10.69559340431297,18.240517585289872,45.08613371103332,11.445817246656471,32.782492918468584,-12.695049456638207,39.89623562100355,5,S01
80,0.6461916253051958,-0.25263755132579735,10.812936129337048,35.90286215889336,50.97882902276176,-5.566337984214136,28.74673585096043,-12.650299050262463,41.786698574383664,5,S01
100,0.8374384167927591,-0.1801136886911665,10.911017613107502,34.97514673984118,61.60780934451146,-1.9861308598353036,31.774577240119335,-14.449037476568272,41.27574461551815,5,S01
120,0.7436461709763105,0.08691193111900772,11.068314105532787,29.576278864557,53.90693656281347,-1.1802704687661842,30.967723493912317,-12.979167133365053,40.56375336781606,5,S01
140,0.7137415490777381,-0.0066279239752226465,11.067752023779304,29.016722108869022,49.643270671080096,-5.401837582298657,32.49021455509911,-14.498257920140624,42.83536395955548,5,S01
160,0.6287110873654262,0.06765068813265954,11.288401977147473,23.315166249545815,42.80506082140179,-16.119696632352785,31.429338840301725,-16.692698247406952,39.616610705137106,5,S01
180,0.5402249893890887,-0.01823181301812281,11.396888529105738,15.16014663321058,37.15531230627932,-11.675555536429565,29.82149608709277,-14.99719613507937,39.75320598549561,5,S01
200,0.5062046958516504,-0.04852481972432027,11.42705931727292,12.867894837095385,25.491796495245072,-17.135509604071153,31.864647704949213,-16.785222684001873,39.01149721732561,5,S01
220,0.2782618112268069,-0.28858395309549045,11.443497846672939,7.99479505320953,24.072149950300304,-19.94610688488646,32.02297522290442,-13.710806148291113,40.011262205349716,5,S01
240,0.368183104829102,-0.28290989079518947,11.272023111598175,0.5419544158933398,15.472783018392587,-19.44218817230932,32.14492174575895,-16.752928201034315,36.50138382613154,5,S01
260,0.22164579338560117,-0.3890593310464136,10.959729407258106,-9.133552942205572,5.381726525315327,-16.24460498612724,32.28410056943049,-17.52545970536686,37.536943929339095,5,S01
280,0.08304141274951002,-0.7075881422300725,10.918361191124824,-2.96292035136321,1.4348165482481232,-22.818888911477877,30.521935966410755,-17.74418436701697,36.4546542376668,5,S01
300,0.09958337989739684,-1.0676809338752888,10.649792890902198,-5.96022960416383,-2.2755463026991842,-12.000633505895474,33.94168387128514,-16.546856696288458,33.1555221197899,5,S01
320,0.16004657476454415,-1.0883504467791896,10.524788568773346,-2.950829454280446,-4.425170435456842,-18.2415236970318,33.65744420376854,-17.640052544846334,36.88823281313676,5,S01
340,-0.04602283270693103,-1.6309685129175415,10.35602839182156,-6.3882968050511995,-12.436684029995888,-9.897539488324728,33.704344528276806,-16.881361946578032,33.1918528068841,5,S01
360,0.14521121332884523,-1.6980757884429023,10.220618271883335,-2.7514637043679784,-14.691401324251261,-4.05418731933462,32.64014896181361,-19.19207485531011,33.85026587671756,5,S01
380,-0.19385004960187127,-1.842497242324969,9.885676223944392,-7.83743479856283,-18.806167697605904,-2.3888726640160165,31.42252086201616,-19.010184729575467,33.175778593934965,5,S01
400,-0.3007916658099331,-1.9261157109843552,9.859896543911292,-18.25468655923112,-25.420673542669057,-5.740830218636837,31.873769759383208,-20.081984596660583,33.659090378840375,5,S01
420,-0.4460163324799967,-2.098348439537847,9.462680481173102,-19.593313121989823,-31.863815457420934,5.087823107110591,30.5707681360317,-19.73304892081442,33.41781990192959,5,S01
440,-0.3846502734005457,-2.107910873237507,9.442147080147002,-25.212674353469748,-39.35463083069671,1.578591161210467,33.47559036570013,-19.02767337241272,34.140080152539134,5,S01
460,-0.481881538855633,-2.036446570142484,9.413757105337883,-29.45536201270413,-45.39705365900266,7.9580867050671955,31.930145098428866,-21.961315361956693,35.16939422539608,5,S01
480,-0.4393242343093542,-1.9755074642255963,9.34760670774502,-37.54881985632584,-60.26707800995253,11.909972960720966,32.23912677090739,-21.576301191064804,33.45448246394099,5,S01
500,-0.5386003579219402,-2.2905339940426046,9.257916416880986,-38.75858001466313,-60.68733956592494,19.12135402395107,31.7853680435273,-21.43106803292326,34.62707566397955,5,S01
520,-0.5266402284764848,-2.0051938054806095,9.481303082473527,-37.22922601645,-52.97657132453411,18.0595885406686,30.685932811640573,-21.16880202705188,36.26714968170275,5,S01
540,-0.6037473132423871,-2.037121554076965,9.628044230707756,-34.62822669784735,-55.60907710823224,18.42916277706344,31.850633688627358,-23.155263765572325,36.367515752513555,5,S01
560,-0.5831887559492303,-1.7316961271453846,9.621011986937356,-30.49556784883819,-46.292149825284156,17.129868415500795,30.396736193826737,-20.97162377309501,38.02716328777912,5,S01
580,-0.2853202423717117,-1.6146858274135287,9.667825159723177,-21.15502798551654,-22.807657981190008,19.741743151188185,31.020870705991012,-20.874134620673022,38.08665111544953,5,S01
600,-0.055168513340340786,-1.1196266591534791,9.834703505988571,-4.802737445867799,-14.802914450367185,14.727037741904574,31.027606151020315,-21.907199390824193,38.429495812934334,5,S01
620,0.21546876134428938,-0.8639120355291414,10.064598700448345,1.66446741110986,7.824950018083945,16.621029545127964,31.203994874131258,-22.81469916387413,39.33457456769064,5,S01
640,0.37780569991259116,-0.7325716008935879,10.294628907266246,2.2802746205646107,22.23552052250361,14.460040462102663,30.931349913460572,-23.950037545849053,40.74284377146852,5,S01
660,0.6303209800183329,-0.6861193682761468,10.385418216650638,16.201854232236542,41.50106757124392,8.064308061227303,30.47679445231246,-24.009529863329405,42.49351054159356,5,S01
680,0.6695856751280024,-0.2888140370518159,10.748244707225778,24.427445527501902,47.29973119624586,3.3607519953255953,30.9443703721411,-21.70083316522792,41.914337051796025,5,S01
700,0.7774728251904324,-0.24318873357542148,10.875101971550322,27.529258016626603,56.01411817912253,3.020949568698064,30.660125286203144,-22.04625069539953,41.18932138483391,5,S01
720,0.8506631819986981,-0.10228029123031607,11.116665810933492,28.852999274835714,56.77529009794478,3.0405894185922033,29.498640331372687,-22.852362440098652,41.98775744680814,5,S01
740,0.636651781874379,-0.11581066667076892,11.107904415467805,35.29708651308289,54.73573387314515,1.5969676323440711,27.87524784938254,-23.497189809528486,42.22508440928385,5,S01
760,0.5487782799059151,0.07003982450057375,11.05695603597917,29.47222360315475,44.2032897806904,-7.979797549032103,30.937822266519717,-22.593988921263904,38.79757948159894,5,S01
780,0.6571596245577133,0.06624038439246141,11.213218002268961,15.382775054610097,42.318708769380436,-14.027383902605624,30.27768053057425,-22.679037132019563,40.00497698517061,5,S01
800,0.44527653199895845,0.047177587987236716,11.37903011010648,11.223542212179964,37.092728322375855,-16.59076779537876,30.065156681027574,-25.771623156389143,39.93427066103146,5,S01
820,0.42315986882922474,-0.004102809029113669,11.36122264859777,5.958666126317474,25.848515468450096,-15.929812299847677,28.122446884239636,-25.550272954169664,36.992456551116575,5,S01
840,0.4479012162178445,-0.1526288813573713,11.44024101325954,-0.7377343683763442,11.818386745030624,-15.285415104418426,28.514803942572556,-22.26652300063768,37.65280760886136,5,S01
860,0.32763331736981094,-0.42619711120113696,10.961297250847752,-4.974955502026867,7.480746677444823,-15.093058476876957,29.045166262414007,-22.96891612472957,36.86099232879674,5,S01
880,0.10995854114713423,-0.5825128506712258,10.989058694297698,-1.3914154453360883,-0.3662156316087468,-14.277194024792836,27.336328020775152,-25.1929971684788,35.341895237464755,5,S01
900,0.08513699711426631,-0.8363385167568642,10.953726031588154,-7.561258395538188,-3.694975019019987,-23.008192939597308,28.428692789975745,-23.533037559299107,34.223529011366026,5,S01
920,0.13731079723755207,-1.0834900098503328,10.70912312279493,-2.9710081545639797,1.44914725385028,-14.029806276949275,27.008829125771314,-23.756399138071153,36.084800146202156,5,S01
940,-0.002737116083566485,-1.4027569705208003,10.66307973148879,-6.552211999214041,-5.653322108784969,-12.05361261806402,27.321349916883555,-22.411979167614504,36.54526164931353,5,S01
960,0.04809196876799757,-1.4735823039822278,10.218438860102452,-6.515148681890702,-4.727881032960938,-3.8035247257676885,28.15891420644613,-24.251470819805782,32.27878724179186,5,S01
980,-0.1846876128395842,-1.6996576221823116,10.13433014496764,-7.8937800476480415,-10.109953318897253,-8.309844668717895,26.760686730810107,-21.074602262803467,31.8279091192716,5,S01
1000,-0.16725510851406875,-1.9130283552593723,9.928992357633382,-14.842670590424184,-15.530429215542856,-12.157982658109352,27.520911564466058,-23.120858654208817,32.996521937899715,5,S01
1020,-0.16741831344723082,-2.0566424454373418,9.403562962805449,-19.359792368054034,-20.883309908585435,-2.13227352105014,26.346416543734385,-23.867138452002674,32.81270642255953,5,S01
1040,-0.17955660124469067,-2.035569149991276,9.639877357588798,-24.63338081585798,-40.58361340026005,6.166538910024083,29.23759737075104,-22.40850649081436,33.3924228237061,5,S01
1060,-0.43510952991125984,-2.265023998343994,9.59874304363921,-25.476221778969364,-44.39725969169416,7.130133932916301,25.230275371258124,-22.619811834012417,32.79454991439285,5,S01
1080,-0.46154240347047615,-1.8606909724615732,9.311117154007793,-34.71767289689556,-47.67451509080533,8.602734045031562,27.98180936187963,-20.945208821419733,33.997356535956555,5,S01
1100,-0.5944428729465473,-1.968027827721757,9.51639573126253,-36.06707967626495,-58.33938640739443,14.851244782145422,25.470930410080765,-21.1981989110524,34.04643525494615,5,S01
1120,-0.6115454219193927,-1.9610368953059731,9.5348995172125,-40.698587744539495,-62.54204463612704,15.939775500511468,25.603241606593336,-21.75677964164158,34.96706180942853,5,S01
1140,-0.8027420894798195,-1.9768606530459811,9.624343893112812,-34.55670005103126,-50.33135402189416,19.95867668369003,25.821896935394406,-19.468512417070613,36.245066462245724,5,S01
1160,-0.41790182199520176,-1.7473550054153668,9.577029454764423,-35.209062432293614,-47.966464146145,19.45711126893301,26.8956503947729,-19.03382756753687,37.294914023495,5,S01
1180,-0.3772307135467794,-1.5055713908191874,9.594423358460556,-28.45402199519483,-40.24905889415928,21.617592165984732,24.935640615340713,-19.820849834356764,38.507255470426315,5,S01
1200,-0.12324274307172473,-1.2941384787263,9.601374655667849,-22.98100164225311,-28.49462100461384,17.201700010752393,26.53682195046052,-19.44707518163785,39.277990544373196,5,S01
1220,-0.026343999493685738,-1.1486152815809154,9.80278142915474,-9.49587980912506,-14.082198578230704,8.169329945936608,25.649443636703623,-20.51594230774071,40.4343996963015,5,S01
1240,0.19261248371157136,-0.7082152531706418,10.11827485519183,-3.146683257764118,8.065336322035467,20.531952849858264,25.250102807060056,-19.130787334871894,39.17911155304932,5,S01
1260,0.6843892420148764,-0.8467532905726236,10.299868377560882,16.292226035736256,30.438894661856697,12.811685666130742,24.443431377620904,-17.398788841426715,39.37487855337374,5,S01
1280,0.778055650851458,-0.5332629538864166,10.493265780552784,18.348798914544417,33.789997463075196,9.294662028992844,25.79958403770327,-16.370266324964632,40.95676902721692,5,S01
1300,0.6452447065066307,-0.2701246270193685,10.789523105520743,33.13636006246174,47.734119207354155,5.034518561102949,25.706221972240705,-17.43921896687798,39.21762043781982,5,S01
1320,0.7781357786572248,-0.14567746240200202,11.29090654565868,23.122097099121763,55.61179766677911,-0.31583141671097315,23.48605308044596,-17.605455401645457,41.05198687570254,5,S01
1340,0.7282937910628685,-0.00215651141665979,11.064852747358195,23.31394581358762,62.14325006500746,4.409324795237797,25.980144264242305,-16.237424111006263,40.97355516528306,5,S01
1360,0.7705450693032979,-0.020526080311171715,11.116166534204686,35.05708148850897,55.8985099908955,-5.918430715454785,25.538533587075783,-18.503973054115406,42.410970933319014,5,S01
1380,0.5555573066461097,0.058335316252155905,11.322952847137143,26.616951900202448,47.625176999868124,-5.863405789035346,25.10510860958499,-15.904130535200524,41.630504709391055,5,S01
1400,0.6037194173797511,-0.0453361971114241,11.27589232226978,16.75969927072904,39.479700738968766,-7.240386368991683,25.01803997880956,-16.2240103728885,41.05408055806827,5,S01
1420,0.39698939974701153,-0.18974806439213499,11.29239097882882,10.854510228170646,23.102004353528656,-18.18975774663688,27.620283408173822,-17.499110035089867,40.45616913572123,5,S01
1440,0.3738376857788501,-0.2726785659364232,11.485920396193912,7.344106614276813,20.08844510194481,-13.612721359010559,22.917754928074245,-15.584228286942382,37.32392346870815,5,S01
1460,0.2910488999299903,-0.0559592006835187,11.216603684569263,1.0144747324862564,14.315252167368383,-17.818139286233794,23.902333840521937,-14.980387394024223,35.87354818680499,5,S01
1480,0.1922547220596632,-0.4043055744484486,11.129083760562608,1.8851563097464856,8.870216310676462,-15.259472818326737,25.785381725311897,-16.69522328759968,35.490087086957026,5,S01
1500,0.17875550907457616,-0.5923276091061265,10.805212148555494,-4.2628899209641435,5.462211523449723,-17.027722178586153,25.09194364558983,-14.7865334496714,36.112297288524424,5,S01
1520,0.06205984355735396,-1.0106060299373383,10.634106344131482,-5.087318014584747,-5.249914005709898,-17.780965662334108,26.5625834834974,-13.775683231349358,36.28258193007941,5,S01
1540,0.18670965026750458,-1.1146930509164885,10.75055830182773,-3.6044479976105994,-0.16734740483933042,-11.12599149345644,24.473176294510644,-14.10590875614296,33.737515335857836,5,S01
1560,0.13533130489273365,-1.3227096481167655,10.298984435556646,-1.9877406873648154,-5.970498927037421,-14.957183514828289,25.45327439292508,-12.992698404532792,36.82407070128187,5,S01
1580,0.00620531121079719,-1.6761102504088428,10.103519877591053,-14.196574467165782,-5.747933573257004,-10.688768570471023,25.220602858967858,-12.510763042768248,35.59793865578847,5,S01
1600,-0.1366935995264914,-1.8206274378487808,10.085208145762296,-5.354669884653319,-13.558007399062234,-4.485166874658475,26.371649852291583,-12.286255949744355,33.29182195487037,5,S01
1620,-0.23447968631121888,-1.9479550573285198,9.95113345911871,-12.507337931270886,-16.053833098584292,-6.424078056673242,26.140712465697263,-12.623647688782171,34.52570375289244,5,S01
1640,-0.28933734143823364,-2.054266005043893,9.628869033295661,-21.404519297038895,-27.615699668344604,3.7272764120298802,27.324707908664536,-11.758331396535965,33.75775907583564,5,S01
1660,-0.4063546263760752,-2.088451425583096,9.657640671926174,-31.132523494784596,-42.228569650031545,0.7001478825656825,27.007580960902747,-9.706056486828853,34.359982099522504,5,S01
1680,-0.4403598639529428,-2.2015574723260745,9.439307253126902,-29.36550046237149,-44.27601002600478,9.761066084231592,27.241386145901295,-11.184583343052534,35.282943076410646,5,S01
1700,-0.6699142456723933,-2.198004668076483,9.536481901850493,-42.62381049716879,-53.04462740926266,11.760969400428317,27.635799659259433,-12.682001080389231,34.77542633551289,5,S01
1720,-0.7057149644542755,-1.9329645860163616,9.625664053406053,-35.995496700836874,-57.20311263774555,18.10978813676062,28.16296479948558,-11.263365683582318,35.51040903334194,5,S01
1740,-0.727096590649072,-2.110079394358074,9.37202998152438,-37.27839122330028,-54.365510079681016,15.166190701983954,26.95882629015433,-12.572142207742298,35.692373921270544,5,S01
1760,-0.6096805450592617,-1.89548133226602,9.559349408065994,-44.98673301660447,-58.944022823986394,14.311601776765974,25.910501349562423,-11.191016649325181,36.090285980572844,5,S01
1780,-0.43616069430944715,-1.4980604886589595,9.438224688990852,-33.07203786303925,-52.50277425613244,17.139969117867924,27.03514421597302,-12.83766028266594,36.02794410037739,5,S01
1800,-0.245695072064427,-1.490244354288067,9.72954927568547,-21.381286527297995,-28.575537577503734,12.10135960221173,27.384300354000946,-10.3883746219189,38.53916202030344,5,S01
1820,-0.20535579354575792,-1.272663268747169,9.789507653001333,-8.269158110999648,-21.065177860341077,18.623068498562983,28.691656764588192,-11.802268704915798,38.2161919596989,5,S01
1840,-0.06009500303536869,-1.009623448690656,9.962277748377533,-3.4746244197791465,-2.364525042740782,15.367400602471069,29.08145311010385,-10.790394504489027,38.25972599400203,5,S01
1860,0.26293970145496576,-0.8017210118110369,10.175492738301916,6.126355161630124,14.030934987255138,12.329864365652229,30.594558892612028,-11.08827150047183,40.02104093040598,5,S01
1880,0.320049679401916,-0.570894112747564,10.187074101639515,9.37112281193933,34.53042648880468,12.59325435467296,29.10616994723116,-10.172754876394292,41.155191646926475,5,S01
1900,0.5082114622887173,-0.38593798273605207,10.593598700623351,19.130713730095483,44.48283161297992,12.204687614256283,29.900160503534472,-10.938386960535203,40.42210345983558,5,S01
1920,0.8789462744095238,-0.09555415116778858,10.717667855488981,28.170035977113553,51.84973269474278,8.986912456152806,28.90238820251262,-10.126560488639718,42.39753414295168,5,S01
1940,0.7817560904135459,-0.1043509685307758,11.083372667426758,24.108982269695538,52.200365185285314,4.709474372908707,29.288472509624448,-11.624877602142377,40.42738957824647,5,S01
1960,0.9051745300805853,-0.1658834083667279,11.14432664736365,33.4676005591246,57.454859787285464,-7.739179079727933,27.589419691423448,-10.148593543845385,42.74517846815245,5,S01
1980,0.7489647328378352,0.11750705291234748,11.054856356618865,26.27318069913923,50.73173796231429,0.5320875670807611,30.390540181946896,-11.757929411440688,39.99105039443371,5,S01
2000,0.782916269213635,0.16815252009319168,11.19081917962448,27.391207624473896,42.2846652340009,-11.237185813343256,29.876825806380687,-12.190505916755647,40.776302726264326,5,S01
2020,0.5990098032546658,-0.11250842279233844,11.327573208213835,12.490651872697093,35.82250031860496,-13.066033589032212,30.07247326335476,-12.551672614283241,39.528771667827,5,S01
2040,0.53182649141875,-0.06425359052209637,11.255556666459455,7.276332335232378,31.410688885662307,-12.175111766178889,30.07490440485658,-11.155064365711452,38.45077277850396,5,S01
2060,0.5067093198404676,-0.20456239885845479,11.187433059665342,12.485426547859422,16.76579984170199,-12.522228680028771,28.846698306163706,-11.035650971720532,39.16105007984278,5,S01
2080,0.40273442190092335,-0.32274251860718123,10.995890870447427,3.9039958459475192,16.352893152789182,-11.171594569288816,30.55090704353704,-13.349408214015359,37.78763011441618,5,S01
2100,0.23982823881153,-0.583244251757598,11.052736294624166,-5.847839611991507,5.710724485865177,-19.724746430019927,30.129143433031853,-12.403016998621236,36.63856023333085,5,S01
2120,0.23062552504964814,-0.9254923258284893,10.833811943278038,-4.103531677832769,-2.620965105827895,-11.89520648413441,30.19245475628027,-15.877331051147527,34.58867661524863,5,S01
2140,0.14522012253960584,-1.0018891601238888,10.84353392331592,-4.840780509414767,1.0822281449626716,-20.960126057127194,31.364173473909474,-13.822089504649123,35.04002371403517,5,S01
2160,0.09578931448985656,-1.328151022092277,10.320119174720563,-9.1152924261083,-9.53265045559436,-10.498465110121614,31.089566823050934,-13.664310868377415,35.131842888940604,5,S01
2180,0.03212904208714115,-1.4733765979359168,10.243794461090781,-10.36957600636677,-2.9844872688438553,-16.259937815961095,30.72609024714345,-14.002208438122585,34.72862767247621,5,S01
2200,-0.006621241791905819,-1.5165446135174763,10.254238764457595,-5.4687912089497805,-12.875233701873814,-12.985292283859389,33.68005001473047,-15.477532097564104,32.899615344718086,5,S01
2220,-0.029652939231337466,-1.6556737757150004,9.976446853940871,-8.756468609769833,-17.187343812368894,-6.210764894319294,31.413633576138313,-14.009632198140075,33.87268641914538,5,S01
2240,-0.18676465688531343,-1.8663790306044281,9.74244839325342,-13.475207835832066,-24.2700768676611,0.5889364627524197,31.89528715036005,-14.323275432425785,33.57906845684118,5,S01
2260,-0.20505140451845807,-2.004202363010962,9.47056529951657,-21.35589928830028,-29.2494939805146,0.8367071412674391,32.96591375444088,-15.311912205823987,32.35482571211307,5,S01
2280,-0.07363805875497226,-2.0442321004699067,9.40014247053028,-30.840002858082475,-44.907301599235865,-0.4477503641743962,30.928849621170308,-15.769959567121147,33.63077955408088,5,S01
2300,-0.6208996696753603,-2.160257519188434,9.37551212524572,-37.134557482664185,-45.96621513777299,11.546446359153608,31.375764819147445,-16.380725303954403,31.783980045137152,5,S01
2320,-0.44731525102521663,-2.158114697403902,9.440129650358942,-37.550817468819645,-51.849741720387456,8.79805562784162,32.71188995021771,-16.74158559273883,36.03816113349043,5,S01
2340,-0.6722192526871525,-2.024821939857568,9.235643661403829,-45.12829784927146,-50.44499490728903,16.281260455619353,33.18853949904693,-15.153365796714175,35.484388757606624,5,S01
2360,-0.4810623126682593,-2.153366318694546,9.155700754740948,-37.56842388171274,-63.37168127875142,21.607889380443062,33.1930009171769,-17.109070541429404,37.71419573317228,5,S01
2380,-0.49502997598453047,-1.7385902270982372,9.341616322351697,-35.7919618055208,-47.97149555023708,14.2341171069903,33.8658170099156,-16.73713264640716,36.09137720437729,5,S01
2400,-0.5685713414752122,-1.5535420541509288,9.543549105764443,-23.833341540394603,-41.65938526984736,18.111946598743614,30.916752112305726,-20.316936597654504,37.80970171007481,5,S01
2420,-0.3228119333509877,-1.559453296222838,9.730780951261327,-23.8365097751601,-27.93251229639184,13.756591767865785,34.13476180559323,-19.3676406390971,38.926858737309665,5,S01
2440,-0.034920048620719735,-1.2358977451245194,9.918463116660089,-7.449448510477635,-5.940814921743792,17.98918691754687,32.41614444270494,-19.47759847203107,39.88795676536474,5,S01
2460,0.09600864438332468,-0.9798344047897061,10.090071600755254,-4.304800005713454,2.051791093359455,17.532451853445572,31.881036250168737,-20.206360371423237,39.73677380706665,5,S01
2480,0.13498843069245417,-0.6410296929450621,10.225434154777336,3.6925248883100403,24.44226023886549,7.261690782902829,32.20732193027695,-20.413603104695024,38.95472647747551,5,S01
2500,0.42471905611094907,-0.5847479520047172,10.294976987846209,22.304612832937888,36.95163783350834,12.300240907084673,34.207908128714124,-18.86732454941328,40.203647075425756,5,S01
2520,0.5078864617703317,-0.27075077159542366,10.62731790243231,24.764457602139228,43.94662867507102,4.633750132782524,31.09559250077863,-20.718473589265937,39.31042692843175,5,S01
2540,0.9382388637579239,-0.025157875282075866,10.98710555339104,31.285254661939828,49.93888219554073,6.30508020932326,32.871394303711114,-19.03766124035861,40.092239109010684,5,S01
2560,0.8680994734541723,-0.10926595746071906,10.98661202643768,30.01436050070701,59.2484607034262,-2.8586012160515217,32.26697776154789,-20.481019089592323,42.1088152156042,5,S01
2580,0.8536890733282922,-0.056485425487526233,11.040905342822334,28.740884150476344,51.53231336125751,-11.930897379510375,31.721078405820826,-22.110513018231398,42.99184549922798,5,S01
2600,0.8319182230021708,0.030317213315094224,11.411464475459614,21.328523784036218,51.94862166394827,-7.376868040180886,31.265700683898597,-21.005296915013513,39.497934828124855,5,S01
2620,0.5366309281571439,0.1480942404918984,11.327997056674315,19.468609444830303,40.34674001146843,-15.16865370679722,33.85780091293647,-21.778537437071677,39.50635055448783,5,S01
2640,0.5133394219290808,-0.037816240663125666,11.196784777976706,13.390238564463885,33.42624752489077,-14.575877131550598,30.328667508538896,-22.83125256996317,37.54912031526337,5,S01
2660,0.283980780868779,-0.08003817518652184,11.35127437981249,14.221637424190074,28.175640055317892,-10.327775862949995,32.54888058393595,-20.980875739385056,37.72331863854563,5,S01
2680,0.27481593370720164,-0.08692773375363554,11.323353767044228,5.864126705181147,18.28016016134327,-12.908661710019082,30.86281926633501,-23.626225766394136,38.449985199954895,5,S01
2700,0.42189504590900695,-0.43139850800718216,11.085197285710201,0.27217312270127714,8.664971919812409,-19.049162723735055,31.132274680957646,-23.207460290708262,37.41157645386468,5,S01
2720,0.2438890265030286,-0.7169203721255963,11.007888526330564,-3.5943992449334847,1.1938863264173631,-13.27076070602928,31.61661630892122,-22.707197474072586,38.194125294300086,5,S01
2740,0.18051880861689765,-0.856477512928443,10.929408433643744,-0.6878538774198879,-4.300041788248316,-23.18720728768493,31.45231672366969,-23.909325644843317,36.37361989690182,5,S01
2760,0.11390037343464186,-1.032300256527037,10.739054163101121,0.9918147408078895,0.20502976599783884,-20.069991493290438,28.862105348569095,-22.365179407263177,35.45943762009949,5,S01
2780,-0.02550291942304303,-1.0313546593780567,10.412392536742173,-3.264174823403992,-1.5517879041734342,-13.770069046223147,31.880520841176686,-23.54487880296809,34.353672718864395,5,S01
2800,0.09877956445198115,-1.6823680758401793,10.21440186570881,-2.232969448602402,-4.445944092202464,-4.251037058503028,29.724421169206153,-23.117837323280504,33.939882240027686,5,S01
2820,0.035512729112038455,-1.8411358343127777,10.03627392385818,-8.814585789402521,-5.13885217598805,-6.887476312014102,30.29066603221298,-25.37236873297957,33.72775591165202,5,S01
2840,-0.15916701290609128,-1.8625844112499594,9.934317172697256,-10.847342318029092,-17.01704040772317,-3.300358312585509,29.948964707604734,-23.41729349750311,32.66351245560149,5,S01
2860,-0.11890510404509441,-2.0305618128322434,9.665841974418493,-12.253251968663161,-22.376936247537454,-0.587470061660896,28.26894780079459,-25.605726887546556,33.85232598320569,5,S01
2880,-0.38256683624631505,-1.9261919752075114,9.552085737260162,-25.88532668069778,-29.46110931562307,5.756843321852088,28.150863440826708,-22.82122959877812,34.280105008585906,5,S01
2900,-0.36989933774972217,-2.0614762414052286,9.648767804133744,-26.95531575999837,-39.1299351305937,8.281896619617946,29.170497849932833,-24.910464535010497,32.91009235243601,5,S01
2920,-0.5909542900378679,-2.027000831211394,9.372723466089813,-36.62976426238213,-52.64922868284723,12.574033613424456,26.116044417546586,-24.46042276647366,35.2350387974657,5,S01
2940,-0.48223700488147114,-2.0727490781466513,9.406664673462856,-42.09989570072448,-62.49580994580692,14.02158716672621,29.095874989906,-24.75399018569854,35.18504930644137,5,S01
2960,-0.6123440907647455,-2.058944803093879,9.177917433409272,-35.23721473728278,-56.04808982603891,13.301678044627547,28.531904431891288,-23.53509717076295,37.059456992900195,5,S01
2980,-0.7252576814900258,-1.9367621519238887,9.276280862946587,-38.57500083761137,-54.305570716610774,17.09812679255808,27.58371539114087,-23.319817197069316,36.36036335538005,5,S01
3000,-0.3724260428418986,-1.9677819904172504,9.526729968414106,-36.08541387392717,-46.185966017186956,14.065498251154374,27.964978896188928,-25.48333181744912,36.96789137590521,5,S01
3020,-0.3588562294135573,-1.4708093432474247,9.686583505435333,-33.8139926396632,-44.60229777254216,13.9467375940479,28.024290040142567,-21.58381408014275,36.997173070279004,5,S01
3040,-0.20349165744720946,-1.247236302037042,9.982232693706722,-14.151391618652358,-25.372892394624238,20.426053744951062,27.06732969026994,-22.67849137580924,37.658435563963515,5,S01
3060,-0.010797609351140686,-1.0755817802165986,9.75950830974574,-7.274692093074984,-2.0012863719543956,14.078510211116113,26.416108086266796,-23.302020968544575,39.94023200012367,5,S01
3080,0.24468679621681266,-0.9990848669962831,10.162645494880996,6.395732048632781,8.460740291740695,14.212550564102598,27.210266238743216,-22.75624340536786,40.66243999399138,5,S01
3100,0.46606815953970504,-0.7484864464339547,10.518313075706484,2.8999297075375443,22.636746188620332,18.190963918177655,25.499236916018887,-21.194567202365125,39.345721339551424,5,S01
3120,0.5784812727308958,-0.3640065550555576,10.251085198772262,18.69406117426622,41.89145383106114,13.338251579001652,24.782392384149542,-21.83262942967923,41.16641054932003,5,S01
3140,0.6306427188288176,-0.331443493630646,10.776495907561213,23.53362403868574,56.996585439260606,1.9547164460237902,25.371454900247727,-20.714386851903985,40.02640163468855,5,S01
3160,0.7839905833515313,-0.1509767204863514,10.7980363599417,32.06088210503389,56.327645974574956,2.75670623445655,26.706660528485255,-20.761593421680644,41.25678361512214,5,S01
3180,0.6816528075558124,-0.09151881065979145,11.143260447275685,26.451398581998628,57.14128813945475,-3.4353400372840546,25.96535853440479,-21.683312069659074,40.926299895918305,5,S01
3200,0.6752465561517467,-0.059994707966446646,11.311054937345526,28.057972113854785,56.286239055118266,-0.5468145069395042,24.892500688250337,-22.28862623762717,41.2027174293195,5,S01
3220,0.8042944826953615,0.09895252462433893,11.508933991569197,25.622941991333956,44.140575552793045,-11.757019422618008,25.844461359739896,-21.40841856191483,41.945607532006136,5,S01
3240,0.6438150513990667,-0.1804090794231096,11.489040119507859,20.809934685654767,36.08125063887318,-3.3274502173269798,24.77707293630257,-21.815097443155274,40.52736264426041,5,S01
3260,0.5246173030011889,-0.027011306903424417,11.353556716339511,11.182872243439068,36.61924866170097,-9.318731413599005,25.494505276892355,-19.19471890244483,38.07671189463795,5,S01
3280,0.3963743020074676,-0.24531953998075182,11.419013154376906,5.52438741353684,23.72897066928746,-18.948890327040438,24.137161730685236,-20.107364303002264,39.53731887234376,5,S01
3300,0.2731425081293296,-0.4476472209092492,11.308894244462168,3.2393115923668567,14.11467832556376,-14.081252950759444,24.584574139946056,-19.535837717102424,37.905144168805904,5,S01
3320,0.22127371359222459,-0.4727189921102408,11.20849828248253,1.923936465948274,5.4598230808496355,-13.606111250595982,24.890081251861613,-18.640752774621575,36.963258367049036,5,S01
3340,-0.012901300130904958,-0.7273230078747459,10.804313959451449,-1.8589050595072316,-1.7756528712265573,-15.225025356649498,26.131136308634552,-16.496706500819833,36.948497397908,5,S01
3360,0.13161403869095,-0.7955224722830527,10.60261980258711,-7.960083935311564,0.2352346696518719,-16.61200618686178,23.893391060557867,-19.30166383754171,34.84156860433795,5,S01
3380,0.2093392683057836,-1.0353370716028638,10.481567133211596,-15.420537119544395,-7.410594439198702,-9.016853719300185,26.542422798336414,-17.44837053235166,34.8465769666136,5,S01
3400,0.04566309189796291,-1.3369841837259173,10.566033779323481,-3.585362060290622,-6.173361711795414,-11.519251783132942,25.39369276662016,-18.538855808799937,36.8750853181696,5,S01
3420,-0.16414549308187612,-1.6723500141686762,10.334065695586018,-9.19703382989399,-9.73761738329721,-11.55684082829946,24.14526144321819,-17.45200281495297,31.76761149697899,5,S01
3440,-0.03949096474350927,-1.9316472286888136,9.92280955835445,-10.841118691170085,-11.101714143328618,-2.5189746877425585,23.439069838830868,-17.030612526431366,32.138424586242905,5,S01
3460,-0.11358450979820403,-1.7335002541831934,9.823217108649285,-11.12555749633168,-21.002614610333527,-1.1067840542423042,26.49747198517916,-13.940171204422228,35.40574586242578,5,S01
3480,-0.2741135513669325,-2.1203587813125284,9.716128301586847,-16.774531966448258,-27.62339318571099,2.1605592748882883,26.239742716076016,-16.395263040594173,31.024838688739802,5,S01
3500,-0.3696595112483285,-2.009906462707475,9.497700780655226,-24.65190933040501,-38.1625786712948,4.7547822814613765,26.186365358559723,-14.257846794406625,34.43504059509107,5,S01
3520,-0.47747504943729024,-2.2683561281276114,9.433184771019826,-30.226816416942185,-47.632398239520995,4.679629287046436,25.920546370434494,-13.676909484138932,32.79952969377969,5,S01
3540,-0.39516175297192513,-2.0503961531497827,9.430444838081602,-34.88276198190493,-57.933077558324925,11.308191546726034,25.086593350047206,-14.940541817941646,34.902571172882105,5,S01
3560,-0.3980561913137297,-2.048906165180001,9.591149930307406,-32.651211633061344,-57.73571905052075,15.599125214045323,25.891575471078262,-14.591336102192699,35.08929712971366,5,S01
3580,-0.7408378200592572,-1.836194196397392,9.443729514582019,-39.12599031503197,-55.46640615458428,13.726533845119645,25.245880833243586,-14.864788841762103,36.337426689908135,5,S01
3600,-0.7087430433963225,-1.8037442345532153,9.50962626567058,-31.82928572255822,-55.03811278027407,19.628882555018933,25.725863799334128,-12.957900671812421,36.13182258860096,5,S01
3620,-0.47706322695555003,-1.7930907003473335,9.76352688582077,-35.734563117644605,-42.9058565896909,20.372898437275765,25.252206006653786,-13.880760124249946,36.71398332583846,5,S01
3640,-0.21376636049964245,-1.4061445671822936,9.631245692838828,-26.777798407769854,-32.86641620077201,18.076644584434014,23.787982950067892,-14.279289503754942,37.97246109326875,5,S01
3660,-0.12744780815267243,-1.305520197436249,9.589877095581327,-11.741963519317416,-17.40868590834716,14.138407687182525,25.84603729779974,-11.368558173122343,39.035349422709274,5,S01
3680,0.07578033647870523,-1.0938196818761163,9.919682717734917,-6.196934959757353,-8.119274530278664,12.90897960366703,25.850159523895407,-12.621375254121984,38.90870721291499,5,S01
3700,0.260602095607089,-0.7364132267407555,10.028906761704459,5.812540492143497,14.284303304779366,10.373431055803477,27.17428812120678,-10.765836773782546,41.47643866512875,5,S01
3720,0.6713609285380371,-0.7713060598587369,10.281058833080245,13.530790256619362,34.75345634117641,14.682906363838468,27.45417047836716,-12.307318063076671,42.05430518135369,5,S01
3740,0.5716019517299056,-0.3885998557877264,10.586148236895388,22.255832894009387,44.59945206866758,6.11777808668095,27.16512098451029,-12.099538997127258,40.71716614410111,5,S01
3760,0.722007650124297,-0.40669273798452665,10.659657288820867,27.944540273337036,50.48932771106101,6.378495166518214,27.66605086181291,-12.174862423654474,40.64643089475398,5,S01
3780,0.7818355254654183,-0.17549100256714342,10.840721473478599,31.14470928933338,52.81310400021227,-5.2430826997441295,26.616361071672774,-9.999002582861037,38.882604223746014,5,S01
3800,0.8265045274360456,0.11359387172634339,11.043402734664708,30.05839394471408,50.15349255519443,-1.697546143362516,28.224098639074473,-9.2589216248002,41.481273121811036,5,S01
3820,0.6990694723786527,-0.13085972350405328,11.310296132600094,27.216433585547712,55.33975456366697,-5.3824178331178265,28.251095260994056,-11.357952649739794,40.34715517555315,5,S01
3840,0.7056288098393919,0.023354589628360595,11.152374317154003,22.01130730709408,45.878245062617545,-10.060349700980566,30.42439369316832,-11.688713260932573,41.752077168757744,5,S01
3860,0.5736633147754178,-0.12608992852591175,11.14648447060212,19.673782634338835,41.06935983865739,-3.774559385464032,26.959652884550728,-11.178870235136102,39.176241687282904,5,S01
3880,0.7726067333362844,-0.11340910075278526,11.131990465605341,12.883786038323048,28.205697706150247,-12.369528019329001,27.60403196731805,-11.195871787154836,39.53279549157209,5,S01
3900,0.4283128390969776,-0.2101197746360208,11.427485755602516,8.716518991211185,16.162698607411283,-16.043050069583316,29.30183674764106,-11.155780191354513,37.48753748844807,5,S01
3920,0.5818814625466494,-0.2574396565096596,11.21377055166287,4.1555479212115705,15.651610665096413,-20.22003253893791,28.572160033477346,-10.92700114153604,37.48732217596412,5,S01
3940,0.15417372264629794,-0.6473464121163466,11.067968695678113,-2.145882497812294,3.921646397313788,-17.536214909749585,29.254877669370618,-11.644834689683613,35.95952374524491,5,S01
3960,0.2548879678355222,-0.6279841627459488,10.885757360188228,-10.311114680776356,-0.278490792337325,-13.261428941534353,29.664782798180227,-12.4670052457915,36.91975065524002,5,S01
3980,-0.08709015849301954,-0.9078795960322972,10.821999909241727,-11.419090552998098,-3.97807591523617,-12.481793779526793,28.380739821430844,-10.939688553600487,36.626971065518504,5,S01
4000,0.0982106245796302,-1.054306058865662,10.365612274442224,-5.927766145238596,-2.282836918617157,-17.114672204156832,27.894273603113852,-12.140903510325026,34.68965653601739,5,S01
4020,-0.20195316606077066,-1.4551135875800683,10.406196018094617,-9.337776427287618,-4.8919710997237535,-10.405074616928076,29.534616973335815,-11.79090774417278,33.02742013984847,5,S01
4040,-0.013759995154847077,-1.5229628304565817,10.122662568392593,-4.457803580708452,-13.67565574674839,-12.629262413730286,31.38009548240456,-10.089732489165996,32.70098124932882,5,S01
4060,-0.2271322381474772,-1.8159533433782065,10.04134899699409,-7.706741548688569,-22.051133363051996,-7.828945763660805,32.585008097012896,-14.574142408588457,35.01319708194781,5,S01
4080,-0.2129030820559706,-1.9341009075096012,9.630431778931285,-9.618007036193774,-18.810042226346294,-1.9518775317023702,32.284934352884335,-14.271566840515504,34.074268854457074,5,S01
4100,-0.34552719186885217,-2.084535697616099,9.590521299027618,-26.52434069008938,-32.140913764372755,1.729442943551168,30.590329747753827,-12.595307961361495,33.85491484407345,5,S01
4120,-0.590642077844104,-2.2053022679874084,9.661439771711299,-26.946004461035965,-43.27545774792619,7.139724596281401,29.488402001233073,-14.34107623742348,33.29285283597564,5,S01
4140,-0.4518454724422807,-2.100855083706599,9.368870904677806,-36.71716328189379,-46.60999060918837,13.929230448779899,30.837348930168634,-11.155858546588634,34.96134112992689,5,S01
4160,-0.5949516484867703,-2.1456179351222504,9.379713461119469,-38.390101918672364,-51.774074110001735,12.243462949613896,29.179746651594215,-13.403796968998071,34.494013174229664,5,S01
4180,-0.6114671272332474,-2.043467955513176,9.306565731331455,-37.54124928049956,-58.819826047018125,13.119775778310101,32.866734532481956,-12.969810419462242,35.12351376363003,5,S01
4200,-0.5086439307450674,-2.037366923670581,9.347093768390367,-35.74926992006364,-55.66384065038014,19.869598827722825,30.619723685813447,-14.386684206005565,35.42811930505739,5,S01
4220,-0.5634515263355273,-1.8902919228538646,9.476694290605794,-34.28854636153104,-49.601610287811454,17.209873216216504,30.64377608719384,-13.961394860822868,36.70108438345869,5,S01
4240,-0.5139357362355476,-1.7825504417024374,9.656040696159055,-30.644170911130256,-44.999634014874935,18.54577889930912,31.706264258010968,-13.386488221311623,37.01523811005144,5,S01
4260,-0.24271409678270847,-1.4082360935978762,9.537209441608645,-19.093572446853813,-27.650638387816425,22.831895058690268,32.62782257566037,-14.107981085033568,39.840451514570866,5,S01
4280,-0.09824459132024357,-1.1328368176978225,9.751520459491456,-10.684340903756244,-14.756008006928605,20.347275631220715,32.11345023135212,-15.367640215128505,36.950766907324315,5,S01
4300,0.2755151028429265,-1.064862642010564,9.875479293036422,-2.1672404242289405,6.154969210233388,15.628449413812065,33.41024720594008,-15.20368734498782,39.93581906912479,5,S01
4320,0.20979922714597382,-0.995830143632318,10.424819251892965,8.265930463159098,18.549594341481896,13.646116013546138,32.699992583063576,-16.18072107577237,40.428684622359484,5,S01
4340,0.4973889209624749,-0.5636433909977558,10.237738259195117,22.01081756272667,29.347860081815522,8.60421407504895,34.09287885190807,-16.79793791093785,40.75957280281879,5,S01
4360,0.7411709575500283,-0.2421246159730307,10.718514486176282,23.716068054720317,43.350422311050295,9.358341823333935,30.707444664938293,-17.76931271995725,41.67403252643591,5,S01
4380,0.9316691254791797,-0.476714058799701,10.798417773538084,28.18630181294922,51.692579359627615,1.1363186214898904,31.34477311196151,-17.004493531687032,43.39915590552417,5,S01
4400,0.8322424890709668,-0.3462631323755488,10.97223674677584,29.40772585655341,60.208461168274795,-1.5669778909159495,33.46168378346536,-17.67474864294951,41.44289093290256,5,S01
4420,0.8198535522653284,0.15516868825373117,11.209313961710013,29.893008594081895,57.31894666571154,-4.183814451684648,32.450422101533086,-17.769447326565633,40.43270084534576,5,S01
4440,0.7399514466168788,0.04368886591379095,11.298221329571264,23.65811161240902,45.2225753773174,-4.1128120133428725,33.46015545578426,-16.94665132733181,39.91768752423281,5,S01
4460,0.6935783253021998,-0.011070400127766326,11.218761955990015,29.05081477247882,41.335719788057354,-11.327809674725787,31.471023679997263,-19.639870502449504,41.12858130195005,5,S01
4480,0.4400229528547769,0.09328148067726272,11.296830355127357,21.29719253885214,35.595836264796304,-6.907970182705374,33.48780137601487,-19.733228809637232,41.07844164300538,5,S01
4500,0.663855091283314,-0.022638985150690114,11.1803444503679,11.122299422573509,25.821617184144852,-7.393968450215342,31.62563740372097,-20.41291492325386,39.08844075692519,5,S01
4520,0.3727760702647406,-0.17344827401277685,11.225547393061648,4.488324234079729,20.36063024191485,-10.975836952169184,31.785390096893657,-19.400261917251477,37.04471814526584,5,S01
4540,0.30568882481069304,-0.3596019540916453,11.184104838166595,3.2330636682414395,11.018696048636006,-16.70843100342402,33.50712867922916,-21.340205158138744,36.697440682596856,5,S01
4560,0.15175402590554093,-0.6432341872261027,11.102754730377544,-3.521628130519003,7.045700158415246,-15.743651955008099,30.565654347985355,-20.23923986204481,36.42116944698486,5,S01
4580,0.06783740349990247,-0.6363566129291298,10.90786076503242,-9.04381076886022,1.0141313285500024,-15.262181982299579,30.66671481546026,-19.704850098454074,35.77012929941235,5,S01
4600,0.001757069679829637,-1.0344925516236227,10.569277340431013,5.172003533807755,-0.2295969987522255,-15.141931574921141,29.57539696810813,-20.667958970870135,34.80518482376172,5,S01
4620,-0.036941631102248323,-1.190114490200269,10.531599482458844,-3.6564624738407385,-1.2912137176663252,-15.253100878552681,33.71180507322522,-22.038480685953527,35.70067803000069,5,S01
4640,-0.04744804797829058,-1.504793193190071,10.24994574140989,-8.952766285404756,-6.291995053898098,-14.0310979114403,32.91621314458331,-22.847566964026463,34.902245328289666,5,S01
4660,-0.008321837080753472,-1.7164557199975614,10.101494905274397,-10.845811503675815,-11.223275394112402,-9.098069986486262,32.111603798989094,-22.982379175543777,33.46057058890831,5,S01
4680,-0.05129976117789062,-1.9166200627906842,9.963503640153743,-9.663135383013554,-14.710815973555292,-8.787502175392175,31.870056937751162,-22.149859832706333,32.05564902428284,5,S01
4700,-0.09047596208936029,-1.92666045065296,9.85172868512308,-18.063995880835947,-28.548898359249794,-2.465359936940277,30.02787466865819,-21.826816462412978,33.308832149163145,5,S01
4720,-0.5270227839493808,-1.9615911218984465,9.47272777570522,-20.447542972493924,-35.40019456400458,10.17415967932933,31.454441870341263,-21.17532042777073,32.040116237448544,5,S01
4740,-0.6180577342558419,-1.9887098742364386,9.558576584528963,-28.17979683454282,-42.68955336893855,7.880436303280618,31.498256887640697,-23.11516143621278,33.57881818404703,5,S01
4760,-0.5541855284775534,-1.9392010384702512,9.457553437062428,-27.893851764060646,-47.54757802368238,16.497417787876433,29.653872821411547,-23.634083072041932,33.97392600191078,5,S01
4780,-0.6383687351994755,-2.1423366519406533,9.540874361443253,-35.51054603772404,-56.642132748813616,14.27175723093037,31.80283482646927,-22.907060202404338,36.54600873124561,5,S01
4800,-0.6681756362499615,-2.0044386855031586,9.29943478937962,-38.52760205154366,-61.08192831294717,19.004238219368904,29.1536073195664,-24.876363060166156,35.87462737145687,5,S01
4820,-0.5199467077118674,-1.8931983825568997,9.500060968802567,-34.314541812804144,-54.702052264869195,20.871756187983323,30.669652642511135,-24.844427939953942,35.69795901767781,5,S01
4840,-0.46872676092459886,-1.740539541011509,9.321003090405366,-30.427447864196175,-53.35539290252584,15.914985846092849,30.20701644149077,-24.125043771429414,36.84653135291077,5,S01
4860,-0.4316024259269945,-1.6578698186399379,9.522603054844534,-31.234840102396586,-42.16701628989728,15.58930449685277,29.193921644958827,-23.173556707329485,36.85499423518336,5,S01
4880,-0.0797722894122323,-1.4541776071247234,9.746187438843782,-21.307074876045082,-24.09141774533924,16.23284347278322,27.132506466248085,-23.227157300682343,38.503602185836165,5,S01
4900,0.0974467749053978,-1.0181228256353825,10.000153600266584,-3.2666006184921503,-10.357132813118483,14.3494291614972,27.69170217520329,-25.514446490107623,39.5174993098901,5,S01
4920,-0.04237718033953716,-0.9988982722912554,10.057371056612363,1.5897232993086137,7.360737520519019,15.499128413292548,28.79890932789203,-23.33437377850479,39.483513067591595,5,S01
4940,0.5019859796823493,-0.7649673321368753,10.297542703569125,14.819706663366798,25.070791868149183,12.687526122075981,29.503344438599065,-24.151392383142365,41.649932721593785,5,S01
4960,0.4528493555998906,-0.4397931567185581,10.52832091143052,20.77264475952696,39.971711561020335,10.755438636693,27.592862658033564,-23.573317373127825,41.15396142193191,5,S01
4980,0.6289269348227671,-0.3280334372832459,10.677740840220242,24.485577437033122,45.72041562639563,7.653725998246444,28.14144491685259,-23.988275591663605,40.29044931193938,5,S01
5000,0.831021485172037,-0.1722101441704646,10.827189775501614,28.809860150078155,53.54073498363573,-5.461111502862819,27.33544492431409,-24.252610625515278,40.562490325262246,5,S01
5020,1.0603569687212109,-0.08678838372266434,11.155840651921908,24.131032816624554,54.15352393053335,-6.488027964566861,29.684614193590306,-22.92203986179526,40.76212329799017,5,S01
5040,0.6664735080153232,-0.06008773556676259,11.264685717152387,26.814720345221996,51.12207007013293,-1.5050806919661879,25.474308194638134,-23.69786622669001,40.007004545995876,5,S01
5060,0.7249949766962803,0.1339658634487172,11.370243873620742,21.83532219841891,49.343978592086046,-0.7845918115260645,28.423745782623442,-24.21718169685223,39.03272542566309,5,S01
5080,0.6955409790721918,0.10404147137895658,11.448773640581221,20.696984986404125,41.75533152896084,-9.696661068137317,27.37400076054242,-24.99023767415703,40.70769449033044,5,S01
5100,0.38800453161479087,-0.14046534983613024,11.476301550114005,7.92165529714904,29.552661330452516,-10.522432007248927,28.42115118117929,-25.636910031113676,39.58059245034839,5,S01
5120,0.521228175516434,-0.07822625138003243,10.965746249113577,9.47211602647754,23.526346721925034,-20.67779283771826,27.87128950778069,-22.584935190237935,39.91963605114459,5,S01
5140,0.42280754861189107,-0.3997382057791045,11.193994703857328,5.673380986203774,13.609626735349202,-13.139679214454063,25.531568480060507,-21.30731515443747,36.85796637695013,5,S01
5160,0.306308454175728,-0.49772078700660444,11.265516576140497,-1.3466774524049798,4.7324813775054855,-22.581699046321845,26.5280885106337,-21.333098037332288,36.61867658039571,5,S01
5180,0.12228834451372092,-0.7417143932364583,10.946645602986129,-0.4461595052535312,4.397610888487407,-17.95795015406741,25.919665405407493,-23.359773333515676,37.397598889390835,5,S01
5200,0.057098236637335674,-0.9421949743664557,10.949201954809022,-0.4329987773608215,5.102520185005344,-21.575249633458984,25.759835741406217,-22.406030391508367,34.454715862494226,5,S01
5220,0.05923286279674353,-1.164217289738738,10.81173541714004,-12.126070253393012,-0.5308447927461533,-13.743804656443496,24.76353904194064,-22.170462311588526,35.41538962374126,5,S01
5240,-0.08338052280267633,-1.3889394300448032,10.421912563031677,-6.808891478094459,6.258967792853455,-10.432311580545274,27.815918205006653,-21.95676021911273,34.257884726569515,5,S01
5260,-0.054416380396839104,-1.550972226489404,10.180431522661037,-11.586995425332137,-5.836343231395757,-14.632679459722189,24.084684779615323,-20.917180238121297,35.992548821519854,5,S01
5280,-0.04129225036818576,-1.641557799584184,10.032817297689476,-9.146678721175345,-17.125221240952857,-7.449970459745071,25.93746976348762,-19.964889165905042,33.198372355051305,5,S01
5300,-0.25472417376557377,-1.8560003129348666,9.854565087753127,-11.578575859657033,-23.731905874677228,-1.794587161029027,24.02411066563188,-22.030220818115872,34.270896895014275,5,S01
5320,-0.3220737066801238,-1.8899079271919934,9.97149728493434,-28.94479794380265,-26.784310613683967,5.927202422250963,24.408842730571163,-20.473086509829624,34.23751556142026,5,S01
5340,-0.525635397478899,-2.0098565919270235,9.397135431149373,-23.287378137581552,-37.59150498364207,1.7408606278093486,24.419460772639876,-18.203209659887094,33.77285225328667,5,S01
5360,-0.5001170526976727,-2.1567160790371522,9.347031762608836,-29.644852176753965,-48.559714924689956,1.8941357303080815,25.407685899031456,-16.30460563892923,34.07938675209032,5,S01
5380,-0.7556892378266922,-2.002846573354458,9.551991534207579,-29.333774771165853,-53.64397923510355,10.238933677030458,24.45315890885859,-19.213623352568895,34.10586881782099,5,S01
5400,-0.49361819743948887,-2.1071737789901186,9.246924199347617,-35.79092932434143,-55.86883358661858,8.278621893993746,26.634671525322986,-16.08140786693301,35.0057073668687,5,S01
5420,-0.705133055902472,-1.994538248601983,9.384908705466632,-47.87105417556654,-58.38898952037878,15.220452021087498,24.788561284805706,-16.79329380680082,33.688547239429525,5,S01
5440,-0.6174471506905338,-1.9074660592335277,9.469496866328566,-39.93082430436108,-57.22800027515609,17.885702886021612,23.695057634250688,-18.083385808781223,36.336269566392986,5,S01
5460,-0.5388454623552379,-1.6267082275751252,9.607260127392953,-23.45239930203146,-48.555974335326646,19.065293574497243,24.122681633676066,-16.321408095378157,37.19043291877882,5,S01
5480,-0.13549786598888255,-1.7515483627524582,9.534787327206525,-21.962100527723546,-31.9711901217084,19.200674906860648,25.28513245939798,-15.815062915124235,37.561793291326865,5,S01
5500,-0.31180783994094563,-1.3485555946005576,9.73262963988856,-17.327911798382477,-18.79943093853751,15.668049797610125,25.17330807112026,-16.007575313472408,37.71582194952483,5,S01
5520,0.05154663419852681,-1.0539353899717867,9.749246826989696,-6.614919989435508,-2.451454963978305,17.575745813147314,25.4450969891114,-15.208053877540088,38.95730600800096,5,S01
5540,0.3066834194899517,-0.8435674944265921,9.879871756762999,7.133046483324562,19.98572784952104,18.10556750171667,24.214261672354574,-14.495174870313665,40.19919335193618,5,S01
5560,0.542616714839033,-0.383331294919766,10.39794393872887,20.797100683568527,37.14972413067238,9.010342219551546,25.906787991806176,-12.712668841814866,40.66056295178222,5,S01
5580,0.5982543695090285,-0.3601128739350788,10.535540999681636,26.20096209324205,42.5337648820867,9.83615629136568,26.42846647718899,-14.066320199661671,42.60668310646977,5,S01
5600,0.6247604017672713,-0.24241545377793294,10.696642482563337,26.218768595715893,44.98974576581884,6.721087683524601,26.7455419829699,-16.456185151454726,42.204881469971006,5,S01
5620,0.857538634347547,-0.18832188980333364,10.961037270756446,30.603571033431844,50.490753557512605,2.2724675072135776,24.673055135466914,-12.113734246459293,41.55889862158749,5,S01
5640,0.9565870759231284,0.05213289078311775,11.035601927087749,30.96484000550217,58.37086942876157,-1.4496676017064707,25.774972610597224,-12.493859241454858,41.420884010812664,5,S01
5660,0.7543694293768899,0.09764013028203683,11.28779663767679,21.62810277062208,58.505209833125555,-6.256098670706285,23.806488279036905,-13.45674335569765,42.32646496663086,5,S01
5680,0.5928639372151787,-0.08729323631799107,11.335735565700242,19.173755902984254,47.37416383141662,-10.263841132784089,27.09508196350736,-14.20512324364374,38.43726232284547,5,S01
5700,0.6877017046044308,0.13159951084330412,11.240881560388223,15.0588347986183,36.76793950858381,-13.419946840787444,26.394575107280925,-10.475184837579262,40.747868669718315,5,S01
5720,0.6137011529901993,-0.08634445618313963,11.317560680345034,11.13850217536638,25.141555872609484,-21.144577547009536,25.745406503875074,-11.5726367049072,39.10035082664376,5,S01
5740,0.4403363984189975,-0.31150789048928107,11.095205656633246,8.605008306937275,17.503275349260573,-14.67091620351594,27.371920351023274,-12.178334740318775,39.716813564798905,5,S01
5760,0.4466190437798512,-0.567803226478482,11.096010172248619,0.5709720132176628,7.99431127147927,-10.77678282412758,27.25453830711896,-11.983408856545676,36.28985335021964,5,S01
5780,0.3068008075302534,-0.43017841132677276,11.148967443720279,0.7581984120709198,-0.47723419174159765,-17.92038435704186,26.288580732721904,-12.267854452130972,37.38971524519366,5,S01
5800,0.12759718311492976,-0.8027256984319617,10.818457850647842,1.5221500964983337,-1.2115325362240992,-15.134420689749623,25.230473127655273,-13.644002290227997,35.39659142915417,5,S01
5820,0.11783712076947274,-0.9610957826692919,10.866466585582327,-9.878717207787313,0.125059890351652,-18.4217099592328,27.401901895372152,-13.377091472084963,36.6226712603355,5,S01
5840,-0.03784763671527372,-1.158862396032219,10.317487578509088,-4.131279788821363,4.562462342237699,-11.219881537001456,26.70746579183244,-11.138832432393691,34.913717898472655,5,S01
5860,-0.11198140755721653,-1.5080615059970317,10.407176232733736,-13.431813005473924,-10.38019675034959,-5.6352710623560816,27.854172278607862,-11.367043339087978,34.751119146350504,5,S01
5880,-0.11530412395794076,-1.5541731296626156,10.331557866470996,-8.888907702952148,-10.374951936482097,-7.462007999870602,28.363886988586085,-12.500063846936552,33.95042582383299,5,S01
5900,-0.14527549812269672,-1.7127427705420868,9.97206593928503,-14.204192262111068,-18.810506769452427,-8.29799606600788,28.41920865745391,-12.118435226093517,32.711747491378986,5,S01
5920,-0.32989661537678383,-1.903929789668044,9.945196961654506,-9.750423329025292,-26.36416390689768,-0.6553308422811729,28.173530904848164,-10.262386098733487,33.13387764324658,5,S01
5940,-0.3931496707727521,-2.028892573783994,9.814873302374654,-15.987797939457483,-39.886801803997415,-1.0084807545354013,30.19107019872718,-11.131823223437877,34.22024791783197,5,S01
5960,-0.6872645174921659,-2.0682580813868015,9.47568173182531,-26.177378567228068,-46.43398312846627,1.7925149268483191,27.255264659266672,-10.46850936466424,33.18289186113377,5,S01
5980,-0.34326427399323556,-2.309402239571121,9.456459894888559,-34.65438407464347,-43.66417975226875,2.6980424793483224,27.20945273759866,-11.42262091133573,34.660979306813466,5,S01
6000,-0.6732123940351985,-2.1738406977524414,9.443706855465514,-39.95574635903485,-53.94070078412782,8.72624722418042,29.326981631187984,-11.50990898735298,35.83290932349374,5,S01
6020,-0.5216183229293407,-2.1703041906322538,9.42205569919954,-41.95782600051293,-59.55114394932801,14.749393456602848,28.741736600802202,-12.339550261615226,34.41233785978812,5,S01
6040,-0.5010455324773851,-1.8647790067024808,9.374021953130224,-37.38721944097412,-57.38064631188839,24.757299734309434,29.971377484621346,-12.877552614687719,34.46074139079998,5,S01
6060,-0.5137556575798751,-1.7179188262257779,9.453488721723339,-32.27695815903133,-53.17418538446807,20.333409856678653,31.305637993400047,-11.967640696196348,37.30368376423765,5,S01
6080,-0.5050576677925468,-1.5644882862488592,9.493158497691823,-34.07939242086125,-40.57482581581493,22.882021132766734,31.241755578783128,-12.29120464479529,36.293601045527446,5,S01
6100,-0.1731371948274821,-1.409981580206291,9.857463158724455,-19.984769550461763,-33.05338431718459,18.584311316189147,30.322166691533557,-10.968583790226981,37.739925386326476,5,S01
6120,0.024628104541507684,-1.2503806020054196,9.98878118727346,-15.807187149270863,-15.074882489286276,22.121883542766145,29.72830884411859,-13.163213927336418,38.946616753957315,5,S01
6140,0.14134673175119336,-0.9579501559726962,10.00670205280597,-0.6058265070917814,6.179054652542139,15.382255710515224,32.048502863348574,-13.656390873944245,38.48738701704816,5,S01
6160,0.27172522978963076,-0.8335980532147886,10.191551476417315,6.685098791643015,19.92638459608762,16.368287162097488,31.130005950864522,-11.299946887306858,40.14073517975312,5,S01
6180,0.47824340995191816,-0.666343361054994,10.245117641762002,16.749816861652292,35.79823696219588,12.297335265110275,31.195730962868254,-12.72338470514616,42.627925663708226,5,S01
6200,0.6516671548376323,-0.4826775510498802,10.487332030853631,21.688975868332676,44.303744007865376,7.74752611543002,32.56926176779972,-13.306175067566326,41.3928333409095,5,S01
6220,0.7178363899358279,-0.38083953745216315,10.660163955197904,31.279625678482194,52.760403223287554,7.45338882604856,30.481769835250986,-11.860807009761881,39.89822021056924,5,S01
6240,0.8241674447220302,-0.011983306263699742,11.057687296412661,36.2781530353051,54.31373751850167,4.432938445063732,32.807164792843594,-13.660798419258564,40.745397790238606,5,S01
6260,0.9505761453778384,0.04504924410950727,11.138387002942162,26.255178601028536,52.982326648007756,-0.9583994331648814,31.560277151425787,-14.06013931959852,40.512695911924595,5,S01
6280,0.6381297709193897,-0.09316993505752441,11.321951276203242,22.900244642761468,49.82268254726437,-4.273244920245105,31.108901416315668,-13.899876385852373,40.86316949393248,5,S01
6300,0.5755800940912624,0.12179382850337417,11.283265679819385,19.73940355195782,43.071779065349624,-12.496690853009216,32.5118904059209,-14.664708021127034,40.262077071444,5,S01
6320,0.5506208839316777,0.10777666782361048,11.46110834280436,19.57206266112613,30.293128146350195,-12.75744310774066,31.67289088505415,-15.617745641571805,41.79463164031262,5,S01
6340,0.7173089833266264,-0.09771189217544939,11.314155417542207,11.584244591733341,29.133439996921542,-20.586427342436934,31.336690951523945,-14.230085795608513,40.232596365101365,5,S01
6360,0.21235044711836232,-0.35720233742574714,11.271846220315142,8.590541146264414,17.522220236274958,-20.652575048663138,33.25380106296647,-15.584640648912705,38.595904395404595,5,S01
6380,0.3635253555237815,-0.3751855951434318,11.295968025307559,6.24103982118866,7.901918355083889,-19.069523011135402,31.064702616338913,-15.362284244938659,36.979552888644584,5,S01
6400,0.22217084778886675,-0.43531661463507093,11.030747953361406,0.45565735405927743,-4.159621906211437,-19.141123688616172,33.17557784686538,-17.202212897420573,36.88190973545819,5,S01
6420,0.08230450362122302,-0.7062450042634931,10.621270083052385,-8.100227846640912,-1.8765668546659093,-5.30337012158898,31.37446034765992,-15.694076381379935,36.839407010214835,5,S01
6440,0.09726333168657199,-1.0201027573010675,10.584776243757185,-5.4407393800906085,-0.2865663556776682,-12.750382673693315,33.599789800862986,-19.496142097376246,35.4900784411633,5,S01
6460,0.18406301276550718,-1.2085472295118302,10.318687104935671,-1.2547974648778948,-7.325494764897512,-10.776238922424644,32.10449999466206,-17.573520618887727,35.276070312199536,5,S01
6480,-0.01704065474548458,-1.3516039531873583,10.166974770727151,-10.197183309664197,-7.770389435491053,-13.94705462165572,29.50061928030955,-18.960609238141203,35.53082885403208,5,S01
6500,-0.17809086093742096,-1.6690373698182925,10.158610820029157,-7.467346345225841,-15.425203644486402,-8.090284281853771,30.862810820999915,-18.29828131851375,34.36226283390989,5,S01
6520,-0.17042766497630726,-1.8313418236319925,9.908546594417498,-12.46903057936558,-19.554162138543123,-2.4765384470356158,32.15715273431717,-19.272430247761257,32.25087722605054,5,S01
6540,-0.34766494781492263,-1.9185138874090488,9.717101926632049,-18.0861087567121,-30.854918698899265,-2.1215601226711853,32.37836713089669,-19.808563076315863,35.10149106492905,5,S01
6560,-0.49811128099756163,-2.1740692519257214,9.437421999936992,-19.888962044846572,-35.54275100107769,3.4816851764204975,33.04958045658651,-17.980495426605074,34.71802124388553,5,S01
6580,-0.6017462269268159,-2.0728461336257347,9.684851846189714,-32.143422951262274,-48.690366019027465,6.295035821447446,32.67594535742254,-22.257877201501756,32.584352444382006,5,S01
6600,-0.36713425618052165,-2.1542248669584794,9.471849244155143,-32.20299512323549,-51.21503192560772,12.827804606032316,32.41028715149711,-21.953265904474957,31.22897269607748,5,S01
6620,-0.5555827114984412,-2.1866734455164885,9.22888524579604,-39.95084360355254,-57.208226745738244,6.243494806427554,33.48839046187997,-21.17735563668909,34.11855500386587,5,S01
6640,-0.45170030489886837,-2.0690665704574256,9.357906619420904,-40.34234911168636,-62.5549845459829,16.93865599452431,32.569076246693186,-20.1388607102147,35.359458501631785,5,S01
6660,-0.6995539174166823,-2.0808617517934667,9.404402514137004,-38.33888580401631,-50.35670800127365,12.121466319595447,32.914559065246024,-21.31553839394352,35.170961321965294,5,S01
6680,-0.47956694076668027,-1.637870529728134,9.385744982384903,-36.51758396243716,-47.511096250248514,15.499063670066002,32.84131261753795,-22.215486337837604,36.54880803776994,5,S01
6700,-0.5042857670811532,-1.5849129619416273,9.458379776890919,-25.788193582687853,-39.603675472132686,20.52068034236833,33.75585335341538,-22.11900191528695,36.556848296787436,5,S01
6720,-0.07515855062054796,-1.242276038049428,9.656214237612163,-15.747091873821876,-31.310308678895975,18.798869310033933,33.396951878980296,-21.883977095881924,38.8095265565058,5,S01
6740,0.10916865158939992,-1.173458810895343,10.004436835989527,-7.512943323078744,-8.622238923226648,18.11670205736512,33.315473725827495,-23.14900311827811,37.50862269619449,5,S01
6760,0.12094432988097245,-0.8837726217270607,10.115470835377725,1.5847254633023846,10.922587098437956,15.714350929337053,31.122007548544563,-21.443495659097213,40.96838695487522,5,S01
6780,0.5704135613471052,-0.6846580197797039,10.341210843596565,9.63983832968853,27.929718828025763,5.990386807474836,32.01433536994486,-22.339062265959555,39.278184009632014,5,S01
6800,0.5796679451241624,-0.5817627438813595,10.43356868230964,19.51941479132787,39.40798193542173,14.199086821489308,30.313462810965888,-21.7731557747069,41.427148149578855,5,S01
6820,0.6204105764571269,-0.3169450471086608,10.637305752555315,30.944993538187983,49.74175774708739,10.558776741955466,29.89572211912646,-23.84528877945152,38.996313722880835,5,S01
6840,0.8800435750004848,-0.2405117899187648,10.812873512047092,30.001327600527542,55.6101663678465,0.2818270680981353,31.83102668579816,-24.064753815292562,40.688863039334855,5,S01
6860,0.8018923739535262,-0.07348596093270612,11.070392630653453,35.5123290994237,59.900955646321364,-5.373222000776613,30.67815592080725,-25.430149333995622,41.2577581924492,5,S01
6880,0.8705287418571002,0.001343967124863954,11.321894768198927,23.25468691508937,64.51291619755581,-11.492317445329734,29.03629107713976,-23.965076270906774,41.13153065017407,5,S01
6900,0.7007931580325593,0.018574692997556777,11.21814396113731,22.979383403937025,49.708297826894345,-8.708529707414074,29.115984124239912,-23.361536071087464,40.33343840241014,5,S01
6920,0.6902446591401539,0.10688611878114401,11.176622992419913,17.55439023778764,45.556922757631774,-10.254648224289292,30.226454650631325,-24.13646102339666,39.51480102196634,5,S01
6940,0.5016973363971009,-0.13286253014120364,11.130514487711732,13.070039090961927,26.70664891140495,-14.38366331461827,29.123221187841697,-22.368986154027468,37.82450730481043,5,S01
6960,0.312217739543157,-0.09069560810022156,11.215085223351275,6.977846669914004,14.221395960014155,-23.036262659995728,29.724760113126184,-23.963572023168517,38.19648415725614,5,S01
6980,0.3649743221672085,-0.20710689748210223,11.16686152415502,8.311089947915367,13.978432168401456,-11.338154591384443,29.154285505799432,-22.24893775086744,36.30840503843436,5,S01
7000,0.09549667681403787,-0.4372407461293937,11.364701608977105,8.546860984756083,9.96438489686919,-13.147799553245108,27.554160011349925,-22.602583228824614,34.91420948713531,5,S01
7020,0.14266140344649123,-0.7409320631072243,10.95788101637844,-2.7840354810084205,-3.5153546117137724,-17.018971511546656,29.062868430242585,-25.60490809932756,37.3253581445706,5,S01
7040,0.10282066401903535,-0.8937373284519923,10.696067641891196,-0.04362491414184522,0.437102809098858,-14.962995989695475,26.731233522723716,-24.32876408149066,37.79486815379494,5,S01
7060,0.14877843764723475,-1.0179703249055918,10.728192433610857,-9.705380281935494,-12.003225798531606,-16.946839392315688,27.773777040797423,-25.053720673920793,33.22022451117833,5,S01
7080,-0.08805573206312525,-1.2592571811915976,10.298678734758724,-3.974900112695088,-7.023498141704229,-15.372790428359886,27.580652426795854,-22.2718200527171,34.46235769076874,5,S01
7100,-0.13327995136004941,-1.6951706115300755,10.100629641782572,-6.185624472383209,-10.37785883682787,-4.99564360239913,25.50093531431854,-22.482954317495636,35.440242311273806,5,S01
7120,-0.13412357293691662,-1.5606671823429814,9.906877990614985,-14.636538413212275,-14.556136889724943,-6.598911577848264,28.79094003097651,-23.11473339874645,32.61596118569668,5,S01
7140,-0.11265523803812477,-1.8573762511818395,9.924817183406848,-12.700674748628906,-17.148100484880423,0.10744246021768278,28.01663773625001,-22.998876732445087,32.61620336686205,5,S01
7160,-0.32305623203404943,-2.0852450294345375,9.849173704495408,-17.00387242904066,-23.86070493076337,-2.0802298284819103,26.519014842581583,-22.87802351991146,32.60754319332402,5,S01
7180,-0.3662738021558921,-2.1898065165499183,9.652848524217248,-24.606007767930045,-36.994202443798564,6.016641281398956,26.214402796596264,-23.157629018652663,34.74226203787693,5,S01
7200,-0.4498763661881653,-2.099641669429551,9.471497567107487,-29.65842889041437,-47.36397569857742,1.0935495659232033,25.609948868967052,-23.220178677362124,35.10479728954826,5,S01
7220,-0.5892820730246543,-2.2751981701690336,9.289016645121434,-31.40411054747739,-57.947149822319076,4.80536944248562,26.968186600814146,-22.62079802316684,34.5389239601972,5,S01
7240,-0.5410013100308868,-1.969078420665811,9.513325454378771,-33.40891954014955,-51.312920710309385,15.283369287682488,26.52691817695369,-23.0113769343193,33.623171731874805,5,S01
7260,-0.4340843324207858,-1.8897342147659848,9.537015868525984,-38.81113308998392,-54.3479658393559,13.145282485737638,25.879345469875553,-20.052111912205984,36.24866015848152,5,S01
7280,-0.5153485558582227,-1.795737767812118,9.702642478150167,-44.805221021320904,-56.657682021095965,14.50330795710118,24.207912373298836,-22.543160267389922,36.04104402953426,5,S01
7300,-0.47818199189934496,-1.6993539340123762,9.530862853635526,-35.83057702290234,-43.15068146532782,19.55458902115561,26.097242618748705,-20.71143147925691,37.180753653690005,5,S01
7320,-0.47864021833468673,-1.4780824808222026,9.648635862426586,-23.10402986928442,-36.54951556212421,22.204406088381237,26.659529319040654,-18.336274686162074,38.777869044742104,5,S01
7340,-0.21356274463038996,-1.2525993802138644,9.746699287077842,-13.96119376325947,-24.75398889376086,19.116631193612186,24.856365789774145,-20.143117698489903,38.66774794348055,5,S01
7360,-0.04319951494702823,-1.0394200458137384,9.878068203248574,-0.7896911173628784,-0.8984505492386496,19.447495161473768,26.206040852664252,-18.961768517696697,39.423118215897155,5,S01
7380,0.2813480879663677,-0.819324462916551,10.20455721801913,9.727781475597418,8.188629111514256,16.814693805469084,25.630405883638996,-18.74241344224576,40.02029264411968,5,S01
7400,0.46941433220044215,-0.7372169913813136,10.219812929225501,17.80684296578178,32.332418894665246,15.849034242909836,25.25302992259128,-17.666631530100428,42.140217481474615,5,S01
7420,0.68605021962242,-0.4340479753836097,10.534111235762106,28.409173347296328,37.842484691599516,14.04409903680314,25.947056322643157,-19.22297546627415,40.39123625186624,5,S01
7440,0.8344275404096958,-0.14633544665480652,10.706592583278194,27.058021923362457,56.70713633711372,4.986678660619486,25.732991956432304,-19.310770018082344,39.89110736719501,5,S01
7460,0.7428766155290841,-0.041573444747339164,11.062301700552757,32.774501855411216,57.54218192678097,5.826006075566796,25.28316281725168,-19.922085935956197,39.61085732663883,5,S01
7480,0.8958714864757891,0.13239948032092477,11.179879629366063,26.794538938008767,54.83604298819067,-1.3916867068828354,24.858350281810736,-15.892067808283475,40.46431677831477,5,S01
7500,0.658471634315407,-0.04485005204313021,11.233973963192561,25.038605168529664,52.569490204040875,-9.688801396620608,26.01842632643515,-14.636609988097879,40.30260057037774,5,S01
7520,0.7125553939927951,-0.0559738551570037,11.233088773383448,24.048497575048795,45.51139541327711,-8.437724289468024,25.01263839713897,-16.875544003183506,41.68543982852974,5,S01
7540,0.7400091335170967,0.09178341819896052,11.29198111254173,16.65268678000808,33.012165119403846,-5.371512380564978,23.822236515299725,-15.066211873647136,39.23816807878405,5,S01
7560,0.43831340869456215,0.2225229180144715,11.260774990103178,11.656588849669117,23.793415858724963,-12.773163927733139,25.342880232287083,-13.967272399646598,38.86543149774211,5,S01
7580,0.23412168830368763,-0.12226444918709795,11.138830762746144,0.155154768238555,22.516625930883134,-12.787299655934511,24.616041782706695,-16.357275901412898,38.232495184804876,5,S01
7600,0.11235992397752778,-0.43147238939713767,11.246453678567383,3.2426024465498875,13.670856722629473,-10.98760212145358,24.04721077098864,-14.22297250536558,36.06671546217873,5,S01
7620,0.2949114947974777,-0.379648359610158,11.127512656847369,-0.05276887248849249,2.3308222011464235,-19.401207222387608,24.037641960961324,-13.15900611961602,35.10812423131823,5,S01
7640,0.19059643932200032,-0.6527008926062059,11.019119336455864,-0.48035473810131224,6.049772449219172,-15.962107943744877,25.023895124276,-13.922165285204557,37.35792821035896,5,S01
7660,0.06105514746242246,-1.1143561007762697,10.847893958187507,-4.5279273195739735,1.106910297710513,-14.384871428891188,25.81331027012498,-13.741944221476542,35.287830836837145,5,S01
7680,0.21529027316303662,-1.0813080659293894,10.392405155486507,-4.013475518265173,-2.4975801133378996,-12.87540372021015,25.10502743089124,-11.850717337391714,34.63856412772477,5,S01
7700,0.03234806805888994,-1.3376057696011672,10.32872910155168,-5.83103751481171,-5.941590333851289,-13.354074264619618,25.018558403660055,-13.039916377915949,35.44193991053312,5,S01
7720,0.07835778378127556,-1.4464229851238652,10.01417965843854,-7.126337794106936,-14.028277018232064,-7.781163466743427,26.50394523610014,-14.95148803043028,34.5251718210899,5,S01
7740,-0.16508953025335196,-1.6973287455171724,9.824275906987989,-13.354638574680116,-12.257232218347383,-9.6724750165787,27.789354303285464,-12.352794525736082,34.02797503400664,5,S01
7760,-0.1360650136297691,-2.0368863212086206,9.82240696648206,-12.376681688042783,-28.571493012607316,4.161094644030112,26.78932836352265,-11.501346983130027,31.47707775765477,5,S01
7780,-0.37724283469964204,-2.0694081176861476,9.882405028275391,-23.70875660439005,-31.176053676456316,-4.274964337587132,25.731030535880283,-11.870684848804348,33.41733865051191,5,S01
7800,-0.49545642436523163,-2.3543269531213284,9.43878617101983,-26.63014641955568,-38.14718492987317,0.3364406032566428,26.32064920889817,-13.322465940694235,34.57170589274473,5,S01
7820,-0.5050561991979513,-2.0962247593166397,9.347915032488745,-34.10082449023582,-50.27103051311733,9.645717120681791,26.441322718364347,-11.720136715768142,32.648247788538356,5,S01
7840,-0.6721608955840822,-1.9843643584892559,9.353905370552251,-34.10194788497846,-47.879669757153565,15.745837360772596,25.840039703499496,-13.47952001657939,33.26537428059056,5,S01
7860,-0.6879607497102944,-2.0658345791435595,9.308335702325572,-35.924000758895055,-64.19005243392374,14.012737351480784,28.428466437961,-11.098025781620507,36.470015073908236,5,S01
7880,-0.5108986622034244,-1.9271853882813417,9.37736985461767,-40.30855407391879,-60.697384072209815,18.726259910115633,27.7502291338672,-12.431923863748116,36.02895027011152,5,S01
7900,-0.5420159034920673,-1.6115839331687662,9.27083729754788,-38.10045438373101,-59.85540884317127,24.150770656423553,28.6320457099086,-10.957388973146852,38.40330211699818,5,S01
7920,-0.3512059537853648,-1.664108015831777,9.435395221683688,-27.689402318478844,-41.54181257753376,21.27126427462198,28.586523838099914,-9.22556978639154,37.324984294300975,5,S01
7940,-0.24925755307300876,-1.5016005873303788,9.764111508847567,-23.794583739187065,-28.49051752923479,15.064488145676744,28.133241381528318,-8.945934628097703,40.06282878761902,5,S01
7960,-0.30327873347007317,-1.1611354854910578,9.73713551636785,-9.332702848276018,-19.214339911808626,23.988112453903607,26.586053405705616,-12.306618606207255,38.632590060988676,5,S01
7980,0.1984042574387208,-0.9374829448032418,10.139351322992766,-9.16499091663334,13.97452548843682,21.184491845047738,29.57129892340216,-12.621526196728723,38.93162132501355,5,S01
8000,0.37944196308602784,-0.7103822794318402,10.347977592940387,9.636940611217511,16.779333930839183,16.52054184731609,28.550178074503922,-11.01276024790046,40.11152545740258,5,S01
8020,0.4695847758916384,-0.5185663170426594,10.340498611880037,17.679461376858,34.99307483273904,9.707028684195206,30.074826060173343,-11.000304221697974,41.51360447984798,5,S01
8040,0.6952034281750165,-0.5133568181509186,10.440747676466813,20.55409703787682,49.71016337417212,6.683230134592387,30.322387708542948,-10.156112456880436,41.172684039449955,5,S01
8060,0.7224414617403737,-0.11785206249116653,10.823560987067822,29.7197394783753,54.57488939792424,5.139519231851447,29.926439684911944,-10.954456520977214,40.529898216291436,5,S01
8080,0.7930549372834583,0.11205552559903001,11.042666057591472,31.24490731967151,56.420575770145994,-2.3148985835298497,28.758929371242758,-10.689969225374924,42.03366629558241,5,S01
8100,0.9482649910695934,-0.029167669457557395,11.21443897634015,23.421095075890957,52.27476548907041,-6.067672417623397,30.192085995020737,-13.05420302279401,41.982833309574765,5,S01
8120,0.6282815356615278,-0.03190805112250778,11.228641244871636,31.306880692165787,49.017224667155,-3.636893540315764,29.530055924604618,-11.043730719481644,40.24867270487712,5,S01
8140,0.6486840288858888,0.003990984385227089,11.340681943862176,23.487853619184467,42.695808884791056,-6.7882342461119904,28.532392417194313,-12.693735304631936,42.26937379278735,5,S01
8160,0.547941093540334,-0.010635269689402364,11.343262037236283,10.987159634095455,38.67123493852564,-15.009816440366123,29.552341263633846,-11.778559415934101,38.86754485699422,5,S01
8180,0.5253555688555586,-0.01822580760294997,11.268011785069456,14.134843402163416,25.973671432913402,-16.82659651995948,30.98392782949781,-10.495043457305709,40.038014826245536,5,S01
8200,0.32180383971526316,-0.2565001659843209,11.391650756081468,6.519897846038387,13.707438322193454,-23.033215794047198,30.563978580033627,-12.159036686996348,39.22754387918807,5,S01
8220,0.23949671469270029,-0.4328979774249882,11.179934442351346,3.5784846522868987,6.5256970630768825,-16.883882850264094,32.083329267565674,-13.354936549133637,37.70824673190486,5,S01
8240,0.20029784412023524,-0.566384536650091,10.964327172979617,-1.9760923189605393,4.632714359618012,-15.818675498968316,30.50776215469635,-12.241590215823123,37.9546324904504,5,S01
8260,0.06454698115032109,-0.7852846995563278,10.946620801630825,1.1498269392124998,-1.1622468869270521,-24.078823119999083,33.220607722589094,-14.699656944178523,36.721272992459355,5,S01
8280,0.04325797106915242,-0.9555710711374421,10.64027732026335,-4.503610775717816,-1.254926410106091,-16.675435439880907,32.04563568154209,-14.234915693699056,36.26844346830494,5,S01
8300,0.18309341175289556,-1.3690042259852002,10.712827255975192,-4.310044987963077,-4.863319274530436,-15.986625601028232,32.180050071529365,-14.181235929600213,34.030930423638544,5,S01
8320,-0.0030889060733459844,-1.649221899521001,10.320067203793226,-4.057729741700708,-7.42490977739153,-11.46725067663983,31.803347147112095,-12.74973256540564,34.95592730678868,5,S01
8340,0.13069155555815046,-1.4471444658110195,10.052878963286934,-10.30983437427879,-12.997712656751691,-7.827987516187967,30.572020109681027,-14.722340777556921,33.37381468297916,5,S01
8360,-0.032495577937311254,-1.7031624688613312,10.061921177585937,-14.766662855973319,-19.03942756658872,-4.540845904763617,32.067477114752606,-15.27109910459092,33.66800122932308,5,S01
8380,-0.2898759549260892,-1.8812945964252303,9.714017822177805,-20.380409668034464,-26.982677217763232,-4.067122664296612,31.290516955221065,-14.730890107222939,32.12373539055731,5,S01
8400,-0.33369950713959673,-2.097268814498738,9.552119227893519,-22.956186491905992,-33.18189870748307,5.491367166064677,32.893939615644484,-15.10608492968096,33.25031806605673,5,S01
8420,-0.48042406941171945,-2.169060934800249,9.497005647956145,-27.922204143050298,-41.78587805783017,5.8375415234098185,34.1232251657709,-16.931816869987685,35.7448250239151,5,S01
8440,-0.4759514818779368,-2.037575352219077,9.500508732260078,-30.495597340900414,-53.54805049519581,7.5092394275789465,32.66846372871174,-17.285683410704337,35.46105869593298,5,S01
8460,-0.5481983442922429,-1.904511348526948,9.524409252027413,-32.925795013899055,-55.47073819270799,20.24692164480266,31.086448967426296,-17.09911537345417,35.78680961935264,5,S01
8480,-0.6495699276583702,-2.052623809041742,9.446714485039317,-42.08079946372148,-64.64364347333802,13.522908533836599,31.794405655584605,-17.53971975545137,35.76509693940609,5,S01
8500,-0.34466091846633296,-1.851427624563133,9.639908222418425,-31.81500089950089,-61.01923033092559,15.767627691370988,34.75026853323279,-18.897616637919036,36.0543118062164,5,S01
8520,-0.5061180702807401,-1.850966288716133,9.378435974134865,-41.23965750780653,-49.235895431032255,16.750327432867465,33.75836265095687,-15.167489656720456,37.24316611323488,5,S01
8540,-0.5531562781084136,-1.5631452115697744,9.691778432850226,-23.311280873703613,-34.57397208232998,21.75209796844256,31.68542767433546,-19.19846646674653,36.56334157485975,5,S01
8560,-0.19185275644741526,-1.2319853740376538,9.84977202724142,-9.25086613948148,-32.31585516902459,12.329824971591504,33.52136251029526,-19.47656007834791,37.919562504838844,5,S01
8580,0.08397941853189966,-1.1127018310431678,10.01426978512839,-6.0250406212535434,-7.979909465628052,18.809929688224692,32.44971464529664,-18.075438423013935,38.421771962623524,5,S01
8600,0.3248400442987134,-0.8984769851698076,9.919492543861406,2.8438508602431316,9.230456532675088,20.82593505700745,31.833169590646868,-16.831489684176614,40.55688336186914,5,S01
8620,0.24175605383123097,-0.5485365711109754,10.064582354571847,8.18902363006487,31.31309590803153,18.009672473033604,31.964562760461213,-21.19271760375435,41.63835476639564,5,S01
8640,0.8307273103313723,-0.7513678262079768,10.544389332588297,22.364718501882813,35.18518557003296,8.990516337423825,31.095543373218575,-20.487136177880668,40.382196539129104,5,S01
8660,0.7317870845341813,-0.2463944142070645,10.624294898704967,22.15618948916121,49.07629710856912,5.180701262388865,33.77541097044538,-22.222407832234172,40.09279621092289,5,S01
8680,0.8864780431685919,-0.06690541693601386,10.74417361567217,39.36025689174521,61.00598375488544,1.9491825131007743,32.7949554335968,-20.286791138812518,41.22454887109338,5,S01
8700,1.0350753978409784,0.10528584429130541,11.069378874168844,25.11352958856734,54.76314117845532,1.1627618860307631,30.276602359923647,-21.481848605525087,40.84739903053484,5,S01
8720,0.7182780749151474,-0.17996175803385178,11.147955363690482,26.65022609463057,57.03171046103568,-4.5807740773050245,31.172311766837137,-21.452727634701205,41.39684396829428,5,S01
8740,0.6597928077636026,0.021945281155796692,11.19816293250828,29.880803946136556,52.298587707297045,-7.12124770692744,31.167285766711622,-19.19519821847034,39.57637508088683,5,S01
8760,0.4418290602059949,0.060285197585073474,11.31387958519211,22.13628959630882,36.14415361011576,-12.109524183532537,30.527994638076336,-21.71203277580611,40.002164181537474,5,S01
8780,0.5649341296400007,0.1665042998957093,11.344922785845023,14.456385869941915,35.514248263003914,-16.061958249571965,31.013897704180163,-21.59366348906955,39.46569083538744,5,S01
8800,0.43257217837182405,-0.3235431107528135,11.326885873928568,8.258498111788207,23.929963445531666,-18.160205381506138,31.08029423250929,-23.284946812913795,37.67160240587674,5,S01
8820,0.3876520873106445,-0.23806502318992534,11.12403364315169,0.10066794714190763,16.75679276598078,-20.095812139639992,32.43236753975032,-23.298153006803744,38.53044879286918,5,S01
8840,0.20911962464952016,-0.39580630246229115,11.136972599615124,1.955876778226135,12.623332413956597,-15.728366257572064,30.434454318764974,-23.35112267497943,37.33163989089106,5,S01
8860,0.2866773817824667,-0.5713945540883736,11.183404780756032,-5.238318501912254,6.048707500072704,-17.005195774785324,31.77171219829557,-22.987157261272905,35.184622117040995,5,S01
8880,0.14115257117665636,-0.9520283791807926,10.76585919172182,1.2248865380015719,-2.046687813147247,-14.780188240812066,29.316858235566784,-24.27230338658142,35.57403080646709,5,S01
8900,0.18792175338798695,-0.9519978475366142,10.619818113277798,-6.967326332730582,-3.0914915928650366,-12.625012801817254,29.037201544868903,-24.053919900476522,32.89706919414512,5,S01
8920,0.22516562766590217,-1.2340665266975062,10.447427050362121,-8.71404946571854,-4.2195665865229,-13.347125709183224,32.151105639714224,-23.455196854498812,33.2328192551109,5,S01
8940,0.29076025336609423,-1.6623687472779454,10.247568966497084,-6.770994452218048,-9.993915912008703,-6.1223814494805,30.857427711371752,-26.10620061947368,35.17832490568833,5,S01
8960,-0.09030635454620975,-1.7678973305654098,10.106966387190555,-9.487274415957657,-14.075030745874363,-9.731383257792961,30.03298158926154,-25.32503016466146,32.998824729007616,5,S01
8980,-0.22487915162327352,-1.8627944447285556,9.810110316244202,-10.60997372222215,-20.618264745120335,3.2439987982372585,29.84961306975559,-25.181412267660534,33.13927397845296,5,S01
9000,-0.10423504082411669,-2.023725689537566,9.677469891441321,-23.71203633738499,-22.252019225150953,4.284130543169261,29.256187859231634,-22.82416327310072,32.639042927109486,5,S01
9020,-0.39381202867471654,-2.1347824545191534,9.530144141926638,-20.945750316814465,-40.155644331282936,7.444837921590301,29.460871015033856,-23.15006988839549,33.58162918815668,5,S01
9040,-0.3163880985665256,-2.106171972632338,9.462745798359427,-29.220582929729346,-43.12986753038695,10.852771850018259,29.036063904046856,-22.93553437807331,33.00910596463022,5,S01
9060,-0.496902300708599,-2.1384871045617877,9.385787763781707,-35.33107325182185,-53.67614300021729,0.9950607324620883,28.225929022408746,-22.617770068919604,34.23204308989125,5,S01
9080,-0.596603941355871,-2.1358341306599136,9.492068763485593,-39.54795934478555,-60.50020685250133,13.999841428543457,28.136514895695953,-24.309171986546893,36.108749815874575,5,S01
9100,-0.852086409819462,-2.131205218949331,9.349054852117852,-45.932357460347646,-53.776916255069295,18.493106677738055,26.709415007830085,-24.708498327043568,36.22248047319738,5,S01
9120,-0.5243287789569849,-1.8681632859602533,9.523585025355766,-32.63609676296541,-61.33694057426582,21.361566102295978,27.742020237345134,-23.503143856264725,35.796434533928974,5,S01
9140,-0.353509088874588,-1.6230527881995807,9.326176099499191,-26.866607202652833,-49.5218024414646,19.402495232078103,28.86963609442876,-24.175144625733388,35.278878388210444,5,S01
9160,-0.47719147418689056,-1.5477616301057127,9.616940991221275,-26.740439241596544,-34.427737068897954,16.04132298418786,26.251713026449004,-22.76665336789202,35.21535896854259,5,S01
9180,-0.06089968623091302,-1.335882837158493,9.962140866783956,-13.754203486998442,-23.98197414022032,15.227336924717873,26.866688230415118,-21.960405567666292,38.66696362603274,5,S01
9200,0.04461620957069042,-1.1131157976452752,9.897399124972509,-9.157979790766971,-0.6244350519866135,18.180574237210845,27.516281594391234,-21.524640111876344,40.34253487682745,5,S01
9220,0.4370380935113144,-1.029166219954154,10.16514877574609,9.433627056779553,18.364753724898264,14.520812581062053,24.583760984927096,-22.140579023092187,40.88135070530121,5,S01
9240,0.31623693927808105,-0.4850613079909748,10.298484493175962,19.80173691749811,29.188783082166733,2.319369897827642,26.723961116959902,-22.89877025128363,41.55914293834994,5,S01
9260,0.6092776737909747,-0.42631649608217326,10.639401844127153,22.771998076842703,36.97698269359965,14.826934235220957,25.09382529948788,-21.91176413031188,40.19327190346912,5,S01
9280,0.6925203694640831,-0.10023545076648385,10.651824867162315,24.96442439477264,53.38795804280472,2.3218794882794866,27.188132380428502,-21.576713099796233,42.08776959975195,5,S01
9300,0.8711487316313318,0.06985566869815552,11.014921188814409,32.16227477248257,57.3532053253356,-4.0799656727822775,26.058385999493424,-19.49795252144665,40.94248259018686,5,S01
9320,0.826913929548493,0.0986851057898904,10.987599594755045,29.916631926421896,58.799892245799086,0.425339051403275,25.25913513044855,-19.907210748012837,40.810338642344924,5,S01
9340,0.7409022327494551,0.01645408242055138,11.217853016795672,31.85317602944254,56.02856773192166,-4.306456275144405,25.719394096612874,-21.96410590361041,38.03675120222272,5,S01
9360,0.6364285618967287,0.12345681746270898,11.403720523456176,18.645581645004995,49.750021772764384,-4.608185781883212,24.78409954690284,-20.42815757256777,40.48083666692679,5,S01
9380,0.4163862385759688,-0.0704141890428138,11.380865587278794,19.699796029423357,36.3530252681837,-8.510393833574355,27.014501228756988,-21.577378688077125,40.71512546463909,5,S01
9400,0.41255693960222994,-0.024792891293481292,11.283598927041181,13.798677271145522,22.512568059641413,-13.958010943906023,25.45449282609578,-20.643982733517866,39.80820751196933,5,S01
9420,0.522629243403592,-0.2266604470014374,11.06947791401817,10.016559580369425,12.917247073175346,-12.757150142688632,26.287308133136875,-22.379394872558976,38.60250089272576,5,S01
9440,0.2070939869916231,-0.43887286858303665,11.183856398872015,4.806286501017909,18.0596996085241,-22.12290161832294,24.704012901652202,-19.34780851544504,37.89659134861612,5,S01
9460,0.17347816479087705,-0.5062088445025295,11.006244548358088,-7.742420157567711,8.990694436412367,-17.80407886357049,25.01037205755158,-19.30097708005826,37.50011362626175,5,S01
9480,0.21095488029539616,-0.7003318141363475,10.970268466422578,0.5761113485809677,5.189803664758374,-19.516992338267436,25.360832651664417,-18.022762895320007,35.312498705031814,5,S01
9500,0.30862379307510796,-1.1024457572454511,10.787711307968564,-2.8187958501294643,3.594842878209737,-19.273643494596115,25.2032358060658,-17.669580362542366,35.69870386070333,5,S01
9520,0.2292637020424171,-1.0959967311075285,10.558416849623248,-1.1573321731643604,-2.9651474278663192,-15.374079754663734,25.203392070395253,-18.509207701598726,34.285406847749584,5,S01
9540,-0.009180640322435499,-1.38625272263009,10.551356280778386,-6.525908552431041,1.4773202551093976,-11.02906360337722,24.72277507217119,-17.03337563483175,33.01174464159182,5,S01
9560,-0.11123437982780529,-1.622804879681114,10.133608656058675,-12.159950000940464,-7.879553760717183,-9.119591659229645,26.632730374233287,-16.48908450458323,33.52327387346981,5,S01
9580,-0.018721273773044902,-1.7873276128176918,9.915003775312709,-8.723420123930492,-17.83870293574706,-8.808439753139362,24.17542890834192,-16.10248549049337,34.22352964346644,5,S01
9600,-0.11527593206127046,-1.9471536289494404,9.819214537584738,-9.257332736085353,-21.46565924379788,-4.416301313852042,24.355577982126768,-15.95104116542917,34.245330710901655,5,S01
9620,-0.23115496538825045,-1.9683965226089701,9.742397406353717,-22.87970467508013,-26.998711653946625,2.263753921709944,25.136343952053302,-17.09359239481776,34.97153692337926,5,S01
9640,-0.442647823339962,-1.8408562175078786,9.630563715393244,-22.460153392219212,-40.9408671348278,7.923429467660075,25.16183219440598,-14.628807356264328,35.360171643763024,5,S01
9660,-0.5713466099046629,-1.941108345558763,9.41372577844305,-28.03317714490878,-46.91794901374776,8.327123076903725,25.299708308095145,-13.944967575415033,33.94798827317863,5,S01
9680,-0.5559504171667637,-1.9747103199983538,9.456128695875698,-35.38097672895192,-57.92863937558335,19.488024744596135,25.629386314676417,-15.730726286481726,33.2734478282348,5,S01
9700,-0.786906245256703,-2.1006187205116,9.491541499733769,-38.02826076662001,-55.67808754361622,13.975774497743615,24.96357302225275,-14.448461301397353,35.63288931437246,5,S01
9720,-0.6370619947183914,-1.9299366528407251,9.298589882299396,-39.08976304879378,-59.117028740808536,17.787693375169425,26.36631733919816,-14.991166762891801,35.708041480266914,5,S01
9740,-0.3270161714997075,-1.695690145414878,9.401631395812213,-38.587888700668046,-56.472673401386885,21.266867151970366,25.673177432947114,-12.572202001754828,36.92621677758916,5,S01
9760,-0.44000554193146957,-1.585804884825654,9.62777193935385,-28.348683023143796,-42.112729188754784,18.105180248665622,26.935644644346002,-13.283708078243393,37.477227203667766,5,S01
9780,-0.2404777327608769,-1.3026300391353156,9.707269390540521,-16.578928256691107,-32.451251652275154,22.649629729358924,26.13838769667621,-14.505240407587157,36.77815550545446,5,S01
9800,-0.16116882429951365,-1.2994384710906708,9.749441139326073,-13.137047705175721,-16.725632349817808,19.360035054987094,26.435034013811894,-12.77788013502561,39.06531975520059,5,S01
9820,0.15291236988803641,-1.194613473732534,10.012117074605834,-2.530167794852126,-1.913141555505433,17.704021918440336,26.123506811234453,-12.084626803788755,39.342812000349696,5,S01
9840,0.30424144945950593,-0.7267520249749579,10.285470292682724,11.031154635018346,19.046783889851216,12.820522054113766,27.807282888485915,-11.490815163280246,40.97843971462927,5,S01
9860,0.5686499616777538,-0.4294893993857228,10.435310147860122,10.42918623246868,27.812304911703013,9.482156001602883,25.510097074884477,-11.102739132965237,41.534033458171415,5,S01
9880,0.7454779758912581,-0.39452539910400447,10.503927128638761,21.3677317813342,47.91810142625712,8.658353105611555,26.96741553608444,-11.962436449042196,41.68723300468157,5,S01
9900,0.7122742615026254,-0.4873290023392248,10.59800970316191,28.38879354764573,55.042490233232584,8.730132055960867,27.82031938873517,-11.956974042567557,41.93346278528156,5,S01
9920,0.80399745059746,-0.011847484784739591,11.033541686758333,35.3658543327907,55.862997989778606,2.540677442014283,26.252239617112853,-9.981003667379866,41.3392731874324,5,S01
9940,0.7269943460734632,-0.07771703925377926,11.200206098125996,20.366988066972414,49.8813027428052,-9.567377282290206,28.247905519829562,-10.731883608151557,40.8817584318328,5,S01
9960,0.8294048973266284,-0.08762019016888507,11.3073267128544,24.90635043553587,56.98824391846774,-7.861057624142299,26.819707988441102,-11.663929851307172,41.94004319702046,5,S01
9980,0.8129303977364923,0.016773022408470714,11.33458161004191,22.174821228310307,41.52444477528938,-8.625940859864302,28.94900592575315,-10.341473748377929,39.157869352012575,5,S01
10000,0.469669781209218,0.024440293505849142,11.269326568947502,13.668369745206565,37.837256195273724,-16.663688641104734,26.843034215772292,-11.797428237291362,39.060601702156646,5,S01
10020,0.537428055201478,-0.2612142126693979,11.294266964986493,12.42903481225424,25.157406441871597,-23.65571583527967,30.02403194797407,-12.8318773510045,38.39556641064005,5,S01
10040,0.3745211768318695,-0.35354787876565164,11.468217898917786,9.396602422715489,19.368357662205145,-12.76582056506051,28.988098011210646,-12.34503525132906,39.41612114062519,5,S01
10060,-0.02324789385068024,-0.3089758609973122,11.246033748449328,-3.365321621099593,6.8283266126110655,-13.471301724203865,30.60104088962927,-9.817252818891653,36.50186262849339,5,S01
10080,-0.07727083754178854,-0.511442880053968,11.128103508056192,0.0377648075843533,6.970185122955185,-17.661939949098574,27.58474259935368,-13.454898157262628,37.47505092657561,5,S01
10100,0.12283016522039554,-0.8336164476104988,11.00273491742659,2.8080679420892958,-4.167834516242802,-17.191426094373494,29.269000107503885,-10.394340524769738,36.48578370518041,5,S01
10120,0.0758435539464904,-1.0252229072569534,10.614884489363417,-11.261471018448724,-4.087775525122678,-20.569801552412898,27.527049341119916,-11.64760147262679,36.14877056734799,5,S01
10140,0.08212759285630117,-1.225251771648745,10.332345393973858,-7.210826849072733,-3.797089207076639,-14.352659979125123,30.01004988150572,-9.177767866161215,34.11382813100731,5,S01
10160,-0.08973774699997614,-1.3636661399891876,10.31106603341873,-5.721381433269746,-8.47239505773206,-14.008898620971605,31.50134988616917,-13.396683040225014,33.724267651560666,5,S01
10180,0.013909402033922227,-1.6800379596181076,10.20259958831088,-1.7234579134250119,-12.505867765215845,-12.197112860047822,29.617797767938825,-10.778055689183585,33.98993369507561,5,S01
10200,-0.15803272419793488,-1.827473380865408,9.956518040159219,-14.164877720006213,-22.196028435376636,-10.591629064608302,30.90493530339117,-10.70709161318553,34.49111259096115,5,S01
10220,-0.22878922693137135,-1.9089490697588638,9.845159340689133,-20.869986613452433,-21.20966044594966,3.0780823608348604,30.900226472986688,-11.734778261916869,34.11839575364988,5,S01
10240,-0.32806851590113484,-2.139705569048211,9.50391943389898,-26.12418149525691,-25.92631656264795,6.200964349053151,31.76315239117216,-10.71170449919143,34.51136509747823,5,S01
10260,-0.3570574489637691,-2.171869376010895,9.592832877244616,-24.860032412101162,-33.698076305584046,11.132161782343674,30.759002219362614,-13.31819022969967,33.36483362863664,5,S01
10280,-0.5612084238894401,-2.0760127736430913,9.386211579419179,-26.035703834598866,-46.669976923683045,10.923519992209986,32.070068831670774,-13.597670862600413,33.62686589620708,5,S01
10300,-0.5311458390329868,-2.0306863248743294,9.405244129846402,-39.80083169620148,-60.784483169765565,18.692543849502098,32.537289555504174,-13.33274520282859,35.17415805905092,5,S01
10320,-0.5902349523929689,-1.9853362021597782,9.521755307676615,-34.05234630190431,-60.38349778992539,14.580115316567229,31.010441771342357,-12.689617031316839,35.522971995054405,5,S01
10340,-0.46206346997654246,-2.179311699075236,9.230246507127692,-36.826210940083996,-57.16697547944159,21.873813349436944,31.96081749544747,-13.92639235339028,37.861816948604165,5,S01
10360,-0.33575460110324973,-1.8362049489190888,9.60453778838362,-35.05222024940449,-48.74435681822711,18.121447490215015,32.95873282075412,-15.103498054092457,36.90597196225699,5,S01
10380,-0.32492011120923636,-1.6044070266743713,9.676283239110498,-24.954199405406538,-39.161234445432015,13.236644261858961,33.05521768009879,-13.595000871670596,38.57532801828988,5,S01
10400,-0.030340140561201767,-1.2206156108733077,9.73600108539331,-14.660778784412923,-30.463645647456897,13.437426753061171,33.08441257592695,-15.55654761059464,39.12077141060289,5,S01
10420,-0.12413631461950392,-1.2850716435033012,9.94858648504191,-12.410847135130972,-10.321775572917035,13.915635657197175,32.16367488462383,-14.8155944386597,39.68592743214769,5,S01
10440,0.2458759841759093,-1.0557839746655266,10.050662353849086,0.45577231297865506,9.909040260057049,22.95793816748999,32.96880534696501,-17.018590904116593,39.93262251378081,5,S01
10460,0.5485018125847501,-0.7024221064505731,10.239520124919208,18.26219886178306,22.560100877270347,17.866092341209296,30.90916688474553,-16.448455933718357,40.75837482822315,5,S01
10480,0.5418962995927659,-0.566479145715299,10.54747277498451,16.56261586086444,35.90708147973485,14.686620757357334,31.937456342260976,-16.409745118002313,39.12655188976004,5,S01
10500,0.6321651625457617,-0.2715081167109541,10.598362743019921,31.702611856331867,49.26220463972493,8.386901770629073,32.73645900061583,-17.18930359917825,41.43979029876092,5,S01
10520,0.964135727678089,-0.1535350797919155,10.852295498770616,26.30054389189526,50.993403833973034,1.711913303197437,33.122811724161245,-17.219672958507935,39.75011528906076,5,S01
10540,0.6746103399788743,0.14017294130780214,11.112749760861096,29.85410503080914,60.67072982180022,-0.3496332833819682,33.906760895091416,-18.5402856503865,42.57460992732615,5,S01
10560,0.6443817965426967,0.11006017593742656,11.064127366686188,25.358267392860025,60.61505859991382,-13.46223331018041,33.11396315060699,-16.817115271732362,42.256223980860575,5,S01
10580,0.8496733769706556,-0.02616635929957411,11.190136861223221,24.732986163015596,46.406031948921004,-2.551481913586778,32.36786316522417,-17.48620026306012,38.096788542029586,5,S01
10600,0.6224044878248325,-0.05690647723047467,11.416422503086817,16.925010883474908,43.46261886729317,-7.410930390720008,32.0150279296523,-17.52320856058101,38.9065274110957,5,S01
10620,0.32732360090223445,0.03395080713734945,11.259699188634189,14.315630206585112,30.367949378471504,-15.578601172740052,32.606380782022356,-19.457977702737146,39.89841814723658,5,S01
10640,0.5423091393187628,-0.16316524847718228,11.349329920544793,3.3455237774036224,32.41629527466871,-11.327926065322496,31.239429015634094,-19.968381749564283,38.95970794603961,5,S01
10660,0.4884234557482955,-0.38938810625861336,11.188528420611282,-1.8531109203037914,15.899164578099231,-24.24209225911445,32.163599105227696,-19.378224889684027,39.37246457377407,5,S01
10680,0.16056599660274182,-0.4296812399047986,10.972792942502913,1.9417034354076925,3.6069400690221167,-16.25178273502088,32.395566105868795,-19.74497773992755,38.345367297136534,5,S01
10700,0.2379406121360413,-0.6684967438472837,10.947232247090028,3.089747667692504,2.289179072830252,-19.54757679548787,32.22384722503776,-20.82373495676783,34.94469483803222,5,S01
10720,0.06999340267236401,-0.9208705261224654,10.797639657570306,2.9135271371485905,1.1752488388159807,-13.51747508885457,31.096705120898044,-21.637619519593613,34.591900252936625,5,S01
10740,0.028889093067041516,-1.1258458937832974,10.756350027272845,-3.1130749048017248,2.124184074786707,-16.835913168909965,31.71048756113917,-21.868022498584114,34.523295121456506,5,S01
10760,0.120546898061097,-1.443842206664892,10.58952856879,-6.240577611968371,0.5969315337014989,-26.320575907791103,32.49087592647114,-23.641219771968565,34.75509034870686,5,S01
10780,-0.19390088692325055,-1.6602385093147356,10.081495884584777,-5.830265882734379,-6.72449554332307,-11.459610712230365,30.106442966002614,-20.403212887655123,33.37447344918084,5,S01
10800,-0.146015730465795,-1.5581986525890092,10.161547375410949,-9.542730808115632,-13.716185623336619,-8.648368704000083,31.0201728504691,-22.78490142800832,34.670739900758036,5,S01
10820,-0.21429885287042474,-1.7784449633119859,9.818836908075175,-16.05650940902914,-22.38707511944798,-2.281912789606096,30.104327478696128,-22.805478916635003,31.93639727515379,5,S01
10840,-0.23882234264308186,-1.9923150034437234,9.689473461874034,-12.792951790688928,-29.112081354503214,0.7010932765604366,30.389602725821252,-20.809474306583876,34.6343845208601,5,S01
10860,-0.40883771125999757,-2.1296190002655915,9.55875387595702,-23.151545917188248,-42.5189394485586,8.416422887335337,30.209362257764454,-21.48126244207908,34.8748358695181,5,S01
10880,-0.450077999532862,-2.0322831351824164,9.531145147944585,-24.083194151210616,-44.42340462741534,6.051411411970277,32.058143711532786,-22.29877165066943,33.291897073629826,5,S01
10900,-0.4844632354940249,-2.1386126526015894,9.480135302036759,-31.1778238825285,-52.1861357549581,10.6054579875449,28.6490784935078,-22.63826996368545,35.96773262225763,5,S01
10920,-0.37916164759559756,-2.093547988381167,9.36838262771964,-36.63203071307973,-54.99083917737505,14.828088485928756,31.738009458280356,-22.46917824053918,33.93763146738998,5,S01
10940,-0.5425525812445949,-2.063461402453137,9.33435088158785,-41.055202871710314,-60.97639133018547,17.397386611182753,30.03172845064768,-24.094435511957183,34.685194142157016,5,S01
10960,-0.6607733633717306,-1.842142037969687,9.51228109613105,-32.89020081319423,-52.377148353939674,17.412393637470082,30.564946262202948,-22.97509591994433,36.33579193445285,5,S01
10980,-0.4636777583760501,-1.7373077559859456,9.48154878731719,-33.78705319364773,-45.4215281059221,20.346494315478388,30.1913070133397,-24.676357854825262,36.34739377082747,5,S01
11000,-0.3560231218389742,-1.7667270929404943,9.604020334368453,-23.623206104617548,-39.03465883586397,16.001591553523703,29.545734547200365,-22.6635387786905,37.49839581834774,5,S01
11020,-0.10225989123041279,-1.2638766492214568,9.773052588054583,-13.467332750000757,-18.941905726533776,23.802057296507627,28.69942171255231,-24.898614128874517,39.03044077062791,5,S01
11040,0.12880036711314743,-1.1603912894834305,9.974874756384326,-5.04828998925054,-3.491219343187433,17.07137950521154,30.308528308854378,-25.082312664044,38.90452232758477,5,S01
11060,0.1532309732127018,-0.8104462920572209,10.308433658721311,8.189802577940679,13.010713708094562,14.447183669089952,28.371166122071898,-21.906225419355252,40.900886887278666,5,S01
11080,0.4734549065653886,-0.6911259936625331,10.205876403259404,21.574568568550887,26.03331003759698,3.7222591038134323,27.035313695514063,-22.130572865615783,40.34840616388397,5,S01
11100,0.8148562718965567,-0.4089244276748222,10.693754611239326,19.30336384074806,44.25485765063247,8.385856833398492,27.482418936226455,-21.62076835295089,41.88700385075968,5,S01
11120,0.7680534692438762,-0.3079651411508817,10.900411062973374,33.02364793046084,49.61552567096007,0.014830773422667476,27.568683327930312,-22.72910735904553,39.73827754059255,5,S01
11140,0.7266039631789102,-0.21397946334512963,10.944259427200926,33.94955024838975,56.879404301143865,-2.00279871483935,27.25366660144738,-23.30964298702837,39.791945291212976,5,S01
11160,0.7899671062024836,-0.1306711234134479,10.870433300706276,32.17580882257452,59.89752211694341,-3.0815314915120937,27.76200455202047,-24.49901412286165,41.58126438714444,5,S01
11180,0.5878967659879297,-0.03891935061347636,11.224568136847704,24.5357459060113,55.446467963977035,-5.90907161441043,26.4366446178301,-24.36830729464964,40.23654889407883,5,S01
11200,0.8047666357292945,-0.023260799318271477,11.377102625866712,27.439645882385978,44.36014904986527,-11.317607286300477,26.850043138057373,-25.811841902494095,39.88683009420484,5,S01
11220,0.6587948223770727,0.0498415318227616,11.253821647795036,17.533282716584143,38.103573663817556,-17.33772780093789,26.561778974234542,-24.55347264877547,41.52557676364681,5,S01
11240,0.6274177697911051,-0.060050546322335106,11.433786700743255,7.065222524481864,27.88407000868914,-23.00537779719521,25.909253851003474,-22.83686707918533,38.57877594526379,5,S01
11260,0.45030210490030165,-0.03206931097909254,11.205711542362982,8.808202709365233,26.052179938720418,-20.07564805621214,26.341561465132532,-22.62828575345602,38.80470489437276,5,S01
11280,0.35008048332269637,-0.2556288891694156,11.103772875745824,1.62560669920249,12.450432533854748,-17.781469664041794,27.095352272574495,-24.126778220082826,37.29766009187105,5,S01
11300,0.3196492865529903,-0.3554366342051122,11.2619130210284,1.0361474554274492,8.819266257715029,-17.584162155071013,25.95012556462285,-22.101665860838246,37.797987152148586,5,S01
11320,0.19664709374306855,-0.7548642741723255,10.976170023466917,-3.5258248437186683,-2.677118837608951,-18.126361685343127,27.59620998335723,-22.33494126359043,34.846924114565624,5,S01
11340,0.16828066947230286,-0.8753334434640125,10.774345706372985,0.1653858048410699,-7.635041156563503,-11.225847126047457,25.356528448079395,-21.84859130269026,32.925899442940896,5,S01
11360,0.16795969338435363,-1.2742921787527313,10.53295234362243,-3.2577616118363797,-1.531739967837995,-10.144325633395514,25.010474117442484,-22.834310468436392,34.72602981476213,5,S01
11380,-0.18231249105200306,-1.4242470024446126,10.203754797205432,-4.694902345496596,-1.494957684388183,-9.098388273970498,25.129245212675414,-19.84213048637637,34.35808180828788,5,S01
11400,-0.0444340800295083,-1.4866257894614758,10.127930628629029,-5.556239499967113,-15.006266228164147,-7.692891483991094,26.133880600762378,-21.725610906816193,34.872270086096236,5,S01
11420,-0.17705890893923357,-1.8404964518355085,9.918115161480445,-13.52472374181782,-11.342004704996919,-4.3769253387849005,25.125341610021056,-18.426663640133093,34.797177213986394,5,S01
11440,-0.25362107298681447,-1.9380201146073084,9.635163525214214,-16.99570121258004,-25.87173232480561,-3.438379268608846,23.537818768400477,-19.94696947817577,32.82813043927978,5,S01
11460,-0.42953467647638466,-1.969598750177894,9.623006862818796,-21.38260794237866,-27.096361209306135,-0.4752768445706642,25.829296108462493,-19.93816173786144,34.299545504094176,5,S01
11480,-0.4956305359967268,-2.1484708496507223,9.599638808806677,-25.7603695613213,-42.55778054246993,6.661128038231593,24.636681308961563,-20.09882795336418,33.274461577444754,5,S01
11500,-0.3924252577563655,-2.0741033166717426,9.45718117912331,-36.607918814573196,-39.474729820854854,8.959522494984693,24.194104368940124,-19.026620225930376,33.43498019921203,5,S01
11520,-0.5327267920647815,-1.9789609188676174,9.266517771312369,-35.57038332098547,-49.29341598032579,15.269170715787716,24.006166282004124,-19.11017339329887,33.5994611599137,5,S01
11540,-0.5083603787877804,-2.1301256513616953,9.437057757097467,-37.62142906797827,-62.18152598286624,13.301222175700344,26.903202321035103,-17.278742758814595,33.507930643992545,5,S01
11560,-0.4627611122683625,-1.7586502905873982,9.425866978573122,-33.944458238390084,-59.466454966524495,11.008963912346745,24.546863122928833,-16.586804080988422,36.87620144638019,5,S01
11580,-0.5162732497251905,-1.9217318828077157,9.399833653586475,-35.93543997135612,-52.251264091301884,20.36875626590728,25.654431941742182,-16.220722486163403,37.69817543160472,5,S01
11600,-0.3687772194311425,-1.6915662079977603,9.564361755949452,-34.427469526004124,-42.07180475374086,21.161324914828032,25.63587680334677,-16.180316946712175,36.32001225773521,5,S01
11620,-0.12454536721015524,-1.517046310406514,9.665524537124343,-31.1925328883878,-30.734892598283597,19.6280281118877,25.291462232785236,-15.393889982613702,37.36690781996569,5,S01
11640,-0.118141381371692,-1.1079313565353286,9.807276715615972,-10.406503905000722,-19.238188138238996,18.241323250867488,24.239175189404083,-16.55808498209623,41.847894989182116,5,S01
11660,-0.007883649973593074,-1.0458456051544869,9.964373432804146,1.6483007262765712,1.9994887579729876,20.867994878310363,25.11533257520651,-14.511837044171713,40.07179596659379,5,S01
11680,0.20855729499329195,-0.8205092326477823,10.074512237244845,7.463135498789504,15.880904727157617,16.497389610281946,25.380421640871848,-15.754559351882051,40.08050417722987,5,S01
11700,0.4432609600947529,-0.5372491106729282,10.49651544649861,19.323515481241294,38.15209750606316,9.802862214031537,25.845877058010288,-14.949212790551698,38.888247005575614,5,S01
11720,0.7506648019249641,-0.4328021143195601,10.618982375185105,23.404703687075255,43.62175680755141,8.249254877839322,24.714955687587185,-14.44085449400399,41.21708539248515,5,S01
11740,0.7602064078101413,-0.17100403610683418,10.922035069470047,23.493225781595388,55.02253530674776,1.6043922229282401,24.204359481558544,-13.124958122290064,42.91229289305964,5,S01
11760,0.8493296969444913,-0.24791040599971964,11.070251908591814,37.63217495025113,57.41375685486702,-2.0855841577664256,27.546360222100116,-14.334783795190626,39.68600814715535,5,S01
11780,0.9293195306608779,-0.006546086375008461,11.074756484345048,29.8772186104196,55.06476979107691,-2.2116488072106555,25.502547348310713,-12.244483489486274,41.17302747845305,5,S01
11800,0.7038625179828276,0.10766718366294162,11.251727953584917,20.910764536697638,46.42019283475528,-8.34716358867733,25.47091115037331,-12.653835725034375,39.32698259996077,5,S01
11820,0.7815972880333589,-0.004130351956287415,11.336745276244763,23.254583226322726,47.266957361475875,-10.50974464633685,27.977755643407303,-12.962858016288987,39.64404171405861,5,S01
11840,0.5553975711457604,-0.21558185491138862,11.381092561467685,17.258825999588623,36.921147196775124,-13.124918311963974,26.628361476894575,-11.677773417410815,40.16987590331861,5,S01
11860,0.47734167639554637,-0.1014392171840559,11.279200710664593,6.147883875733554,29.898061699347085,-15.759873274378792,25.81434835428678,-12.792460356262627,38.1740927380246,5,S01
11880,0.26015891772618843,-0.25536203011611414,11.277471927858134,2.9526661583513,12.325640842483466,-16.11651053739802,23.645010729522205,-12.10561596628547,38.18506324068535,5,S01
11900,0.15498875966128728,-0.43163553555374695,11.117079697521325,-0.978593015018252,8.039267055160066,-16.802365670128044,26.917530918649394,-13.511601027410265,38.014139306185704,5,S01
11920,0.3171541363857163,-0.7144145335274137,10.98002919657428,-5.663231411254918,3.6163420103896504,-15.473184238273687,27.094631916010787,-11.991405349130405,37.40212208085327,5,S01
11940,0.2074330030864796,-0.8440443428513298,10.81298227409663,-4.3526097709433715,2.8111133010588363,-16.265175138633815,29.32513257713952,-12.235733705234743,36.559927773753856,5,S01
11960,0.006111546072203516,-0.8748369529040485,10.491709122313722,-3.6154620253466496,-4.198511800128422,-17.129897473990905,27.412376492905576,-10.251070995315224,34.19530760536978,5,S01
11980,0.10581311652175351,-1.2797260055463475,10.492620778821687,-7.006013787552936,-1.5821956525232128,-16.65902038899727,27.764551477905442,-9.85139066876628,33.98248801415283,5,S01
12000,0.05667322046571274,-1.2953881700410994,10.344202003252551,-0.9204752938062377,-18.517437030552674,-12.857127364978346,26.48805309630781,-11.06501387518884,35.13852185844294,5,S01
12020,0.0286653872785307,-1.711923307687385,10.064621859093434,-15.622764210146205,-9.226800687074174,-13.495488555797712,27.208151258277102,-10.872540880789519,33.15210437693651,5,S01
12040,-0.02794728607729971,-1.717901964922197,9.975874846446013,-10.895089219382122,-15.865092994494182,-5.618887038997251,28.810779660132013,-11.693527007509925,33.53024362135368,5,S01
12060,-0.31899853290333713,-1.8758574145140108,9.715799892406915,-14.456174301938091,-29.35804166859815,-7.18448809676914,27.69491615559951,-11.332305767917557,33.533591735506945,5,S01
12080,-0.23212630277001225,-2.0321057484334677,9.536375820022943,-15.008130179952424,-34.82212781519302,-0.6499951791281827,27.505379501891092,-12.385741389637136,32.916292110573416,5,S01
12100,-0.583092793558655,-2.0153786708128325,9.5913592556707,-29.570965458803176,-41.571813748057856,3.5561482467141676,28.54780833324773,-10.608594051739846,35.25117878122724,5,S01
12120,-0.5426516721763707,-2.276314485792405,9.494701621167984,-32.82453667720471,-48.43965474522417,6.38885363040958,28.829862842981917,-10.897393982826745,34.97663643707638,5,S01
12140,-0.5970050331165492,-2.0187770995468375,9.40558241183271,-38.57696566929506,-54.14594789308978,11.575604529600207,30.77264661519256,-10.882384159688602,35.65535328343494,5,S01
12160,-0.6380652670559459,-2.131398309572603,9.421147049452346,-47.579610870915566,-58.5116821029531,13.339742975487534,30.49777574244045,-12.177936376437472,36.7918000445549,5,S01
12180,-0.5238667681350823,-1.897750610314215,9.59991509008589,-39.03246614829367,-60.72932113646215,19.34186201417557,28.782890838654044,-11.021065102888432,35.84310071382049,5,S01
12200,-0.618582211720985,-1.62842386920767,9.412548056356442,-37.55515503352407,-50.530220832533224,18.11972077860386,31.592983456078343,-11.548520415895695,38.03429982824626,5,S01
12220,-0.3708860460586054,-1.621848293354644,9.547049901976946,-28.330946663558727,-39.624838354492994,13.701737001248485,30.235197452880527,-10.259870623511166,39.09580637583945,5,S01
12240,-0.25359487263231095,-1.417735615550478,9.705884351411093,-23.974239653618735,-25.51448452230049,13.23921096177141,31.735785421436464,-10.751808916476255,37.91029661983905,5,S01
12260,-0.0067631945333919,-0.9841343986187243,10.004484911265848,-7.1068183113085155,-13.80177561715682,20.601737026687967,30.590639583200876,-11.28679442514873,37.604829466838325,5,S01
12280,-0.07137717712034655,-0.8484950708436023,10.104229774662484,2.6188408670926844,3.0617408636291286,15.32315949854997,31.233168607964565,-13.55940857271898,39.992612206152636,5,S01
12300,0.28865399860917995,-0.6908888819318297,10.179719128088434,10.730373129472124,30.376573948750394,16.924735857834474,31.916912399162342,-12.272673798658921,39.409458641461576,5,S01
12320,0.6087642658431832,-0.33623931080757175,10.283247708438525,19.451209112963593,41.80621622330999,7.576110960553033,32.54736761165633,-12.423464057867093,39.453801267442465,5,S01
12340,0.6719794445113878,-0.30343408397622956,10.672874363532568,28.428902538652817,55.45103004426125,10.985680727005759,32.56609916298507,-13.038378989293788,40.812683490805654,5,S01
12360,0.7002089644387332,-0.22602392089634535,11.107560417770518,28.75674174253857,48.00392512567444,-0.859052621479489,31.957469320979182,-13.4323872017531,39.95283650947425,5,S01
12380,0.6747893252870115,-0.10062344137699952,10.972517295923202,29.43776250971285,51.413913602060795,-3.8155942274990546,31.77989791020938,-13.046290693366977,40.79735633410167,5,S01
12400,0.8153171743604538,0.1799314049129778,11.111296267591765,27.69530683441834,53.8434421864386,1.233736817778159,34.05059668281561,-15.311758203416401,39.65236681697108,5,S01
12420,0.7271730437387254,0.07544828274990259,11.25382400581836,28.677959323858143,46.925330525423156,-9.157630490694599,32.08926693882659,-14.06807454372588,41.33161061054798,5,S01
12440,0.7475681450476013,0.10394267232928153,11.208598513664597,20.493162913314794,45.01264931901763,-7.88727922623656,31.800725934680212,-14.131976474613792,38.74445911281367,5,S01
12460,0.5949580007568233,-0.09966384388176722,11.261992544845532,7.546049948659854,30.63659526045262,-9.173418326606859,32.387311648477024,-15.327167369850631,40.89712683207622,5,S01
12480,0.4051362834898362,-0.026222365365150622,11.219060258413126,10.503968475656979,20.098453847144437,-15.698141756018037,32.10757181707497,-16.271359978996596,39.747660300835086,5,S01
12500,0.16905998183953252,-0.47931499154772866,11.105867960232555,-0.22613358648141535,15.966630290268675,-15.084681555348208,32.106099879795416,-15.109569694298004,37.7626641844279,5,S01
12520,0.42586061651398044,-0.402113745798981,11.29257748988053,-3.126027623700361,13.024633897956281,-15.472792589440525,31.794663269924254,-15.75362599193291,37.75191431649612,5,S01
12540,0.27690164550531055,-0.5238251201120379,11.021377686142477,-3.529490742862926,3.7362668857798766,-13.484940150826379,32.84928977939555,-18.449561230714085,36.69984508720055,5,S01
12560,-0.0934299566462845,-0.898151409077653,10.783921251517217,-6.426043051248903,0.8399520956003543,-22.569978571485528,34.03228132623916,-15.35071503807391,37.54816834909869,5,S01
12580,0.04523992230967504,-1.2613495584690584,10.53484134890814,-7.306052185346478,-7.5041023915169065,-16.906761307739384,32.469291366632234,-16.09553769737589,35.66561607382136,5,S01
12600,0.17601774623404862,-1.0705500270152937,10.183019615906911,-5.803926701021429,-1.5768595581118625,-14.434494299430629,32.73637688492438,-18.10030340283481,35.691617645873066,5,S01
12620,0.012336532152013566,-1.6859128788086555,10.183359043009494,-3.7608668180016047,-9.753937259498423,-12.728013686661514,30.968080811557957,-18.64885032238574,32.140841598614045,5,S01
12640,0.029594066560096152,-1.6998712431689964,9.86718994287515,-9.177054742669672,-10.659273693856916,-9.880845864463527,31.217861285362016,-17.78295163278697,32.57953679874538,5,S01
12660,-0.19045649840188458,-1.8892056154289643,9.784621448191231,-4.252511337344404,-19.476190130516606,-0.3208150450139372,31.87562614334446,-19.60536775437088,33.26853991992256,5,S01
12680,-0.16123663344802444,-2.120108337048788,9.743903180700896,-17.13468252053973,-26.14446284249416,-1.0946327059300525,32.88907820239888,-20.606491090861898,33.430365273886025,5,S01
12700,-0.12827480130444147,-2.0661145082265544,9.516944754836008,-19.590689358886223,-33.276971655047035,10.81096953166927,33.793993583924866,-18.77055728161673,34.83465718080549,5,S01
12720,-0.3626024350413172,-2.3015660056817135,9.541518461289261,-27.392634827976877,-47.701105443371176,8.068644776770576,33.05111255591312,-22.21039645153287,33.91296082411205,5,S01
12740,-0.6040145175807365,-2.2062553422509428,9.552667224519164,-36.29894970813451,-55.886214843586295,5.9428650945779635,32.9898195596686,-21.908683846563097,33.46620981089778,5,S01
12760,-0.6003907692140166,-2.046715888166227,9.338907887039282,-39.59213462966638,-53.34953281437275,11.048553151966308,32.222456915935695,-19.298364821815966,33.76777920678277,5,S01
12780,-0.6008097794701395,-2.1158007901452818,9.367850793414389,-36.89041226760597,-58.449115148281955,20.96915805457199,30.851999647488555,-21.678937860931214,36.592918030098936,5,S01
12800,-0.7221598896052862,-2.0404575281295556,9.497646377455943,-40.23760362317676,-51.281540946701504,13.887417818233702,31.108548154274835,-20.416142216626426,35.79356649872186,5,S01
12820,-0.6442622405611421,-1.6349000066906159,9.637438228298397,-31.414963895061284,-42.97152988264824,16.7663496275815,29.991918212348732,-22.928007761233264,35.836846050651545,5,S01
12840,-0.2585410466682102,-1.6303066135796453,9.648939589743593,-26.670996345614846,-36.34143928184583,14.502709797577436,31.55547127638239,-21.881694823383395,36.8116146035457,5,S01
12860,-0.09382088848722525,-1.2931822698565678,9.71974841323194,-16.53019464974883,-21.497727368468688,16.04550862609494,31.253178324344443,-23.63198992021979,37.726805626601504,5,S01
12880,0.31539585677952703,-1.123034987250592,9.727653917067702,-7.497338482962163,0.5539848331369088,23.60803271656679,31.38163303489527,-23.77756112747563,38.83989498531953,5,S01
12900,0.1892338286651457,-0.8816022886259822,10.039257033145555,5.974518370733013,13.567147677251985,16.097613572920242,29.556560277754887,-22.86378425807117,38.11944520190343,5,S01
12920,0.3513498022540972,-0.5215765664165315,10.320182208531376,15.021436109385036,27.738107979612064,12.68090479393814,30.10887261895411,-23.572158606635075,40.1463129370947,5,S01
12940,0.5665827442945921,-0.4904472303422325,10.606918250425025,15.551848422988922,38.90000516480039,14.56057490387773,31.400659155637673,-23.465775544304503,40.83532148876568,5,S01
12960,0.8339200536559109,-0.26652102995353544,10.746016129483579,25.980718609222574,53.17450657322735,7.44285998651824,29.83934932587275,-22.76233299378444,40.492719137427954,5,S01
12980,0.8331588933157645,-0.10854979863051957,10.863725460551523,28.83394158378835,52.649442186108374,-0.3732695426749101,30.970782950980222,-24.110945894311666,40.43617217019357,5,S01
13000,1.0877047390078283,-0.30114468443046294,11.02029659962044,33.271319916945494,54.204622546754024,7.503338159230637,29.783032937478165,-23.995757239307896,39.57530622735934,5,S01
13020,0.7732246175713032,0.042656006279413766,11.125134402056192,30.45979625004706,51.25019476155222,-4.268128783422645,28.613034240253455,-22.740223538419855,40.64972853822159,5,S01
13040,0.8416524104875978,-0.08440038408893133,11.482554725132308,15.813157278562986,47.37360628538501,-6.887825540705326,30.21192536863034,-22.272317671501927,40.99113819412943,5,S01
13060,0.7051322798894578,-0.2996637040093446,11.434121262433047,20.707464903609793,34.711275959546775,-8.813850045757997,31.048479237160002,-22.30397850692593,39.23101773025719,5,S01
13080,0.5634140853860407,-0.017063528666740012,11.427775963037908,7.737271819544133,27.2255369647705,-8.600098312180085,28.065075286698747,-25.358388705229487,36.71645905219751,5,S01
13100,0.3948574328144714,-0.2226519968004502,11.171474190694424,0.3288428147093443,13.334846134394168,-19.268929560895767,28.87732909920719,-22.560475778806165,39.13540466211794,5,S01
