timestamp,ax,ay,az,gx,gy,gz,mx,my,mz,label,subject_id
0,-0.006979096054692221,0.4146920034342919,9.603215999743847,2.1805231493622563,11.361562175967745,9.589082117020894,16.459476728995813,16.053697346439296,7.090779215596499,2,S01
20,0.12375330863078225,0.5393662252635434,9.992105626397167,4.989304165337256,14.784534573594234,11.173178822408799,14.181044760467024,16.01249421672144,4.850395576951426,2,S01
40,0.1984476424652564,0.9239260565756938,10.255307533236072,6.57075635266811,15.147000353213848,8.059282798183133,17.023054800255668,17.451945412091717,5.268057120665984,2,S01
60,0.3353034088194017,0.9802875296100746,10.369169436556385,10.555966797171381,21.946663537039463,9.417647903912894,19.599522227031688,18.193314534699027,7.28079955981993,2,S01
80,0.48943385548928986,1.3159714908792919,10.370108659491297,12.690585097232876,20.31942098160662,6.329477827805971,19.25617636432239,15.795865182249159,4.758115178937191,2,S01
100,0.42140722092809957,1.074003463719416,10.167854024434705,11.824514005373016,19.78048894930199,3.743120289277371,22.477382676395347,14.895924308871406,6.3176641108967555,2,S01
120,0.44189402166326514,1.1422768507168204,10.003220740900895,10.9938135287721,18.408431163248082,2.6164412025538812,21.594369408171392,14.940759904226821,6.292963164802397,2,S01
140,0.45701767357754514,1.2106753362620355,9.518120477432163,14.580424248383423,13.642259446991712,1.6377947080393849,24.763497862930237,16.537111482376375,7.495492649162237,2,S01
160,0.5278000809419015,0.9836695406124282,9.220685115100215,18.24106056476928,16.029961209472525,-2.4247105795038726,26.23785338007092,14.462047140470633,7.410439294553309,2,S01
180,0.5004536783076052,0.8700729903181474,8.886219257555217,15.217697564621513,8.823331473952447,-2.0793198657752754,26.061139161293994,13.767422355772219,8.368319928568425,2,S01
200,0.381422755511554,0.6761006597551062,8.732344433502451,8.407502562662415,6.270548367883631,-5.898624703995548,25.454260144674226,11.069053478298848,8.669134569929316,2,S01
220,0.3241890370014658,0.4041993572687297,8.808665191058685,7.470019272849628,0.814802037319502,-7.571433863370449,26.476012474735356,11.737604160997984,8.193404121795112,2,S01
240,0.18335679145608352,0.3372910098821594,9.125329755306227,6.307666456330335,-0.9719145345654074,-8.533142655465463,28.436897707706844,11.026537665514818,8.35598864574508,2,S01
260,0.16966676206729814,-0.1237791008152815,9.28822959667771,5.354657647346266,-7.6796215249571045,-10.845653840896789,29.38724564599359,9.10307058875998,10.742324690849808,2,S01
280,0.012124096020314631,-0.3811219739260184,9.649083988436912,0.939167857219342,-12.871608565840964,-5.856625749373128,29.241037727556147,9.171371902174524,10.583033418456912,2,S01
300,-0.05826456867300982,-0.5805468873292029,10.004010177834987,-3.6319085368990525,-18.0657034157059,-8.953688014495892,32.438961415450215,8.750308318531806,10.273594215300745,2,S01
320,-0.227809923215672,-0.9697236271602409,10.186504570011707,-3.9345773815096963,-18.70688385736388,-12.054638078194927,32.04521260829231,7.343887449854275,10.960997690421355,2,S01
340,-0.3011229651680588,-1.0480851581696373,10.368973062082045,-10.53656620355021,-19.326816618933933,-7.106299517013389,32.710133580048506,3.3856417040674347,10.857661072962612,2,S01
360,-0.38831768456357113,-1.1692994583377132,10.311405399216817,-13.537650095971907,-21.603837175176196,-5.712626758320455,32.91169581617573,5.054707958368588,11.34820395289454,2,S01
380,-0.34887337459408385,-1.206208157686814,10.175695579266645,-16.37486053183804,-17.331605928275135,-2.9577991460216753,34.354693845791196,2.4453991413004044,10.807064114641136,2,S01
400,-0.5005514783038648,-1.1143604997796968,9.928412539376229,-15.411078013124218,-16.853658539258753,-0.7601406251495408,33.13242554064935,0.170744115968332,12.086984132223357,2,S01
420,-0.43947887297158184,-1.0261690903816985,9.518216538054771,-17.1421567951431,-14.207135190936025,-2.338084872521437,36.4699928712263,-2.406050621088103,11.810249078317641,2,S01
440,-0.4420769965389346,-0.9576132699886241,9.198055167882275,-12.765550977620526,-11.90470303624019,2.076365032707001,33.37615868419492,-4.595468215802369,13.266901617803844,2,S01
460,-0.4171432273721832,-1.0490959988312265,9.050167551573445,-13.208941233652826,-6.558343108074846,7.333773823950766,34.99760074889931,-5.563986098315817,13.4316615253136,2,S01
480,-0.3573261946481792,-0.5932778653750607,9.01565452502168,-14.552653255016123,-3.8335359006823073,6.911150817197409,35.75512164795681,-6.292815274862179,12.648267874084398,2,S01
500,-0.286798479172253,-0.4565545429557563,8.933763140685432,-7.655131349558955,-0.9480839214152236,11.903079795204905,35.75054964236853,-5.974591865457792,12.673437872243655,2,S01
520,-0.30035242662292455,-0.20421602953577067,8.993671104596634,-1.467119294863834,0.07185995134212853,9.230443924010169,36.28367077182329,-9.254644913522258,13.703803174196569,2,S01
540,-0.139557886529725,0.16263663098105874,9.315695632007204,-4.975010604196837,10.76094135854951,10.470359683619407,34.928391603676516,-11.276317994189762,13.16424045952495,2,S01
560,-0.02575450412057181,0.3627365467629996,9.74799429982347,0.6516815399672438,12.297472803050637,8.339179901144373,35.39523865787616,-14.135933712597335,13.928063575088172,2,S01
580,0.19181391038655882,0.7285826705424603,9.906019928935242,2.7254572474544876,15.563585146064371,11.398065713428537,35.40527524199121,-14.282975320498524,13.488690576128205,2,S01
600,0.24541327837772978,0.9622687251165555,10.331269773610126,9.965732251202688,19.91803949481101,6.913903475177318,34.62626809550781,-15.894790616748766,15.289035743706796,2,S01
620,0.3143979062934703,0.9425418859072909,10.356034974056458,9.579857520396638,18.86676039943011,9.325646493256311,32.48980391125266,-18.36266369152487,14.33345089112588,2,S01
640,0.30392195859456506,1.226249299884955,10.343036433633312,11.855949374073905,18.23331271663723,4.862155791942275,32.875249923876595,-19.593389836765816,14.437711486242097,2,S01
660,0.3968599820690479,1.2647568360188037,10.20602097905106,13.621997205859074,16.393918024891803,1.6289017348612949,34.24914366771096,-19.83751137080382,14.821331430506538,2,S01
680,0.5060476718948665,1.1150941246967638,9.954306120909418,18.4591565130754,21.27564297015563,2.5568310173073447,32.421755421286576,-20.396986013224872,14.25702814487491,2,S01
700,0.4448765964550299,1.1387564992650452,9.504850782247008,18.572600132313205,18.283470837491944,-0.989424426966095,29.7687859693186,-23.95110853154688,14.578897750592954,2,S01
720,0.5505982777960712,0.9418296384836646,9.047390433970289,14.717141691197073,12.822806786563271,-3.093469022015152,30.819914958730493,-22.747727109538083,13.706296452478979,2,S01
740,0.39695500033024256,0.9545202544844494,8.894538441756994,16.814947732060602,8.392366101853368,-3.8369623123035717,30.384676186725354,-24.856117248402363,15.79057155460072,2,S01
760,0.348024521041075,0.6207564214269959,8.740394727534174,10.995132019240033,5.151615470255644,-5.496546512690169,29.149717725306644,-26.232532800228718,15.380729545809503,2,S01
780,0.28554798248070307,0.4444127345161141,8.909468832858126,10.616422222585044,-3.822919033693963,-7.8022271291546055,28.744533045304138,-28.781090812039213,13.551705976446957,2,S01
800,0.11020807306305629,0.17851513483475537,9.084378247717824,2.5124922146803095,-2.948916155469792,-11.971453917442847,26.126077637326514,-28.177032725023835,15.265419143137915,2,S01
820,0.08222772621708954,-0.1886018776382859,9.357208537012703,0.48465281432441465,-9.438854578351743,-8.79509805183545,24.450417668752298,-27.85015098372754,15.064723048513757,2,S01
840,-0.0844239107304767,-0.43866644273258093,9.670148451460118,-6.551524075769316,-11.217162545891094,-10.018265829640955,23.984980369398457,-29.02159081316621,13.764747631195394,2,S01
860,-0.12041109343908583,-0.7106727220966457,10.217224951942887,-3.721689978512677,-17.335944972331035,-11.10063703229898,23.60750069494137,-30.690963332346094,15.674127398425387,2,S01
880,-0.2371938227129593,-1.0352453934741104,10.314918817150344,-6.742094217663198,-18.99538260544316,-8.48026547341347,22.460044717165484,-31.64788540532447,16.14361420729995,2,S01
900,-0.24137437118619634,-1.1307131079139074,10.373451044510658,-7.713614418245664,-19.388352757971916,-6.559172181480401,21.02927284390457,-30.403222080209993,16.230168846698287,2,S01
920,-0.3164157700029236,-1.1398615176444729,10.250583833909786,-13.540855099382163,-21.50384544865581,-3.847819667668665,22.718441056278706,-30.93565314072984,13.71827735980556,2,S01
940,-0.4636497765561947,-1.1855005963031424,10.148916257517852,-15.9073921442939,-18.720987675924405,-3.1591453451856712,17.32747853098737,-30.89331618854401,12.834743051738393,2,S01
960,-0.4838098318622579,-1.2010089642044706,9.785734370447463,-15.462723700836849,-16.974790774938306,-0.5952154949717897,18.586262130657513,-31.464784850646712,13.848382064863655,2,S01
980,-0.43214369193584357,-1.2417993629137523,9.423444760382571,-13.125223071967707,-15.177994760376036,-0.6197219302021524,16.336874389207242,-33.522002924444365,15.846609410570938,2,S01
1000,-0.42752123289296373,-0.9809997802738457,9.183744349647409,-12.276519003664976,-10.878782224489632,5.177381146684163,15.14985120922257,-32.545454013484246,14.301908152962488,2,S01
1020,-0.40114016264562,-0.8493671583971141,8.936741137190726,-12.502658591467974,-7.482014189961225,7.377393674499272,14.315290149545268,-33.60472076562595,14.344283121804118,2,S01
1040,-0.32913055026589677,-0.6591859417496706,8.848372616512181,-10.13727777135182,-5.581893018804854,7.579478630061444,13.075396019937598,-33.13743659740421,14.390847716999717,2,S01
1060,-0.272125439384685,-0.35359236295586904,8.766662155391716,-10.363476809239629,3.0967295800305656,10.328753213415656,11.422604967320146,-33.78939663373498,13.425716886450413,2,S01
1080,-0.1951465568027916,-0.27213855106768636,9.204621708143733,-3.7323118862991276,6.379407244972718,9.499108874199468,11.232194144700204,-31.945795110705674,13.187492297340459,2,S01
1100,-0.024971087408938795,0.21811600812001333,9.347404225385135,-2.7405638857070906,8.12288405302889,11.13850232409933,7.775722868167637,-31.84335635732641,15.819187239112296,2,S01
1120,0.047082133133969695,0.5694447076846918,9.698781042549765,0.6308595030131028,14.350481221135762,10.380990397438657,6.233280484523356,-31.54775877947854,13.669615687788875,2,S01
1140,0.19788605329101855,0.7444920199909164,10.148097086580623,4.818139383243719,12.729271937858773,6.964567668411647,7.88319689927655,-30.87411045522079,13.541566017716498,2,S01
1160,0.2601446478111061,0.9029949926859533,10.29726740859737,9.16586580084156,19.656274026692877,6.873656652235477,4.873826387331026,-30.15100056633338,13.972930585177789,2,S01
1180,0.28607540772127027,1.282604137959669,10.350804218907793,10.150223427660887,20.599568833060584,8.403673079587804,5.181620052000627,-30.071605647772138,12.427995318476807,2,S01
1200,0.4026410589362019,1.2359477129302816,10.303675926576409,12.44170430246604,17.408947519493726,5.600681861363327,3.076792715246848,-28.682658328689914,13.304491731151153,2,S01
1220,0.5332395347994721,1.0488689743537893,10.097268073873426,12.713085978160725,20.61287667725904,3.6815831132205683,2.9288264710565124,-26.828236790852234,12.786784307461836,2,S01
1240,0.5183972237077014,1.1865845395201469,9.747975806649716,11.468615799258139,17.12668788258847,1.4855546172421166,1.5338669724722909,-25.789936891729436,12.079754853814968,2,S01
1260,0.4232569297793248,1.042936903066989,9.453520602846405,16.50537730009625,15.28736590369474,-1.0579620228686737,1.4429255979967222,-26.29330780881562,11.83123225121535,2,S01
1280,0.555488249023973,0.9233102885361159,9.204939150626004,13.778952381141606,13.060166629296898,-3.9564260253194097,-0.9024649876689911,-21.986737810539864,12.026312777984936,2,S01
1300,0.4448438701762202,0.8351986743871158,8.927053468253273,13.91207673858194,5.355675076291224,-5.10909864901181,-1.6616095454728381,-23.18489526009166,11.243146025345007,2,S01
1320,0.3758973461208438,0.6086882051191281,8.797249724596018,5.93624276217945,2.571546400288695,-8.764838120206736,-5.103999019617758,-22.180032815876018,10.974946200222169,2,S01
1340,0.30422343948255914,0.30527663065155775,8.87533121937259,7.31029021751544,-3.2542837591719564,-6.668197745230176,-3.3417796636498425,-19.53035229193862,10.754583317170027,2,S01
1360,0.19348182322706856,0.1285772621004914,9.115320927593826,0.5276506316862166,-2.9813097400904933,-7.624948959675028,-1.764998689194081,-17.29711064287927,11.380493381135956,2,S01
1380,0.11140593400483058,-0.11927399828403736,9.362401178738068,3.970406682051906,-11.395285380731348,-8.522350270783573,-6.589366177733586,-17.608320336439064,9.339398115809294,2,S01
1400,-0.013637657482620417,-0.5920929501700176,9.72221410751955,-3.6174513675314075,-14.074558770460904,-11.10589001966582,-5.712063698531103,-17.689980085891953,8.74698661231332,2,S01
1420,-0.16472603328157326,-0.7815204163417688,10.146973452901847,-4.688503916638499,-15.664107764211774,-7.095882531015082,-2.9494009720016505,-14.479652901122737,8.394328951997434,2,S01
1440,-0.2588044440071527,-0.848755372348498,10.314094636807177,-6.817627560512115,-22.396644061539263,-9.532914506696397,-2.8713638454325525,-11.906029452040224,8.409664620194668,2,S01
1460,-0.3421665850077842,-0.9281815468096,10.459359018410785,-13.890210621276019,-17.89842027389553,-6.22384201306448,-5.20527943437778,-11.371844362592418,9.027737913875505,2,S01
1480,-0.44806782393577776,-1.1631227737535608,10.271335147611563,-14.529326865772456,-21.160098185704637,-4.534701901109985,-5.511902046214977,-8.62191665872892,9.29674064050173,2,S01
1500,-0.4672586575056585,-1.3700455622821708,10.181211616890822,-10.388641930069255,-18.037927148101378,-0.2542052832497963,-4.269750812230523,-8.981663881309146,7.730954188822267,2,S01
1520,-0.5394297807243742,-1.2164791748657025,9.758023479029276,-10.89771704988166,-14.590786767842683,0.4958839444312765,-3.643603667304564,-5.516164281109426,7.670664986397491,2,S01
1540,-0.491622342660905,-1.0661482266658535,9.355192231187292,-16.315342090008134,-17.497011319684628,1.5213434685491642,-5.088946147737,-4.121824013032497,7.241636978920719,2,S01
1560,-0.4519337373354887,-1.016351158915338,9.010026360256147,-13.898497837778335,-8.851293795451149,5.595625639892317,-6.3365834958874165,-5.272099448084189,6.629392007345469,2,S01
1580,-0.3940624786481136,-0.7487109002985868,8.804511567302248,-12.812174750541823,-5.7827617724833145,6.483382130989495,-4.170985618295631,-2.7847261985621845,8.237669674758694,2,S01
1600,-0.35071632428099825,-0.5070501902319762,8.841737502112656,-11.761378204163107,-7.335981394347309,7.614224360977306,-4.4472249824307095,-0.6344461012946556,7.27694849912568,2,S01
1620,-0.2389561022267478,-0.3657482481957203,8.815607436213474,-10.362142757446078,1.727392310825352,9.66713916077013,-1.3978882685023237,2.0305641393685465,5.668647260508442,2,S01
1640,-0.1558715104086902,-0.05307714628691801,9.283160948421065,-6.564510167361581,7.168580076120263,9.410155811892638,-3.6817829275135114,3.203188348151225,5.289534495899445,2,S01
1660,-0.06880538212854898,0.30174546622117987,9.552707694536268,-1.1447201216602965,9.724786727851601,9.485307956463625,-3.5768375823147602,4.400612252771529,4.711905457823718,2,S01
1680,0.20637893167458743,0.5552576216511963,9.870626264300379,3.619602518483136,17.531437724851834,8.769215930561256,-1.418492770195909,5.6895017414443165,5.825212722243538,2,S01
1700,0.20807638468248346,0.68979602679248,10.164900865134909,7.343596748004869,15.867189706051214,9.845697638263212,-1.7766741606407848,8.274900205132578,4.408800261177382,2,S01
1720,0.20598152618724422,0.929736788756937,10.28054697614069,5.285905833591897,17.82742763055314,5.429046187681698,0.4977096545141629,7.646980261088651,5.408482075721793,2,S01
1740,0.323274043156539,1.2086750056876574,10.426759961793222,9.483295530691521,18.11912873630739,5.035850596185647,1.0595855961217044,7.644728651538221,3.6712686637616923,2,S01
1760,0.4987705056550593,1.0420134435112263,10.259303056578997,14.074861497547953,17.288710226440777,5.655238552462896,0.8676399526861779,11.566773029968129,3.338097258010875,2,S01
1780,0.4520812548132326,1.2879517396646882,10.028703471651863,14.958464702759349,18.643215555968947,2.1686328516353757,2.9414523321285233,11.7323679115033,3.1489677702201524,2,S01
1800,0.3979737021362783,1.1494138486297634,9.7588639001109,16.625169833546344,17.18188140744576,-0.46283162190849114,4.486307290705286,14.195889815344941,2.6648780375518193,2,S01
1820,0.4980102449065568,0.9714368619742423,9.357320165102248,15.43971049881704,15.418497730883933,-1.64726288351359,4.880988811189538,12.918732343766694,2.313577017977948,2,S01
1840,0.43091642149784876,0.9013249297095484,9.066466061459197,10.054193772454472,9.979954757699844,-5.962584680771294,6.0872465267195155,14.838571613702157,3.0663047340962337,2,S01
1860,0.39992298774920426,0.7912109038224716,8.842022681573745,15.687032542836224,7.393964263999021,-7.546610328753093,6.7444397394595095,15.040182756172491,1.3505392703632537,2,S01
1880,0.2731050481719956,0.4674672556034252,8.79661181336088,9.847971060917754,2.460771420098054,-7.022631466100954,6.784951116609205,14.579453280406069,0.6211231481236787,2,S01
1900,0.1906714772032515,0.21415764785568572,8.904750439876578,5.953811471131654,-1.3683053246517216,-9.536863086700453,9.543440594511079,16.421774822559833,-0.4417854841437148,2,S01
1920,0.1243722034187529,-0.09284676151452749,9.245007107500703,6.421573034119885,-6.89630806829426,-10.629380678656464,11.233828435870022,17.042480331220784,0.433575985026663,2,S01
1940,0.01831132923164441,-0.343171448792798,9.44928095921228,-2.360147436083074,-12.430953431111611,-8.87198801910764,11.03287251508283,17.20546325445725,-0.6425600773613138,2,S01
1960,-0.13677756578831618,-0.5329672478255568,9.867878106365803,-3.462383411321538,-15.904502607583215,-7.832483129554058,11.748498018223074,17.143751335133857,1.5954844415612637,2,S01
1980,-0.1822324312434688,-0.8374186761849324,10.178707964519544,-1.011439959174214,-16.06109294641686,-5.930422450248232,13.907174369469615,17.378960718031692,-1.4274887564501992,2,S01
2000,-0.2676504736763839,-0.828090327477213,10.352389655917788,-10.556215178973314,-19.657589501839748,-7.093246522548138,16.021200767412573,17.09624877387761,-1.3037372230978455,2,S01
2020,-0.43112296330795924,-1.2077393652481339,10.391631682822192,-10.138679404152542,-19.528143963185087,-8.470203637097809,16.998531014075883,16.222900013856158,-1.140133652559268,2,S01
2040,-0.48233055055671686,-1.070987858173904,10.258957604139027,-10.472575624235237,-20.080958213020377,-4.158496563598298,17.499470259713856,18.337010568144848,-1.7097537575336903,2,S01
2060,-0.4016584724876053,-1.4036594894829506,9.985521450879009,-12.683894292726517,-20.21967792381457,-1.6370750319908192,19.45528460094168,15.790185191508812,-1.5399846714221666,2,S01
2080,-0.46291415273719294,-1.2344438842952248,9.641074551175555,-14.024913251290291,-17.831146884318056,-1.8327884476137128,19.533375423570572,16.900496096735825,-2.087513235176561,2,S01
2100,-0.4118198983965546,-0.9946093107847735,9.31971226162839,-14.829400051933588,-13.345154209272925,1.5597492738896246,20.677970125432264,14.622938076672323,-2.0980669495157036,2,S01
2120,-0.4259333344667289,-0.9757888945192269,9.01959893975526,-13.167962146780887,-13.33931654517624,6.367791039579798,23.251859262087983,15.454190409474968,-3.709565288829194,2,S01
2140,-0.39372032496962883,-0.7150295951309946,8.962653811591906,-12.959309066101403,-4.373689941681309,6.083674528632517,22.964164716975848,15.328156149593744,-2.4747506199649134,2,S01
2160,-0.2901133989896147,-0.5887880505228791,8.772662524677195,-9.863397573030305,-1.5926054668232679,5.463915570254215,22.948539798240436,12.302828652575348,-3.194771879483649,2,S01
2180,-0.2831357471165917,-0.2029513476626604,8.91687054476464,-7.4196681330367635,3.719716668455468,10.810517150850544,25.42566416709464,12.987177652779293,-2.696805786906401,2,S01
2200,-0.08229652960666418,0.1947634409555897,9.205637798409906,-7.2959099029875745,7.080583350865737,9.021543954597249,25.614566433924303,10.254715088380719,-3.0259054282832456,2,S01
2220,0.01442356016651432,0.41203149804143285,9.586918334063585,1.2737383076564588,12.18415216178894,10.405107916480919,30.497224802234996,9.836238861184945,-4.404703128938458,2,S01
2240,0.11485380169308647,0.6703104163338147,9.947060978163137,3.6128993031790597,13.293067409069018,10.439869179688847,27.39716979152681,12.120783468328382,-4.277512438898081,2,S01
2260,0.21126978103721863,0.9047407620520315,10.140490430452951,6.528441439365582,17.270637703989447,8.786545756044376,28.828696297937416,9.280874392645655,-2.6078291347258205,2,S01
2280,0.3014879051696714,1.0260653722946262,10.3596826435881,8.201117144901316,14.841038359005353,8.46312116384889,30.357662290688943,7.150700230184694,-4.912810549348723,2,S01
2300,0.4223071484748828,1.0104413964206596,10.394491469516716,11.433280265085246,21.226387035240116,4.7718983137976085,32.22008551077667,7.5258988438381955,-3.338843865976841,2,S01
2320,0.4073860698710114,1.1475457217592495,10.180909558202506,9.854830937034592,20.108450266548846,6.54089497931301,33.77472936024555,5.289525009091832,-4.441923821391479,2,S01
2340,0.5195598297842271,1.2457101575797334,9.969905265833047,14.745478414371105,18.13268553232574,0.25659861079754487,31.08771173041479,4.489486689125696,-4.127616005031699,2,S01
2360,0.4817385338126826,1.272395056036779,9.538081501715796,14.553737393492804,19.72808903402808,-0.9580910593257875,33.60723749133028,2.2915985072503697,-4.273747935156747,2,S01
2380,0.4782653360080385,1.159493894879422,9.285330534368278,14.862520773272575,14.619414055459378,-4.47554628640507,33.79749922240238,1.1254030690857761,-2.9057387863165705,2,S01
2400,0.5179939506008404,0.8447518131921303,8.84221148161823,14.895742165305117,15.785502875245378,-1.0947546493037557,32.867278645538704,1.478948161623646,-5.001942559414392,2,S01
2420,0.38815707115788806,0.691766920796988,8.791852371858706,10.978442342440282,8.405373202775792,-6.087610606894595,34.3094966457512,-3.7756303921126,-4.869184672425184,2,S01
2440,0.345951555767812,0.41255689533464085,8.828887671753801,7.442953867865954,0.4897797109779556,-9.065964634809275,33.897632213006766,-3.0957272663638924,-4.114646970625864,2,S01
2460,0.2442361866650176,0.08904287375911277,8.984281159126999,5.751233260022861,-0.3677909685295342,-12.091486299253752,35.98749840351101,-4.906689939139048,-4.2624099386889105,2,S01
2480,0.09487797906224081,-0.14946793817381668,9.192116423520213,2.279701377339781,-7.383678121118025,-7.115672411801881,35.86361222951534,-5.1274660726484855,-4.774254974272646,2,S01
2500,-0.04789573947221642,-0.40671671366105727,9.557712681812836,-3.267993717878741,-11.315315119045744,-9.724266265527564,35.19124406436465,-8.051470941536968,-6.050103820031092,2,S01
2520,-0.03720433276442406,-0.5817149588386149,9.946380117622605,0.2711491478138317,-12.42405670031286,-8.108593036027637,33.68811271878324,-10.79946633420772,-5.06861248688229,2,S01
2540,-0.17408970774720106,-0.891454716390535,10.199468114713907,-5.201073183683536,-16.879493229056433,-7.895246414232329,35.530998676181255,-11.382123332211593,-4.168366004090827,2,S01
2560,-0.34300896873322,-1.1027032088589037,10.446764825892428,-7.712067773787776,-22.42864682904565,-8.64814745990538,33.20003835909977,-13.236792470021843,-5.91743685916866,2,S01
2580,-0.3953013873087076,-1.2082676657518874,10.401667314049364,-11.841224748652902,-19.130065465924986,-5.072651094245479,33.34378635312697,-15.71757074989972,-5.720305880496505,2,S01
2600,-0.41857216823506166,-1.3550355192841077,10.07703482284796,-12.706401641039701,-21.12489263347231,-5.25563680229195,34.95602381198398,-15.799034143527182,-2.7032400067573072,2,S01
2620,-0.5037901202198363,-1.1576190230212866,9.857455065974243,-13.581584565815657,-20.138628356033003,-1.145746373501686,35.43312913193917,-15.344511463091528,-5.570181268119779,2,S01
2640,-0.5352388940274936,-1.1146489277092548,9.570068701695401,-17.965735682413584,-15.363824493544604,1.1269147604044125,33.074280108167024,-19.07198554883533,-5.352475112799508,2,S01
2660,-0.49104688089368287,-1.0797224067463427,9.237580236084543,-13.196980006283669,-16.486930249291856,2.462306134843216,34.00286750108783,-19.52064890520095,-4.623060940831763,2,S01
2680,-0.45523707623174847,-0.9366475243595155,8.93399743055661,-12.730036339953259,-14.414761947653592,3.671993053923332,33.45925702709102,-21.304116536961615,-4.5679244952964275,2,S01
2700,-0.3706331183814144,-0.7334865968332491,8.862781900070608,-15.966210819419373,-4.888596973627845,5.876690094256631,33.22471378328939,-23.54392254084162,-3.720319479496886,2,S01
2720,-0.3777230629978658,-0.3515300580961131,8.803588407945673,-12.941242208930106,3.4672499888304946,7.658244063429524,30.54011497880265,-25.117141300373746,-5.4539608300320825,2,S01
2740,-0.15282895360855975,-0.06786365949650619,8.919635911573012,-8.682506633126637,0.6430265483162869,9.168009439374147,29.98997023863284,-25.58766926393409,-3.105711440978472,2,S01
2760,-0.11417276459331194,0.12255025931479438,9.28333152199997,-1.7309734908154384,7.658329465243099,11.043702840968914,28.783767210514284,-26.11831789683995,-2.8632128591273087,2,S01
2780,-0.04562832753995269,0.5157854505238839,9.587245726642061,1.4803006625836088,14.893929169231019,9.060409040181591,28.109497899639962,-27.06915413065339,-3.1431515077449195,2,S01
2800,0.0687186883880875,0.7561467033821276,9.904782897347037,2.411877706791492,14.073394005960779,10.088842178065727,27.2718377690025,-28.577969627838662,-4.526523851892994,2,S01
2820,0.20661488259676686,0.7597117453845459,10.193747376596779,7.898253765127102,16.15999475486688,10.0837005379315,26.585444165736963,-29.60345699088063,-3.686692567646866,2,S01
2840,0.4456449384168782,0.9334187406620452,10.335668549787014,8.565607246563557,17.556867375547,7.544828281822099,23.825547152979592,-29.947315684861135,-2.934374637224592,2,S01
2860,0.39419070377011456,1.0719739775531962,10.307686333074537,15.940619134755593,20.20174884707449,6.398873688682757,24.6881590549934,-32.58535391904311,-3.667856487664488,2,S01
2880,0.5494498739982615,1.156351130392272,10.194090838373638,15.107744731468642,20.170796605961364,6.6406146552865355,22.7241898353185,-30.33617218782856,-1.7265936903554937,2,S01
2900,0.5278710296117194,1.2956181533754914,9.922506733500526,12.644589736660564,17.656927614884136,1.4040368577296807,19.999947158013878,-30.72787437219545,-1.8920838579167871,2,S01
2920,0.4278542988824681,1.1522922634114616,9.566392097314477,13.763032985315133,16.747511957660954,-0.5072066762295788,19.589683013553728,-32.92146380534557,-0.9298107798891624,2,S01
2940,0.47982405405780265,0.979342335953576,9.171435856223493,14.594421264312174,12.50705352509079,-5.193580512076167,16.995981359389074,-33.715523685244904,-3.899044498279269,2,S01
2960,0.4532590860673638,0.8697438203200164,8.980498070757315,9.344369675120129,10.302820971840376,-3.470823419361977,17.03681944838543,-31.537350205397207,-3.59808096850154,2,S01
2980,0.37044244053019487,0.5978125156431906,8.843228441742419,12.091239028439402,5.286092432336716,-7.061582272528499,15.716694722433415,-32.37048265320924,-1.0904832617868168,2,S01
3000,0.33363869356406173,0.5245492299826501,8.89260670107435,10.183165249382938,3.2927732074046476,-6.4058041882345895,16.242661629618652,-33.059969008320564,-1.1745712332800036,2,S01
3020,0.2301752772646466,0.13919303375838918,9.03732686694687,8.152464949865315,-5.721269890472007,-9.547698012710557,13.697655548560215,-33.753041050741835,-0.8162562782340597,2,S01
3040,0.003375336447006859,-0.11007535680577904,9.291926655918845,6.172666372996542,-7.6113117850884136,-10.36031786933276,11.872394884428285,-33.46533590447747,0.1582641317937814,2,S01
3060,0.030973446285319083,-0.4085096278243526,9.66480076605647,-3.4460725952708744,-13.09729409516722,-8.879787901425185,11.039624641889024,-32.51698277607851,-0.11451608673837899,2,S01
3080,-0.09275319008945354,-0.5418548272442156,9.921557522842646,-4.97069378242205,-14.967641719132514,-7.227532812034293,11.17759517496279,-32.60243378781098,1.288886104950339,2,S01
3100,-0.2610978420517223,-0.7925436044343247,10.261030538032035,-6.677353596135751,-20.0297624672548,-9.03153496437022,7.3089945787098936,-31.12969508222525,1.7807410144202849,2,S01
3120,-0.34572528761441984,-1.1819269700496449,10.40636067028153,-10.090400079555938,-19.10644963703917,-8.052876918592881,6.626533478609585,-33.64967142751276,1.167242689722654,2,S01
3140,-0.28635723108511174,-1.2820414648793497,10.409153928854808,-9.729139015672715,-20.214437158307977,-6.884898992611452,5.744333104805206,-30.415160265300816,1.75523153923446,2,S01
3160,-0.4529792746487723,-1.1856413852613679,10.176658025143205,-11.781223943356206,-20.972418793723108,-4.548545844266733,5.097077705246431,-30.119989348188458,1.2123550310213995,2,S01
3180,-0.5091027748941863,-1.2894400248936684,9.872490028785998,-14.758718391917364,-16.75636056034622,-1.069812187213528,5.6128888341531145,-28.04728682832009,1.004038700787029,2,S01
3200,-0.4691340435865766,-1.1538972509616172,9.457968694641815,-15.494737803534202,-16.92959994924011,0.4486055288072194,3.9790764737387603,-29.50018018624025,2.9283287310072104,2,S01
3220,-0.4613861548564131,-0.9859182439076948,9.18550879987407,-15.139064374101231,-15.665996916373244,2.56474415646235,2.3312800728679237,-26.50981224022957,1.8447425877952475,2,S01
3240,-0.44003857333249136,-0.8695335588934842,8.983137608282547,-13.695494028757441,-11.402699991172751,6.644862436647022,-0.17431465229473586,-24.929777217353628,4.501635195691426,2,S01
3260,-0.35518059320875595,-0.6900519856530316,8.769579241748437,-13.166158159409035,-8.406022307052975,6.4286034185687075,1.0879441187609433,-25.80762851043431,3.2716337385714893,2,S01
3280,-0.27061941007577484,-0.4122592102623031,8.844831195564213,-10.34731234869078,-6.065366129057536,5.727770417704564,1.201350931160946,-22.576923008448755,3.424029633299229,2,S01
3300,-0.1881154856085589,-0.09080529300675877,9.02108679290419,-2.926497197474951,6.649554532520104,10.462662141894507,0.3371458362159036,-24.040950782114376,4.719808502136435,2,S01
3320,0.007758911625895625,0.2486104215441583,9.355417378744109,-3.6053932145711016,6.3944176511699204,6.775151163228015,-1.2991802608764678,-19.25641393944782,3.8250373990893567,2,S01
3340,0.08389537856148196,0.463907178834457,9.840050889090323,3.466566213342444,15.57832188299317,7.706164021194749,-2.2243338917230573,-19.934438956917454,4.9850269394056195,2,S01
3360,0.15978195245726512,0.6527463378611497,9.963143794896052,0.615772930827915,17.219920885269648,7.008400503144269,-3.331067054894893,-18.942913606555585,5.156461952063949,2,S01
3380,0.1973363625202204,0.9684442629243107,10.21395441394281,7.752540890264011,17.661149969665807,6.660736661123473,-4.899856347732522,-16.171399032059092,5.5096620912488525,2,S01
3400,0.37663905794127506,1.142194823149681,10.461439512107148,8.237212129605448,17.928370150073228,5.271986136621035,-4.11413071607747,-16.411182610521518,6.161719767155356,2,S01
3420,0.4233886241349823,1.2660371134551112,10.351501200095415,11.470270704189323,17.984354211456576,4.7955658680945366,-5.0300393053900345,-14.857700444959447,6.700223282254037,2,S01
3440,0.39117833809295327,1.1831932338073594,10.167332885408161,14.413202004268015,17.428420906157175,4.664627028539052,-5.394230651319619,-14.667575459727548,7.159527946154823,2,S01
3460,0.5274233130145647,1.2050566379819088,9.841298150457062,18.042956867156228,19.945308146072758,3.2551066671570528,-4.638113612773284,-12.311792866916226,7.870721695295239,2,S01
3480,0.49326777750537837,1.1381051852193262,9.567738883478633,16.236517642123058,14.405989528431121,0.04539623416831606,-4.548586309399263,-8.432305482471394,7.350231628456041,2,S01
3500,0.5359480709113984,0.989176112205371,9.150983957237738,12.416406234684448,16.53635695642281,-4.283438925722509,-4.543250783226509,-8.079672181061811,8.30519219575733,2,S01
3520,0.4192013248446592,0.8831148552171776,8.803485999866178,13.886252282851085,6.658495401947407,-7.395355444347167,-4.80917577472119,-7.466471573191551,8.264905825768727,2,S01
3540,0.2846448633466745,0.6267664174977745,8.773581803654528,13.359303185948967,3.666822701286315,-6.297634121588097,-3.8513988739923075,-3.759937461497217,10.222221316162567,2,S01
3560,0.30866373341112696,0.261817486168404,8.900589757816176,11.4425536262628,-1.5329405316031004,-8.711972495809594,-5.528595353168886,-3.111877658077793,9.334418515780259,2,S01
3580,0.14128101161742548,-0.06694575896478483,9.063512317175949,4.598928415740038,-7.240773657364029,-10.131162386789835,-5.079260963897497,-1.7895836003483825,9.228212081962402,2,S01
3600,0.13623408993924263,-0.13575132509333118,9.486918446336569,1.6912075433538165,-7.821173022509069,-8.511756529361046,-5.579275804641583,-0.8458978201271933,9.463770906822177,2,S01
3620,-0.1114723959876108,-0.5508518001564443,9.806906940926815,-3.9420831604139512,-12.793249906763872,-8.535277393991219,-2.914600715450132,0.49044130096099237,11.70511350690426,2,S01
3640,-0.13813609532513804,-0.8174803340154293,10.133748463935145,-6.0640995759336,-15.603810261201978,-11.584736270880775,-2.7082938334745426,2.598944007777899,10.718123573286842,2,S01
3660,-0.25239116179425913,-0.7689513737425858,10.165728379582212,-8.530604976611729,-20.34056659709397,-10.774260498822782,-2.3666824263705935,4.359032918310302,10.398833522974757,2,S01
3680,-0.42781999313993374,-1.0818854354912375,10.389010318173845,-10.887293231337496,-18.242092471513306,-6.013070673435146,-2.7325165253834713,4.276786523912097,10.457357356206707,2,S01
3700,-0.3339371469907494,-1.2214214152754383,10.355716308122359,-11.31685486612724,-22.016467149085766,-8.603155137551399,-0.15186817077706447,6.584795521024167,9.938922503934746,2,S01
3720,-0.4074954601633617,-1.1569245819701135,10.064933601522501,-9.060067893315493,-17.032385939911023,-4.086367667372162,-1.2554041779891927,5.404917439752687,13.013672900217353,2,S01
3740,-0.531421012214659,-1.081918877067305,9.800941248391945,-17.310492975435604,-17.99202913635898,-0.990351941646002,0.1286546256043886,10.544570837480764,11.07288151570141,2,S01
3760,-0.4390704777653647,-1.0703612302261405,9.411894600845594,-10.981191946761761,-15.606906077131155,1.0510962014928786,0.9071080761796418,8.58323962615172,13.591246984397623,2,S01
3780,-0.4524062867758647,-1.0682272694400727,9.241154931451726,-13.02482454591356,-12.544903671406189,6.052610015757981,2.0151463026890797,11.177660454359145,13.520190319761518,2,S01
3800,-0.454888100766445,-0.8433613480444289,8.813174467780616,-13.537958027408623,-7.854993188171912,8.62560631338187,2.0338672636464623,13.440280546685349,12.582418824220012,2,S01
3820,-0.39657847664768175,-0.548172539007589,8.823390721823984,-8.467795877153565,-2.150984256967713,5.256532020030205,6.605705489334884,14.680260662927408,13.586413656134802,2,S01
3840,-0.2996054730440216,-0.23884891021412352,8.970152558992417,-10.536415444129075,-2.369525403806418,9.338340430679686,6.297416822787324,15.146329670428187,12.673793945947281,2,S01
3860,-0.11990613552274809,0.11778962914708972,9.090005643323375,-5.128347978111798,4.081167330772288,10.490967544259398,6.7983974384462,14.21313949469464,13.136097288727322,2,S01
3880,-0.06005467045258241,0.15550818293013846,9.470796958406977,-3.516404162806419,10.75781364960239,11.223436748675581,7.974968255322084,14.972297137079869,13.525481822353704,2,S01
3900,0.0052120629633423945,0.5117757379890364,9.816736033300863,1.2551001995696036,10.946221423457931,8.192253840802955,8.766884214867098,15.519201738803716,14.530077930968943,2,S01
3920,0.14825933660018287,0.6262844703774315,10.116612403094441,7.510627313430028,16.0948923343171,10.627295106045711,10.476123736037586,16.412129432651383,13.447534765529218,2,S01
3940,0.3337760454967868,0.8374906311811987,10.279901898319338,3.8753496605864175,16.242847982189268,9.44696049326625,10.077547745361318,15.11409456630863,15.419449735597277,2,S01
3960,0.36532205629279935,1.0155514372423593,10.284330821375297,10.312484531940289,21.3341116170824,7.116753390228639,12.751670643609293,17.68383951271936,14.637302341277,2,S01
3980,0.42484667336801085,1.1981407489871594,10.273096667713657,13.821646445391723,21.562468949196553,7.428434238790297,12.554533324195981,16.434804872227403,15.305277228382112,2,S01
4000,0.5365083590895454,1.2307376800851426,9.974056816049767,10.731926763110712,16.89674608688177,4.667681551487375,13.58826501194339,16.586186447123747,14.355727551539065,2,S01
4020,0.5170412977365987,1.1822871561796389,9.70963559577279,15.873382488897686,18.340097173518142,1.676425917693401,15.316396748579626,16.866844638129432,15.501941116597791,2,S01
4040,0.4901740235989589,1.142022520077384,9.34698530306702,17.74257041551963,18.957863368821734,-2.088624104300283,16.104113882433122,17.89784521608417,15.428362552231514,2,S01
4060,0.49252679133267885,1.016148814251078,9.169621937275473,10.76122588312607,12.390541310678413,-2.6380852649618447,17.841532350023932,17.445937476392913,13.54705686335761,2,S01
4080,0.47211784602633705,0.8848126824420232,8.824327469274376,14.220219687998927,8.022150318321208,-6.508754608076467,19.90004787861368,14.319743418632111,16.153999377369267,2,S01
4100,0.2738486080958118,0.5497967710173143,8.90567364309843,7.016561194023536,0.6925514831908481,-10.088621397896842,20.64528978419663,16.898729680488348,15.291753536411234,2,S01
4120,0.22874359031127287,0.4233325188684745,8.980485223932144,11.429175019993487,-0.4717182986439027,-8.927882876058264,22.473969739809394,15.679847683976167,15.116201535694296,2,S01
4140,0.18768857874055833,-0.06975688742933439,9.151119422641504,4.566981904114535,-4.7695646693796165,-8.004454341921807,23.26589022331264,14.628480351197593,16.11287518714175,2,S01
4160,0.058716677477910297,-0.35077073170905665,9.459376877392254,0.1811877079065829,-14.183477136902448,-9.366625821456605,27.72039448856048,14.64099264602419,15.365006527930849,2,S01
4180,-0.09625236360036069,-0.42391370028396835,9.79360415652175,-4.983433763479091,-14.754566540012803,-10.315625100181537,22.881511198074982,14.1157297508736,13.805567416538567,2,S01
4200,-0.15708463675846038,-0.8394346587831383,10.23305145506569,-1.995675901244101,-15.722454338797375,-10.46878537738342,24.80594606492987,11.912062987167745,13.561054803955422,2,S01
4220,-0.4052588332110015,-1.013144924711904,10.182530381401387,-6.8628157580693525,-18.131917462206854,-11.40965635488362,29.269749459770207,14.818013798636137,14.478677198960987,2,S01
4240,-0.3841396549532496,-1.094734863559696,10.329504272660033,-11.38706523010247,-15.11065161457444,-5.388661189807203,28.427259397286814,9.693270956857635,14.75719617201042,2,S01
4260,-0.35726289094476604,-1.2458335398300973,10.29672997333221,-14.424003397844201,-17.948286594465465,-3.8225177738583827,28.65094415893883,9.173844513910254,15.302790970216943,2,S01
4280,-0.41829151502939,-1.201827683508464,9.966105975085567,-17.0057874672489,-17.003004394701357,-2.9589856805265655,31.48101355413987,9.540732195214561,14.20033421279502,2,S01
4300,-0.5128019927294037,-1.0388509391572907,9.597435480562694,-17.45516545907826,-17.486989440544455,1.8321521857600762,30.54186721228862,6.371648068361304,13.909833681141109,2,S01
4320,-0.4777592641574523,-1.1292138877451714,9.272958759347128,-16.1958644742394,-11.7189065533595,3.6372992924058396,31.396564404066577,4.539910909637039,15.215708850558936,2,S01
4340,-0.45698801981760856,-0.9091256525632482,9.081721059072121,-12.148366617533464,-9.462935594504566,5.599434937129981,31.476152118534763,5.277632235228502,12.844712065033708,2,S01
4360,-0.4745606365431249,-0.7084341537297858,8.813623561720345,-10.770525877501155,-6.25391702994427,2.890788627578548,32.69692647712366,3.933161686757213,14.930991331375278,2,S01
4380,-0.319509766303937,-0.5340292158195571,8.792327794243526,-10.711091437823379,-4.525608976791005,7.77663652006729,33.54968645984824,0.26614671291559655,13.146554729738163,2,S01
4400,-0.2007636654417131,-0.2903435790152531,8.897586734446547,-9.325966905715918,3.9676040259368452,8.827887029144339,36.214583296638345,1.852986304926637,13.987866398320225,2,S01
4420,-0.15011213962678507,0.1548062244852343,9.209933932571905,-5.899284426082224,5.723084781106185,11.82548287068519,35.41267795151027,-1.7104617067264212,14.840450083518956,2,S01
4440,-0.07428300633950538,0.33335140844428396,9.634719083279059,-1.0347956891642678,8.165568197343635,7.287300512314912,35.24726052655481,-4.633671324962913,12.497624963938724,2,S01
4460,0.06436786784138453,0.4711039293978547,9.74252051165485,1.9703872295577938,12.492599734924974,11.014126655987948,35.00192185823567,-4.981703305146143,14.76256986878797,2,S01
4480,0.22411014842538582,0.6803236139155463,10.112838812661987,4.502028196720108,19.26472475273132,9.07533083745564,33.804248464734776,-5.951431098868422,14.023804266672627,2,S01
4500,0.25772394774195495,1.0380698502467456,10.310553100387537,8.20825295779,19.12908801299429,7.067545296639501,34.6535297575365,-6.3575127284866655,13.300607750600365,2,S01
4520,0.3561151128507877,1.1573834625782522,10.306782077538056,13.457455528127257,20.52712904683133,5.718334968252966,35.268117087985416,-11.299979639432813,13.180577937811854,2,S01
4540,0.46382438501230167,1.1959633988015859,10.278350472896493,13.479048133633723,22.052755553287668,4.746326309108998,36.19676551966584,-10.853221819425999,13.002861618201289,2,S01
4560,0.5169434688815939,1.2250511991474597,10.054869232601119,14.624753429198407,18.697667415818785,3.0454677452735153,33.85099246343095,-12.12126272077103,12.755127883547424,2,S01
4580,0.5345752170511522,1.183342184362661,9.686343023821228,19.90351753017762,18.632723329034853,3.1448197377097733,36.94951557658466,-14.457895285587446,11.576265441551543,2,S01
4600,0.5544291487909654,1.0575311547068893,9.338831721313548,14.010551591838919,12.227115805393826,-1.3474342750955977,33.630405074308285,-15.938790812534535,12.17355180681003,2,S01
4620,0.3897460308188473,0.9911199071010558,9.04084802536837,16.940818403578177,9.281718125583414,-7.132378661959444,32.46800421676003,-17.345450661026355,12.738957265524636,2,S01
4640,0.34769868427017053,0.7175965776617466,8.997886389327967,13.586723332940792,7.386402028010574,-9.21036080342483,31.67515172479707,-18.339401508702014,10.570991938186681,2,S01
4660,0.3402600907795332,0.31142233717470225,8.766883503604184,10.060292506248198,2.5730519329156523,-8.66404274886967,33.74767392126113,-19.735156972633987,11.325138927013995,2,S01
4680,0.21135149899683187,0.24355979179085083,8.928319858653301,5.218522338752249,2.1068968408580697,-8.75400906120073,30.229461668787703,-20.778984207836817,11.37160412632059,2,S01
4700,0.0072513458059069846,-0.09352815791836515,9.217714265818442,5.78007041356384,-6.878166573503741,-7.953333230080533,32.04062916692038,-23.68563398180226,10.812567216425547,2,S01
4720,0.051498230260328154,-0.49485310383155406,9.594072835224754,-0.3330812479129268,-8.48049367337167,-12.70392661341562,32.07431904140074,-21.919255667970106,9.045342901686087,2,S01
4740,-0.07582457359816003,-0.48754897747842885,9.952118734797393,-5.193892058740937,-14.776753796435784,-10.198996942509877,28.776862278887965,-25.517610303543822,9.588651727763882,2,S01
4760,-0.19147110484634774,-1.0541499358540696,10.13141855574375,-6.843932658605192,-18.526109327374456,-8.458172550720539,30.28028896870914,-27.598077063477753,10.059691030400757,2,S01
4780,-0.29836769011875997,-1.0635961829140288,10.371931644279409,-5.7595839943126395,-19.87254624178583,-11.703423951877944,26.982810147437252,-27.154445969405504,7.634703437662392,2,S01
4800,-0.4485280455610915,-1.0143805869778022,10.370417862696272,-12.484969771931208,-18.059872101816186,-6.42657751305238,25.042684230876937,-27.807450795994963,8.52775708464904,2,S01
4820,-0.4872731007762294,-1.207684004810156,10.3010544103789,-13.242054477749242,-16.191537595572605,-3.720890805413128,26.301780035506457,-28.52275204713473,7.5736797794027355,2,S01
4840,-0.5020187271639593,-1.1324093735372294,10.050749163021381,-15.033034286747107,-18.432143765172178,-0.5320964147295257,24.07869839609677,-28.836701690680904,9.406140502538552,2,S01
4860,-0.5050738574960623,-1.1557238896926665,9.619907546116124,-15.75827197103781,-20.4612104910062,1.2737755374417523,22.87026774291496,-30.93475330959775,8.289556646290569,2,S01
4880,-0.5427818826733775,-0.9992684765029973,9.312773797576424,-10.573924098800038,-15.288056168295682,0.7584404356287222,21.756182365826575,-31.626947730307975,7.573773067913807,2,S01
4900,-0.46688989320179725,-0.8926060338667241,8.984716438556566,-11.563264680689066,-11.3581252388603,4.368398006198453,20.910675138840286,-30.373085482973494,6.838332423870325,2,S01
4920,-0.32388902476966186,-0.708276507040926,8.895448239516064,-8.932517181778262,-5.232483251593467,4.333825682576602,20.688565252685322,-33.466402342513206,6.155942595504823,2,S01
4940,-0.33357364822376373,-0.4182642453410173,8.847121767942228,-7.8138578579049645,-4.206638231955969,9.70218453978785,20.766146815978956,-31.896109348611727,7.3539221275139095,2,S01
4960,-0.17061530513259215,-0.1573715891177486,8.966757604070002,-9.89433587003261,4.230515033452148,9.515851074087786,17.29431850643636,-32.06459414436311,6.2672069016912175,2,S01
4980,-0.08703145216370373,0.03549648033745067,9.33965831821573,-4.953639069976967,7.356985744030751,12.239881977564242,16.33371983620575,-33.33390546628776,6.274391286489126,2,S01
5000,0.036089340120686854,0.35452670323488955,9.551826229843561,-0.11118722754938602,12.687394114251216,10.383910062117943,13.393588263938252,-34.96866267813309,4.71943017062853,2,S01
5020,0.03748519819229665,0.6407055667502339,9.948401980924622,3.4163457389630616,10.566914626993091,9.789596012542548,13.53439775364862,-32.516125808166805,4.782650707150234,2,S01
5040,0.22763885835544043,0.9262795579374585,10.132081673518767,7.667835291841177,17.278075504473836,7.180775845100304,11.636458998524548,-33.594613659060755,4.607837975659501,2,S01
5060,0.31128269307163314,0.9636499151685721,10.341295027364577,8.602133018449033,18.636404000022242,6.5432764456142145,10.47766582372749,-32.4528109679909,3.7573867982344162,2,S01
5080,0.4184503387439335,1.1496010116470603,10.37348572303982,9.858762429811403,19.710334532617022,7.881120648440473,8.687800257049027,-32.01608000712096,1.2722053496170465,2,S01
5100,0.36317674164519853,1.0387433782529523,10.203266303027263,12.622298289259442,21.35583701407628,3.096768047688162,9.15376755826007,-30.88340256324461,4.225275447265318,2,S01
5120,0.5789305298338954,1.2362589297442368,9.911728036494354,17.8100343361698,16.13442408387901,1.056744863810919,8.488551689298587,-33.0533298412123,2.827566100371659,2,S01
5140,0.4646418801083098,1.0562212019254105,9.505283676567533,19.619052058392583,15.754355837973037,-0.35846447797522984,6.534004979776888,-30.503746077258374,1.318571979123431,2,S01
5160,0.4149210538177633,1.2449659103252224,9.217263833502642,17.473314634329547,12.97780251149079,-3.1269864977982778,5.177486867435609,-30.579730895978773,0.8006025327877291,2,S01
5180,0.3587559231480384,0.9203803023611387,8.938737986050967,8.085689235338595,7.04707769979324,-4.778528562151345,3.7357288102046566,-27.613237188784428,1.258626977798261,2,S01
5200,0.42833856785512336,0.6924888561803165,8.718745135409907,8.682962240960467,10.333938591753654,-1.580580030014053,6.2382229079919735,-27.927762132768343,2.1059646740062083,2,S01
5220,0.2956134654915328,0.3462686659215331,8.93050927298142,8.957653487535339,-0.7233597568483081,-6.99855397390097,2.278374566948617,-29.408919758741735,0.7411175107870286,2,S01
5240,0.23900827357501758,0.10825382325053107,8.947655413959804,4.155818630524317,0.03485991010764655,-9.05763400095996,1.1366145422430594,-26.206955211176005,0.5792534331143763,2,S01
5260,0.07489955557369636,-0.0377764688314917,9.225062729415434,3.2719710235306856,-6.744990142368912,-6.844707762929228,0.8251643770983914,-25.76122373343576,0.42785663263417517,2,S01
5280,-0.021331759058802847,-0.28642105421263336,9.628548220190396,-3.2985057076778563,-12.84623177525375,-8.876908994009206,-0.8900797359363328,-24.582775867360183,-0.5385056112733527,2,S01
5300,-0.07117514579831559,-0.5613401834104814,9.944937154523402,-2.5063097170415958,-13.362149192153598,-11.058063922361258,-3.0854391185768044,-22.1117609270217,-0.6510557493296485,2,S01
5320,-0.21956099495384027,-0.8421782395197306,10.33439267833653,-9.145139781008627,-16.533790922997902,-9.73698024011799,-2.6813351879448946,-22.413219561751927,-0.6272862663178935,2,S01
5340,-0.322026332723126,-1.1754081509938625,10.31583065755434,-9.352783806621668,-16.99373718307487,-7.411860975781074,-2.7617453409148918,-21.569544111531822,-0.21975638328469893,2,S01
5360,-0.3410359022841538,-1.0886970863388126,10.33953982441519,-7.731123973582334,-18.756018472347517,-6.410615678088191,-3.469480214131694,-19.27901929093765,-2.7206778830518457,2,S01
5380,-0.39087343588687673,-1.1536493581407194,10.10365122520033,-13.894537507011504,-16.637004514437518,-4.023441543816475,-3.987616006513262,-18.505905698955942,-1.9142466434974112,2,S01
5400,-0.4137684001730619,-1.2361573820876053,9.847956400925808,-14.187104901516033,-20.10820836551747,1.8981861195881355,-4.664462128842911,-15.506370911617772,-2.286036162961725,2,S01
5420,-0.5164590877838539,-1.2791069360115812,9.42050563478326,-17.617958933539178,-13.284244365240225,1.3772694951427311,-4.522422226296041,-14.880869367029842,-1.5406828940430148,2,S01
5440,-0.465094916137405,-1.0734482230429616,9.226795139326233,-13.42464749338974,-10.772486042290282,2.044321972060464,-5.9639262121665855,-12.68371029176067,-2.509704233217401,2,S01
5460,-0.4733605149972883,-0.8199575414793459,8.941346747082864,-10.389911700933444,-9.689146686714752,3.6626731108646675,-5.785563591402804,-11.961785297092119,-2.14701943300272,2,S01
5480,-0.32881191096678475,-0.6514481282650506,8.846284604453462,-11.461030173155352,-4.318848610242303,7.507739960444401,-4.0686878822099315,-8.081608796107894,-2.4580576190214947,2,S01
5500,-0.32870556246502064,-0.4112640282496043,8.825514459214402,-9.680271169031787,1.737347999727107,9.587673076445215,-6.141247634813266,-6.001233731413607,-2.863857208311214,2,S01
5520,-0.2015575465601249,-0.16774532788737828,9.060444442520964,-10.448200525152604,4.71564754474643,7.945480925521883,-6.879328517874827,-7.882042154354189,-2.8546859030791185,2,S01
5540,-0.11093704498981928,0.14562686622894438,9.31162362293943,-2.7033340934683014,7.98406177038519,10.080846029322545,-4.1724471957772415,-5.235365010980301,-2.855517374508948,2,S01
5560,0.022606375605462272,0.4001660109933248,9.715697352782058,0.5983104507150537,10.733206648627522,9.236069311832033,-4.005044700507446,-1.3123180335279496,-3.0527854917127626,2,S01
5580,0.09516761259514465,0.6502390889506116,10.031100983770205,2.6510767304626786,16.227874722626524,8.772151035762832,-2.6560331298130446,-1.027715554734303,-2.8592126108164972,2,S01
5600,0.258003224996414,0.902460770782929,10.227779714994844,7.793007938187471,17.12637438650993,8.015773791482085,-3.9596246930101837,-0.9104648338459131,-3.8764976389470274,2,S01
5620,0.34988240543515486,0.9985009397517363,10.35535557020874,6.447505453699309,21.894832579162017,8.115910302975275,-3.3856324272252345,0.8564036238733731,-3.2075333007496916,2,S01
5640,0.3935654069433457,1.2872583423503021,10.287132136918695,15.531806808629735,17.885822497372764,6.89545395375546,-3.052809117105578,1.1459417969641856,-5.090634314218522,2,S01
5660,0.4361834015214705,1.2055987647185618,10.022798487671386,13.512385708198147,18.597907927249068,3.7835912465334465,-2.7999513488467724,3.0581301714817184,-3.5878417150888855,2,S01
5680,0.5112725066241821,1.1812875485452166,9.837382543576494,17.40291731131681,16.979350917508707,0.5425182729842961,-1.9783927993234582,5.836178340061671,-3.828010016840207,2,S01
5700,0.5349136525014597,1.039952689007667,9.522003730079502,14.8093458208617,13.761866346777149,0.9963392414514669,-0.3283089330647453,7.72271079765012,-4.195851078558958,2,S01
5720,0.37338740102026813,0.9933090370218756,9.189158140329846,16.00159726204874,10.36490541350246,-2.549572701521355,-0.24479579171554033,8.4818218683343,-4.07346325855964,2,S01
5740,0.41096022985459707,0.7652997288606717,8.926186785626465,13.847716826750919,6.780160581481871,-7.211724690529008,1.6465050100557124,10.07334349850343,-4.313633220564706,2,S01
5760,0.37414783913650296,0.49899723832662407,8.799759978593729,13.486708817243766,4.640811535538922,-6.774730420886385,0.7208010092489268,10.303018181325134,-4.479571715827917,2,S01
5780,0.205489654032963,0.37150902540900377,8.784062533913787,6.1329648661317515,3.2971011487514383,-7.134228701384561,1.6960325290760008,12.703869603019438,-4.6964673574586655,2,S01
5800,0.09783661975565575,0.14428869084148016,9.123901982970265,4.749655179664805,-1.560338251355927,-11.349338182951113,3.5094824228520656,10.757003756711878,-6.038316979003764,2,S01
5820,0.07762180772680337,-0.2103947878134774,9.467868223919945,3.026537983048292,-11.738817608746201,-12.04794920660797,2.0620552162922663,13.794591313550194,-6.0312541542562546,2,S01
5840,-0.03145199543358712,-0.45766520502984104,9.740834631376556,-2.362907403430448,-11.549395001416125,-9.008084824093313,6.532939391114656,13.251312926128175,-4.371509813777871,2,S01
5860,-0.27971740726530425,-0.617655228600821,10.054412197408277,-3.933622351985221,-16.400861058678093,-11.134432492232808,8.051046390661021,14.635996280213796,-4.286612872567662,2,S01
5880,-0.2357858150960678,-0.8257438770076727,10.334949170496555,-8.60764463354521,-18.426910279330762,-7.648690369460779,8.606881291347449,16.07543673277816,-5.443595673353059,2,S01
5900,-0.29524049571877864,-1.142510528798243,10.269177124554822,-9.963405026831193,-20.931241632254583,-7.051132056463288,8.029780025704305,14.902844546618654,-4.7365954942556465,2,S01
5920,-0.40580319261930964,-1.127059722449296,10.308794739495173,-10.028676160363013,-22.24720163563304,-4.731202422262442,10.767993210146182,16.70202064456416,-4.796640368219154,2,S01
5940,-0.47657421785120846,-1.1987782424460718,10.11353177479737,-13.314110870668081,-19.387846972673422,-4.87070044102954,11.993281599722478,14.715491063374294,-4.461031773646435,2,S01
5960,-0.43224011079729974,-1.2162826060356704,9.769025505689262,-12.747708035714757,-12.739523269604627,1.1434020418676472,13.022163374588057,17.715990685550857,-6.163383823341685,2,S01
5980,-0.5135741282003858,-1.1597244731112468,9.450708483388391,-16.2540332107138,-12.651662279019217,1.4602979689924915,12.618829091733652,17.257449982366694,-3.2496227479884716,2,S01
6000,-0.4646483727509764,-1.2137915593897244,9.072663717701412,-13.877090679611998,-12.680467626371128,3.498005014166515,14.833186503737045,17.811226121297633,-4.135729076035618,2,S01
6020,-0.40608397943110586,-0.8024598333308651,8.920773201094605,-10.3318809750223,-11.921694289635097,6.064500070388451,13.45204936391167,16.14267094879121,-2.843142843039601,2,S01
6040,-0.3220266089497022,-0.5228432289945709,8.787103271658875,-9.410631560307591,-7.1974678346082825,9.40314904133022,16.8553056218159,18.241801170426776,-4.805730313897421,2,S01
6060,-0.23722427465732449,-0.4358631152560195,8.864258699835494,-8.319068688393603,-0.08801898841109596,12.089548575276524,17.875015804514078,17.225897570336695,-4.047565458497914,2,S01
6080,-0.27995483079674405,-0.0200492648074364,9.081513846981501,-4.988102802692228,4.620641599431292,10.147833066298563,19.074465295934722,17.634110331124454,-4.376290407492159,2,S01
6100,-0.02738912953670817,0.1963197363033403,9.39866657915003,-0.7941245288926981,11.524335104251552,13.27861060956447,21.512184420952185,16.017621835452555,-3.926396280126733,2,S01
6120,0.05480284708832288,0.4558505630377588,9.807664158462922,-0.3631604536766948,13.776589259888294,8.963548645750528,22.617541187190373,14.592318601498881,-2.3434251786420623,2,S01
6140,0.11350475306802327,0.6637325689095961,9.98418332993883,5.654340383254814,14.30929649432771,12.983803451571344,23.331356864001567,14.835197341506312,-3.1141304551065003,2,S01
6160,0.23958755524009645,0.9610016026121243,10.249791927218597,6.918424809543212,19.97194013567026,4.441943504416887,24.716569161489225,14.276496344219572,-3.798268789239082,2,S01
6180,0.4133406620725584,1.0119748395348704,10.435509429497664,12.457352364950188,21.10577352983254,7.772543237317725,25.19369077084884,14.406808124723847,-3.295123479203198,2,S01
6200,0.4455041305077233,1.233063717697025,10.251146835100089,13.524806751820602,20.74748247370798,4.974132063589157,26.290560651918902,14.335330756654239,-0.5472876284424982,2,S01
6220,0.4714878997108775,1.181674438987766,10.096532979894015,14.026463641432215,17.189714659494992,4.397517270144509,27.328802272686193,10.194881340040583,-2.746547312140097,2,S01
6240,0.4689750007913928,1.1730054989767318,9.755728428553079,13.609969466576967,18.752672474957436,-0.06905111466973302,30.003028901382443,11.377101415085495,-2.697796728935122,2,S01
6260,0.5522817332061335,1.0500965762136913,9.465161565469117,15.62678503001051,15.740717824613979,-2.379024523351986,29.071665489078033,9.417045975754466,-2.0443192179752496,2,S01
6280,0.3407427936891224,0.9645894624312384,9.218694811946287,15.145113906155135,13.771723247406976,-2.9166413149010095,30.841587904908977,8.37595497765908,-1.8143193830303974,2,S01
6300,0.45974923553232905,0.8787610839702672,8.861671760686994,13.886105815427191,8.307104756915242,-6.019285835264715,32.238096899091964,7.035278660852685,-1.0545227272432949,2,S01
6320,0.3752727498857159,0.6146423441901531,8.789196211270198,10.783343832289434,4.373382648345932,-6.280139005417232,33.290728591153936,5.054516483881494,0.5937740425506843,2,S01
6340,0.23441467681913986,0.33442591463362864,8.891231785266237,8.046189664023254,2.9876858384784653,-10.37530047401971,30.73795928831811,4.961049632310735,-0.8348027734581114,2,S01
6360,0.08955373476687094,-0.010455660056883104,9.018110888434274,4.500196345425685,-2.7440458633334424,-9.018579767068085,34.005466014856545,2.1294926775303997,-0.8258860184589529,2,S01
6380,0.0019496545619924958,-0.14461453213909028,9.42591126409724,-1.6397905669979207,-9.197910171601864,-11.291192608426014,33.83255982163663,1.1895518056651209,0.27908877989783276,2,S01
6400,-0.09886970618246677,-0.5544231517599537,9.75217676365822,-0.8933708989343423,-15.509418801948486,-11.561233380407288,34.42318589649271,1.5316382794816326,0.1791322899549208,2,S01
6420,-0.20744623398348125,-0.6530051639401444,10.137136524950277,-5.057837052136058,-14.429241926121307,-6.803005103670646,34.51736735721669,-2.37766416388577,-0.633460216388291,2,S01
6440,-0.23093003300697634,-0.9311970283349484,10.290901913915404,-8.018174221043708,-19.068333484411596,-9.935531294736922,35.075201456986115,-1.8797140864529878,0.3055396049290672,2,S01
6460,-0.35972415465723734,-1.1192208296691282,10.337402520290585,-11.885666121532653,-20.811070881593725,-5.757110639949142,35.81994506736393,-4.142524699911809,2.7701013499204135,2,S01
6480,-0.34686590999437167,-1.0071906305475342,10.34546133168798,-12.916506871391528,-19.60682560795628,-5.000841433829578,34.256064120031354,-7.464485489128922,0.42160028818686746,2,S01
6500,-0.4302389004282218,-1.159404645224979,9.991111927871067,-16.22191797349327,-19.690848024476033,-2.982838085644352,34.42725569286492,-6.626094551357858,1.6844608173718543,2,S01
6520,-0.5107679587507087,-1.0628846949535435,9.702904437456985,-15.796466165739467,-20.100952131926032,-2.856171556572419,36.51799321913357,-10.0835221971158,2.349313301836127,2,S01
6540,-0.5989792997921582,-1.1443229290946508,9.456707980009943,-16.620016216796525,-14.821907927422586,1.6342373431553796,36.87406248278478,-12.265964464028075,1.7365014602900186,2,S01
6560,-0.42563887646684784,-0.8781073383803789,9.06913752696591,-13.618429748009685,-13.312350938830967,2.3083007741959065,35.898607280247326,-13.376123399870155,1.3009081202929784,2,S01
6580,-0.3828767846918812,-0.8276516955086465,8.91002606339432,-9.204005367438555,-4.130071507969017,6.992558478696207,33.750409151623536,-14.742883014078778,3.9202744261962246,2,S01
6600,-0.2758742158281485,-0.5795578378457643,8.758667647449439,-11.133700049892497,-3.354890502747264,5.6086247913586185,34.86464572101324,-15.725336663339979,3.3923938265320372,2,S01
6620,-0.24254350573718753,-0.2162260300916429,8.816964410462534,-6.3606148233682,-1.7723789464209614,6.79805028261536,35.337312348518175,-17.976027817408873,5.05895027801702,2,S01
6640,-0.2066156067205546,-0.03571346140377626,9.261002746583126,-9.25121359967673,5.8465939191189555,7.995888501524375,34.528896552759434,-20.744337026273616,4.97935793130444,2,S01
6660,-0.03464231898503282,0.4275460574406312,9.48073829320556,0.5728329815838538,6.984119017498185,10.275522224831494,32.2939440740065,-20.0972639090636,5.579006945909481,2,S01
6680,0.09469645126967931,0.5512264993108935,9.896877599632138,2.0553358500648318,8.312923034057478,10.027054182975482,30.870636639352135,-22.456852431143055,5.274491646015565,2,S01
6700,0.09351924885589093,0.827485659014345,10.148623778730009,7.543879420265483,20.460709660701887,9.279618997795401,33.35759089771804,-22.118429906752187,7.103133326242672,2,S01
6720,0.3395042168435997,0.9404416311712894,10.323073551428124,10.48520087265291,17.96067232289063,10.171715079207628,31.37651723065147,-23.912408746157674,5.226581057960276,2,S01
6740,0.389841283591382,1.1511768226251624,10.375898261200918,8.406726345110858,22.149710821560554,4.680860866308635,28.089165927718625,-24.95731240040728,5.234393747252169,2,S01
6760,0.3800188779989771,1.2049030155708667,10.365089022344838,14.21875964686607,20.33739199406881,4.359756529459388,30.466169874579062,-26.581217647057365,8.76899598720906,2,S01
6780,0.5316080603390495,1.3033153679238845,10.014975302838167,14.044966282752117,16.408784645271655,0.14966127282712982,28.553320749437603,-27.438589050135754,8.433770740451285,2,S01
6800,0.4090942269242211,1.2254335054509171,9.69913403995035,15.958560146749114,17.585564950886322,0.2669256293997351,26.97933050612491,-28.738876494176086,8.5432832891752,2,S01
6820,0.4493052984670447,0.9656066253213091,9.297620040433626,16.703294332046696,12.793535642596742,-2.273763832047756,25.08024931535136,-29.757102756602848,8.786837015346016,2,S01
6840,0.39800551055384376,0.8400296721077003,9.030570541112406,14.69451952631118,13.047382153475603,-2.5453353003830474,25.81156274901151,-28.233470549447635,7.145532055125214,2,S01
6860,0.39046122274830647,0.7856410907338106,8.89898999948918,14.017358982958113,7.393318850214459,-3.545616870337228,22.237391929558623,-28.535715830508433,8.58264178521054,2,S01
6880,0.35628121110452543,0.3649549434715507,8.873534863845864,8.07004115133149,2.3890403080021003,-7.072797974633727,20.830697546583906,-29.554290299319693,9.42364380486363,2,S01
6900,0.22928592537383888,0.5191683345329066,8.936584769722357,8.625934073463362,-3.706768172560979,-5.911366268769656,21.441606019612138,-30.492227980650053,9.815565129372795,2,S01
6920,0.10397763260917449,-0.13141974190438835,9.213381931210598,6.744737089118011,-5.694283566363983,-8.935563591661783,20.815300524559024,-32.16366227013823,9.42196010191626,2,S01
6940,0.06397708452365994,-0.40470195861768826,9.531423855766525,0.8275817900429666,-12.743370421802618,-8.09717551257558,19.171052975793263,-31.077611772146824,9.207062402873053,2,S01
6960,-0.0806420695964132,-0.5498240403828555,9.906449079234536,-3.569059194559717,-9.64789873908454,-8.756958895143523,17.230828774599722,-31.381653524248915,10.956068064953804,2,S01
6980,-0.1499319920338978,-0.8380825189518887,9.982590062671358,-8.359831345227109,-18.70734260362296,-10.594882638353836,15.925766223053627,-31.77723799776664,11.790395376786563,2,S01
7000,-0.29101083174588144,-0.9777440858475677,10.232312519345854,-10.104676725166593,-17.79473642018326,-8.31746543846612,15.716682354194466,-34.20846265593736,11.790593651675302,2,S01
7020,-0.4198995736792572,-1.0511735049590438,10.300215928335902,-6.763955809423909,-18.281532322724832,-7.037457072468835,13.3014802009662,-32.033997051926754,10.769672465443323,2,S01
7040,-0.4309285398440437,-1.1346567880095484,10.396398063382915,-12.178172889995178,-21.21560037962891,-3.8153717981541586,12.598432355569352,-34.53057753307061,10.546442442257227,2,S01
7060,-0.46737376794616625,-1.328777495469442,9.994827717953063,-16.766702155651878,-20.06752708695881,-2.687627897418513,10.183394653787632,-33.29814006982228,11.818562572899143,2,S01
7080,-0.5003145496747441,-1.1267357319025046,9.736643403211175,-17.35828579507268,-18.013886070333665,0.4689180898304681,10.670591272383989,-31.656985803389357,12.812528064777236,2,S01
7100,-0.5869346547140297,-1.1144962837624748,9.247751004623737,-12.517399389149764,-14.270584115688226,1.3814587468519934,8.182305381938388,-32.20148121300308,13.085243585828396,2,S01
7120,-0.4405619642534596,-0.938419955458321,9.092241051090154,-17.05219710360298,-9.706711017108656,4.585669676942944,7.57770653724361,-32.611587802046145,12.598811763973895,2,S01
7140,-0.349451189058952,-0.7214895598120539,8.902890247647191,-10.82468383261976,-9.640674527409143,7.711477525608992,8.353656056619103,-31.784255463816095,11.652799467034605,2,S01
7160,-0.2510506920076858,-0.2627760905928674,8.74922108510612,-15.053506386034076,-0.16256740608303621,6.723885870914099,4.967232464904552,-29.90509831870141,13.994772490057104,2,S01
7180,-0.158537158436751,-0.16498493812371393,8.866565830852338,-7.671690803920667,0.5256313888627353,9.900965793143556,6.487194023190775,-28.864276500198937,12.628175187857561,2,S01
7200,-0.0195361622035832,-0.08706069550982304,9.216589211089676,-2.671898182916972,6.046001164016155,10.345999563049922,2.124197884243548,-26.253991947225877,14.142862241511384,2,S01
7220,0.05042693541935504,0.39605431881979375,9.551855893950686,-1.0588290663416449,9.53206624411366,10.116347583712638,1.4515944392853752,-29.58659310943091,14.3373024737537,2,S01
7240,0.08542903023201077,0.5461114043925048,9.878031431883754,4.92340470929761,15.872969336364331,13.042564933545444,0.8482677229243276,-26.816742139121544,14.477387842131819,2,S01
7260,0.12888491293236298,0.7134053510833102,10.177481350512386,8.03888146823261,16.01558827403531,6.701726710551362,1.360354778054378,-25.209426914249224,13.194127256613013,2,S01
7280,0.3560946482354703,1.166298453263207,10.335943493282022,9.502189627480147,17.15438820967481,10.037695877195315,0.12327121968020394,-23.80066287298091,12.915959455365947,2,S01
7300,0.43946118486475344,1.1077833690735046,10.361325921118059,12.268457356333228,21.582536617763626,7.889178932008965,0.13832489795419084,-21.726981182911064,12.778770255169917,2,S01
7320,0.49734580417940744,1.1648023893064494,10.228071511133413,10.828579965702069,18.168674583166418,2.849905050578638,-0.43794727314640036,-19.46526384361434,14.87892402960827,2,S01
7340,0.4445558998146917,1.1457736115444868,9.891312605272635,14.111026087108797,16.705133978678184,3.765614801850869,-3.8461113255995523,-20.409892693083613,14.27769156522235,2,S01
7360,0.41260057075851303,1.2418247884804292,9.72548476714525,16.543560121230723,13.931113104748386,0.843198954689341,-5.083112226801152,-19.603777529097464,13.256918110089774,2,S01
7380,0.49926549274776516,1.0387304655966658,9.230841921412352,13.87546573677817,15.647076573190075,-4.3499533572622475,-3.926720877367796,-17.122529054971235,15.098124090765355,2,S01
7400,0.47037603422590596,1.046383850764908,8.899766922670207,12.50520587156827,11.027776616423871,-2.6568525355100734,-4.1997708207960365,-16.499574528963485,14.763600123883238,2,S01
7420,0.330350822980192,0.7128861121370339,8.845616317478154,10.518753380060916,2.317292678250168,-9.215346804245563,-4.978821501395947,-12.905775013024186,16.057117804061242,2,S01
7440,0.37964404219011344,0.4798486215292871,8.927372028203422,10.702322287250238,-1.0992526729737573,-5.928784137513552,-4.140870451364232,-10.99813439552572,15.706057763035531,2,S01
7460,0.15143101375989806,0.21464260855956813,9.013807928897439,10.678039652593958,-2.2302489567595645,-8.841256914628492,-3.7354802572354107,-10.983886916454196,13.106434653423161,2,S01
7480,0.07315788504296461,-0.12473783166478793,9.33280057777076,1.9637826826419207,-9.954397732539189,-9.34707660630985,-6.026303328324608,-8.43716066669302,15.330437798740187,2,S01
7500,0.019700165870458693,-0.4016560826118243,9.649144487831698,-4.1272781394906595,-10.182913573961024,-10.04935013048713,-5.344690739533968,-8.981878387110186,15.559522003447842,2,S01
7520,-0.1931666468861738,-0.8041320802709115,9.863381364168553,-3.944418250822629,-12.694899883093477,-8.739686833501548,-3.512537237670694,-5.86319350841576,16.6750800711592,2,S01
7540,-0.2576572647498346,-0.8460013935402607,10.286749237643448,-6.696990964212247,-16.506034062960172,-6.9895839498389645,-4.8484276302744345,-3.866516414782162,15.006341862808922,2,S01
7560,-0.28390835946227183,-1.0849874697160675,10.390609027768608,-10.898345722657101,-17.724890877800984,-9.168504485625645,-5.370866254769097,-2.4562150392985154,14.62044719312822,2,S01
7580,-0.43544360629397816,-1.002197481332224,10.31397530084593,-16.340478631604697,-20.74476395965079,-6.62679640876299,-4.292708703340511,-0.055779738304002124,14.824027622875018,2,S01
7600,-0.3992136130434855,-1.1414715001514013,10.186301789221663,-13.579089965708942,-16.195310130832684,-5.343883039998583,-4.444535974222148,1.3740227229627222,14.682226475580007,2,S01
7620,-0.4744415378964654,-1.240195481171156,9.909360342044616,-13.746035863049583,-17.98187133862707,-1.2136021350354742,-1.9284442518115745,0.3951743043878081,14.691688820807611,2,S01
7640,-0.505212969074581,-1.1850875963873972,9.477198963403499,-12.812704243375114,-17.154911218764457,0.6046902430612986,-3.0226186228078755,2.9156906990577505,13.882635535195648,2,S01
7660,-0.3935214978414367,-1.033211687924113,9.157841867056542,-15.912126980888003,-14.088339532538171,2.3442966415251956,-2.838286990914588,2.8602393693135726,15.745086002385756,2,S01
7680,-0.3825921649251709,-0.8733172857560805,9.020060651282172,-14.216219513800613,-8.34885582842087,5.0304231667213735,-1.6710450163479447,4.022254470993413,15.167637289787413,2,S01
7700,-0.32336385539891066,-0.6651930128270882,8.861212685567555,-11.847056346302697,-5.986119750391372,8.460316223544812,-1.3723653821348454,7.774895611786452,14.667075061288147,2,S01
7720,-0.2597730260246691,-0.36713434970196096,8.808902312611918,-10.07798753393253,-0.3657523848233023,7.770015179706463,-0.7035418702697511,7.713478317766597,15.063681537481392,2,S01
7740,-0.14591488141644357,-0.259874129092819,9.04313374063516,-6.529879876520048,3.3237328943092113,12.771288842045456,0.055907294848045075,9.763498947723376,13.27271000984714,2,S01
7760,-0.126703013458859,0.3265405911696087,9.384472037920482,-3.9586967996439615,10.022600987087333,10.97953478688394,2.5550974430464914,10.671389679113696,13.43511380548438,2,S01
7780,-0.11138485031600596,0.393886411156827,9.673600878097783,0.6225018284664139,9.394978660463629,9.455155568616327,2.0038500875149596,12.035395656254966,13.549643873689547,2,S01
7800,0.09986372237545381,0.5791078621075001,9.914582985501266,4.12653134910214,15.193488111492979,10.448920653690143,3.5744337638223853,11.967919855314562,12.719166123018864,2,S01
7820,0.12373841305952156,0.8626964458914516,10.139532923930933,7.928463032475526,19.208387769911134,7.5248364173299525,3.749949487299091,12.353925795661317,13.91280772434269,2,S01
7840,0.39688334094360217,1.097719578759228,10.407648848884211,4.088626093657088,18.933080968918325,5.462991087005651,6.358164246070658,12.632841338910655,13.979131283421859,2,S01
7860,0.37546961709419246,1.064877138442386,10.321322516247452,15.204579230990833,23.062641792373725,4.2499113724137505,7.178674718828722,13.617741349384332,12.322372679520317,2,S01
7880,0.4465094720814662,1.4102530751273774,10.219815897427981,15.963051731659455,20.87478780531654,4.477652909125832,6.676206053642906,13.41705485801036,12.875337546407733,2,S01
7900,0.45987028189979307,1.2411359746380746,9.83265348477181,13.207907119736058,19.966212627871453,3.2591549293071393,8.362552593108306,15.833756741555785,11.535688360507121,2,S01
7920,0.5317350561949006,1.1708275554763052,9.531561409396646,15.437072384387367,15.090266782072993,-0.8832384630289796,11.189776347094678,16.857065900216053,12.837155724416947,2,S01
7940,0.47630391795630345,0.9805333548911641,9.096499961038116,15.339654153776191,12.918960300884635,0.012071603726230062,11.27477915743702,15.2008490654806,11.261249460839329,2,S01
7960,0.4770598294976217,0.7724027903864294,8.997632871678398,14.251759432339824,8.830973627227824,-2.7984502862077942,14.050424565376547,17.120559368657144,11.172335451376922,2,S01
7980,0.36345655906930663,0.6758345181269038,8.847102984913727,12.412251362371647,4.509138624367009,-6.779066131271525,12.4257643552942,17.115788488667697,11.645387126455551,2,S01
8000,0.332855886878137,0.38365838286208365,8.913876522299448,6.314006465573723,1.7282674586105475,-7.365088834158723,15.296694814885338,17.53720498471549,11.384598135573759,2,S01
8020,0.15766917951312184,0.14596049184918516,9.021119055574449,3.8425431099257064,-1.011537088995678,-9.170276676808571,15.080836140977377,17.246599286921914,10.740806301366169,2,S01
8040,0.13345265655162591,-0.16032066706646725,9.264426089257931,-0.84497930110334,-8.958554165185554,-9.746222783735092,18.123312587013938,15.626749930830368,9.698275747874431,2,S01
8060,-0.0008054291905835127,-0.5779382332798558,9.640871024291883,-1.1765142620612332,-10.300000835579752,-8.688465686667186,19.43575492928363,16.53420395477565,8.81191225492491,2,S01
8080,-0.11901112309158918,-0.7429487999176185,9.921145047254742,-4.082883288077664,-17.023352822929144,-9.865388384913787,20.23506993233085,16.315162605349997,10.518424462473678,2,S01
8100,-0.27219006823308556,-0.8667124026964168,10.317376713847098,-5.159354324734165,-16.897640743978542,-9.19881984338834,21.404013941173528,17.303911528840505,9.208345106389038,2,S01
8120,-0.3863113105772005,-0.9206721331516381,10.413432033301037,-11.084634102789474,-21.36628751197095,-7.42253917772382,22.888818382353374,14.052492671152068,7.096603880292269,2,S01
8140,-0.33156082484488947,-1.2509574719773113,10.245526021656083,-12.716208054908352,-19.33669564236088,-7.581553823078432,23.517642466617936,15.896491023692999,9.674528304680972,2,S01
8160,-0.4843798361128507,-1.3523757426878904,10.056840477453598,-13.193859150112328,-17.031430603365784,0.39130881582952304,24.890668433653662,13.092776635556387,9.176290747687043,2,S01
8180,-0.44900592250794347,-1.1564816205781128,9.821060374432639,-15.717005282984106,-13.731942191793419,-1.0394170124464035,24.410447997160695,12.513778502619465,8.17104055586889,2,S01
8200,-0.4881491186083985,-1.0884289797169617,9.442735311046611,-13.289176780244373,-13.64847904609999,0.9011724141728229,25.333752012711525,12.736206830576725,6.532889178850022,2,S01
8220,-0.45351139426136394,-1.0164340083315289,9.10660770707152,-11.819104319359413,-11.4597193074543,4.375273832076369,26.79192690511554,11.381781143388222,6.797752809765415,2,S01
8240,-0.40693347239122885,-0.786043965366439,8.838759009325303,-12.951429822087746,-9.334603142839619,4.338321641907752,29.992385366302557,10.163539113543203,6.572032300681373,2,S01
8260,-0.40410980549513126,-0.6411604479352814,8.831788232415017,-10.258532228681823,-4.089688601089609,6.601589374857591,31.204501202430222,9.350938644800932,7.403675219488079,2,S01
8280,-0.27711116001276315,-0.32506397166082185,8.867607396040633,-8.91996313951076,2.2551544717317755,6.927185829628835,30.848416965138313,7.642214658481481,5.7556371125268,2,S01
8300,-0.1889223373780368,0.006447033977228192,9.031866264573967,-7.733688470989964,7.076598915137829,12.349685625973692,31.228340948983853,6.26087542093073,4.702167333672034,2,S01
8320,-0.06353549696530941,0.08967517086276572,9.435001129683721,1.4701788133156994,5.829276258844519,10.355835974458511,31.72410757344015,6.492850715437032,6.920179571893664,2,S01
8340,0.05935647099838028,0.46888308522720445,9.745522459401512,4.539876466666222,14.761308297578774,8.433685152511226,30.636354353781282,4.599106517530436,3.8681907067521903,2,S01
8360,0.08142803197475287,0.6438599401610257,10.144723317969667,1.43544042583778,14.734594207350153,8.621797694802126,31.354502242696675,5.5166947945912455,4.821166495635498,2,S01
8380,0.17813702828064862,0.789970169981631,10.180345804801776,8.932432614436818,19.636775175370108,6.406297209916525,33.4057679885708,2.1291268583428176,4.258264846756492,2,S01
8400,0.3711068475023491,1.2488327216304147,10.376574622862309,13.00156223429924,21.378381234334622,7.604868231583006,34.698246328153424,-1.1713004214605942,4.956782313382508,2,S01
8420,0.3431751415204655,1.1872068999905812,10.230182853481786,11.065824463434172,20.118056075729566,3.9999829429391935,33.49946591439707,-2.3961984458708114,4.314847754980082,2,S01
8440,0.35700218710048887,0.996504251356016,10.163007886586062,10.989551616664803,18.562917657812335,3.6213088532435385,34.46655413695065,-5.393203532038793,3.9256987993888313,2,S01
8460,0.533858077969688,1.1373984590747517,9.764729211371485,12.714996429064625,15.787447999454672,-0.1622290253006402,34.66292205519921,-5.1023505235271,2.484160128415464,2,S01
8480,0.5212160331767028,1.2102428425691318,9.37910511327578,19.570319953486162,16.868352847599073,-1.8938865409772208,35.062601863428476,-5.955632010849712,2.3216862667128817,2,S01
8500,0.5264586304342431,1.023325941462256,9.136779507730326,15.168281408870293,13.621292445691598,-3.015478901171586,32.98634328295686,-8.480018263050816,0.89147597226711,2,S01
8520,0.29347035344460287,0.9288641549914314,8.828209368467746,16.09906237894494,6.838853796495709,-5.222570947077514,33.169383080447986,-9.314186476351589,2.1329719476833935,2,S01
8540,0.3856033677861853,0.37682919160040207,8.784071266115307,8.349460083327015,5.060871477023666,-5.513564895046585,35.91985820703344,-14.229070014807649,2.6641302003920506,2,S01
8560,0.24442069423241966,0.4319788640350065,8.813809366583415,5.631895096690775,-0.3615494668324637,-12.539899738416647,35.57124160819565,-12.384844482444995,-0.016693992947334646,2,S01
8580,0.23210197299563895,-0.030625228576740864,8.922936032765929,3.3146778191955857,-4.02355169867755,-9.384417206164548,35.41849209420097,-14.39786742146371,0.04265332737071392,2,S01
8600,0.03240521223200738,-0.24541519945701565,9.394111394640744,0.20612849622859497,-10.37159649065589,-8.41406807953584,35.01920869105819,-16.667683804925492,-0.4951909638760088,2,S01
8620,-0.151222673581314,-0.5006960685895308,9.697239752737767,-0.5117848539503067,-10.025189236017576,-8.251900364554974,34.40940982698895,-18.1519861325921,1.327174827611421,2,S01
8640,-0.11566260654949932,-0.7241550256767129,10.011996948345196,-5.531279978552039,-14.087776879859367,-9.16017163268939,32.83866863562784,-20.65123061919671,-0.9885720874766228,2,S01
8660,-0.27515006453683233,-0.8930811001019076,10.274704670722453,-11.332846105816248,-17.25006571979133,-8.125902248867446,32.532007698195486,-18.73163133020943,-0.686232740135712,2,S01
8680,-0.3398589501233125,-1.1719136284641511,10.350177694452702,-13.393215957285292,-19.490819748248267,-6.255161962697342,30.612604753174086,-21.24605553740708,-1.0439251350091987,2,S01
8700,-0.36337935755167333,-1.366025409033243,10.318942009374735,-10.468334601824973,-21.80205855135026,-7.0412062670594,28.389254591976346,-21.285622552848924,-1.7232698683421037,2,S01
8720,-0.42938529262159814,-1.2272102145699977,10.041700726700942,-11.802142182127232,-16.827831868967003,-2.177720772717488,31.25199921066155,-23.974833196641033,-1.476258405994393,2,S01
8740,-0.5127836533258323,-1.1919058587727531,9.688577825744032,-13.048646017393065,-22.68093932373445,1.389783539680013,31.32538517201914,-27.18266529717164,-2.17327793357014,2,S01
8760,-0.5272956701925126,-1.1150338524223216,9.431014310702547,-15.403978282605586,-15.614055102585686,1.0280890910143574,28.138557569218534,-26.292405569049,-1.5748527971457256,2,S01
8780,-0.4273158373870387,-0.9752551315214433,9.0478840965536,-12.275984088969949,-12.094823061180646,5.114445791361624,27.062130205926234,-25.67745346969811,-1.7418501854871233,2,S01
8800,-0.42879438554092236,-0.8843805131905631,8.931019387417534,-12.010853615166663,-9.997091799644009,5.970049040523128,27.948843970569158,-29.88347710776841,-2.1684978972839764,2,S01
8820,-0.27432412067290773,-0.5527569975045694,8.710866486934433,-5.824015473187055,-2.281789497088397,8.701786535604164,24.885600910338862,-28.239275081466257,-3.1415467705636293,2,S01
8840,-0.30104310706376725,-0.369011427139698,9.006930872528699,-8.539687826100652,-0.029792529654378508,8.460098166886239,25.28815847192909,-28.431875501310643,-4.097901367784328,2,S01
8860,-0.12304309843637114,0.0731098123893331,9.047855615767537,-4.009022702814354,9.044768591252533,10.587838455125839,25.17551382258706,-30.904505423971674,-2.7696319692317006,2,S01
8880,-0.0024911975522964565,0.40116435649980436,9.346957563862546,-2.2400281637676476,6.015735714699388,9.126213589975517,23.210884603558707,-32.504115808830136,-2.2659677116173893,2,S01
8900,0.028134690538872804,0.5533248435851779,9.65201980202211,2.4689927779463954,14.927904470913482,12.326102598812597,20.301332887006097,-31.902370391339332,-4.127770047301012,2,S01
8920,0.17241322651779567,0.8337939241227498,10.008436246095743,6.4276247305512655,13.438522614282618,8.759189258775859,17.695571115181608,-32.711923582434075,-4.835632500266284,2,S01
8940,0.23727117998975109,1.0595547867427442,10.267629028058977,7.930521138391423,17.76056087567613,6.590977637654216,17.466881691878886,-31.93219715788736,-5.2142452005540925,2,S01
8960,0.29304741390655603,1.0452799837387983,10.441627946451653,13.596237372307513,20.35574543790945,8.704666994128443,15.007812910367122,-31.77492045413793,-3.5457804687790304,2,S01
8980,0.3577556131703249,1.2733941488381686,10.184296400406536,11.060824219307166,20.047373229345027,8.415073985974647,16.52715835062724,-32.55395817670186,-4.913512529368551,2,S01
9000,0.4499101194000751,1.2830855202818667,10.097841613017515,11.876815112111705,18.616940085371024,1.5231259464063758,15.187635339782016,-32.179186465760075,-4.570707792127093,2,S01
9020,0.48891514198509495,1.2758037074615325,9.733719380096815,13.159192352756595,18.60783044315442,0.9326673219706646,13.764485361970879,-32.97025344768312,-4.256475329484789,2,S01
9040,0.40493197139770004,1.0766323548016334,9.404992923369889,16.938278299126672,15.954227540380694,-0.7202155499575374,10.448013587571934,-31.97218264563588,-6.129137184541918,2,S01
9060,0.4602269501950464,0.9218090266558014,9.073262011165882,13.395801153654558,12.642976659790746,-3.7726555228597567,11.514348361916,-33.22576112929337,-4.246838343464137,2,S01
9080,0.3695940048649328,0.9014948091581862,8.821527801153222,9.346284777462252,9.374509810432672,-7.0694544792139125,10.489133433132436,-32.555760095679815,-3.978546289881055,2,S01
9100,0.3575097653409076,0.5853000963197673,8.875282637957383,9.159100230395286,0.4085543258919899,-9.587523323234205,8.738320806987225,-33.209252782891674,-3.334613944143849,2,S01
9120,0.20826066821384573,0.27630480165742927,8.84913228612939,7.892858350900149,-2.6557976501649705,-7.001071020760866,7.70809090215817,-31.942735561663888,-4.610376540920454,2,S01
9140,0.13854137654518686,-0.07351839110598819,9.087521139486414,7.666973159076029,-3.8542565823941604,-11.950578241159931,7.31846376423121,-29.20298181927078,-4.474919897763212,2,S01
9160,0.08549527039421274,-0.22428073455969316,9.431450300525423,-0.9208157281567293,-7.402600578259465,-10.528791847958685,6.324112413745647,-30.125726535769637,-6.121644891166425,2,S01
9180,0.011663278593140146,-0.5025775012843166,9.845118593188692,-4.522850217645018,-17.20719339212906,-9.024549216333403,4.581947577237834,-28.199348620782164,-4.7846301517357075,2,S01
9200,-0.1619605479114896,-0.8534852889441279,10.180913846174787,-4.263193069700893,-14.310707054415525,-11.800386367346547,5.1930461483024954,-28.711744943805158,-5.234876510435165,2,S01
9220,-0.27575573462288533,-0.7305143868629297,10.324400749526896,-10.912463749079453,-17.54458175712614,-8.21477659849141,2.3231274685111014,-26.787572114422424,-5.04655184513692,2,S01
9240,-0.36524583230196866,-1.1847056215142493,10.362504439011824,-14.529126903015126,-17.699717758203988,-6.17615258058193,1.1778590891720315,-26.725778725246965,-5.0694486476342115,2,S01
9260,-0.5047418793703888,-1.1767149312228238,10.330216656154345,-11.327063112465948,-16.874839118814528,-4.775141241793149,-0.6529642269659082,-25.254968790195615,-4.915423773302691,2,S01
9280,-0.4595480394332275,-1.200727207262681,10.036819596393062,-11.017534918289211,-18.494750139150455,-3.423587682885867,-0.2957437725273595,-26.008329093522452,-6.107241137710525,2,S01
9300,-0.599302396048886,-1.0864585919848793,9.612018216928131,-16.36390401243999,-15.107520295674238,-0.3284702038097161,0.20959277034936658,-23.076775161683393,-4.836312610114284,2,S01
9320,-0.44862719380408245,-1.1620191048229256,9.351208183727035,-16.301320262481692,-16.3937315273155,0.9810964865881723,-2.3070703518868174,-20.418223231407353,-3.7677255330716752,2,S01
9340,-0.4232138499119787,-0.9509825827931809,9.082101497443826,-14.216117860286296,-11.291622075022389,3.325590880087107,-2.6938191064929184,-19.090432850910794,-6.013359212287305,2,S01
9360,-0.3813517609911363,-0.7382461475079104,8.839582790580137,-10.720722637817573,-5.9922052545419,1.4699634779113033,-4.165644923038748,-19.536932656530844,-4.508353314330039,2,S01
9380,-0.34184074184401436,-0.5467529697899803,8.810811349044544,-7.992867592805513,-0.5258599522519987,7.214310696964719,-2.802968170444847,-18.10937454987634,-4.438109253598507,2,S01
9400,-0.1755060512709529,-0.23871626846259567,8.913684564308808,-8.855762453592073,2.0232348978253434,6.936851034476277,-3.297751574017896,-14.973652972505667,-5.019802271845007,2,S01
9420,-0.22822800247753428,0.13408399304878932,9.21980462591938,-2.446170855205252,2.386620230283001,10.15083440785797,-2.049111957161677,-14.529288320501522,-4.612724480170939,2,S01
9440,0.04616204478577013,0.31525463629513983,9.500448561242125,-3.5216510481931813,12.117509054339367,12.6720140807419,-4.301016611652752,-12.724657136559976,-3.218583010114482,2,S01
9460,0.0702009920075959,0.5695946370514829,9.88892832813871,1.9071667676429334,8.825058396867709,10.09018367864994,-4.002995787700655,-11.32225228382145,-5.394025974516541,2,S01
9480,0.22806974585156756,0.8653938016199006,10.158130244399107,6.127029863861751,18.96967017451842,8.941124732259594,-5.871506883009115,-9.75474951555803,-2.6448926843182856,2,S01
9500,0.2811669693348109,0.9949077637345788,10.424802749393297,8.312557056237148,19.541163399734074,8.58446979558726,-4.892677498251051,-10.086739474967048,-3.922102493295581,2,S01
9520,0.4493434938262484,1.1111789229424223,10.303687659272518,10.958402228927595,22.529423157845912,5.2325032858680025,-5.168315005227867,-6.100580416737818,-3.502467970258679,2,S01
9540,0.4798439741905482,1.2213976346494273,10.23780947059332,15.64712056314307,22.36626315539536,8.25981916407203,-6.33254083365728,-5.703351857421751,-2.6112785115680426,2,S01
9560,0.45361016813872596,1.1588352418716679,9.95898245609506,12.100829544979542,17.078769409531596,0.01229049697291451,-5.839575676479735,-1.3606616672700624,-1.7058585198224343,2,S01
9580,0.4654830847093484,1.2398234095338214,9.699144356889153,13.212749035420792,18.157038936128146,-2.5903155605870367,-3.157910055520117,-0.5090358238914695,-1.880063223818385,2,S01
9600,0.4552884982056154,0.9725186327122755,9.276476428034186,14.990925055333358,14.944440382846919,-1.07934158807846,-4.5773405513712095,0.8622117863587457,-4.18881987811836,2,S01
9620,0.47657464444161823,0.8965075646248729,8.940248267319202,16.11865749766707,11.63460274259159,-3.157709411863898,-3.3861454463709864,0.5805313024261315,-0.5128794292273636,2,S01
9640,0.3547284937834622,0.8205392395228865,8.80386684689253,9.000083486575104,6.039724562232923,-9.038323402106785,-2.573036574626337,1.944657239824492,-1.2835492539746858,2,S01
9660,0.29465840655262565,0.3682422646473107,8.734455677062583,10.72101399201409,2.031618933209372,-7.746767558896645,-3.2895665737342865,3.8377221503339642,-0.7208286299573787,2,S01
9680,0.2840590831449046,0.27519127348053746,8.891817549816297,7.5829056504424,-2.3851691964555157,-7.307347111181302,0.13809900677560202,4.316839086294696,-0.090449469011717,2,S01
9700,0.13011940931371613,0.05905300053583412,9.207605684679232,6.579418832147027,-5.793049658096977,-10.797065384773658,-0.34082746110938544,6.132040525240598,-0.4390456921874177,2,S01
9720,0.05624506538486989,-0.37670932251258765,9.40035520537921,-0.29514669313181585,-11.443232016027062,-12.656134939336646,1.9395291807446373,8.377165458974188,-0.5325113972385646,2,S01
9740,-0.09314817050704728,-0.5659775452627629,9.987670700205417,-0.5229086166886274,-9.741922995522476,-10.403464368178435,1.5193902699061905,9.464329624114539,0.7726104923103159,2,S01
9760,-0.14563064997657457,-0.82191079996304,10.200662882015392,-3.0859803729445487,-16.75054682976542,-11.67148397597623,-0.6297543336336914,8.636108082028429,1.00628220197967,2,S01
9780,-0.3005891740387159,-0.9786463511935353,10.337427234680412,-6.9943254669651775,-16.85855932694574,-8.758845848662729,2.4450620118576176,12.208137933267741,2.0486301701394627,2,S01
9800,-0.33549924602274656,-1.2014667580364338,10.349551019450418,-11.063575967329884,-19.36119091234674,-5.8436721484227885,3.5149264907187168,11.128987704029115,1.8141483923665098,2,S01
9820,-0.43732413631977135,-1.1992086313773864,10.268208931706004,-11.446978271173744,-22.380979754448227,-4.198425117059403,2.4506069441469522,13.97483280482726,0.8413272465881616,2,S01
9840,-0.5023638832065137,-1.1361975041627652,9.94476767818439,-12.667884467141976,-17.017228696578822,-4.750358880737256,7.24695121719341,14.61943952170834,2.126715874472974,2,S01
9860,-0.46865741451155374,-1.225523720315423,9.648078592110576,-15.8408949154362,-16.633277379438603,-1.306286919041074,6.024816864921878,15.939554816201547,1.5585366686600808,2,S01
9880,-0.5032945484104304,-1.0801417655041934,9.34153766021287,-12.844889083515906,-11.924439268499365,0.05864348143768172,6.542576573800018,17.07756986390097,3.1320429250247575,2,S01
9900,-0.4923228812275383,-0.804151004650138,8.976143207819725,-11.239606459209156,-10.70206707714745,4.7827775772681616,7.485324587058962,17.010226051400625,3.434847786351712,2,S01
9920,-0.35690597626962156,-0.6314650331532643,8.849750150952971,-11.944381195941997,-4.3374042199739575,7.598972296537593,10.990932743279256,14.792739776346231,4.577038078690129,2,S01
9940,-0.2975952588442755,-0.3259811052121057,8.85822323860493,-8.33385716521024,-0.6051984838486357,9.11707470527843,12.694763406631505,14.788522533998746,4.3422089389018605,2,S01
9960,-0.2807349571528141,-0.25416235412564214,8.967930560649664,-2.0385166551553846,6.735736172661385,7.606999546229585,12.468564019219091,16.638097225414956,3.594101367178877,2,S01
9980,-0.0822370170646634,0.06417694086271405,9.194379446034691,-2.9880890160043676,6.424789685508003,8.224989207208157,14.136804172945356,17.921455162440225,3.5116894369716958,2,S01
