timestamp,ax,ay,az,gx,gy,gz,mx,my,mz,label,subject_id
0,-9.25838,-0.68953,0.66319,-3.9634,-2.1341,-1.3415,0.00,0.00,0.00,4,S01
20,-9.25598,-0.74220,0.68714,-3.6585,-1.7683,-1.3415,0.00,0.00,0.00,4,S01
40,-9.25838,-0.75896,0.72305,-2.8049,-1.3415,-1.1585,0.00,0.00,0.00,4,S01
60,-9.25598,-0.74460,0.75178,-1.7683,-1.1585,-0.9146,0.00,0.00,0.00,4,S01
80,-9.33260,-0.69671,0.73741,-0.9756,-0.8537,-0.6707,0.00,0.00,0.00,4,S01
100,-9.33499,-0.65122,0.78290,-0.5488,-0.4878,-0.8537,0.00,0.00,0.00,4,S01
120,-9.33978,-0.62249,0.75178,0.0610,-0.5488,-1.2195,0.00,0.00,0.00,4,S01
140,-9.33020,-0.56503,0.68953,0.4878,-0.6098,-1.6463,0.00,0.00,0.00,4,S01
160,-9.30626,-0.54588,0.71826,0.5488,-0.4878,-1.8902,0.00,0.00,0.00,4,S01
180,-9.28711,-0.58897,0.76854,0.8537,-0.7927,-1.8293,0.00,0.00,0.00,4,S01
200,-9.28950,-0.60094,0.77093,1.1585,-1.1585,-1.6463,0.00,0.00,0.00,4,S01
220,-9.30626,-0.57700,0.73981,0.8537,-1.0366,-1.4634,0.00,0.00,0.00,4,S01
240,-9.30626,-0.56264,0.72544,0.3659,-0.7317,-1.3415,0.00,0.00,0.00,4,S01
260,-9.30147,-0.56264,0.73263,0.3049,-0.7927,-1.2805,0.00,0.00,0.00,4,S01
280,-9.29908,-0.55306,0.72544,0.4878,-0.9146,-1.1585,0.00,0.00,0.00,4,S01
300,-9.32302,-0.53391,0.74939,0.4268,-1.0366,-0.9756,0.00,0.00,0.00,4,S01
320,-9.35175,-0.50996,0.77572,0.0610,-1.2805,-0.9146,0.00,0.00,0.00,4,S01
340,-9.34936,-0.50996,0.77572,-0.4878,-1.7073,-1.0366,0.00,0.00,0.00,4,S01
360,-9.30626,-0.56743,0.75896,-0.6098,-1.8293,-1.2805,0.00,0.00,0.00,4,S01
380,-9.27035,-0.60813,0.78290,-0.3049,-1.6463,-1.4024,0.00,0.00,0.00,4,S01
400,-9.25598,-0.61292,0.80924,-0.0610,-1.3415,-1.2805,0.00,0.00,0.00,4,S01
420,-9.27035,-0.61052,0.80685,-0.0610,-1.2195,-1.0366,0.00,0.00,0.00,4,S01
440,-9.28232,-0.61292,0.78530,0.0610,-1.2195,-0.7927,0.00,0.00,0.00,4,S01
460,-9.26556,-0.63686,0.79248,0.5488,-1.1585,-0.6098,0.00,0.00,0.00,4,S01
480,-9.20810,-0.69192,0.82839,1.4024,-1.2805,-0.3659,0.00,0.00,0.00,4,S01
500,-9.13867,-0.80685,0.82839,2.6829,-1.2805,-0.1220,0.00,0.00,0.00,4,S01
520,-9.05008,-1.05105,0.70868,5.6707,-0.0610,0.1829,0.00,0.00,0.00,4,S01
540,-9.05727,-1.25935,0.72065,10.4878,2.1951,0.1829,0.00,0.00,0.00,4,S01
560,-9.13627,-1.32160,0.71587,15.5488,3.5366,0.2439,0.00,0.00,0.00,4,S01
580,-9.24880,-1.13246,0.72784,19.2073,3.9634,0.6098,0.00,0.00,0.00,4,S01
600,-9.43794,-0.85234,0.83318,20.7927,4.3902,1.0976,0.00,0.00,0.00,4,S01
620,-9.57681,-0.56743,0.89783,20.8537,3.6585,0.9146,0.00,0.00,0.00,4,S01
640,-9.62948,-0.29449,0.87867,17.7439,2.9878,0.0610,0.00,0.00,0.00,4,S01
660,-9.63666,-0.11732,1.01275,11.9512,2.6220,-1.1585,0.00,0.00,0.00,4,S01
680,-9.50498,-0.03591,1.08218,6.6463,1.2805,-2.6220,0.00,0.00,0.00,4,S01
700,-9.38288,-0.10056,1.14443,1.5854,-0.2439,-4.0854,0.00,0.00,0.00,4,S01
720,-9.27514,-0.18196,1.13485,-2.8659,-0.3659,-5.0000,0.00,0.00,0.00,4,S01
740,-9.08121,-0.34237,1.14443,-6.3415,0.6707,-5.3049,0.00,0.00,0.00,4,S01
760,-8.96150,-0.59855,1.22583,-8.0488,2.1341,-5.0610,0.00,0.00,0.00,4,S01
780,-9.05248,-0.86670,1.31442,-4.0854,3.8415,-3.4756,0.00,0.00,0.00,4,S01
800,-9.08600,-0.85234,1.29287,-1.8293,4.7561,-2.3171,0.00,0.00,0.00,4,S01
820,-9.09078,-0.82839,1.31202,0.3049,6.1585,-1.6463,0.00,0.00,0.00,4,S01
840,-9.06924,-0.83558,1.38385,2.8049,7.5000,-1.4024,0.00,0.00,0.00,4,S01
860,-9.11951,-0.74939,1.43892,5.0610,8.5976,-1.6463,0.00,0.00,0.00,4,S01
880,-9.23922,-0.54588,1.40061,5.3659,8.8415,-1.9512,0.00,0.00,0.00,4,S01
900,-9.22246,-0.46687,1.33596,4.0854,8.9634,-2.3171,0.00,0.00,0.00,4,S01
920,-9.17458,-0.48602,1.33596,3.2317,9.4512,-2.8049,0.00,0.00,0.00,4,S01
940,-9.24641,-0.50757,1.41976,2.0732,9.5732,-3.2317,0.00,0.00,0.00,4,S01
960,-9.27514,-0.55306,1.47483,0.0610,8.7195,-3.3537,0.00,0.00,0.00,4,S01
980,-9.18655,-0.60094,1.42455,-1.4634,7.7439,-3.2927,0.00,0.00,0.00,4,S01
1000,-9.00938,-0.67038,1.57299,-2.1951,7.4390,-2.8049,0.00,0.00,0.00,4,S01
1020,-9.01178,-0.70390,1.72383,-3.0488,6.8293,-1.9512,0.00,0.00,0.00,4,S01
1040,-9.03572,-0.73502,1.92254,-4.7561,6.1585,-1.0366,0.00,0.00,0.00,4,S01
1060,-9.04529,-0.70629,2.00874,-6.6463,5.2439,-0.7317,0.00,0.00,0.00,4,S01
1080,-8.93037,-0.79248,2.03747,-7.9878,4.8780,-0.5488,0.00,0.00,0.00,4,S01
1100,-8.89446,-0.89783,1.98000,-8.5366,5.1220,-0.6098,0.00,0.00,0.00,4,S01
1120,-8.96629,-0.96007,1.97761,-9.6341,5.7927,-0.6707,0.00,0.00,0.00,4,S01
1140,-9.11712,-0.99359,2.11169,-11.6463,5.2439,-0.6098,0.00,0.00,0.00,4,S01
1160,-9.25359,-0.98881,2.15239,-14.5732,3.1098,-0.4878,0.00,0.00,0.00,4,S01
1180,-9.16500,-1.07739,2.01352,-18.7195,1.5854,-0.8537,0.00,0.00,0.00,4,S01
1200,-9.02375,-1.25456,2.04225,-22.7439,2.0732,-1.9512,0.00,0.00,0.00,4,S01
1220,-9.07642,-1.44370,2.04225,-26.2805,2.5610,-3.5366,0.00,0.00,0.00,4,S01
1240,-9.32542,-1.75734,1.92973,-29.0854,2.2561,-6.2195,0.00,0.00,0.00,4,S01
1260,-9.83299,-2.16196,1.69509,-28.2927,1.0366,-10.2439,0.00,0.00,0.00,4,S01
1280,-10.27591,-2.70784,1.50356,-23.5366,-1.2805,-16.0976,0.00,0.00,0.00,4,S01
1300,-10.33816,-2.29365,1.42216,-16.1585,-5.3659,-24.1463,0.00,0.00,0.00,4,S01
1320,-9.98622,-1.46765,1.24738,-12.7439,-12.8659,-29.0854,0.00,0.00,0.00,4,S01
1340,-10.05325,-0.99120,0.97205,-14.8171,-19.0854,-27.6220,0.00,0.00,0.00,4,S01
1360,-10.32140,-0.88346,0.52912,-17.3171,-19.4512,-21.3415,0.00,0.00,0.00,4,S01
1380,-10.32380,-0.87388,-0.08619,-19.3293,-15.2439,-14.5122,0.00,0.00,0.00,4,S01
1400,-10.11071,-0.66798,-0.50039,-19.6341,-10.0610,-7.3171,0.00,0.00,0.00,4,S01
1420,-9.62708,-0.30646,-0.89304,-18.3537,-6.6463,-0.8537,0.00,0.00,0.00,4,S01
1440,-9.16261,-0.01197,-1.07260,-16.3415,-4.7561,3.7805,0.00,0.00,0.00,4,S01
1460,-9.10994,0.22505,-0.81403,-14.7561,-4.2073,5.7317,0.00,0.00,0.00,4,S01
1480,-9.26317,0.19393,-0.31125,-12.9268,-4.9390,6.5854,0.00,0.00,0.00,4,S01
1500,-9.48822,0.06464,-0.19393,-8.9024,-4.5732,7.2561,0.00,0.00,0.00,4,S01
1520,-9.57920,-0.13168,-0.12210,-3.7195,-2.5610,8.5366,0.00,0.00,0.00,4,S01
1540,-9.42358,-0.26336,-0.02155,1.9512,-0.5488,11.0366,0.00,0.00,0.00,4,S01
1560,-9.08121,0.01915,-0.05746,4.6341,1.7683,12.8659,0.00,0.00,0.00,4,S01
1580,-8.77714,0.37110,-0.21548,2.3780,4.2683,14.6951,0.00,0.00,0.00,4,S01
1600,-8.71968,0.37589,-0.25379,-1.0366,7.1951,16.4634,0.00,0.00,0.00,4,S01
1620,-8.86333,0.27773,-0.01676,-3.1098,8.3537,16.2195,0.00,0.00,0.00,4,S01
1640,-9.00459,0.13886,0.19154,-4.4512,6.9512,14.5122,0.00,0.00,0.00,4,S01
1660,-9.06924,-0.09816,0.09098,-4.5732,5.5488,13.1098,0.00,0.00,0.00,4,S01
1680,-9.16500,-0.12210,0.08380,-3.5976,6.1585,12.3171,0.00,0.00,0.00,4,S01
1700,-9.16022,-0.02394,0.15562,-4.3902,6.7073,12.3780,0.00,0.00,0.00,4,S01
1720,-9.03572,0.00239,0.22027,-6.6463,6.7683,12.8659,0.00,0.00,0.00,4,S01
1740,-9.04529,-0.00239,0.43096,-9.3293,7.4390,12.9878,0.00,0.00,0.00,4,S01
1760,-9.17937,0.00239,0.66798,-10.8537,6.3415,11.7073,0.00,0.00,0.00,4,S01
1780,-9.20331,-0.00479,0.76375,-10.4878,4.8171,9.7561,0.00,0.00,0.00,4,S01
1800,-8.85136,0.15802,0.59855,-9.9390,6.1585,8.1707,0.00,0.00,0.00,4,S01
1820,-8.43238,0.27054,0.56982,-12.0732,11.2195,7.5000,0.00,0.00,0.00,4,S01
1840,-8.42280,0.16041,0.69192,-15.1829,15.6707,6.5244,0.00,0.00,0.00,4,S01
1860,-8.66222,-0.04549,0.78290,-15.2439,17.5610,3.2927,0.00,0.00,0.00,4,S01
1880,-8.72447,-0.18435,0.87628,-13.5366,18.3537,-0.8537,0.00,0.00,0.00,4,S01
1900,-8.65025,-0.20830,1.03430,-11.8902,18.7195,-4.2683,0.00,0.00,0.00,4,S01
1920,-8.72926,-0.08619,1.17795,-10.0610,18.4146,-7.2561,0.00,0.00,0.00,4,S01
1940,-8.86812,-0.04310,1.30963,-8.1098,18.1707,-9.5732,0.00,0.00,0.00,4,S01
1960,-8.97826,-0.08140,1.34315,-5.1220,19.3902,-10.4878,0.00,0.00,0.00,4,S01
1980,-9.43316,-0.23942,1.41018,0.7927,22.8049,-10.9146,0.00,0.00,0.00,4,S01
2000,-9.77792,-0.16520,1.54426,2.6829,21.2805,-11.2195,0.00,0.00,0.00,4,S01
2020,-10.07001,0.07661,1.67355,4.0854,16.7073,-9.8780,0.00,0.00,0.00,4,S01
2040,-10.32140,-0.01437,1.96564,5.8537,11.2195,-5.9756,0.00,0.00,0.00,4,S01
2060,-10.36689,-0.36631,2.41575,11.2805,8.0488,-0.7927,0.00,0.00,0.00,4,S01
2080,-10.73321,-0.37350,2.31280,20.3049,7.5000,4.1463,0.00,0.00,0.00,4,S01
2100,-11.84172,0.42617,0.94810,25.6098,8.0488,9.8780,0.00,0.00,0.00,4,S01
2120,-12.52168,1.67115,-1.00556,20.7927,12.2561,18.9634,0.00,0.00,0.00,4,S01
2140,-12.00453,2.07098,-2.14760,7.3780,18.8415,29.4512,0.00,0.00,0.00,4,S01
2160,-10.06283,1.04148,-2.60729,-2.2561,19.0854,34.4512,0.00,0.00,0.00,4,S01
2180,-8.20493,-0.62968,-2.61447,-0.9756,16.6463,28.5366,0.00,0.00,0.00,4,S01
2200,-8.25521,-0.64404,-2.65517,12.6829,15.6707,16.2195,0.00,0.00,0.00,4,S01
2220,-9.44513,0.37828,-2.52588,13.5976,11.7073,8.8415,0.00,0.00,0.00,4,S01
2240,-9.89045,1.01035,-2.35589,-1.1585,0.5488,5.5488,0.00,0.00,0.00,4,S01
2260,-9.23683,1.33118,-2.66475,-17.6220,-7.6829,1.8902,0.00,0.00,0.00,4,S01
2280,-9.09797,1.61848,-2.94008,-34.4512,-6.3415,-3.5366,0.00,0.00,0.00,4,S01
2300,-9.02375,1.37906,-3.00472,-52.3171,-8.3537,-10.2439,0.00,0.00,0.00,4,S01
2320,-8.92319,0.69911,-2.76291,-69.4512,-11.7683,-16.5244,0.00,0.00,0.00,4,S01
2340,-8.85136,0.10056,-2.48758,-80.9146,-13.4146,-21.0976,0.00,0.00,0.00,4,S01
2360,-8.90164,-0.24900,-2.18830,-89.9390,-12.3171,-23.2927,0.00,0.00,0.00,4,S01
2380,-8.87531,-0.12689,-1.97761,-97.8659,-11.5854,-22.5610,0.00,0.00,0.00,4,S01
2400,-9.04529,0.30406,-2.24097,-107.8049,-13.5976,-19.5122,0.00,0.00,0.00,4,S01
2420,-9.11473,0.49081,-2.31519,-120.7317,-12.6220,-16.9512,0.00,0.00,0.00,4,S01
2440,-8.93037,0.18196,-2.35350,-131.0366,-10.5488,-16.2805,0.00,0.00,0.00,4,S01
2460,-8.87291,-0.50996,-2.01113,-139.6342,-8.8415,-16.7683,0.00,0.00,0.00,4,S01
2480,-9.25838,-0.89543,-1.69509,-142.5000,-5.5488,-18.2317,0.00,0.00,0.00,4,S01
2500,-9.70849,-1.08697,-1.18513,-143.2927,-2.0732,-18.6585,0.00,0.00,0.00,4,S01
2520,-9.79228,-1.08457,-0.87388,-141.8902,-3.1098,-18.5366,0.00,0.00,0.00,4,S01
2540,-9.46667,-1.34075,-0.62249,-138.2317,-7.9268,-18.7195,0.00,0.00,0.00,4,S01
2560,-9.32063,-1.75495,-0.14126,-132.2561,-11.4634,-19.8171,0.00,0.00,0.00,4,S01
2580,-9.35175,-1.95127,0.22027,-123.7195,-12.1951,-21.8902,0.00,0.00,0.00,4,S01
2600,-9.28232,-1.73101,0.40462,-114.9390,-13.1098,-21.4634,0.00,0.00,0.00,4,S01
2620,-8.93037,-1.38624,0.71347,-107.8659,-16.2805,-18.7195,0.00,0.00,0.00,4,S01
2640,-8.68856,-1.18752,0.84755,-102.8659,-20.5488,-15.5488,0.00,0.00,0.00,4,S01
2660,-8.85376,-0.76854,0.67756,-99.6341,-17.6220,-13.5976,0.00,0.00,0.00,4,S01
2680,-9.36372,-0.03591,0.49081,-99.1463,-9.6341,-12.2561,0.00,0.00,0.00,4,S01
2700,-9.67257,0.29209,0.50278,-103.5976,-9.0854,-9.8780,0.00,0.00,0.00,4,S01
2720,-9.50737,-0.07661,1.02711,-107.0732,-16.9512,-8.7195,0.00,0.00,0.00,4,S01
2740,-9.11951,-0.64883,1.29766,-105.2439,-25.4268,-9.0854,0.00,0.00,0.00,4,S01
2760,-8.86333,-0.93613,1.23541,-102.4390,-26.2195,-9.0854,0.00,0.00,0.00,4,S01
2780,-9.01178,-0.48602,1.11330,-101.7073,-21.0366,-8.4756,0.00,0.00,0.00,4,S01
2800,-9.47864,0.06225,1.26653,-105.9756,-15.9756,-7.0732,0.00,0.00,0.00,4,S01
2820,-9.68455,0.09098,1.36948,-110.8537,-12.8049,-4.3902,0.00,0.00,0.00,4,S01
2840,-9.55526,-0.19393,0.72784,-113.3537,-9.2683,-2.1951,0.00,0.00,0.00,4,S01
2860,-10.50336,-0.58658,0.19632,-113.6585,1.4024,-1.3415,0.00,0.00,0.00,4,S01
2880,-12.36366,-0.50518,0.36152,-117.3171,9.8780,-3.3537,0.00,0.00,0.00,4,S01
2900,-12.99333,-0.10056,0.00958,-124.3293,8.1098,-7.3171,0.00,0.00,0.00,4,S01
2920,-12.52886,-1.11570,-0.03591,-118.4756,9.0854,-13.1098,0.00,0.00,0.00,4,S01
2940,-12.09551,-1.41018,-0.52912,-95.2439,2.5000,-21.2195,0.00,0.00,0.00,4,S01
2960,-10.81940,-1.05824,-1.67355,-78.4756,-5.9146,-19.3902,0.00,0.00,0.00,4,S01
2980,-10.01973,-0.96007,-2.34153,-71.4024,4.6341,-8.5366,0.00,0.00,0.00,4,S01
3000,-10.50097,-0.48123,-2.05662,-71.7683,20.4878,0.7927,0.00,0.00,0.00,4,S01
3020,-10.92953,0.03591,-1.95846,-68.7195,25.1829,8.5976,0.00,0.00,0.00,4,S01
3040,-10.77630,0.18675,-2.12605,-60.7927,19.5122,15.0610,0.00,0.00,0.00,4,S01
3060,-10.15620,-0.12450,-1.92733,-57.1341,8.7805,18.4756,0.00,0.00,0.00,4,S01
3080,-9.33739,-0.57461,-1.95606,-52.7439,-3.2317,19.7561,0.00,0.00,0.00,4,S01
3100,-8.72686,-0.64165,-1.98719,-47.8049,-8.3537,19.6341,0.00,0.00,0.00,4,S01
3120,-8.58561,-0.33758,-1.92733,-45.3659,-5.8537,18.5366,0.00,0.00,0.00,4,S01
3140,-8.53294,-0.18914,-1.80044,-43.6585,-2.0732,17.4390,0.00,0.00,0.00,4,S01
3160,-8.48984,-0.31364,-1.61848,-40.6098,-2.0122,16.4634,0.00,0.00,0.00,4,S01
3180,-8.26718,-0.44772,-1.22104,-34.6341,-12.6220,15.9146,0.00,0.00,0.00,4,S01
3200,-8.26957,-0.26097,-1.02232,-30.3049,-17.6829,15.7317,0.00,0.00,0.00,4,S01
3220,-8.22408,-0.06464,-0.78051,-27.1341,-20.1829,15.6707,0.00,0.00,0.00,4,S01
3240,-7.90087,0.09577,-0.95768,-23.4756,-20.0610,16.4634,0.00,0.00,0.00,4,S01
3260,-8.02776,0.60573,-1.23541,-21.9512,-16.1585,18.3537,0.00,0.00,0.00,4,S01
3280,-8.51139,1.05584,-0.89783,-26.3415,-9.9390,19.8780,0.00,0.00,0.00,4,S01
3300,-8.72447,1.12527,-0.71108,-29.9390,-8.3537,19.5122,0.00,0.00,0.00,4,S01
3320,-8.59279,0.75417,-1.06781,-29.9390,-7.7439,18.7195,0.00,0.00,0.00,4,S01
3340,-8.38928,0.50518,-1.02711,-30.0610,-2.2561,18.9634,0.00,0.00,0.00,4,S01
3360,-8.48984,0.45969,-0.69671,-30.0000,0.4268,19.3902,0.00,0.00,0.00,4,S01
3380,-8.67180,0.37828,-0.54588,-26.6463,-1.0976,18.4756,0.00,0.00,0.00,4,S01
3400,-8.71968,0.20351,-0.76614,-21.0366,-2.8049,17.5610,0.00,0.00,0.00,4,S01
3420,-8.64786,0.28970,-0.82839,-17.9268,-0.8537,17.0732,0.00,0.00,0.00,4,S01
3440,-8.46111,0.64883,-0.56743,-17.6220,0.2439,17.1341,0.00,0.00,0.00,4,S01
3460,-8.33182,0.83318,-0.41659,-16.8293,-3.4146,16.2195,0.00,0.00,0.00,4,S01
3480,-8.44674,0.85712,-0.11971,-15.0000,-5.6707,12.6829,0.00,0.00,0.00,4,S01
3500,-8.56885,0.83558,0.07661,-12.6829,-3.2927,7.8049,0.00,0.00,0.00,4,S01
3520,-8.66940,0.99838,0.07183,-10.8537,0.0000,3.7195,0.00,0.00,0.00,4,S01
3540,-8.74362,1.24498,-0.04310,-10.6707,2.0732,1.0366,0.00,0.00,0.00,4,S01
3560,-9.05727,1.27850,0.15802,-11.2195,5.0610,-1.7073,0.00,0.00,0.00,4,S01
3580,-9.70609,1.23780,0.50757,-9.8171,7.8049,-3.9024,0.00,0.00,0.00,4,S01
3600,-10.32380,1.08936,0.70629,-6.2805,8.0488,-2.8659,0.00,0.00,0.00,4,S01
3620,-10.71405,1.03190,0.67995,-2.6220,7.3171,-0.6707,0.00,0.00,0.00,4,S01
3640,-11.03727,1.04148,0.30167,0.6707,7.4390,-1.4024,0.00,0.00,0.00,4,S01
3660,-11.88482,0.91698,-0.21308,7.9878,7.9878,-5.7317,0.00,0.00,0.00,4,S01
3680,-12.95981,0.79966,-0.90022,20.5488,8.4756,-7.6829,0.00,0.00,0.00,4,S01
3700,-12.93587,0.17717,-0.78290,31.8293,8.2317,-4.2683,0.00,0.00,0.00,4,S01
3720,-11.84651,-0.49560,-1.41737,45.6098,3.4146,-1.6463,0.00,0.00,0.00,4,S01
3740,-10.27591,-0.54109,-1.96325,58.5976,5.4268,-4.2073,0.00,0.00,0.00,4,S01
3760,-9.72046,0.05028,-2.39420,65.2439,13.6585,-8.9024,0.00,0.00,0.00,4,S01
3780,-10.08438,0.24421,-2.31519,60.3659,22.6829,-12.5000,0.00,0.00,0.00,4,S01
3800,-10.28788,-0.04788,-2.19309,49.5122,25.3659,-17.3780,0.00,0.00,0.00,4,S01
3820,-10.16817,-0.53151,-2.13802,39.6951,19.7561,-24.2073,0.00,0.00,0.00,4,S01
3840,-9.86411,-0.89304,-2.03028,31.2805,10.1220,-30.1829,0.00,0.00,0.00,4,S01
3860,-9.39245,-0.98162,-1.97522,23.7195,3.7805,-32.2561,0.00,0.00,0.00,4,S01
3880,-8.95910,-1.07260,-2.01352,15.9146,2.6220,-30.8537,0.00,0.00,0.00,4,S01
3900,-8.80109,-1.11809,-2.00874,10.8537,4.5122,-28.9634,0.00,0.00,0.00,4,S01
3920,-8.55448,-1.03908,-2.30322,8.7195,4.2683,-28.1098,0.00,0.00,0.00,4,S01
3940,-8.18578,-1.06781,-2.31998,2.6220,3.5366,-25.4878,0.00,0.00,0.00,4,S01
3960,-7.87932,-1.05584,-2.21464,-1.9512,2.1341,-22.3780,0.00,0.00,0.00,4,S01
3980,-7.85059,-1.00556,-2.01831,-6.8293,-1.3415,-21.0366,0.00,0.00,0.00,4,S01
4000,-7.98706,-0.96247,-1.77171,-10.4878,-4.8780,-20.7317,0.00,0.00,0.00,4,S01
4020,-8.03255,-0.98162,-1.62327,-11.6463,-8.1707,-20.5488,0.00,0.00,0.00,4,S01
4040,-7.80031,-0.98402,-1.66876,-13.0488,-11.2805,-20.3659,0.00,0.00,0.00,4,S01
4060,-7.53216,-1.05584,-1.64721,-16.2805,-10.5488,-20.4878,0.00,0.00,0.00,4,S01
4080,-7.51779,-1.28569,-1.62327,-18.4146,-6.0976,-22.0122,0.00,0.00,0.00,4,S01
4100,-7.72130,-1.62327,-1.44849,-17.9268,-1.1585,-23.7195,0.00,0.00,0.00,4,S01
4120,-7.94875,-1.88184,-1.31681,-14.7561,2.4390,-23.9634,0.00,0.00,0.00,4,S01
4140,-8.11874,-2.19309,-1.12527,-11.3415,4.1463,-23.2317,0.00,0.00,0.00,4,S01
4160,-8.31746,-2.39660,-1.05824,-4.2073,4.7561,-22.8659,0.00,0.00,0.00,4,S01
4180,-8.69335,-2.26731,-1.06542,2.5610,5.5488,-23.5366,0.00,0.00,0.00,4,S01
4200,-8.76757,-2.06380,-1.11570,5.7317,5.2439,-23.7195,0.00,0.00,0.00,4,S01
4220,-8.66940,-2.07338,-1.00556,5.9146,4.2073,-22.5610,0.00,0.00,0.00,4,S01
4240,-8.74602,-2.15239,-0.90501,7.0122,4.5732,-21.7073,0.00,0.00,0.00,4,S01
4260,-8.99023,-2.11169,-0.73502,9.5122,6.4024,-21.2805,0.00,0.00,0.00,4,S01
4280,-8.91122,-2.21942,-0.61531,11.5854,6.3415,-19.7561,0.00,0.00,0.00,4,S01
4300,-8.51857,-2.31519,-0.74939,14.7561,6.5854,-17.9878,0.00,0.00,0.00,4,S01
4320,-8.35816,-2.35350,-0.85952,17.5000,10.1220,-16.4634,0.00,0.00,0.00,4,S01
4340,-8.60237,-2.39420,-0.76136,18.9634,14.6341,-14.8171,0.00,0.00,0.00,4,S01
4360,-8.86333,-2.40378,-0.59137,20.3049,16.6463,-12.1341,0.00,0.00,0.00,4,S01
4380,-8.72926,-2.34632,-0.43335,23.1098,16.5854,-7.0732,0.00,0.00,0.00,4,S01
4400,-9.02614,-2.37984,-0.22505,23.4756,15.3659,-5.0610,0.00,0.00,0.00,4,S01
4420,-9.10994,-2.38462,-0.14126,22.4390,11.6463,-2.6220,0.00,0.00,0.00,4,S01
4440,-9.01417,-2.33435,-0.12450,19.0244,8.9634,0.3049,0.00,0.00,0.00,4,S01
4460,-9.04290,-2.22900,-0.19154,14.2073,8.6585,3.1098,0.00,0.00,0.00,4,S01
4480,-9.31584,-2.18351,-0.09337,8.3537,8.9634,5.5488,0.00,0.00,0.00,4,S01
4500,-9.64863,-2.12126,-0.03591,1.3415,7.6829,7.3780,0.00,0.00,0.00,4,S01
4520,-9.90242,-2.24816,-0.16999,-5.2439,6.5244,9.2073,0.00,0.00,0.00,4,S01
4540,-10.44351,-3.06937,-0.75657,-7.3171,7.9878,11.2195,0.00,0.00,0.00,4,S01
4560,-12.01650,-3.32794,-0.99599,-5.0000,12.2561,11.4024,0.00,0.00,0.00,4,S01
4580,-12.92390,-2.92571,-1.45807,-7.9878,11.4634,9.3293,0.00,0.00,0.00,4,S01
4600,-12.26071,-1.68791,-1.52271,-15.4268,11.2805,6.7683,0.00,0.00,0.00,4,S01
4620,-11.33176,-1.73580,-1.92254,-19.9390,11.6463,4.2683,0.00,0.00,0.00,4,S01
4640,-10.88165,-2.45885,-2.63362,-20.7317,12.6829,3.8415,0.00,0.00,0.00,4,S01
4660,-10.27591,-2.63602,-2.50912,-24.2683,18.5976,6.2195,0.00,0.00,0.00,4,S01
4680,-9.85693,-2.43011,-2.52588,-22.2561,21.2195,9.3902,0.00,0.00,0.00,4,S01
4700,-10.00776,-2.22661,-2.61447,-12.7439,22.6829,12.5610,0.00,0.00,0.00,4,S01
4720,-10.03410,-2.04225,-2.88262,1.7683,18.7195,19.2073,0.00,0.00,0.00,4,S01
4740,-9.92157,-1.59693,-2.83473,9.9390,5.6707,26.0366,0.00,0.00,0.00,4,S01
4760,-9.48822,-1.11570,-2.82276,12.1341,-10.2439,28.9634,0.00,0.00,0.00,4,S01
4780,-8.84897,-0.77333,-2.91614,15.9756,-17.1341,28.9634,0.00,0.00,0.00,4,S01
4800,-8.42041,-0.77093,-3.01191,17.0732,-14.8171,27.5610,0.00,0.00,0.00,4,S01
4820,-8.34858,-0.78769,-2.83234,14.7561,-11.3415,26.0976,0.00,0.00,0.00,4,S01
4840,-8.36295,-0.68474,-2.62883,11.6463,-12.3780,25.4878,0.00,0.00,0.00,4,S01
4860,-8.15944,-0.38786,-2.59771,9.3902,-15.6098,26.5854,0.00,0.00,0.00,4,S01
4880,-7.90805,-0.13408,-2.41336,5.9756,-17.9268,27.6829,0.00,0.00,0.00,4,S01
4900,-7.86974,-0.37110,-2.02789,4.5122,-20.9756,27.4390,0.00,0.00,0.00,4,S01
4920,-7.86256,-0.94332,-1.69988,9.8171,-24.6951,25.9756,0.00,0.00,0.00,4,S01
4940,-7.75482,-1.32160,-1.48919,18.5976,-27.8049,24.5122,0.00,0.00,0.00,4,S01
4960,-7.51540,-1.29047,-1.38145,25.6707,-29.6341,23.9634,0.00,0.00,0.00,4,S01
4980,-7.43160,-1.00317,-1.38145,29.5122,-27.9268,23.2317,0.00,0.00,0.00,4,S01
5000,-7.62074,-0.35434,-1.52511,32.6220,-20.5488,21.5854,0.00,0.00,0.00,4,S01
5020,-8.04691,0.13886,-1.34315,34.4512,-12.1341,19.7561,0.00,0.00,0.00,4,S01
5040,-8.37492,0.61531,-1.33836,35.0000,-10.0610,17.3171,0.00,0.00,0.00,4,S01
5060,-8.47069,0.80445,-1.24020,31.2195,-11.2195,15.2439,0.00,0.00,0.00,4,S01
5080,-8.75320,0.82839,-1.02951,25.4878,-13.4146,11.8293,0.00,0.00,0.00,4,S01
5100,-9.33499,0.88107,-0.83558,20.4878,-14.8780,9.4512,0.00,0.00,0.00,4,S01
5120,-9.53850,0.67038,-0.70629,16.4024,-16.3415,9.9390,0.00,0.00,0.00,4,S01
5140,-9.01417,0.32322,-0.57461,14.5122,-18.9024,10.6707,0.00,0.00,0.00,4,S01
5160,-8.46350,0.19632,-0.39744,13.3537,-20.7317,9.5122,0.00,0.00,0.00,4,S01
5180,-8.49223,0.22266,-0.14126,12.3780,-19.0854,7.3171,0.00,0.00,0.00,4,S01
5200,-8.88728,0.14844,-0.00239,12.4390,-13.9634,5.7927,0.00,0.00,0.00,4,S01
5220,-8.95192,-0.11253,-0.13408,16.1585,-9.3902,5.6707,0.00,0.00,0.00,4,S01
5240,-8.85136,-0.07901,-0.22745,21.0976,-5.0610,6.4634,0.00,0.00,0.00,4,S01
5260,-9.16979,0.30167,-0.20111,21.9512,-1.3415,7.9268,0.00,0.00,0.00,4,S01
5280,-9.75637,0.62968,0.24181,19.5122,-0.6707,9.3293,0.00,0.00,0.00,4,S01
5300,-10.13705,0.53870,1.06303,18.9024,-4.6951,9.2073,0.00,0.00,0.00,4,S01
5320,-10.21127,0.10534,0.96247,22.8049,-7.1341,7.7439,0.00,0.00,0.00,4,S01
5340,-10.63504,-0.31364,0.48602,26.7683,3.1098,6.4024,0.00,0.00,0.00,4,S01
5360,-11.63582,-0.25857,0.42856,27.8049,14.5732,5.4878,0.00,0.00,0.00,4,S01
5380,-12.36126,0.31125,-0.42856,28.6585,16.4024,5.1220,0.00,0.00,0.00,4,S01
5400,-14.14494,0.94571,0.11971,29.3293,13.3537,3.2927,0.00,0.00,0.00,4,S01
5420,-14.44661,0.07901,-0.95050,32.4390,3.2927,6.2805,0.00,0.00,0.00,4,S01
5440,-11.65258,-0.35195,-1.39821,37.6220,2.0732,8.5976,0.00,0.00,0.00,4,S01
5460,-9.68455,0.26336,-2.53307,42.8049,0.5488,0.1220,0.00,0.00,0.00,4,S01
5480,-9.31344,1.33357,-2.45645,35.6098,9.0244,-6.2195,0.00,0.00,0.00,4,S01
5500,-9.53850,1.49877,-2.15957,19.8780,14.8171,-10.6707,0.00,0.00,0.00,4,S01
5520,-9.72285,1.20428,-1.90339,8.1707,15.8537,-20.4268,0.00,0.00,0.00,4,S01
5540,-9.44273,0.63686,-1.76213,-0.0610,11.9512,-31.0366,0.00,0.00,0.00,4,S01
5560,-8.27676,-0.54827,-1.29766,-7.3780,2.4390,-37.3171,0.00,0.00,0.00,4,S01
5580,-8.03255,-0.70390,-1.24020,-9.2073,2.9268,-33.7805,0.00,0.00,0.00,4,S01
5600,-7.91523,-0.74699,-1.38145,-11.5854,5.5488,-30.8537,0.00,0.00,0.00,4,S01
5620,-7.80270,-0.79966,-1.56102,-10.4878,9.0854,-29.5122,0.00,0.00,0.00,4,S01
5640,-7.84340,-0.82121,-1.51553,-6.8902,10.6707,-29.0244,0.00,0.00,0.00,4,S01
5660,-7.97509,-0.68714,-1.51553,-7.0122,9.1463,-27.6220,0.00,0.00,0.00,4,S01
5680,-8.40604,-0.82361,-1.01514,-8.3537,7.9878,-26.2805,0.00,0.00,0.00,4,S01
5700,-8.29112,-0.92416,-1.59454,-1.0976,2.9878,-29.5732,0.00,0.00,0.00,4,S01
5720,-7.76918,-1.07021,-1.69031,-0.4878,0.2439,-32.1341,0.00,0.00,0.00,4,S01
5740,-7.58244,-1.47962,-1.52271,-3.1707,0.7317,-31.4634,0.00,0.00,0.00,4,S01
5760,-8.21451,-1.73101,-1.18034,-6.3415,4.6341,-30.4268,0.00,0.00,0.00,4,S01
5780,-8.40125,-1.68552,-1.37906,-7.0732,8.5976,-28.9634,0.00,0.00,0.00,4,S01
5800,-8.06846,-1.66876,-1.28808,-6.6463,13.2317,-27.9268,0.00,0.00,0.00,4,S01
5820,-7.85777,-1.89381,-1.12767,-1.9512,14.1463,-27.4390,0.00,0.00,0.00,4,S01
5840,-8.33661,-2.02549,-1.00078,3.9024,12.5610,-26.5854,0.00,0.00,0.00,4,S01
5860,-8.71011,-1.90100,-0.93134,6.8902,11.3415,-24.7561,0.00,0.00,0.00,4,S01
5880,-8.40125,-1.75974,-0.99599,8.5366,9.2683,-22.2561,0.00,0.00,0.00,4,S01
5900,-8.10916,-1.95127,-0.84036,10.5488,9.5122,-19.1463,0.00,0.00,0.00,4,S01
5920,-8.31267,-2.06380,-0.83558,13.1098,12.4390,-15.9756,0.00,0.00,0.00,4,S01
5940,-8.61434,-2.04944,-0.78051,13.2317,14.0244,-12.2561,0.00,0.00,0.00,4,S01
5960,-8.54012,-2.13084,-0.65122,12.0732,12.0122,-8.3537,0.00,0.00,0.00,4,S01
5980,-8.50181,-2.29843,-0.50278,12.9268,11.0976,-5.6707,0.00,0.00,0.00,4,S01
6000,-8.75081,-2.28407,-0.43574,15.1829,13.5976,-4.7561,0.00,0.00,0.00,4,S01
6020,-9.15782,-2.04225,-0.39025,15.9146,14.4512,-4.2073,0.00,0.00,0.00,4,S01
6040,-9.37809,-1.72861,-0.37110,13.2317,10.8537,-2.9878,0.00,0.00,0.00,4,S01
6060,-9.30147,-1.51792,-0.34237,5.3659,7.1341,-1.8902,0.00,0.00,0.00,4,S01
6080,-9.46189,-1.81720,-0.01197,-4.0854,6.2195,-2.5000,0.00,0.00,0.00,4,S01
6100,-9.88566,-2.13802,0.03352,-8.7195,6.4634,-2.4390,0.00,0.00,0.00,4,S01
6120,-10.28549,-2.04704,-0.62728,-12.5000,7.0732,0.4268,0.00,0.00,0.00,4,S01
6140,-10.77151,-2.40138,-1.49159,-21.3415,10.1829,4.3293,0.00,0.00,0.00,4,S01
6160,-12.44267,-2.69827,-1.94888,-27.0122,15.3659,5.6707,0.00,0.00,0.00,4,S01
6180,-13.92707,-2.25294,-2.27689,-31.8902,10.7317,2.2561,0.00,0.00,0.00,4,S01
6200,-13.24233,-1.46286,-2.21464,-43.3537,2.4390,-1.6463,0.00,0.00,0.00,4,S01
6220,-11.00375,-1.56820,-2.79643,-46.4024,0.9756,2.0122,0.00,0.00,0.00,4,S01
6240,-9.17458,-2.56658,-3.52426,-44.4512,6.4024,10.3659,0.00,0.00,0.00,4,S01
6260,-9.38048,-2.63362,-3.03106,-43.5976,21.6463,11.6463,0.00,0.00,0.00,4,S01
6280,-10.31662,-1.82438,-2.81079,-36.9512,30.5488,11.3415,0.00,0.00,0.00,4,S01
6300,-10.76912,-1.05345,-3.25372,-25.0000,28.4146,16.5854,0.00,0.00,0.00,4,S01
6320,-10.44830,-0.53391,-3.84030,-14.4512,19.2073,24.7561,0.00,0.00,0.00,4,S01
6340,-9.55287,-0.16759,-4.00311,-14.1463,5.4878,29.7561,0.00,0.00,0.00,4,S01
6360,-8.74602,0.08380,-3.70144,-21.5244,-8.5976,28.9634,0.00,0.00,0.00,4,S01
6380,-8.31506,0.08140,-3.19865,-27.4390,-17.2561,25.8537,0.00,0.00,0.00,4,S01
6400,-8.06367,-0.05507,-2.93050,-29.0854,-18.6585,23.8415,0.00,0.00,0.00,4,S01
6420,-7.85059,-0.14844,-2.83952,-28.1707,-14.6951,22.8049,0.00,0.00,0.00,4,S01
6440,-7.74524,0.00718,-2.86825,-27.4390,-10.5488,21.0976,0.00,0.00,0.00,4,S01
6460,-7.80510,0.19154,-2.71024,-29.8780,-10.6098,19.1463,0.00,0.00,0.00,4,S01
6480,-8.10198,0.18435,-2.47082,-33.6585,-15.6098,17.5000,0.00,0.00,0.00,4,S01
6500,-8.16183,0.06464,-2.24337,-34.2683,-20.8537,17.1341,0.00,0.00,0.00,4,S01
6520,-7.93917,-0.03831,-2.23858,-32.4390,-21.7683,17.8659,0.00,0.00,0.00,4,S01
6540,-7.98945,0.24181,-2.32238,-30.9756,-17.7439,18.7195,0.00,0.00,0.00,4,S01
6560,-8.10677,0.56024,-2.41336,-32.8049,-14.2073,20.3049,0.00,0.00,0.00,4,S01
6580,-8.16183,0.69911,-2.15957,-34.9390,-13.3537,20.2439,0.00,0.00,0.00,4,S01
6600,-8.11395,0.74939,-2.18351,-35.1829,-13.9024,17.3780,0.00,0.00,0.00,4,S01
6620,-8.14747,0.65362,-2.03507,-36.6463,-10.1829,14.2073,0.00,0.00,0.00,4,S01
6640,-7.96790,0.69671,-2.29843,-37.0732,-6.7073,11.4634,0.00,0.00,0.00,4,S01
6660,-8.02776,0.72784,-2.11647,-39.6951,-4.0244,10.0610,0.00,0.00,0.00,4,S01
6680,-8.42759,0.57221,-1.57299,-43.0488,-3.5976,9.2683,0.00,0.00,0.00,4,S01
6700,-8.74602,0.34955,-1.42455,-42.6220,-5.1829,7.6829,0.00,0.00,0.00,4,S01
6720,-8.65983,0.28970,-1.39821,-38.9024,-4.9390,6.6463,0.00,0.00,0.00,4,S01
6740,-8.45153,0.48602,-1.35991,-35.5488,-3.7195,6.6463,0.00,0.00,0.00,4,S01
6760,-8.65983,0.46448,-1.03430,-31.2195,-1.7073,3.2927,0.00,0.00,0.00,4,S01
6780,-8.91122,0.49081,-0.72784,-26.8293,-0.1220,0.0610,0.00,0.00,0.00,4,S01
6800,-9.30866,0.67277,-0.40462,-24.2073,-0.3659,-2.1341,0.00,0.00,0.00,4,S01
6820,-9.90002,0.86431,0.03591,-24.6951,-3.4756,-3.2317,0.00,0.00,0.00,4,S01
6840,-10.21606,0.65122,0.29209,-24.3293,-6.9512,-2.9878,0.00,0.00,0.00,4,S01
6860,-10.49618,0.46448,0.61292,-20.9756,-7.8049,-2.4390,0.00,0.00,0.00,4,S01
6880,-10.93432,0.32082,0.69911,-18.3537,-9.5122,-2.5000,0.00,0.00,0.00,4,S01
6900,-11.24557,0.17717,0.57461,-13.2927,-10.5488,-3.6585,0.00,0.00,0.00,4,S01
6920,-11.06839,0.81642,-0.43814,-6.0366,-9.9390,-5.0000,0.00,0.00,0.00,4,S01
6940,-11.72201,1.99437,-1.16119,-5.6707,-6.7073,-7.4390,0.00,0.00,0.00,4,S01
6960,-13.84327,2.20027,-1.49877,-11.2195,-8.7805,-9.4512,0.00,0.00,0.00,4,S01
6980,-13.05079,0.83079,-1.32639,-14.6341,-13.7805,-7.0732,0.00,0.00,0.00,4,S01
7000,-10.97023,0.62728,-2.33914,-5.6707,-15.4878,-9.1463,0.00,0.00,0.00,4,S01
7020,-9.76355,1.56341,-3.61046,-4.0244,-11.1585,-11.7073,0.00,0.00,0.00,4,S01
7040,-9.49780,2.00874,-3.21062,-21.8293,-3.3537,-10.9146,0.00,0.00,0.00,4,S01
7060,-9.63666,1.77889,-2.70305,-40.4878,-2.1951,-14.5732,0.00,0.00,0.00,4,S01
7080,-9.43316,1.22823,-2.66953,-51.5244,-2.7439,-21.7683,0.00,0.00,0.00,4,S01
7100,-9.20810,0.47884,-2.53067,-59.3902,-3.2927,-27.2561,0.00,0.00,0.00,4,S01
7120,-8.92319,-0.21069,-2.10211,-64.6341,-4.4512,-29.0854,0.00,0.00,0.00,4,S01
7140,-8.45393,-0.59376,-1.90818,-65.0610,-5.6098,-27.8049,0.00,0.00,0.00,4,S01
7160,-8.00861,-0.69671,-2.12605,-62.2561,-5.1829,-26.7073,0.00,0.00,0.00,4,S01
7180,-7.98706,-0.75896,-1.84354,-59.9390,0.1829,-25.7927,0.00,0.00,0.00,4,S01
7200,-8.01818,-0.68235,-1.79326,-55.6098,3.6585,-25.5488,0.00,0.00,0.00,4,S01
7220,-7.84819,-0.62728,-1.67115,-53.5976,2.6220,-23.9024,0.00,0.00,0.00,4,S01
7240,-7.85538,-0.55785,-1.74298,-50.5488,-1.6463,-22.7439,0.00,0.00,0.00,4,S01
7260,-8.18578,-0.42138,-1.75734,-47.3781,-5.9756,-22.9878,0.00,0.00,0.00,4,S01
7280,-8.21211,-0.27294,-1.73340,-47.0732,-10.0000,-22.6220,0.00,0.00,0.00,4,S01
7300,-8.06367,-0.35195,-1.67594,-49.7561,-14.5732,-21.4634,0.00,0.00,0.00,4,S01
7320,-8.02058,-0.54109,-1.74298,-52.6220,-17.6220,-21.1585,0.00,0.00,0.00,4,S01
7340,-8.07564,-0.74460,-1.77171,-53.4756,-16.5244,-21.8902,0.00,0.00,0.00,4,S01
7360,-8.30070,-0.99838,-1.49159,-54.3293,-13.7805,-22.2561,0.00,0.00,0.00,4,S01
7380,-8.67419,-1.10133,-1.30484,-53.6585,-13.3537,-22.4390,0.00,0.00,0.00,4,S01
7400,-8.86812,-1.19471,-1.12527,-52.7439,-15.2439,-22.6220,0.00,0.00,0.00,4,S01
7420,-8.46111,-1.57778,-1.04387,-48.3537,-16.5854,-21.9512,0.00,0.00,0.00,4,S01
7440,-7.93917,-1.97761,-0.94810,-38.7195,-14.3902,-22.0732,0.00,0.00,0.00,4,S01
7460,-7.98227,-2.09732,-0.83079,-28.7195,-8.1707,-23.3537,0.00,0.00,0.00,4,S01
7480,-8.76996,-2.03986,-0.68474,-23.9024,0.1220,-23.4146,0.00,0.00,0.00,4,S01
7500,-9.43794,-1.98240,-0.40701,-20.3049,5.5488,-21.2805,0.00,0.00,0.00,4,S01
7520,-9.08360,-1.85551,-0.41180,-14.5732,4.6341,-18.1707,0.00,0.00,0.00,4,S01
7540,-8.61434,-1.65439,-0.43335,-8.7805,2.3171,-15.3659,0.00,0.00,0.00,4,S01
7560,-8.54012,-1.61609,-0.35913,-6.1585,3.9024,-12.2561,0.00,0.00,0.00,4,S01
7580,-8.79630,-1.71664,-0.13168,-4.8171,7.0122,-9.8171,0.00,0.00,0.00,4,S01
7600,-8.99502,-1.88424,0.16999,-2.3780,7.4390,-7.7439,0.00,0.00,0.00,4,S01
7620,-9.12909,-1.96803,0.41180,1.2805,6.3415,-5.9756,0.00,0.00,0.00,4,S01
7640,-9.28950,-2.08535,0.60573,5.0610,5.3659,-4.0244,0.00,0.00,0.00,4,S01
7660,-9.14585,-2.02310,0.43096,7.9878,3.9024,-2.1341,0.00,0.00,0.00,4,S01
7680,-8.95671,-1.92973,0.25379,8.0488,3.9024,-1.0976,0.00,0.00,0.00,4,S01
7700,-9.28950,-1.93451,0.44772,5.4878,5.4878,-1.2195,0.00,0.00,0.00,4,S01
7720,-9.89284,-1.77889,0.24181,2.6829,5.3659,-1.5854,0.00,0.00,0.00,4,S01
7740,-10.46984,-1.70228,-0.47166,-1.5854,5.4268,-1.0976,0.00,0.00,0.00,4,S01
7760,-11.21684,-2.10450,-1.19950,-4.8171,8.2317,-0.3659,0.00,0.00,0.00,4,S01
7780,-12.03805,-2.46363,-1.29287,-4.7561,10.4268,-1.1585,0.00,0.00,0.00,4,S01
7800,-12.72997,-1.91776,-1.21865,-3.2317,5.9146,-3.5366,0.00,0.00,0.00,4,S01
7820,-12.47618,-1.37906,-1.74537,-5.6098,-1.9512,-2.0732,0.00,0.00,0.00,4,S01
7840,-11.48259,-1.04866,-2.01352,-10.6098,-2.1341,2.6220,0.00,0.00,0.00,4,S01
7860,-10.17536,-0.91219,-2.13563,-13.9024,2.9268,7.9268,0.00,0.00,0.00,4,S01
7880,-9.44034,-0.99838,-1.93212,-15.7927,10.3049,10.4878,0.00,0.00,0.00,4,S01
7900,-9.57681,-0.95529,-1.71425,-12.2561,17.9878,10.9756,0.00,0.00,0.00,4,S01
7920,-10.01734,-0.79966,-1.78368,-3.7195,22.0732,12.6220,0.00,0.00,0.00,4,S01
7940,-10.09874,-0.70629,-1.88424,2.2561,19.2683,17.3780,0.00,0.00,0.00,4,S01
7960,-9.08360,-0.14365,-1.77650,4.3902,-1.0366,26.7073,0.00,0.00,0.00,4,S01
7980,-8.84658,-0.07183,-1.78847,1.8902,-7.7439,24.6951,0.00,0.00,0.00,4,S01
8000,-8.54491,-0.38547,-1.80044,-0.1829,-8.7195,20.6098,0.00,0.00,0.00,4,S01
8020,-8.13310,-0.55785,-1.75974,0.9146,-6.1585,17.6220,0.00,0.00,0.00,4,S01
8040,-8.11634,-0.59616,-1.49877,2.5610,-3.8415,16.7683,0.00,0.00,0.00,4,S01
8060,-8.37731,-0.60334,-1.23780,4.8780,-4.8780,16.9512,0.00,0.00,0.00,4,S01
8080,-8.65743,-0.56024,-1.01275,8.4756,-7.9878,16.2805,0.00,0.00,0.00,4,S01
8100,-8.62870,-0.69671,-1.01754,13.5366,-11.8293,14.0854,0.00,0.00,0.00,4,S01
8120,-8.28873,-0.64165,-1.16358,20.1829,-13.3537,10.9756,0.00,0.00,0.00,4,S01
8140,-8.26239,-0.31603,-1.05824,24.7561,-13.2927,9.5122,0.00,0.00,0.00,4,S01
8160,-8.31985,0.06943,-0.98881,26.3415,-14.6951,11.4024,0.00,0.00,0.00,4,S01
8180,-8.31985,0.34237,-1.17316,25.4268,-15.3659,13.3537,0.00,0.00,0.00,4,S01
8200,-8.28394,0.57461,-1.28808,23.5976,-12.0732,12.4390,0.00,0.00,0.00,4,S01
8220,-8.32464,0.71587,-1.26174,18.7805,-8.1098,9.6341,0.00,0.00,0.00,4,S01
8240,-8.49942,0.82600,-1.20668,13.4146,-5.3049,8.6585,0.00,0.00,0.00,4,S01
8260,-8.56885,0.83558,-1.25935,8.2317,-3.3537,10.3659,0.00,0.00,0.00,4,S01
8280,-8.47069,0.70150,-1.35272,4.2683,-0.6707,12.0122,0.00,0.00,0.00,4,S01
8300,-8.80109,0.35674,-0.93613,2.8659,2.8049,11.4634,0.00,0.00,0.00,4,S01
8320,-9.44991,0.11253,-0.50518,4.6951,2.4390,10.9146,0.00,0.00,0.00,4,S01
8340,-9.60075,0.20351,-0.55545,7.0122,-2.2561,12.2561,0.00,0.00,0.00,4,S01
8360,-9.19852,0.63925,-0.90740,6.4024,-4.4512,13.7805,0.00,0.00,0.00,4,S01
8380,-9.14346,0.93853,-0.90740,4.3902,-2.6829,14.9390,0.00,0.00,0.00,4,S01
8400,-9.55526,0.82839,-0.70150,4.2683,-1.9512,15.3659,0.00,0.00,0.00,4,S01
8420,-9.61033,0.72784,-0.51954,5.3049,-2.9268,15.4878,0.00,0.00,0.00,4,S01
8440,-9.16500,0.83558,-0.43574,3.5976,-4.2683,16.0366,0.00,0.00,0.00,4,S01
8460,-8.94234,0.88585,-0.26815,-0.1829,-4.2683,15.6098,0.00,0.00,0.00,4,S01
8480,-9.22007,0.74220,-0.11253,-1.0976,-4.0244,13.8415,0.00,0.00,0.00,4,S01
8500,-9.43794,0.53870,-0.17478,2.3171,-3.9634,11.8293,0.00,0.00,0.00,4,S01
8520,-8.88488,0.59137,-0.69671,7.0732,-2.2561,10.0000,0.00,0.00,0.00,4,S01
8540,-8.32943,1.10373,-0.75417,7.5000,4.5122,8.2927,0.00,0.00,0.00,4,S01
8560,-8.50181,1.36230,-0.51954,4.3293,7.9878,6.7683,0.00,0.00,0.00,4,S01
8580,-9.01417,1.33836,-0.42617,3.1707,6.8902,5.7317,0.00,0.00,0.00,4,S01
8600,-9.20810,1.15401,-0.22745,2.9878,5.6098,5.6707,0.00,0.00,0.00,4,S01
8620,-9.07402,1.10373,0.02155,3.2927,2.9878,5.7317,0.00,0.00,0.00,4,S01
8640,-8.90164,1.29047,0.18914,2.6829,-1.1585,4.9390,0.00,0.00,0.00,4,S01
8660,-8.71011,1.17076,0.27054,2.4390,-4.1463,3.2927,0.00,0.00,0.00,4,S01
8680,-8.69335,1.00078,0.14365,7.0122,-2.7439,0.3049,0.00,0.00,0.00,4,S01
8700,-9.05008,1.02472,0.16759,12.8049,1.8293,-3.7805,0.00,0.00,0.00,4,S01
8720,-9.68215,1.10373,0.37350,16.8293,5.4268,-8.7195,0.00,0.00,0.00,4,S01
8740,-10.28788,1.07260,0.46687,21.8293,5.5488,-12.5000,0.00,0.00,0.00,4,S01
8760,-10.80024,1.42694,0.23703,27.3171,4.5122,-13.4756,0.00,0.00,0.00,4,S01
8780,-11.37006,1.96803,-0.34237,24.8780,2.6220,-12.3171,0.00,0.00,0.00,4,S01
8800,-12.49294,2.30562,-0.90261,18.4146,-0.4268,-11.3415,0.00,0.00,0.00,4,S01
8820,-12.71321,1.69749,-1.10612,14.1463,0.6098,-6.2805,0.00,0.00,0.00,4,S01
8840,-12.11945,0.61770,-0.41180,16.4634,5.3659,-4.8780,0.00,0.00,0.00,4,S01
8860,-11.71243,-0.08859,-0.79009,29.4512,7.1951,-9.2073,0.00,0.00,0.00,4,S01
8880,-10.99657,-0.08619,-1.50356,40.6707,11.7073,-13.7195,0.00,0.00,0.00,4,S01
8900,-10.32859,0.11732,-1.38624,44.1463,13.9634,-18.8415,0.00,0.00,0.00,4,S01
8920,-10.12029,-0.03591,-1.57299,44.5732,10.1829,-22.1341,0.00,0.00,0.00,4,S01
8940,-9.98382,-0.40941,-1.70946,41.7683,8.4146,-22.2561,0.00,0.00,0.00,4,S01
8960,-9.72285,-0.67995,-1.77650,37.9268,5.1829,-21.0366,0.00,0.00,0.00,4,S01
8980,-9.52174,-0.82361,-1.98719,33.2317,-1.5244,-20.7927,0.00,0.00,0.00,4,S01
9000,-9.43316,-0.99599,-2.05183,25.5488,-7.6220,-21.4024,0.00,0.00,0.00,4,S01
9020,-9.18895,-1.09415,-2.04465,18.4146,-11.8293,-22.3171,0.00,0.00,0.00,4,S01
9040,-8.99502,-1.11091,-1.88663,13.7195,-13.9634,-22.0732,0.00,0.00,0.00,4,S01
9060,-8.95671,-1.15401,-1.67594,10.6707,-16.1585,-19.5122,0.00,0.00,0.00,4,S01
9080,-8.74602,-1.14922,-1.75256,9.0854,-18.1707,-15.4268,0.00,0.00,0.00,4,S01
9100,-8.44914,-1.14682,-1.84354,7.0732,-15.9756,-12.9878,0.00,0.00,0.00,4,S01
9120,-8.23605,-1.09176,-1.76453,6.0366,-12.3780,-13.4756,0.00,0.00,0.00,4,S01
9140,-8.33182,-1.01993,-1.32639,7.4390,-15.4878,-15.0610,0.00,0.00,0.00,4,S01
9160,-8.12113,-1.33596,-1.30723,7.6220,-18.0488,-14.3293,0.00,0.00,0.00,4,S01
9180,-8.01339,-1.58257,-1.38624,7.7439,-17.6220,-13.1707,0.00,0.00,0.00,4,S01
9200,-8.07564,-1.48680,-1.36230,5.6098,-15.2439,-13.0488,0.00,0.00,0.00,4,S01
9220,-8.00142,-1.32639,-1.20668,1.7683,-13.5976,-13.2927,0.00,0.00,0.00,4,S01
9240,-7.91044,-1.08218,-1.12049,-0.6098,-12.4390,-12.9268,0.00,0.00,0.00,4,S01
9260,-8.13071,-1.02951,-0.81163,-4.3293,-11.2195,-11.8293,0.00,0.00,0.00,4,S01
9280,-8.46350,-1.19231,-0.63207,-7.1341,-11.6463,-11.2805,0.00,0.00,0.00,4,S01
9300,-8.56645,-1.30723,-0.50996,-9.0244,-12.3171,-11.5244,0.00,0.00,0.00,4,S01
9320,-8.40365,-1.44131,-0.46208,-9.0244,-11.8902,-11.0976,0.00,0.00,0.00,4,S01
9340,-8.40125,-1.57060,-0.47405,-7.8049,-10.4268,-9.3293,0.00,0.00,0.00,4,S01
9360,-8.82263,-1.56820,-0.31843,-6.2195,-8.5976,-7.8659,0.00,0.00,0.00,4,S01
9380,-9.21768,-1.43173,-0.12450,-5.9146,-8.9634,-7.1341,0.00,0.00,0.00,4,S01
9400,-9.17458,-1.31921,-0.06704,-4.5732,-9.8780,-5.9146,0.00,0.00,0.00,4,S01
9420,-9.03332,-1.26653,-0.02634,-1.9512,-9.6951,-4.3902,0.00,0.00,0.00,4,S01
9440,-9.07402,-1.18513,-0.12450,0.2439,-9.3902,-3.5976,0.00,0.00,0.00,4,S01
9460,-9.18895,-1.31442,-0.04310,0.4878,-8.5366,-3.4756,0.00,0.00,0.00,4,S01
9480,-9.11233,-1.42455,-0.04788,2.5610,-8.2317,-3.8415,0.00,0.00,0.00,4,S01
9500,-8.94234,-1.38624,-0.11732,3.9024,-7.8659,-4.3293,0.00,0.00,0.00,4,S01
9520,-8.79390,-1.30723,-0.01676,2.9878,-6.1585,-4.5122,0.00,0.00,0.00,4,S01
9540,-8.61673,-1.41497,-0.07422,3.2317,-3.2317,-4.6341,0.00,0.00,0.00,4,S01
9560,-8.60955,-1.64242,-0.06943,6.2195,2.1341,-5.4268,0.00,0.00,0.00,4,S01
9580,-8.77714,-1.63763,0.10534,9.0854,6.7073,-5.9756,0.00,0.00,0.00,4,S01
9600,-8.83939,-1.29526,-0.07422,9.0854,7.6220,-5.8537,0.00,0.00,0.00,4,S01
9620,-8.76996,-0.90980,-0.34477,6.6463,8.3537,-5.0610,0.00,0.00,0.00,4,S01
9640,-9.15064,-0.90980,-0.46926,3.9634,10.9756,-4.0244,0.00,0.00,0.00,4,S01
9660,-9.76355,-1.36469,-0.16999,0.9146,12.3780,-4.0854,0.00,0.00,0.00,4,S01
9680,-9.88805,-1.75974,0.11013,-2.0122,9.4512,-5.9756,0.00,0.00,0.00,4,S01
9700,-9.66300,-1.81959,0.07183,-2.6220,5.1829,-8.7195,0.00,0.00,0.00,4,S01
9720,-9.48583,-1.65918,0.19154,-1.4634,3.1707,-11.1585,0.00,0.00,0.00,4,S01
9740,-9.43076,-1.57538,0.48363,-0.4268,1.5244,-12.3780,0.00,0.00,0.00,4,S01
9760,-9.19852,-1.58736,0.55306,1.4634,0.1220,-12.6829,0.00,0.00,0.00,4,S01
9780,-8.87770,-1.52511,0.55067,2.8049,0.6707,-12.1341,0.00,0.00,0.00,4,S01
9800,-8.75320,-1.54665,0.57461,2.5000,1.8902,-10.4878,0.00,0.00,0.00,4,S01
9820,-8.93277,-1.49638,0.51475,2.5000,4.6341,-8.2317,0.00,0.00,0.00,4,S01
9840,-9.39006,-1.36709,0.67516,1.2195,7.0122,-5.3659,0.00,0.00,0.00,4,S01
9860,-9.40682,-1.30005,0.62968,-0.9146,5.1829,-2.8049,0.00,0.00,0.00,4,S01
9880,-8.94474,-1.36709,0.50518,-2.3780,2.9268,-1.2195,0.00,0.00,0.00,4,S01
9900,-8.81784,-1.54426,0.51236,-3.0488,3.7805,-0.4268,0.00,0.00,0.00,4,S01
9920,-9.22725,-1.68552,0.54827,-3.0488,6.4024,-0.3049,0.00,0.00,0.00,4,S01
9940,-9.34457,-1.63763,0.49321,-2.8659,7.8659,-0.3049,0.00,0.00,0.00,4,S01
9960,-9.16979,-1.55863,0.49799,-4.0244,6.8293,0.1829,0.00,0.00,0.00,4,S01
9980,-9.07402,-1.62566,0.67038,-5.9756,5.3659,1.0366,0.00,0.00,0.00,4,S01
10000,-9.15064,-1.74537,0.80206,-6.4634,4.9390,1.2195,0.00,0.00,0.00,4,S01
10020,-9.14585,-1.66636,0.69192,-6.1585,6.2805,1.2805,0.00,0.00,0.00,4,S01
10040,-8.97347,-1.86987,0.06464,-6.1585,9.2683,2.2561,0.00,0.00,0.00,4,S01
10060,-9.56005,-1.92015,-0.04310,-2.9878,14.6951,3.6585,0.00,0.00,0.00,4,S01
10080,-10.22324,-1.73819,0.27054,-0.9146,9.6951,2.9268,0.00,0.00,0.00,4,S01
10100,-10.42914,-1.30963,0.00718,-4.3902,0.7317,-1.0366,0.00,0.00,0.00,4,S01
10120,-11.11867,-0.74939,-0.04549,-9.4512,3.6585,-6.5854,0.00,0.00,0.00,4,S01
10140,-12.05002,-1.28329,0.04070,-16.1585,3.8415,-8.4756,0.00,0.00,0.00,4,S01
10160,-12.66533,-1.76213,-0.36392,-21.0976,-1.8293,-8.1707,0.00,0.00,0.00,4,S01
10180,-12.37563,-1.56341,-0.77812,-24.6951,0.7317,-8.7805,0.00,0.00,0.00,4,S01
10200,-11.79384,-2.01831,-0.90980,-29.3902,6.0366,-7.5000,0.00,0.00,0.00,4,S01
10220,-11.37485,-2.28407,-1.28808,-29.5122,11.6463,-4.0854,0.00,0.00,0.00,4,S01
10240,-10.43633,-2.37984,-1.55863,-29.3902,20.8537,-0.3659,0.00,0.00,0.00,4,S01
10260,-9.70131,-2.35589,-1.56581,-26.8293,28.4756,2.8659,0.00,0.00,0.00,4,S01
10280,-9.80186,-2.07817,-1.53468,-20.3659,29.5122,6.8902,0.00,0.00,0.00,4,S01
10300,-10.01495,-1.93691,-1.40540,-12.7439,26.2195,12.6829,0.00,0.00,0.00,4,S01
10320,-9.79228,-1.76692,-1.35512,-3.5976,19.8171,18.4146,0.00,0.00,0.00,4,S01
10340,-8.81066,-1.53468,-1.25217,7.7439,3.7805,24.6341,0.00,0.00,0.00,4,S01
10360,-8.52815,-1.53947,-1.41258,12.7439,2.1951,23.5366,0.00,0.00,0.00,4,S01
10380,-8.44435,-1.33836,-1.46046,17.9878,6.6463,21.7683,0.00,0.00,0.00,4,S01
10400,-8.15465,-1.06542,-1.44370,20.4268,7.9878,21.8293,0.00,0.00,0.00,4,S01
10420,-7.90326,-0.70150,-1.44131,20.3659,3.7805,22.3171,0.00,0.00,0.00,4,S01
10440,-7.75961,-0.36392,-1.54905,18.3537,1.0366,20.9146,0.00,0.00,0.00,4,S01
10460,-7.67821,-0.28012,-1.53229,17.3171,1.8293,18.6585,0.00,0.00,0.00,4,S01
10480,-7.78594,-0.25618,-1.45567,17.2561,0.1220,17.1951,0.00,0.00,0.00,4,S01
10500,-7.97030,-0.31843,-1.29526,16.1585,-4.2073,16.6463,0.00,0.00,0.00,4,S01
10520,-8.00861,-0.50996,-1.11091,15.6098,-8.1707,15.6707,0.00,0.00,0.00,4,S01
10540,-8.02058,-0.53870,-1.14922,18.4146,-9.9390,13.8415,0.00,0.00,0.00,4,S01
10560,-8.17620,-0.49560,-1.13725,19.9390,-9.0854,12.6220,0.00,0.00,0.00,4,S01
10580,-8.61913,-0.39265,-1.20189,20.7317,-8.1098,13.0488,0.00,0.00,0.00,4,S01
10600,-8.99502,-0.18914,-1.14682,21.2805,-6.2195,14.2073,0.00,0.00,0.00,4,S01
10620,-9.11233,-0.03831,-1.07021,21.3415,-6.0976,14.9390,0.00,0.00,0.00,4,S01
10640,-8.92319,-0.07183,-1.18752,22.3171,-7.7439,15.1220,0.00,0.00,0.00,4,S01
10660,-8.72447,-0.08380,-1.25217,23.9634,-6.8293,15.7317,0.00,0.00,0.00,4,S01
10680,-8.95671,0.00000,-0.98641,23.7805,-4.0244,17.3171,0.00,0.00,0.00,4,S01
10700,-9.29669,0.25139,-0.75178,22.3780,-3.1098,20.0000,0.00,0.00,0.00,4,S01
10720,-9.35415,0.48363,-0.91219,19.6951,-4.0854,22.3780,0.00,0.00,0.00,4,S01
10740,-9.22246,0.64165,-0.94571,16.7073,-3.7195,23.8415,0.00,0.00,0.00,4,S01
10760,-9.10754,0.85712,-0.82839,13.5366,-2.2561,24.0854,0.00,0.00,0.00,4,S01
10780,-9.16500,1.02232,-0.66080,8.7195,-1.4634,23.1098,0.00,0.00,0.00,4,S01
10800,-9.15064,1.00078,-0.51715,4.8171,-1.1585,22.0732,0.00,0.00,0.00,4,S01
10820,-8.94474,1.07260,-0.41659,3.7195,0.0000,21.4024,0.00,0.00,0.00,4,S01
10840,-8.85615,1.18513,-0.55067,3.1707,2.9268,21.7073,0.00,0.00,0.00,4,S01
10860,-9.18176,1.21865,-0.42617,1.2195,6.4024,21.5854,0.00,0.00,0.00,4,S01
10880,-9.37091,1.41497,-0.28252,0.1220,6.0976,19.8780,0.00,0.00,0.00,4,S01
10900,-9.13627,1.69270,-0.11492,-2.3780,2.9268,17.2561,0.00,0.00,0.00,4,S01
10920,-8.86573,1.74777,-0.00239,-5.3049,1.4024,14.2073,0.00,0.00,0.00,4,S01
10940,-8.90882,1.57299,0.05507,-6.0976,3.5976,11.0366,0.00,0.00,0.00,4,S01
10960,-9.02853,1.55384,0.09337,-5.8537,5.6707,7.4390,0.00,0.00,0.00,4,S01
10980,-9.08121,1.62806,0.11971,-6.5244,5.5488,3.6585,0.00,0.00,0.00,4,S01
11000,-9.24162,1.66158,0.26336,-6.2805,4.8171,0.0610,0.00,0.00,0.00,4,S01
11020,-9.60554,1.78129,0.46926,-6.3415,3.2317,-2.5000,0.00,0.00,0.00,4,S01
11040,-10.03170,1.63763,0.46448,-7.1951,0.2439,-4.0854,0.00,0.00,0.00,4,S01
11060,-10.13466,1.54426,-0.11013,-4.8780,-1.7073,-5.4878,0.00,0.00,0.00,4,S01
11080,-10.21127,1.64482,-0.56743,-3.1098,0.7927,-5.9756,0.00,0.00,0.00,4,S01
11100,-11.37725,2.11887,-0.75657,-3.2927,1.8902,-6.0366,0.00,0.00,0.00,4,S01
11120,-12.37323,2.05901,-1.20668,-6.1585,0.3049,-1.6463,0.00,0.00,0.00,4,S01
11140,-12.03805,1.26893,-0.83797,-5.9756,-0.0610,0.6707,0.00,0.00,0.00,4,S01
11160,-11.87524,0.76854,-1.10852,3.9634,-4.6951,-4.3293,0.00,0.00,0.00,4,S01
11180,-11.15698,0.41659,-1.43173,13.4756,-5.6098,-7.5000,0.00,0.00,0.00,4,S01
11200,-10.11790,0.37110,-1.63045,17.9268,-4.6951,-9.8171,0.00,0.00,0.00,4,S01
11220,-9.31823,0.63207,-1.94170,21.4634,-1.8902,-10.7927,0.00,0.00,0.00,4,S01
11240,-8.96868,0.84755,-1.94409,17.6220,2.8659,-11.2805,0.00,0.00,0.00,4,S01
11260,-9.23204,0.74939,-1.64003,9.8780,5.4878,-15.4878,0.00,0.00,0.00,4,S01
11280,-9.72285,0.51954,-1.44610,3.5976,3.7195,-22.0732,0.00,0.00,0.00,4,S01
11300,-9.91439,0.21787,-1.34315,-1.7073,-0.9146,-26.7073,0.00,0.00,0.00,4,S01
11320,-9.73004,-0.05028,-1.30963,-6.1585,-5.8537,-28.3537,0.00,0.00,0.00,4,S01
11340,-9.31344,-0.24181,-1.39343,-8.3537,-9.1463,-27.8659,0.00,0.00,0.00,4,S01
11360,-8.96389,-0.38068,-1.33596,-7.1951,-10.6098,-26.7073,0.00,0.00,0.00,4,S01
11380,-8.78193,-0.55545,-1.31202,-3.7195,-11.0976,-25.4268,0.00,0.00,0.00,4,S01
11400,-8.47547,-0.79727,-1.38864,0.0000,-11.2195,-24.1463,0.00,0.00,0.00,4,S01
11420,-8.18338,-0.99359,-1.38624,5.2439,-10.0610,-23.6585,0.00,0.00,0.00,4,S01
11440,-8.11156,-0.86431,-1.41258,9.6951,-8.1098,-23.7805,0.00,0.00,0.00,4,S01
11460,-8.21451,-0.68953,-1.31921,10.7317,-6.0976,-21.9512,0.00,0.00,0.00,4,S01
11480,-8.23605,-0.48602,-1.38864,10.6707,-4.9390,-19.6341,0.00,0.00,0.00,4,S01
11500,-8.23605,-0.43574,-1.40779,8.4756,-4.5122,-19.2683,0.00,0.00,0.00,4,S01
11520,-8.69574,-0.76614,-0.98162,0.1220,-10.2439,-23.1707,0.00,0.00,0.00,4,S01
11540,-8.63110,-0.99838,-1.12767,-2.8049,-14.3902,-23.5976,0.00,0.00,0.00,4,S01
11560,-8.32464,-1.12767,-1.13485,-5.4878,-14.4512,-23.2927,0.00,0.00,0.00,4,S01
11580,-8.42759,-1.27611,-0.79487,-8.2317,-12.0732,-22.9878,0.00,0.00,0.00,4,S01
11600,-8.88009,-1.41258,-0.49560,-7.8049,-10.4878,-21.9512,0.00,0.00,0.00,4,S01
11620,-8.95671,-1.41737,-0.57221,-4.7561,-10.3049,-19.5732,0.00,0.00,0.00,4,S01
11640,-8.48266,-1.37906,-0.82361,-3.1707,-9.5122,-16.9512,0.00,0.00,0.00,4,S01
11660,-8.28633,-1.34315,-0.87388,-2.7439,-5.1220,-15.3049,0.00,0.00,0.00,4,S01
11680,-8.79869,-1.17316,-0.59376,-3.5976,0.2439,-14.8780,0.00,0.00,0.00,4,S01
11700,-9.26795,-1.17316,-0.39265,-4.5732,0.6707,-15.7927,0.00,0.00,0.00,4,S01
11720,-9.08121,-1.41018,-0.35674,-3.1707,-3.1098,-17.7439,0.00,0.00,0.00,4,S01
11740,-8.61913,-1.64960,-0.32322,-0.5488,-3.5366,-18.6585,0.00,0.00,0.00,4,S01
11760,-8.68856,-1.78847,-0.27294,1.6463,0.9756,-18.1098,0.00,0.00,0.00,4,S01
11780,-9.17458,-1.75734,-0.10534,2.5610,5.9756,-17.2561,0.00,0.00,0.00,4,S01
11800,-9.27274,-1.66397,-0.05507,3.2927,6.5244,-16.9512,0.00,0.00,0.00,4,S01
11820,-8.90404,-1.66876,-0.02394,5.3659,4.6951,-16.7073,0.00,0.00,0.00,4,S01
11840,-8.79151,-1.90818,0.18196,8.0488,5.0000,-15.9146,0.00,0.00,0.00,4,S01
11860,-9.12670,-2.03268,0.29688,11.6463,7.0122,-15.5488,0.00,0.00,0.00,4,S01
11880,-9.30626,-1.99676,0.19154,13.5976,7.9878,-13.9024,0.00,0.00,0.00,4,S01
11900,-9.14585,-1.78847,0.11013,14.9390,7.7439,-11.2195,0.00,0.00,0.00,4,S01
11920,-8.86573,-1.65679,0.09098,16.2805,6.6463,-8.6585,0.00,0.00,0.00,4,S01
11940,-8.71968,-1.65439,0.08619,15.3049,8.2317,-6.4634,0.00,0.00,0.00,4,S01
11960,-9.03811,-1.82438,0.31603,13.2317,10.9756,-4.5732,0.00,0.00,0.00,4,S01
11980,-9.24162,-1.86508,0.32322,12.3780,10.4878,-3.4756,0.00,0.00,0.00,4,S01
12000,-8.94713,-1.72861,0.23703,11.2195,8.2927,-2.6829,0.00,0.00,0.00,4,S01
12020,-8.70532,-1.65439,0.13408,8.7805,7.5610,-1.7683,0.00,0.00,0.00,4,S01
12040,-8.82742,-1.65679,0.14365,4.5732,9.7561,-0.3049,0.00,0.00,0.00,4,S01
12060,-9.02375,-1.70946,0.21069,0.0000,12.8659,0.7927,0.00,0.00,0.00,4,S01
12080,-8.82024,-1.77889,0.14844,-4.0244,14.6951,1.2805,0.00,0.00,0.00,4,S01
12100,-8.80827,-2.00395,0.24421,-6.5854,17.1951,2.5000,0.00,0.00,0.00,4,S01
12120,-9.07402,-2.12366,0.35913,-7.4390,19.8780,3.9634,0.00,0.00,0.00,4,S01
12140,-9.23204,-2.35111,0.30885,-10.1220,22.0732,5.9146,0.00,0.00,0.00,4,S01
12160,-9.20571,-2.93769,-0.11253,-9.3293,25.1829,7.2561,0.00,0.00,0.00,4,S01
12180,-9.77792,-2.77009,-0.45729,2.1341,26.5854,6.1585,0.00,0.00,0.00,4,S01
12200,-10.72363,-2.22421,-0.26576,5.9146,18.7195,5.4268,0.00,0.00,0.00,4,S01
12220,-11.53766,-1.77171,-0.25379,1.8293,8.6585,4.5122,0.00,0.00,0.00,4,S01
12240,-12.01889,-1.48441,-0.58419,-2.3780,8.7195,1.1585,0.00,0.00,0.00,4,S01
12260,-12.06917,-1.52271,-1.03908,-8.3537,11.8293,-0.9146,0.00,0.00,0.00,4,S01
12280,-12.00692,-1.47722,-1.55144,-15.8537,15.0610,-1.0366,0.00,0.00,0.00,4,S01
12300,-11.82736,-1.62806,-2.21224,-19.8780,22.6829,0.7317,0.00,0.00,0.00,4,S01
12320,-11.44189,-1.90339,-2.61207,-20.7317,31.4634,5.5488,0.00,0.00,0.00,4,S01
12340,-10.55604,-1.88663,-2.84192,-19.3902,35.5488,10.1220,0.00,0.00,0.00,4,S01
12360,-9.77313,-2.01831,-2.77488,-17.7439,37.4390,11.8902,0.00,0.00,0.00,4,S01
12380,-9.77074,-1.89621,-2.62644,-9.7561,36.6463,13.0488,0.00,0.00,0.00,4,S01
12400,-9.99100,-1.61130,-2.63841,0.9146,28.5976,16.0976,0.00,0.00,0.00,4,S01
12420,-9.64624,-1.32160,-2.71981,9.9390,16.9512,21.4024,0.00,0.00,0.00,4,S01
12440,-9.00459,-1.00796,-2.74136,15.0000,6.3415,26.0976,0.00,0.00,0.00,4,S01
12460,-8.61194,-0.83318,-2.53546,15.9756,0.9146,27.5000,0.00,0.00,0.00,4,S01
12480,-8.44674,-0.84276,-2.30801,15.9146,0.6707,25.8537,0.00,0.00,0.00,4,S01
12500,-8.32464,-0.76614,-2.21224,17.6220,2.8049,22.3780,0.00,0.00,0.00,4,S01
12520,-8.28873,-0.56024,-2.04944,19.2073,3.9024,18.7195,0.00,0.00,0.00,4,S01
12540,-8.17380,-0.36152,-2.00155,20.4878,1.9512,16.8293,0.00,0.00,0.00,4,S01
12560,-7.97987,-0.03831,-2.24576,20.0000,0.4268,16.6463,0.00,0.00,0.00,4,S01
12580,-7.74524,0.27533,-2.46124,15.6098,3.3537,17.1341,0.00,0.00,0.00,4,S01
12600,-7.83143,0.58179,-2.19309,8.5366,6.2195,17.0122,0.00,0.00,0.00,4,S01
12620,-8.13071,0.52672,-1.86508,3.4146,2.1951,17.4390,0.00,0.00,0.00,4,S01
12640,-8.18099,0.44532,-1.78607,2.9878,-5.3049,18.0488,0.00,0.00,0.00,4,S01
12660,-8.20014,0.62249,-1.68312,2.2561,-9.9390,17.4390,0.00,0.00,0.00,4,S01
12680,-8.44674,0.78530,-1.48919,-0.0610,-11.7073,15.6707,0.00,0.00,0.00,4,S01
12700,-8.77714,0.82121,-1.34794,0.8537,-11.4634,13.4756,0.00,0.00,0.00,4,S01
12720,-8.96629,1.06063,-1.71904,6.4024,-7.8049,11.0366,0.00,0.00,0.00,4,S01
12740,-8.76038,1.26414,-1.80762,1.7683,-5.0000,13.2317,0.00,0.00,0.00,4,S01
12760,-8.70053,1.32878,-1.86269,-4.2073,-3.4756,15.0610,0.00,0.00,0.00,4,S01
12780,-8.81306,1.26653,-1.90578,-6.0366,-1.0366,15.6098,0.00,0.00,0.00,4,S01
12800,-9.11233,0.93374,-1.70228,-7.2561,1.6463,16.3415,0.00,0.00,0.00,4,S01
12820,-9.19134,0.87388,-1.80762,-8.1098,1.0366,16.5854,0.00,0.00,0.00,4,S01
12840,-8.90164,1.23301,-1.94170,-11.8902,0.1829,16.8902,0.00,0.00,0.00,4,S01
12860,-8.71729,1.59454,-1.86748,-17.6829,0.5488,17.0732,0.00,0.00,0.00,4,S01
12880,-8.85136,1.70228,-1.72861,-22.1951,0.0000,14.8780,0.00,0.00,0.00,4,S01
12900,-8.99980,1.46286,-1.61369,-25.5488,-1.9512,11.0366,0.00,0.00,0.00,4,S01
12920,-8.92080,1.12288,-1.38385,-27.4390,-3.9634,6.7683,0.00,0.00,0.00,4,S01
12940,-8.65265,0.97683,-1.31442,-27.5610,-5.1829,3.6585,0.00,0.00,0.00,4,S01
12960,-8.56167,1.01754,-1.31921,-27.6829,-4.4512,2.5610,0.00,0.00,0.00,4,S01
12980,-8.72208,0.95768,-1.27132,-29.1463,-2.5000,0.9146,0.00,0.00,0.00,4,S01
13000,-8.91840,0.77572,-1.12049,-27.4390,-1.0366,-2.5610,0.00,0.00,0.00,4,S01
13020,-9.11233,0.85473,-0.91698,-23.2317,-1.4634,-6.4024,0.00,0.00,0.00,4,S01
13040,-9.32542,0.96007,-0.79727,-20.8537,-2.5610,-8.7195,0.00,0.00,0.00,4,S01
13060,-9.55287,0.79966,-0.68235,-18.6585,-4.0854,-10.1220,0.00,0.00,0.00,4,S01
13080,-10.04846,0.66319,-0.47884,-14.0244,-5.4878,-10.9756,0.00,0.00,0.00,4,S01
13100,-10.82897,0.97205,-0.29449,-9.6341,-6.7073,-11.0976,0.00,0.00,0.00,4,S01
13120,-11.29824,1.30005,-0.61052,-8.5976,-7.4390,-10.8537,0.00,0.00,0.00,4,S01
13140,-11.30303,1.88424,-2.20745,-9.6341,-3.6585,-10.0610,0.00,0.00,0.00,4,S01
13160,-12.65575,1.57778,-1.59214,-13.9634,2.4390,-10.4878,0.00,0.00,0.00,4,S01
13180,-13.91031,0.39025,-2.02789,-10.2439,-6.2195,-7.6829,0.00,0.00,0.00,4,S01
13200,-12.51449,-0.76375,-1.58017,-0.1220,-10.8537,0.1220,0.00,0.00,0.00,4,S01
13220,-10.85531,-0.51475,-2.14281,13.1098,-15.4878,-0.4878,0.00,0.00,0.00,4,S01
13240,-9.82102,0.23463,-2.49236,19.2073,-15.5488,-3.2927,0.00,0.00,0.00,4,S01
13260,-9.37091,0.76854,-2.62165,17.3780,-8.7195,-4.5732,0.00,0.00,0.00,4,S01
13280,-9.44513,0.45729,-2.52349,9.0244,-2.5610,-8.9634,0.00,0.00,0.00,4,S01
13300,-9.46189,0.01676,-2.44687,1.5244,-0.8537,-16.6463,0.00,0.00,0.00,4,S01
13320,-9.32302,-0.33758,-2.45166,-4.6341,-4.5122,-23.9634,0.00,0.00,0.00,4,S01
13340,-9.00220,-0.57700,-2.26970,-11.3415,-9.8171,-28.0488,0.00,0.00,0.00,4,S01
13360,-8.55688,-0.56264,-2.11647,-15.6707,-13.9024,-28.1707,0.00,0.00,0.00,4,S01
13380,-8.39407,-0.65362,-2.10450,-18.6585,-16.8902,-25.8537,0.00,0.00,0.00,4,S01
13400,-8.20493,-0.96726,-2.09732,-19.5122,-15.2439,-24.7561,0.00,0.00,0.00,4,S01
13420,-7.97987,-1.21147,-2.12366,-14.5732,-9.5122,-24.4512,0.00,0.00,0.00,4,S01
13440,-7.78594,-1.52511,-1.95127,-11.8902,-5.6098,-25.4878,0.00,0.00,0.00,4,S01
13460,-7.56089,-1.41018,-1.75495,-10.4268,-5.1220,-27.6829,0.00,0.00,0.00,4,S01
13480,-7.63032,-1.04148,-1.65679,-7.6220,-6.6463,-28.3537,0.00,0.00,0.00,4,S01
13500,-8.14747,-0.75657,-1.56581,-7.0732,-6.6463,-26.0976,0.00,0.00,0.00,4,S01
13520,-8.39647,-0.70150,-1.38864,-10.0610,-4.8780,-22.6829,0.00,0.00,0.00,4,S01
13540,-8.42759,-0.68714,-1.20668,-14.4512,-6.7683,-21.0976,0.00,0.00,0.00,4,S01
13560,-8.41562,-0.81642,-1.24977,-18.4756,-12.3780,-20.7927,0.00,0.00,0.00,4,S01
13580,-8.19775,-1.08457,-1.19471,-20.0000,-14.2073,-19.8780,0.00,0.00,0.00,4,S01
13600,-8.13310,-1.17316,-1.18274,-18.6585,-12.4390,-19.5122,0.00,0.00,0.00,4,S01
13620,-8.45871,-1.28569,-0.96726,-21.1585,-10.6098,-19.2073,0.00,0.00,0.00,4,S01
13640,-8.55448,-1.49159,-0.98641,-21.5854,-8.9024,-18.8415,0.00,0.00,0.00,4,S01
13660,-8.13071,-1.60172,-0.92895,-17.2561,-5.3659,-18.1707,0.00,0.00,0.00,4,S01
13680,-8.00382,-1.71664,-1.06303,-12.3780,-2.4390,-17.0732,0.00,0.00,0.00,4,S01
13700,-8.74602,-1.66158,-1.00078,-11.0976,3.4756,-16.5244,0.00,0.00,0.00,4,S01
13720,-9.37330,-1.56341,-0.99838,-11.0366,8.3537,-16.0366,0.00,0.00,0.00,4,S01
13740,-9.22246,-1.43413,-0.88107,-11.4024,7.5610,-14.8171,0.00,0.00,0.00,4,S01
13760,-8.81784,-1.41976,-0.70868,-12.9878,2.0732,-13.2317,0.00,0.00,0.00,4,S01
13780,-8.90164,-1.39103,-0.72544,-16.0976,0.1829,-12.3171,0.00,0.00,0.00,4,S01
13800,-9.20092,-1.39821,-0.69671,-19.3902,3.5976,-11.8902,0.00,0.00,0.00,4,S01
13820,-8.96868,-1.49159,-0.60813,-21.3415,3.8415,-11.9512,0.00,0.00,0.00,4,S01
13840,-8.51139,-1.67594,-0.46208,-21.5854,2.2561,-12.7439,0.00,0.00,0.00,4,S01
13860,-8.57364,-1.92254,-0.34477,-20.9756,4.6341,-13.1707,0.00,0.00,0.00,4,S01
13880,-8.92319,-1.98479,-0.37110,-20.4268,10.0610,-12.5610,0.00,0.00,0.00,4,S01
13900,-9.11233,-1.95606,-0.44532,-20.7317,13.3537,-11.0976,0.00,0.00,0.00,4,S01
13920,-8.65504,-2.32716,-0.11253,-17.4390,12.5610,-7.8659,0.00,0.00,0.00,4,S01
13940,-9.07642,-2.46842,0.12689,-14.1463,13.2927,-6.5244,0.00,0.00,0.00,4,S01
13960,-9.42118,-2.31998,0.19154,-10.5488,13.6585,-4.6951,0.00,0.00,0.00,4,S01
13980,-9.29429,-1.99198,-0.06943,-9.0854,10.5488,-2.0732,0.00,0.00,0.00,4,S01
14000,-9.05008,-1.90339,-0.02634,-12.1951,5.7927,0.5488,0.00,0.00,0.00,4,S01
14020,-9.00699,-2.09971,0.07901,-14.7561,3.9634,1.8293,0.00,0.00,0.00,4,S01
14040,-9.22007,-2.19548,-0.04310,-16.3415,7.2561,1.5244,0.00,0.00,0.00,4,S01
14060,-9.65103,-2.38941,-0.56743,-18.7805,11.2195,0.4268,0.00,0.00,0.00,4,S01
14080,-10.54406,-3.05740,-0.76614,-19.1463,14.5122,-0.0610,0.00,0.00,0.00,4,S01
14100,-11.58554,-3.07655,-1.41018,-13.2317,13.3537,-1.0976,0.00,0.00,0.00,4,S01
14120,-12.49534,-2.43251,-1.68552,-16.3415,12.5000,-2.5000,0.00,0.00,0.00,4,S01
14140,-13.27824,-1.58975,-1.65918,-23.7805,12.9878,-5.3659,0.00,0.00,0.00,4,S01
14160,-13.12741,-1.47962,-2.60250,-26.4634,9.6951,-5.3659,0.00,0.00,0.00,4,S01
14180,-12.08593,-1.48201,-3.26330,-32.0122,10.9756,2.0732,0.00,0.00,0.00,4,S01
14200,-10.68772,-1.24020,-2.93529,-42.6220,18.0488,11.8902,0.00,0.00,0.00,4,S01
14220,-9.73482,-1.29047,-2.72700,-43.4756,24.0854,16.2805,0.00,0.00,0.00,4,S01
14240,-9.60314,-1.24259,-2.98078,-28.1098,25.7927,14.3293,0.00,0.00,0.00,4,S01
14260,-9.96706,-1.09654,-3.19387,-14.2073,21.3415,15.0000,0.00,0.00,0.00,4,S01
14280,-9.79468,-0.70868,-3.23696,-6.1585,10.9756,20.9756,0.00,0.00,0.00,4,S01
14300,-9.13867,-0.13168,-3.41653,-5.9756,-2.9268,27.1951,0.00,0.00,0.00,4,S01
14320,-8.50899,0.31364,-3.33033,-12.0122,-10.0000,29.6341,0.00,0.00,0.00,4,S01
14340,-8.21451,0.28252,-3.01909,-19.7561,-8.1707,26.7683,0.00,0.00,0.00,4,S01
14360,-8.15944,0.01915,-2.71263,-22.9268,-2.9268,20.9146,0.00,0.00,0.00,4,S01
14380,-8.14986,-0.05267,-2.64799,-21.4024,-1.8902,15.6707,0.00,0.00,0.00,4,S01
14400,-8.10437,-0.13408,-2.58574,-19.5732,-8.1707,13.6585,0.00,0.00,0.00,4,S01
14420,-8.07804,-0.29209,-2.29843,-19.3902,-18.4146,13.0488,0.00,0.00,0.00,4,S01
14440,-7.98466,-0.24660,-2.03986,-19.2073,-27.0732,11.3415,0.00,0.00,0.00,4,S01
14460,-7.77397,-0.22984,-1.83156,-18.2317,-30.0610,9.2073,0.00,0.00,0.00,4,S01
14480,-7.77876,-0.13647,-1.64721,-16.4634,-28.2317,8.3537,0.00,0.00,0.00,4,S01
14500,-7.92481,0.03831,-1.70467,-14.6951,-24.3293,9.2073,0.00,0.00,0.00,4,S01
14520,-7.96551,0.18435,-1.77171,-13.5976,-19.0854,10.3049,0.00,0.00,0.00,4,S01
14540,-7.97748,0.38786,-1.75016,-13.7195,-15.4268,10.7317,0.00,0.00,0.00,4,S01
14560,-8.22169,0.50039,-1.49398,-16.6463,-14.5122,10.0000,0.00,0.00,0.00,4,S01
14580,-8.38210,0.46687,-1.63285,-18.1707,-14.8171,8.2927,0.00,0.00,0.00,4,S01
14600,-8.45153,0.45729,-1.84354,-18.5976,-12.2561,6.0366,0.00,0.00,0.00,4,S01
14620,-8.55927,0.33758,-1.66636,-20.2439,-9.5122,4.2073,0.00,0.00,0.00,4,S01
14640,-8.56406,0.29209,-1.47962,-21.2195,-9.3902,2.0732,0.00,0.00,0.00,4,S01
14660,-8.67659,0.44293,-1.43173,-21.8902,-8.6585,0.4268,0.00,0.00,0.00,4,S01
14680,-8.93995,0.47405,-1.25456,-24.8780,-6.0976,0.0000,0.00,0.00,0.00,4,S01
14700,-9.07402,0.40462,-1.07739,-26.4634,-5.3659,1.0976,0.00,0.00,0.00,4,S01
14720,-9.08360,0.32082,-0.99599,-27.2561,-6.7683,1.8902,0.00,0.00,0.00,4,S01
14740,-9.04290,0.13408,-0.91698,-27.5000,-7.7439,2.1951,0.00,0.00,0.00,4,S01
14760,-9.04290,-0.01197,-0.91937,-24.8780,-6.8902,2.1951,0.00,0.00,0.00,4,S01
14780,-9.05966,0.16759,-0.99120,-21.3415,-4.8171,2.3171,0.00,0.00,0.00,4,S01
14800,-9.11473,0.39504,-0.93853,-21.4024,-2.9878,2.9268,0.00,0.00,0.00,4,S01
14820,-9.13867,0.42138,-0.82600,-22.7439,-2.4390,2.9878,0.00,0.00,0.00,4,S01
14840,-9.11473,0.33519,-0.65841,-21.9512,-2.1951,1.9512,0.00,0.00,0.00,4,S01
14860,-9.08600,0.23463,-0.53151,-20.0610,-2.4390,0.5488,0.00,0.00,0.00,4,S01
14880,-8.94953,0.21069,-0.56743,-17.3171,-1.3415,-0.5488,0.00,0.00,0.00,4,S01
14900,-8.87531,0.26097,-0.54827,-15.0610,1.8902,-1.7683,0.00,0.00,0.00,4,S01
14920,-8.86333,0.24900,-0.48602,-12.8049,5.3049,-3.8415,0.00,0.00,0.00,4,S01
14940,-8.94713,0.24421,-0.34716,-9.5732,7.6220,-6.2805,0.00,0.00,0.00,4,S01
14960,-9.10754,0.24900,-0.13647,-6.8293,8.4146,-8.0488,0.00,0.00,0.00,4,S01
14980,-9.31105,0.38307,-0.08380,-5.3049,7.8659,-8.5366,0.00,0.00,0.00,4,S01
15000,-9.43794,0.67995,-0.12450,-6.1585,7.5610,-8.4756,0.00,0.00,0.00,4,S01
15020,-9.48343,1.01993,-0.10295,-8.9634,6.2195,-8.5976,0.00,0.00,0.00,4,S01
15040,-9.32542,1.03190,-0.06464,-12.3780,2.8659,-9.0244,0.00,0.00,0.00,4,S01
15060,-9.16979,0.84036,0.14126,-14.0244,-0.1220,-9.6341,0.00,0.00,0.00,4,S01
15080,-9.35415,0.77093,0.39504,-15.4268,-1.3415,-10.0610,0.00,0.00,0.00,4,S01
15100,-9.75637,0.75657,0.50039,-17.4390,-2.5610,-9.7561,0.00,0.00,0.00,4,S01
15120,-9.85932,0.56503,0.68953,-18.4146,-6.3415,-8.9634,0.00,0.00,0.00,4,S01
15140,-9.42358,0.34477,0.66319,-10.9146,-15.7317,-6.8902,0.00,0.00,0.00,4,S01
15160,-9.99100,0.70390,0.25618,-5.8537,-16.6463,-4.9390,0.00,0.00,0.00,4,S01
15180,-10.71884,1.16598,-0.67995,-4.5732,-14.6951,0.7927,0.00,0.00,0.00,4,S01
15200,-11.27190,1.82438,-1.47483,-8.6585,-11.5244,8.3537,0.00,0.00,0.00,4,S01
15220,-11.51850,1.66158,-1.96325,-16.8902,-13.3537,15.0610,0.00,0.00,0.00,4,S01
15240,-10.57519,1.01993,-1.53708,-23.5976,-17.3780,17.3780,0.00,0.00,0.00,4,S01
15260,-9.39724,0.20351,-1.23541,-23.7195,-21.2195,12.0732,0.00,0.00,0.00,4,S01
15280,-8.22169,-0.29449,-1.24977,-17.6220,-20.8537,3.5366,0.00,0.00,0.00,4,S01
15300,-7.81707,-0.45490,-1.52032,-8.9024,-16.2805,-5.0000,0.00,0.00,0.00,4,S01
15320,-8.09719,-0.35195,-1.89621,-3.5366,-10.2439,-8.3537,0.00,0.00,0.00,4,S01
15340,-8.68377,-0.12689,-2.19548,-5.7317,-5.6707,-6.4024,0.00,0.00,0.00,4,S01
15360,-9.48822,-0.11492,-2.08535,-15.7317,-6.5244,-2.5000,0.00,0.00,0.00,4,S01
15380,-9.84256,-0.16281,-1.98958,-25.6098,-11.7073,-0.1829,0.00,0.00,0.00,4,S01
15400,-9.89763,-0.03352,-1.96085,-32.6220,-17.3780,-2.1951,0.00,0.00,0.00,4,S01
15420,-9.90721,0.46208,-1.92015,-41.0976,-20.6098,-6.2195,0.00,0.00,0.00,4,S01
15440,-9.73004,0.63446,-1.86029,-53.2317,-21.5854,-10.1220,0.00,0.00,0.00,4,S01
15460,-9.39964,0.45011,-1.61609,-63.9024,-21.4024,-14.8171,0.00,0.00,0.00,4,S01
15480,-9.15064,0.15083,-1.21865,-71.2805,-20.1220,-18.0488,0.00,0.00,0.00,4,S01
15500,-8.96389,-0.16520,-0.79487,-76.9512,-18.1707,-18.8415,0.00,0.00,0.00,4,S01
15520,-8.72686,-0.49560,-0.43574,-80.4268,-16.4634,-18.1098,0.00,0.00,0.00,4,S01
15540,-8.59279,-0.73981,-0.24421,-80.5488,-13.5366,-17.0732,0.00,0.00,0.00,4,S01
15560,-8.73884,-0.73981,-0.14844,-76.9512,-7.7439,-16.0366,0.00,0.00,0.00,4,S01
15580,-8.92558,-0.69192,-0.13886,-74.3902,-2.6829,-14.5122,0.00,0.00,0.00,4,S01
15600,-9.03332,-0.65841,-0.16041,-72.0122,-0.2439,-13.1707,0.00,0.00,0.00,4,S01
15620,-8.97586,-0.58897,-0.27773,-69.3293,0.0610,-12.1341,0.00,0.00,0.00,4,S01
15640,-9.13148,-0.50518,-0.15562,-68.5976,1.8902,-11.3415,0.00,0.00,0.00,4,S01
15660,-9.35654,-0.44772,0.06225,-69.6341,2.9268,-12.0732,0.00,0.00,0.00,4,S01
15680,-9.34218,-0.54109,0.20590,-69.6951,2.4390,-13.2927,0.00,0.00,0.00,4,S01
15700,-9.19852,-0.76854,0.27294,-68.2317,1.4634,-13.8415,0.00,0.00,0.00,4,S01
15720,-9.03811,-1.00556,0.41899,-66.9512,2.8659,-13.1707,0.00,0.00,0.00,4,S01
15740,-8.81545,-1.18034,0.43574,-65.6098,5.6707,-11.6463,0.00,0.00,0.00,4,S01
15760,-8.69813,-1.26414,0.24660,-63.2317,7.9268,-9.6341,0.00,0.00,0.00,4,S01
15780,-8.82503,-1.18513,0.15802,-60.6098,12.1341,-7.6220,0.00,0.00,0.00,4,S01
15800,-9.26317,-1.15401,0.64404,-59.0854,17.4390,-6.0976,0.00,0.00,0.00,4,S01
15820,-9.59596,-1.27372,0.96247,-56.4024,14.5122,-4.5732,0.00,0.00,0.00,4,S01
15840,-9.37569,-1.21625,0.68953,-53.7195,4.8780,-4.3902,0.00,0.00,0.00,4,S01
15860,-9.06205,-1.25456,0.70150,-52.0122,-0.5488,-4.0244,0.00,0.00,0.00,4,S01
15880,-9.14346,-1.15401,0.82839,-49.5732,-3.4146,-5.0000,0.00,0.00,0.00,4,S01
15900,-9.42358,-1.13725,0.91698,-49.5122,-7.9878,-6.2195,0.00,0.00,0.00,4,S01
15920,-9.53850,-1.42934,1.05105,-49.3293,-14.7561,-7.1951,0.00,0.00,0.00,4,S01
15940,-9.38527,-1.68552,1.21625,-47.2561,-20.6098,-7.9268,0.00,0.00,0.00,4,S01
15960,-9.18416,-1.49877,1.42934,-46.2195,-21.5854,-7.9878,0.00,0.00,0.00,4,S01
15980,-9.05008,-0.93374,1.69749,-49.6951,-18.5976,-6.8902,0.00,0.00,0.00,4,S01
16000,-9.15782,-0.33279,1.73340,-56.3415,-15.0000,-5.1220,0.00,0.00,0.00,4,S01
16020,-10.50576,-0.39744,0.57700,-63.2927,-10.1829,-4.1463,0.00,0.00,0.00,4,S01
16040,-12.48337,-1.39821,-1.47483,-65.4268,0.7927,-10.0000,0.00,0.00,0.00,4,S01
16060,-12.97178,-1.29047,-2.27689,-55.3049,10.6707,-24.2073,0.00,0.00,0.00,4,S01
16080,-11.19529,-0.28491,-2.65278,-50.7927,-0.1829,-31.3415,0.00,0.00,0.00,4,S01
16100,-8.84897,0.93374,-2.95684,-63.1098,-18.6585,-24.8171,0.00,0.00,0.00,4,S01
16120,-7.42921,0.29449,-3.48596,-81.1585,-26.8293,-10.6707,0.00,0.00,0.00,4,S01
16140,-8.76038,-1.07260,-2.40138,-94.3902,-20.8537,-4.0854,0.00,0.00,0.00,4,S01
16160,-10.29028,-1.90339,-1.69031,-88.3537,-16.4024,-0.4878,0.00,0.00,0.00,4,S01
16180,-10.13944,-1.41497,-1.54905,-72.9878,-15.9756,5.7317,0.00,0.00,0.00,4,S01
16200,-9.72764,-0.59855,-1.51792,-61.4634,-18.7805,10.7317,0.00,0.00,0.00,4,S01
16220,-9.36372,-0.17478,-1.27850,-53.9634,-22.5000,14.5122,0.00,0.00,0.00,4,S01
16240,-9.18655,-0.08380,-1.08457,-50.1829,-21.9512,17.9878,0.00,0.00,0.00,4,S01
16260,-9.11951,-0.18196,-1.19950,-48.1707,-15.3659,20.4268,0.00,0.00,0.00,4,S01
16280,-9.07402,-0.14126,-1.32639,-48.0488,-8.9024,23.0488,0.00,0.00,0.00,4,S01
16300,-8.91122,0.00718,-1.14922,-52.0732,-6.5244,25.1829,0.00,0.00,0.00,4,S01
16320,-8.88728,-0.36152,-0.45729,-54.6951,-9.0854,21.4024,0.00,0.00,0.00,4,S01
16340,-9.11951,-0.24660,-0.18914,-52.1951,-9.6341,18.7195,0.00,0.00,0.00,4,S01
16360,-9.09557,-0.12210,-0.18675,-50.1829,-7.9268,17.1341,0.00,0.00,0.00,4,S01
16380,-8.92558,-0.05267,-0.21548,-49.3902,-4.6951,16.1585,0.00,0.00,0.00,4,S01
16400,-8.83460,-0.11971,-0.36871,-48.2927,-1.4024,15.0000,0.00,0.00,0.00,4,S01
16420,-8.96629,-0.24181,-0.24660,-46.4634,2.3171,13.5976,0.00,0.00,0.00,4,S01
16440,-9.23444,-0.29209,-0.17717,-44.1463,4.9390,12.9878,0.00,0.00,0.00,4,S01
16460,-9.59357,-0.28012,0.08619,-42.1951,5.7317,12.1341,0.00,0.00,0.00,4,S01
16480,-9.71806,-0.25857,0.30885,-38.9024,4.5122,10.6098,0.00,0.00,0.00,4,S01
16500,-9.46907,-0.22745,0.23463,-34.2073,2.2561,9.8171,0.00,0.00,0.00,4,S01
16520,-9.06445,-0.22027,0.25139,-30.0000,0.4268,9.9390,0.00,0.00,0.00,4,S01
16540,-8.90164,-0.26097,0.29688,-26.4024,-0.6098,9.7561,0.00,0.00,0.00,4,S01
16560,-9.00459,-0.17478,0.48602,-22.8659,0.0000,8.3537,0.00,0.00,0.00,4,S01
16580,-9.19613,-0.02634,0.85473,-20.1220,-0.1829,6.4024,0.00,0.00,0.00,4,S01
16600,-9.21528,0.21308,0.87867,-17.8049,-2.9878,4.3293,0.00,0.00,0.00,4,S01
16620,-9.03572,0.31603,0.65841,-15.4878,-3.6585,1.8902,0.00,0.00,0.00,4,S01
16640,-8.88488,0.29209,0.55785,-12.9878,-0.1220,-0.8537,0.00,0.00,0.00,4,S01
16660,-8.90882,0.32801,0.45490,-11.3415,3.1707,-3.8415,0.00,0.00,0.00,4,S01
16680,-9.07642,0.49560,0.39744,-11.0366,4.3293,-6.2805,0.00,0.00,0.00,4,S01
16700,-9.21289,0.69671,0.36631,-12.1951,3.5976,-7.5000,0.00,0.00,0.00,4,S01
16720,-9.26077,0.85952,0.41180,-15.0610,2.4390,-7.9268,0.00,0.00,0.00,4,S01
16740,-9.30387,0.77572,0.59137,-18.3537,1.8293,-7.7439,0.00,0.00,0.00,4,S01
16760,-9.59596,0.61052,0.77812,-18.9024,1.5244,-6.8293,0.00,0.00,0.00,4,S01
16780,-10.12268,0.49081,0.69192,-16.0976,0.8537,-3.9634,0.00,0.00,0.00,4,S01
16800,-10.25915,0.36392,0.44532,-12.5610,0.8537,0.6098,0.00,0.00,0.00,4,S01
16820,-10.44351,0.47405,0.13408,-10.9756,1.9512,3.0488,0.00,0.00,0.00,4,S01
16840,-10.95108,0.66319,-0.42617,-10.7927,3.7805,5.3659,0.00,0.00,0.00,4,S01
16860,-10.61589,0.38307,-0.39744,-11.7073,5.2439,9.6341,0.00,0.00,0.00,4,S01
16880,-9.64863,0.06464,-0.34955,-10.6707,2.4390,11.2195,0.00,0.00,0.00,4,S01
16900,-8.80827,-0.29688,-0.37589,-4.7561,0.7927,9.3293,0.00,0.00,0.00,4,S01
16920,-8.52575,-0.36152,-0.50757,3.9024,1.6463,7.2561,0.00,0.00,0.00,4,S01
16940,-8.68377,-0.25618,-0.62489,11.7683,2.3780,7.5000,0.00,0.00,0.00,4,S01
16960,-8.76278,-0.06464,-0.94332,17.1341,2.0122,9.8171,0.00,0.00,0.00,4,S01
16980,-8.95671,0.22027,-1.28090,17.0122,1.6463,11.7073,0.00,0.00,0.00,4,S01
17000,-9.55047,0.51475,-1.42694,9.5122,1.2195,12.5610,0.00,0.00,0.00,4,S01
17020,-10.05804,0.71826,-1.59693,-2.5000,-1.3415,11.0366,0.00,0.00,0.00,4,S01
17040,-10.13466,0.70150,-1.57060,-16.1585,-4.2073,6.2805,0.00,0.00,0.00,4,S01
17060,-10.03889,0.65601,-1.33118,-28.9634,-6.4024,-1.2805,0.00,0.00,0.00,4,S01
17080,-9.80426,0.34716,-1.10133,-39.7561,-9.4512,-8.5976,0.00,0.00,0.00,4,S01
17100,-9.42597,-0.06464,-1.01993,-47.2561,-11.7073,-14.6341,0.00,0.00,0.00,4,S01
17120,-9.10275,-0.35674,-0.90022,-50.9756,-10.1829,-18.9634,0.00,0.00,0.00,4,S01
17140,-8.85136,-0.50757,-0.64643,-54.8171,-7.7439,-20.5488,0.00,0.00,0.00,4,S01
17160,-8.70771,-0.61770,-0.50518,-57.4390,-5.2439,-19.0854,0.00,0.00,0.00,4,S01
17180,-8.76278,-0.57461,-0.48842,-56.8293,-2.5610,-16.3415,0.00,0.00,0.00,4,S01
17200,-8.88009,-0.51954,-0.56264,-56.0976,-0.3049,-13.3537,0.00,0.00,0.00,4,S01
17220,-9.02614,-0.52433,-0.70390,-55.8537,2.3171,-10.3659,0.00,0.00,0.00,4,S01
17240,-9.25838,-0.40223,-0.90740,-56.4024,4.5732,-8.2927,0.00,0.00,0.00,4,S01
17260,-9.39485,-0.23224,-1.00796,-59.1463,4.8780,-7.1341,0.00,0.00,0.00,4,S01
17280,-9.47146,-0.18435,-0.93613,-64.0854,4.9390,-6.0976,0.00,0.00,0.00,4,S01
17300,-9.46907,-0.34237,-0.74939,-69.5732,4.2683,-6.7683,0.00,0.00,0.00,4,S01
17320,-9.52892,-0.57461,-0.50996,-72.1341,3.2317,-9.6341,0.00,0.00,0.00,4,S01
17340,-9.63187,-0.71347,-0.45250,-74.6341,2.1951,-14.2683,0.00,0.00,0.00,4,S01
17360,-9.54089,-0.92177,-0.26336,-77.6220,2.5000,-18.9634,0.00,0.00,0.00,4,S01
17380,-9.33978,-1.06781,-0.06464,-78.1707,1.6463,-22.2561,0.00,0.00,0.00,4,S01
17400,-9.21049,-1.22583,0.00718,-78.3537,0.0610,-23.9024,0.00,0.00,0.00,4,S01
17420,-9.08121,-1.45328,0.16999,-77.9268,1.5244,-25.3659,0.00,0.00,0.00,4,S01
17440,-9.27274,-1.45807,0.12450,-75.2439,4.1463,-26.9512,0.00,0.00,0.00,4,S01
17460,-9.44273,-1.51074,0.38786,-73.5366,5.4268,-27.0122,0.00,0.00,0.00,4,S01
17480,-9.14346,-1.87466,0.68474,-69.0854,2.1951,-25.6707,0.00,0.00,0.00,4,S01
17500,-8.81545,-1.91057,0.52194,-61.0366,-0.2439,-25.4268,0.00,0.00,0.00,4,S01
17520,-9.00220,-1.42694,0.22027,-56.4024,1.8293,-23.9634,0.00,0.00,0.00,4,S01
17540,-9.48583,-1.10133,0.68474,-62.4390,-1.6463,-17.5610,0.00,0.00,0.00,4,S01
17560,-8.95671,-1.67115,0.90980,-61.7073,-8.6585,-17.5610,0.00,0.00,0.00,4,S01
17580,-8.85615,-1.90578,0.64404,-56.8293,-9.3902,-18.4756,0.00,0.00,0.00,4,S01
17600,-9.07642,-1.67115,0.42377,-55.6098,-5.3659,-17.2561,0.00,0.00,0.00,4,S01
17620,-9.18655,-1.45807,0.40941,-59.0244,-5.0610,-13.9634,0.00,0.00,0.00,4,S01
17640,-9.21289,-1.42934,0.74220,-63.1098,-9.1463,-10.7927,0.00,0.00,0.00,4,S01
17660,-9.29669,-1.58257,0.87388,-65.4878,-14.1463,-8.9634,0.00,0.00,0.00,4,S01
17680,-9.15782,-1.55863,0.65601,-66.9512,-15.7927,-7.2561,0.00,0.00,0.00,4,S01
17700,-8.88488,-1.27850,0.44293,-71.9512,-14.8171,-4.8780,0.00,0.00,0.00,4,S01
17720,-8.76996,-1.37906,0.63686,-80.1829,-13.9024,-3.1098,0.00,0.00,0.00,4,S01
17740,-8.76517,-2.40857,0.61052,-81.9512,-12.0732,-1.9512,0.00,0.00,0.00,4,S01
17760,-9.24401,-3.42850,-0.10774,-72.1341,-3.3537,-0.5488,0.00,0.00,0.00,4,S01
17780,-10.68772,-3.00233,-0.12210,-60.7317,8.8415,-0.0610,0.00,0.00,0.00,4,S01
17800,-11.79623,-1.60412,0.09337,-60.6098,6.0366,1.0366,0.00,0.00,0.00,4,S01
17820,-11.80341,-1.12049,-0.06225,-72.3171,-3.1707,2.9268,0.00,0.00,0.00,4,S01
17840,-12.31099,-1.96085,-0.47166,-75.5488,1.8293,5.3659,0.00,0.00,0.00,4,S01
17860,-13.29500,-2.05183,-1.00078,-74.3902,10.6098,6.0976,0.00,0.00,0.00,4,S01
17880,-12.79701,-1.24977,-1.69031,-78.2317,12.7439,3.6585,0.00,0.00,0.00,4,S01
17900,-11.04924,-0.55545,-2.84910,-78.2317,11.9512,2.6220,0.00,0.00,0.00,4,S01
17920,-9.83538,-0.99120,-3.66552,-79.2683,15.9146,5.6707,0.00,0.00,0.00,4,S01
17940,-10.07959,-1.49398,-3.39737,-81.5244,24.4512,6.0976,0.00,0.00,0.00,4,S01
17960,-10.44111,-1.61130,-2.88741,-78.4146,28.4756,8.3537,0.00,0.00,0.00,4,S01
17980,-10.17057,-1.43892,-2.44448,-71.0366,24.3293,14.5732,0.00,0.00,0.00,4,S01
18000,-9.49062,-1.25935,-2.33195,-59.8781,15.7317,21.5244,0.00,0.00,0.00,4,S01
18020,-9.07881,-1.10373,-2.17394,-48.7805,10.3659,24.7561,0.00,0.00,0.00,4,S01
18040,-8.98783,-0.90501,-1.91297,-39.9390,8.0488,25.3049,0.00,0.00,0.00,4,S01
18060,-8.81784,-0.70150,-1.76453,-31.7683,5.7317,25.4268,0.00,0.00,0.00,4,S01
18080,-8.59518,-0.47166,-1.68312,-24.5732,2.0732,25.1220,0.00,0.00,0.00,4,S01
18100,-8.34379,-0.25379,-1.62327,-18.8415,-2.8659,24.0244,0.00,0.00,0.00,4,S01
18120,-8.18099,-0.02634,-1.59933,-13.5976,-6.4024,22.2561,0.00,0.00,0.00,4,S01
18140,-8.13550,0.26097,-1.53229,-10.9756,-9.3293,21.0366,0.00,0.00,0.00,4,S01
18160,-8.12831,0.35195,-1.44849,-11.9512,-14.2683,20.6707,0.00,0.00,0.00,4,S01
18180,-7.96551,0.23942,-1.36469,-12.7439,-19.5732,19.9390,0.00,0.00,0.00,4,S01
18200,-7.93438,0.12689,-1.24498,-11.0976,-23.4146,18.4756,0.00,0.00,0.00,4,S01
18220,-7.99663,0.19632,-1.31681,-7.8659,-27.7439,17.0122,0.00,0.00,0.00,4,S01
18240,-8.03973,0.36631,-1.38624,-6.2805,-30.5488,16.0976,0.00,0.00,0.00,4,S01
18260,-8.03015,0.37110,-1.37188,-5.4878,-29.4512,14.9390,0.00,0.00,0.00,4,S01
18280,-8.14268,0.24900,-1.54665,-4.2683,-27.1341,13.5976,0.00,0.00,0.00,4,S01
18300,-8.55209,0.24181,-1.47962,-3.7805,-23.1707,12.1951,0.00,0.00,0.00,4,S01
18320,-8.77714,0.28970,-1.52750,-3.3537,-21.3415,11.0976,0.00,0.00,0.00,4,S01
18340,-8.87531,0.36631,-1.29287,-3.3537,-22.2561,9.3902,0.00,0.00,0.00,4,S01
18360,-8.86094,0.39025,-1.21147,-2.8659,-26.0366,6.4634,0.00,0.00,0.00,4,S01
18380,-8.79869,0.29688,-1.17316,-2.7439,-27.6829,3.5976,0.00,0.00,0.00,4,S01
18400,-8.69574,0.17717,-1.20428,-2.4390,-25.4878,1.7683,0.00,0.00,0.00,4,S01
18420,-8.77954,0.18196,-1.01993,-1.8293,-22.1341,1.1585,0.00,0.00,0.00,4,S01
18440,-9.08839,0.24181,-0.78530,-1.7683,-20.1220,0.6098,0.00,0.00,0.00,4,S01
18460,-9.16261,0.28730,-0.59376,-1.3415,-18.4146,0.4878,0.00,0.00,0.00,4,S01
18480,-8.86094,0.48842,-0.65841,-0.6098,-16.5854,0.9146,0.00,0.00,0.00,4,S01
18500,-8.67659,0.61292,-0.56503,-2.3780,-13.1098,1.7683,0.00,0.00,0.00,4,S01
18520,-9.05727,0.64404,-0.32561,-4.9390,-9.4512,2.0122,0.00,0.00,0.00,4,S01
18540,-9.40921,0.59616,-0.13647,-5.8537,-6.8902,2.2561,0.00,0.00,0.00,4,S01
18560,-9.18176,0.71108,-0.27533,-6.2195,-5.4268,2.5000,0.00,0.00,0.00,4,S01
18580,-8.82742,0.75657,-0.33998,-9.3293,-3.5366,3.1098,0.00,0.00,0.00,4,S01
18600,-8.82982,0.67277,-0.16520,-12.7439,-0.3659,2.6829,0.00,0.00,0.00,4,S01
18620,-9.33020,0.65601,0.05028,-13.5366,3.2927,0.9756,0.00,0.00,0.00,4,S01
18640,-9.51935,0.53151,0.17717,-13.1098,4.3902,0.4878,0.00,0.00,0.00,4,S01
18660,-9.21528,0.52433,0.14844,-12.1951,2.5000,1.5854,0.00,0.00,0.00,4,S01
18680,-9.05727,0.63686,0.14365,-13.4146,2.3780,2.9268,0.00,0.00,0.00,4,S01
18700,-9.18895,0.73502,0.07422,-15.9756,5.6098,3.1098,0.00,0.00,0.00,4,S01
18720,-9.26077,0.53630,0.16520,-17.4390,10.6098,3.2317,0.00,0.00,0.00,4,S01
18740,-9.19134,0.59616,0.30885,-14.6951,10.2439,2.3780,0.00,0.00,0.00,4,S01
18760,-9.30387,0.79966,0.47645,-13.6585,8.1707,0.7927,0.00,0.00,0.00,4,S01
18780,-9.17219,0.83318,0.47645,-13.2927,4.6951,-0.7927,0.00,0.00,0.00,4,S01
18800,-8.98783,0.66798,0.43814,-11.0976,2.6829,-2.8659,0.00,0.00,0.00,4,S01
18820,-8.84658,0.81642,0.35195,-6.8902,4.3902,-4.2683,0.00,0.00,0.00,4,S01
18840,-8.99980,1.08457,0.38307,-7.7439,8.5976,-3.7195,0.00,0.00,0.00,4,S01
18860,-9.29908,1.08457,0.33519,-12.0732,11.8902,-4.0854,0.00,0.00,0.00,4,S01
18880,-9.44034,0.88107,0.37350,-13.3537,13.4146,-5.9756,0.00,0.00,0.00,4,S01
18900,-9.52892,1.01035,-0.02394,-10.5488,14.5732,-6.4024,0.00,0.00,0.00,4,S01
18920,-10.20409,0.70390,-0.17957,-10.8537,16.8293,-4.6341,0.00,0.00,0.00,4,S01
18940,-12.10987,0.50757,-0.61531,-10.4268,17.8659,-4.0244,0.00,0.00,0.00,4,S01
18960,-13.02206,-0.27054,-0.44532,-5.6707,19.7561,3.1707,0.00,0.00,0.00,4,S01
18980,-12.24155,-0.65841,0.12689,7.0732,18.9024,10.7927,0.00,0.00,0.00,4,S01
19000,-12.84729,0.00239,-0.02634,22.6220,11.4024,8.2317,0.00,0.00,0.00,4,S01
19020,-13.60864,0.27294,-0.53630,29.8780,5.6707,0.7927,0.00,0.00,0.00,4,S01
19040,-12.71321,-0.08619,-1.10852,39.1463,5.7317,-7.2561,0.00,0.00,0.00,4,S01
19060,-11.04206,-0.35434,-1.97043,50.6707,7.5610,-14.2683,0.00,0.00,0.00,4,S01
19080,-9.87129,-0.10295,-2.29365,50.5488,14.5732,-17.5610,0.00,0.00,0.00,4,S01
19100,-9.59117,0.41180,-2.06620,41.7683,21.0366,-18.1098,0.00,0.00,0.00,4,S01
19120,-9.76834,0.40223,-1.69988,28.3537,20.0610,-20.9146,0.00,0.00,0.00,4,S01
19140,-9.70131,-0.01437,-1.69031,16.2805,11.7683,-25.6098,0.00,0.00,0.00,4,S01
19160,-9.32063,-0.32082,-1.78129,6.8902,5.5488,-29.5122,0.00,0.00,0.00,4,S01
19180,-8.94474,-0.46208,-1.72143,-0.4268,2.0122,-31.2805,0.00,0.00,0.00,4,S01
19200,-8.66462,-0.61292,-1.51553,-4.7561,-2.1951,-30.6098,0.00,0.00,0.00,4,S01
19220,-8.32943,-0.77093,-1.58975,-6.7683,-7.1951,-28.1707,0.00,0.00,0.00,4,S01
19240,-7.76440,-0.98641,-1.64721,-7.6829,-9.3293,-26.0976,0.00,0.00,0.00,4,S01
19260,-7.25683,-0.97444,-1.70946,-6.8293,-9.2073,-25.0000,0.00,0.00,0.00,4,S01
19280,-7.05332,-1.15401,-1.62087,-5.4878,-8.4756,-24.4512,0.00,0.00,0.00,4,S01
19300,-7.37893,-1.25696,-1.53468,0.2439,-6.7073,-23.7195,0.00,0.00,0.00,4,S01
19320,-7.59680,-1.41258,-1.54905,5.4268,-7.5000,-19.9390,0.00,0.00,0.00,4,S01
19340,-7.52976,-1.49159,-1.54905,4.9390,-9.7561,-15.3049,0.00,0.00,0.00,4,S01
19360,-7.56807,-1.40540,-1.48201,2.7439,-9.9390,-12.5000,0.00,0.00,0.00,4,S01
19380,-7.92481,-1.14682,-1.50116,0.0610,-9.0854,-11.3415,0.00,0.00,0.00,4,S01
19400,-8.27676,-1.01035,-1.45807,-4.8780,-9.5122,-10.6098,0.00,0.00,0.00,4,S01
19420,-8.42759,-1.09176,-1.32639,-9.5732,-10.0610,-10.3049,0.00,0.00,0.00,4,S01
19440,-8.40365,-1.40300,-1.27850,-11.7073,-9.5732,-10.4878,0.00,0.00,0.00,4,S01
19460,-8.44914,-1.78129,-1.17076,-9.7561,-7.1951,-11.7073,0.00,0.00,0.00,4,S01
19480,-8.94713,-1.92015,-0.91937,-7.8659,-6.9512,-12.6829,0.00,0.00,0.00,4,S01
19500,-9.50019,-1.64482,-0.67995,-9.5122,-9.4512,-11.5854,0.00,0.00,0.00,4,S01
19520,-9.44752,-1.49877,-0.61052,-12.2561,-10.0000,-8.9024,0.00,0.00,0.00,4,S01
19540,-8.89685,-1.65918,-0.76614,-10.3049,-6.6463,-7.7439,0.00,0.00,0.00,4,S01
19560,-8.61434,-1.61609,-1.17555,-5.1220,-1.2805,-9.2073,0.00,0.00,0.00,4,S01
19580,-8.84658,-1.28569,-1.27132,-6.0366,5.0000,-12.1951,0.00,0.00,0.00,4,S01
19600,-9.17219,-1.14682,-1.01275,-10.8537,7.8049,-13.9634,0.00,0.00,0.00,4,S01
19620,-9.22007,-1.33118,-0.70629,-13.7195,6.4024,-14.0854,0.00,0.00,0.00,4,S01
19640,-9.17698,-1.76213,-0.55545,-12.3171,4.7561,-13.1707,0.00,0.00,0.00,4,S01
19660,-9.12191,-1.94888,-0.55306,-8.1707,3.9634,-13.1707,0.00,0.00,0.00,4,S01
19680,-8.95431,-1.87945,-0.62728,-6.2805,2.6220,-12.4390,0.00,0.00,0.00,4,S01
19700,-8.70771,-1.70946,-0.57461,-7.1341,3.4756,-10.6707,0.00,0.00,0.00,4,S01
19720,-8.48984,-1.68312,-0.51236,-7.7439,7.4390,-8.3537,0.00,0.00,0.00,4,S01
19740,-8.37252,-1.94649,-0.30885,-6.0366,13.2927,-6.2195,0.00,0.00,0.00,4,S01
19760,-8.66462,-2.06859,-0.16520,-1.6463,17.3171,-4.8780,0.00,0.00,0.00,4,S01
19780,-9.09318,-2.04944,-0.10295,1.2805,17.3780,-3.7805,0.00,0.00,0.00,4,S01
19800,-9.03332,-2.10929,-0.15802,2.5000,14.6951,-2.5000,0.00,0.00,0.00,4,S01
19820,-8.65025,-2.30322,-0.13408,5.6707,14.8171,-0.9146,0.00,0.00,0.00,4,S01
19840,-8.73644,-2.35829,-0.10295,11.4024,18.2317,0.8537,0.00,0.00,0.00,4,S01
19860,-9.17937,-2.11647,-0.26097,14.8780,20.0610,1.7073,0.00,0.00,0.00,4,S01
19880,-9.39245,-1.80044,-0.48123,13.5976,18.2927,2.3171,0.00,0.00,0.00,4,S01
19900,-9.11951,-1.65200,-0.59855,9.7561,15.6707,2.8659,0.00,0.00,0.00,4,S01
19920,-9.29908,-2.20506,-0.02634,8.7195,16.5244,3.3537,0.00,0.00,0.00,4,S01
19940,-9.55765,-2.27928,0.05267,10.9756,12.9878,3.9634,0.00,0.00,0.00,4,S01
19960,-9.27514,-2.27928,0.05507,10.9146,8.0488,5.1220,0.00,0.00,0.00,4,S01
19980,-9.00938,-2.39899,0.23463,11.9512,4.0854,6.4634,0.00,0.00,0.00,4,S01
20000,-8.91601,-2.59771,0.35913,15.9756,2.0122,7.2561,0.00,0.00,0.00,4,S01
20020,-8.83939,-2.52109,0.09816,21.2195,2.7439,8.2927,0.00,0.00,0.00,4,S01
20040,-8.95431,-2.38223,-0.17478,21.9512,5.9756,8.9024,0.00,0.00,0.00,4,S01
20060,-9.51695,-2.55461,-0.47884,21.4024,10.1829,7.2561,0.00,0.00,0.00,4,S01
20080,-10.33098,-2.31759,-1.06303,22.9878,13.1098,2.9878,0.00,0.00,0.00,4,S01
20100,-10.97502,-1.63285,-1.09176,17.1951,12.8659,-2.1341,0.00,0.00,0.00,4,S01
20120,-11.40358,-1.31202,-1.21625,4.8780,8.8415,-4.8780,0.00,0.00,0.00,4,S01
20140,-11.56399,-1.88424,-1.44610,-5.4878,7.3780,-5.3049,0.00,0.00,0.00,4,S01
20160,-12.01889,-2.83473,-1.29766,-8.1098,7.8659,-5.5488,0.00,0.00,0.00,4,S01
20180,-12.08114,-3.07894,-1.83875,-5.1220,8.4146,-3.3537,0.00,0.00,0.00,4,S01
20200,-11.49217,-2.73178,-2.70784,-5.1220,15.7317,3.1707,0.00,0.00,0.00,4,S01
20220,-10.94390,-1.59933,-3.17711,-8.7195,26.7073,10.3659,0.00,0.00,0.00,4,S01
20240,-10.46745,-0.50996,-3.29921,-15.6707,35.3659,14.8780,0.00,0.00,0.00,4,S01
20260,-10.29267,-0.38547,-3.12922,-15.3659,40.1829,17.5000,0.00,0.00,0.00,4,S01
20280,-10.59195,-0.59855,-2.97839,-4.7561,34.6951,19.5732,0.00,0.00,0.00,4,S01
20300,-10.42675,-0.62968,-3.18429,5.7317,18.4146,23.5366,0.00,0.00,0.00,4,S01
20320,-9.91199,-0.40462,-3.25611,8.9634,2.6829,28.5366,0.00,0.00,0.00,4,S01
20340,-9.14346,-0.03112,-3.28963,7.7439,-7.5610,31.7073,0.00,0.00,0.00,4,S01
20360,-8.52815,0.20590,-3.10767,5.5488,-9.4512,32.6829,0.00,0.00,0.00,4,S01
20380,-8.30788,0.50518,-2.98557,2.6220,-8.8415,29.7561,0.00,0.00,0.00,4,S01
20400,-8.34379,0.71108,-2.85149,0.8537,-10.5488,24.2073,0.00,0.00,0.00,4,S01
20420,-8.37013,0.59855,-2.39899,-2.2561,-17.0122,20.3049,0.00,0.00,0.00,4,S01
20440,-8.22887,0.69671,-2.67432,-7.0122,-29.2683,18.5976,0.00,0.00,0.00,4,S01
20460,-8.03494,0.38786,-2.44927,-15.9756,-37.0122,17.3780,0.00,0.00,0.00,4,S01
20480,-7.94157,-0.05986,-1.86748,-20.1829,-42.7439,15.4268,0.00,0.00,0.00,4,S01
20500,-7.82425,-0.32322,-1.48919,-16.6463,-46.7073,13.4756,0.00,0.00,0.00,4,S01
20520,-7.68299,-0.23703,-1.32878,-8.7195,-41.4634,12.1951,0.00,0.00,0.00,4,S01
20540,-7.86974,0.11253,-1.37906,-3.8415,-31.0976,11.2195,0.00,0.00,0.00,4,S01
20560,-8.16902,0.50278,-1.59454,-4.3293,-25.6098,12.3171,0.00,0.00,0.00,4,S01
20580,-8.31267,0.81403,-1.34554,-7.2561,-23.4756,13.1098,0.00,0.00,0.00,4,S01
20600,-8.16183,0.84994,-1.29047,-9.4512,-25.5488,12.3780,0.00,0.00,0.00,4,S01
20620,-8.03973,0.65362,-1.37906,-10.7927,-26.9512,10.5488,0.00,0.00,0.00,4,S01
20640,-8.14986,0.43335,-1.14922,-11.2805,-25.9146,8.2927,0.00,0.00,0.00,4,S01
20660,-8.44914,0.36871,-1.07978,-10.3049,-24.0244,6.8902,0.00,0.00,0.00,4,S01
20680,-8.87531,0.52194,-0.88825,-9.5122,-20.7927,5.9146,0.00,0.00,0.00,4,S01
20700,-9.05727,0.62010,-0.84994,-8.5366,-18.9024,5.7317,0.00,0.00,0.00,4,S01
20720,-8.92080,0.79009,-0.87867,-7.3171,-17.7439,6.1585,0.00,0.00,0.00,4,S01
20740,-8.83221,0.91937,-0.62968,-8.1098,-16.0976,6.0366,0.00,0.00,0.00,4,S01
20760,-8.96389,0.82600,-0.50518,-8.9634,-13.4146,5.1829,0.00,0.00,0.00,4,S01
20780,-9.11951,0.55785,-0.31603,-8.6585,-8.9634,4.3902,0.00,0.00,0.00,4,S01
20800,-9.08600,0.43335,-0.21069,-7.8049,-5.6707,5.1829,0.00,0.00,0.00,4,S01
20820,-8.97586,0.53870,-0.13647,-8.1098,-4.4512,6.3415,0.00,0.00,0.00,4,S01
20840,-8.90164,0.74939,0.01197,-9.1463,-2.5000,6.0976,0.00,0.00,0.00,4,S01
20860,-8.98783,0.80685,0.13886,-9.9390,-1.1585,4.2683,0.00,0.00,0.00,4,S01
20880,-8.93037,0.72305,0.16999,-9.3293,-0.7317,2.0732,0.00,0.00,0.00,4,S01
20900,-8.64067,0.73741,0.11013,-8.1098,0.6707,1.4024,0.00,0.00,0.00,4,S01
20920,-8.54969,0.88346,0.16999,-8.1707,3.7805,1.5854,0.00,0.00,0.00,4,S01
20940,-8.93756,1.10612,0.37110,-9.0244,7.1341,0.4268,0.00,0.00,0.00,4,S01
20960,-9.39006,1.31202,0.62968,-10.4268,7.8659,-1.8902,0.00,0.00,0.00,4,S01
20980,-9.39485,1.34794,0.81882,-11.4634,5.3659,-3.7195,0.00,0.00,0.00,4,S01
21000,-9.27514,1.40300,0.83797,-11.9512,2.8049,-4.5122,0.00,0.00,0.00,4,S01
21020,-9.23922,1.22104,0.76614,-12.1341,3.5976,-4.3293,0.00,0.00,0.00,4,S01
21040,-9.65103,1.11809,0.63686,-9.8780,6.2195,-5.2439,0.00,0.00,0.00,4,S01
21060,-10.53688,1.38145,0.45250,-8.7805,8.9024,-7.7439,0.00,0.00,0.00,4,S01
21080,-11.80581,1.53708,0.15802,-9.5732,9.0854,-10.0610,0.00,0.00,0.00,4,S01
21100,-12.87362,1.88184,-1.02711,-8.3537,9.1463,-5.8537,0.00,0.00,0.00,4,S01
21120,-12.12903,0.44293,-0.76375,-6.3415,6.9512,4.7561,0.00,0.00,0.00,4,S01
21140,-12.63899,0.11013,-1.34315,6.0366,7.8659,-1.8293,0.00,0.00,0.00,4,S01
21160,-12.02847,-0.28491,-1.56341,17.6220,9.8171,-9.0244,0.00,0.00,0.00,4,S01
21180,-10.76194,-0.22505,-2.09253,27.4390,8.5366,-17.0732,0.00,0.00,0.00,4,S01
21200,-10.14184,-0.06464,-2.18830,28.1707,12.8659,-22.8049,0.00,0.00,0.00,4,S01
21220,-10.12747,-0.03831,-1.66397,18.7195,16.0366,-25.6707,0.00,0.00,0.00,4,S01
21240,-10.01255,-0.22745,-1.30484,9.6951,13.6585,-29.0854,0.00,0.00,0.00,4,S01
21260,-9.42118,-0.51954,-1.22583,2.2561,6.0976,-33.1098,0.00,0.00,0.00,4,S01
21280,-8.82503,-0.83797,-1.20428,-3.0488,-0.1829,-35.1829,0.00,0.00,0.00,4,S01
21300,-8.55688,-0.84994,-1.26174,-5.4878,-1.8902,-34.0244,0.00,0.00,0.00,4,S01
21320,-8.47069,-0.72544,-1.15161,-8.1707,-1.0976,-30.1829,0.00,0.00,0.00,4,S01
21340,-8.38928,-1.13725,-0.91698,-12.9878,-2.5000,-29.1463,0.00,0.00,0.00,4,S01
21360,-8.32464,-1.45807,-0.97923,-10.4878,-6.0976,-29.5732,0.00,0.00,0.00,4,S01
21380,-8.22169,-1.75974,-1.15161,-6.1585,-10.8537,-27.1951,0.00,0.00,0.00,4,S01
21400,-8.02536,-1.93930,-1.10852,-4.0244,-12.2561,-22.6829,0.00,0.00,0.00,4,S01
21420,-7.98706,-1.60890,-1.04866,-0.9146,-11.8902,-18.9024,0.00,0.00,0.00,4,S01
21440,-8.12353,-1.21147,-0.99838,0.2439,-11.4634,-16.4024,0.00,0.00,0.00,4,S01
21460,-8.22408,-1.03430,-0.89543,-0.0610,-11.3415,-15.5488,0.00,0.00,0.00,4,S01
21480,-8.23845,-1.03190,-0.89304,-1.4634,-12.3780,-15.3049,0.00,0.00,0.00,4,S01
21500,-8.18578,-1.14682,-0.90261,-4.5122,-12.0732,-14.5122,0.00,0.00,0.00,4,S01
21520,-8.31506,-1.36469,-0.66798,-6.7683,-11.0976,-13.4756,0.00,0.00,0.00,4,S01
21540,-8.49463,-1.51314,-0.48363,-7.9268,-11.3415,-13.0488,0.00,0.00,0.00,4,S01
21560,-8.39647,-1.83396,-0.41420,-6.8293,-11.1585,-11.9512,0.00,0.00,0.00,4,S01
21580,-8.27197,-2.03507,-0.35195,-2.1341,-9.4512,-11.2805,0.00,0.00,0.00,4,S01
21600,-8.49223,-1.95127,-0.37589,1.8293,-7.1951,-10.9146,0.00,0.00,0.00,4,S01
21620,-8.79151,-1.86987,-0.21308,3.5976,-6.2195,-9.7561,0.00,0.00,0.00,4,S01
21640,-8.81545,-1.77889,-0.23942,5.8537,-8.2317,-7.8659,0.00,0.00,0.00,4,S01
21660,-8.57603,-1.64003,-0.53151,7.7439,-8.7195,-6.8902,0.00,0.00,0.00,4,S01
21680,-8.54969,-1.70467,-0.50996,8.5366,-4.9390,-7.0732,0.00,0.00,0.00,4,S01
21700,-8.82742,-1.78368,-0.32322,9.0244,-2.4390,-7.9268,0.00,0.00,0.00,4,S01
21720,-9.02614,-1.83635,-0.13408,9.2683,-2.9878,-8.4756,0.00,0.00,0.00,4,S01
21740,-9.01656,-1.91057,0.03831,9.9390,-4.8171,-8.3537,0.00,0.00,0.00,4,S01
21760,-8.87531,-2.01592,0.05746,11.2195,-5.0000,-8.1707,0.00,0.00,0.00,4,S01
21780,-8.65504,-2.05901,-0.02394,13.4756,-1.5244,-8.5976,0.00,0.00,0.00,4,S01
21800,-8.74123,-2.00874,-0.15083,15.2439,2.7439,-9.3902,0.00,0.00,0.00,4,S01
21820,-9.01178,-1.90818,-0.06464,13.4146,5.1829,-9.4512,0.00,0.00,0.00,4,S01
21840,-9.02614,-1.95367,0.21787,11.5854,6.1585,-8.9024,0.00,0.00,0.00,4,S01
21860,-8.93995,-2.06859,0.35913,13.8415,4.9390,-9.3902,0.00,0.00,0.00,4,S01
21880,-8.82982,-2.24576,0.39504,16.5244,5.0000,-9.4512,0.00,0.00,0.00,4,S01
21900,-8.77475,-2.28646,0.38068,18.8415,7.8049,-8.5976,0.00,0.00,0.00,4,S01
21920,-8.89925,-2.06141,0.29928,19.8780,11.3415,-7.2561,0.00,0.00,0.00,4,S01
21940,-8.95431,-1.88184,0.33279,18.9634,13.2927,-5.6707,0.00,0.00,0.00,4,S01
21960,-9.04051,-1.98719,0.52433,18.1098,12.8049,-3.7195,0.00,0.00,0.00,4,S01
21980,-9.02135,-2.19788,0.71347,18.1707,10.6707,-1.7683,0.00,0.00,0.00,4,S01
22000,-8.79630,-2.37026,0.62728,19.4512,9.8171,-0.1220,0.00,0.00,0.00,4,S01
22020,-8.65265,-2.29604,0.42617,21.1585,12.4390,1.3415,0.00,0.00,0.00,4,S01
22040,-8.66940,-2.20985,0.49321,21.5854,17.2561,2.8659,0.00,0.00,0.00,4,S01
22060,-8.85376,-2.19548,0.62489,22.3780,19.4512,4.1463,0.00,0.00,0.00,4,S01
22080,-8.92798,-2.08296,0.51236,22.0122,20.0000,5.5488,0.00,0.00,0.00,4,S01
22100,-8.78672,-2.24337,0.04549,19.6341,23.7805,7.4390,0.00,0.00,0.00,4,S01
22120,-9.21528,-2.18591,-0.33279,19.6951,30.1829,8.1707,0.00,0.00,0.00,4,S01
22140,-9.75398,-1.98958,-0.34716,18.0488,30.3659,7.3780,0.00,0.00,0.00,4,S01
22160,-10.14423,-1.87227,-0.35913,14.2683,24.8171,5.4878,0.00,0.00,0.00,4,S01
22180,-10.41717,-1.40779,-0.55306,10.0610,19.7561,1.8902,0.00,0.00,0.00,4,S01
22200,-10.64462,-1.05345,-0.74699,0.0000,16.8293,-1.5244,0.00,0.00,0.00,4,S01
22220,-11.04445,-1.20907,-0.81882,-13.5976,14.1463,-2.8049,0.00,0.00,0.00,4,S01
22240,-11.50175,-1.60651,-0.80445,-23.7805,12.0122,-2.6220,0.00,0.00,0.00,4,S01
22260,-11.50414,-2.18591,-1.44610,-27.4390,10.4878,-1.8902,0.00,0.00,0.00,4,S01
22280,-11.56399,-2.97360,-1.97043,-24.8780,14.7561,-0.0610,0.00,0.00,0.00,4,S01
22300,-11.31021,-2.79882,-2.26970,-16.8293,21.1585,3.7195,0.00,0.00,0.00,4,S01
22320,-9.98861,-1.32878,-2.42054,-8.5976,33.1098,12.6829,0.00,0.00,0.00,4,S01
22340,-10.01734,-0.74939,-2.26731,-4.7561,34.6341,15.4878,0.00,0.00,0.00,4,S01
22360,-10.33816,-0.48363,-2.29365,0.8537,30.3049,14.8171,0.00,0.00,0.00,4,S01
22380,-10.24479,-0.51715,-2.52109,7.3780,23.5976,14.8171,0.00,0.00,0.00,4,S01
22400,-9.66779,-0.58658,-2.50673,9.5732,17.5610,18.5366,0.00,0.00,0.00,4,S01
22420,-9.03572,-0.43335,-2.23618,7.7439,12.5000,24.0244,0.00,0.00,0.00,4,S01
22440,-8.79390,-0.24900,-2.06141,3.1707,7.4390,26.8293,0.00,0.00,0.00,4,S01
22460,-8.71729,-0.22505,-1.64482,-0.0610,2.7439,25.9146,0.00,0.00,0.00,4,S01
22480,-8.57124,-0.29928,-1.36230,0.5488,-3.5366,22.9878,0.00,0.00,0.00,4,S01
22500,-8.44914,-0.24421,-1.31202,1.9512,-9.8780,20.7317,0.00,0.00,0.00,4,S01
22520,-8.49702,-0.21548,-1.03190,0.4268,-13.3537,19.4512,0.00,0.00,0.00,4,S01
22540,-8.53054,-0.22505,-0.77333,-0.0610,-16.9512,17.2561,0.00,0.00,0.00,4,S01
22560,-8.44196,-0.37110,-0.60573,1.3415,-22.8049,14.0854,0.00,0.00,0.00,4,S01
22580,-8.39886,-0.54348,-0.61052,2.8659,-30.0610,11.4634,0.00,0.00,0.00,4,S01
22600,-8.36295,-0.51715,-0.68235,2.5610,-36.2195,10.1220,0.00,0.00,0.00,4,S01
22620,-8.59997,-0.27054,-0.71347,-0.8537,-41.5854,8.8415,0.00,0.00,0.00,4,S01
22640,-8.66222,0.01676,-1.08457,-5.1220,-44.6951,7.0732,0.00,0.00,0.00,4,S01
22660,-8.40125,-0.03352,-1.64242,-10.4268,-41.4634,5.5488,0.00,0.00,0.00,4,S01
22680,-8.20972,-0.28252,-1.70707,-14.8171,-32.6829,4.2073,0.00,0.00,0.00,4,S01
22700,-8.35337,-0.36631,-1.62806,-15.5488,-23.7805,3.1707,0.00,0.00,0.00,4,S01
22720,-8.74841,-0.17717,-1.43892,-15.0610,-14.8171,1.9512,0.00,0.00,0.00,4,S01
22740,-8.96150,-0.12210,-1.70467,-15.7927,-7.8659,0.4268,0.00,0.00,0.00,4,S01
22760,-8.91840,-0.07183,-1.99437,-16.1585,-4.0244,-0.9756,0.00,0.00,0.00,4,S01
22780,-8.75320,-0.11732,-1.74777,-15.3049,-3.1098,-1.2805,0.00,0.00,0.00,4,S01
22800,-8.90404,-0.07183,-1.33596,-13.3537,-6.5244,-0.8537,0.00,0.00,0.00,4,S01
22820,-9.47386,-0.09816,-1.11570,-10.0610,-10.5488,-0.1829,0.00,0.00,0.00,4,S01
22840,-9.83778,-0.07183,-1.04387,-5.1829,-14.4512,0.6707,0.00,0.00,0.00,4,S01
22860,-9.76116,0.00958,-1.02232,-0.9756,-19.4512,1.9512,0.00,0.00,0.00,4,S01
22880,-9.44752,0.20111,-0.85473,-0.0610,-22.5000,3.0488,0.00,0.00,0.00,4,S01
22900,-9.24162,0.28491,-0.76136,0.0000,-22.6220,3.5976,0.00,0.00,0.00,4,S01
22920,-9.27753,0.23703,-0.50757,-0.1829,-19.3293,3.5366,0.00,0.00,0.00,4,S01
22940,-9.19373,0.21308,-0.42617,-1.0366,-16.6463,3.1707,0.00,0.00,0.00,4,S01
22960,-8.97347,0.19872,-0.40941,-3.1098,-13.1707,2.3171,0.00,0.00,0.00,4,S01
22980,-8.87770,0.13886,-0.34716,-4.1463,-8.2317,2.8659,0.00,0.00,0.00,4,S01
23000,-9.27035,-0.05507,0.05986,-4.6951,-4.3902,4.1463,0.00,0.00,0.00,4,S01
23020,-9.31344,-0.12210,-0.08380,-2.2561,-3.4146,5.2439,0.00,0.00,0.00,4,S01
23040,-9.04529,-0.00958,-0.33040,-0.2439,-2.3171,7.1951,0.00,0.00,0.00,4,S01
23060,-8.92080,0.02155,-0.25139,-0.9146,-2.9268,8.1098,0.00,0.00,0.00,4,S01
23080,-9.04290,0.06464,0.06225,-0.2439,-3.0488,6.7073,0.00,0.00,0.00,4,S01
23100,-9.14346,0.09816,-0.05746,1.8902,-1.7683,5.7927,0.00,0.00,0.00,4,S01
23120,-9.06924,0.49560,-0.30406,1.8902,1.7073,6.5854,0.00,0.00,0.00,4,S01
23140,-9.00220,0.82121,-0.12929,-1.8293,4.5122,7.6220,0.00,0.00,0.00,4,S01
23160,-9.08839,0.86670,0.10295,-4.6951,4.3902,6.9512,0.00,0.00,0.00,4,S01
23180,-9.19134,0.82121,0.29209,-6.3415,4.2683,6.2195,0.00,0.00,0.00,4,S01
23200,-9.19852,0.66798,0.46208,-8.6585,2.0732,5.9756,0.00,0.00,0.00,4,S01
23220,-8.99741,0.62489,0.34716,-9.5732,-0.6098,5.0000,0.00,0.00,0.00,4,S01
23240,-8.78672,0.54588,0.29688,-10.2439,0.2439,4.4512,0.00,0.00,0.00,4,S01
23260,-8.99502,0.54348,0.54348,-10.1829,2.2561,2.8049,0.00,0.00,0.00,4,S01
23280,-9.27514,0.67038,0.77093,-8.5366,2.6829,-0.5488,0.00,0.00,0.00,4,S01
23300,-9.30147,0.65601,0.74699,-6.0976,1.2195,-3.1707,0.00,0.00,0.00,4,S01
23320,-9.09318,0.83079,0.33040,-4.7561,-0.4878,-4.3902,0.00,0.00,0.00,4,S01
23340,-8.96150,0.79009,0.32561,-7.6220,0.5488,-5.4878,0.00,0.00,0.00,4,S01
23360,-9.57202,0.81642,0.14605,-10.0610,0.7317,-7.7439,0.00,0.00,0.00,4,S01
23380,-10.05804,0.93613,-0.61292,-13.2317,3.7195,-5.2439,0.00,0.00,0.00,4,S01
23400,-10.10353,0.47884,-0.28491,-17.8049,10.3049,0.0000,0.00,0.00,0.00,4,S01
23420,-9.92157,0.20830,0.00000,-16.2195,7.6220,1.1585,0.00,0.00,0.00,4,S01
23440,-9.86651,0.49560,-0.08859,-10.5488,-0.1220,-0.6098,0.00,0.00,0.00,4,S01
23460,-9.79468,0.45250,-0.03352,-8.4756,-2.1341,-0.1220,0.00,0.00,0.00,4,S01
23480,-10.11311,0.38547,0.07422,-5.1220,4.1463,0.0000,0.00,0.00,0.00,4,S01
23500,-11.29345,0.56982,0.00479,0.7317,9.8780,-4.4512,0.00,0.00,0.00,4,S01
23520,-11.35809,0.48602,-0.10774,3.5976,4.6951,-5.4878,0.00,0.00,0.00,4,S01
23540,-11.32936,0.21308,-0.39744,7.9878,1.8293,-4.1463,0.00,0.00,0.00,4,S01
23560,-11.25993,0.04549,-0.49321,11.5854,4.7561,-0.9146,0.00,0.00,0.00,4,S01
23580,-10.74518,-0.01197,-0.61770,13.4756,8.3537,1.2195,0.00,0.00,0.00,4,S01
23600,-10.10832,-0.10534,-0.80685,14.3293,10.2439,-0.7927,0.00,0.00,0.00,4,S01
23620,-9.57681,-0.39744,-0.90022,15.7317,12.9878,-4.3902,0.00,0.00,0.00,4,S01
23640,-9.11951,-0.75417,-0.89543,18.6585,15.9756,-7.7439,0.00,0.00,0.00,4,S01
23660,-8.83221,-0.90980,-0.71826,23.3537,15.0610,-11.0366,0.00,0.00,0.00,4,S01
23680,-8.81545,-0.70629,-0.69432,25.9756,10.1220,-13.1707,0.00,0.00,0.00,4,S01
23700,-8.84897,-0.44772,-0.75417,24.6951,6.7683,-13.7805,0.00,0.00,0.00,4,S01
23720,-8.82982,-0.22266,-0.77093,21.1585,5.0000,-13.6585,0.00,0.00,0.00,4,S01
23740,-8.91840,-0.18435,-0.70629,16.4634,0.6098,-14.0854,0.00,0.00,0.00,4,S01
23760,-9.19852,-0.36631,-0.73502,12.9878,-5.4268,-13.4756,0.00,0.00,0.00,4,S01
23780,-9.42837,-0.66080,-0.77333,11.0366,-9.8171,-11.0976,0.00,0.00,0.00,4,S01
23800,-9.47386,-0.81403,-0.92895,9.2073,-11.8293,-8.7805,0.00,0.00,0.00,4,S01
23820,-9.48104,-0.71826,-1.07739,6.9512,-12.4390,-7.9878,0.00,0.00,0.00,4,S01
23840,-9.62469,-0.68953,-0.94332,4.7561,-14.2683,-8.4756,0.00,0.00,0.00,4,S01
23860,-9.84256,-0.72544,-1.07021,4.1463,-17.8049,-8.7805,0.00,0.00,0.00,4,S01
23880,-9.78989,-0.84994,-1.23301,3.1098,-17.5610,-8.1098,0.00,0.00,0.00,4,S01
23900,-9.52174,-0.91937,-1.24738,1.2805,-13.6585,-7.4390,0.00,0.00,0.00,4,S01
23920,-9.34218,-0.95529,-1.09176,-0.4878,-11.0976,-7.8049,0.00,0.00,0.00,4,S01
23940,-9.36372,-1.06303,-0.74460,-0.4878,-10.5488,-9.3293,0.00,0.00,0.00,4,S01
23960,-9.48822,-1.12527,-0.52912,2.4390,-10.6707,-10.1220,0.00,0.00,0.00,4,S01
23980,-9.47864,-1.05824,-0.27533,4.0244,-9.0244,-9.2073,0.00,0.00,0.00,4,S01
24000,-9.14585,-0.94092,-0.39983,2.5610,-7.0122,-8.5976,0.00,0.00,0.00,4,S01
24020,-8.81784,-0.77093,-0.32561,0.1829,-7.8049,-10.1220,0.00,0.00,0.00,4,S01
24040,-8.78433,-0.76614,-0.15083,-1.8293,-14.1463,-11.8293,0.00,0.00,0.00,4,S01
24060,-8.53054,-0.86910,-0.31603,-2.8659,-19.5732,-12.0122,0.00,0.00,0.00,4,S01
24080,-8.07085,-1.00078,-0.40223,-5.2439,-17.1951,-11.2805,0.00,0.00,0.00,4,S01
24100,-8.05409,-1.09894,-0.26576,-6.7683,-13.4146,-12.1341,0.00,0.00,0.00,4,S01
24120,-8.43477,-1.13006,-0.04310,-7.6829,-14.7561,-13.2927,0.00,0.00,0.00,4,S01
24140,-8.54012,-1.12767,0.19154,-8.7805,-17.0122,-12.3171,0.00,0.00,0.00,4,S01
24160,-8.32464,-1.13246,0.35434,-8.7805,-12.8659,-9.8780,0.00,0.00,0.00,4,S01
24180,-8.54012,-1.06542,0.43574,-10.0610,-4.2683,-8.8415,0.00,0.00,0.00,4,S01
24200,-9.01896,-1.07739,0.62968,-11.7073,1.9512,-9.0854,0.00,0.00,0.00,4,S01
24220,-9.09078,-1.28569,0.69192,-10.9756,2.3780,-9.9390,0.00,0.00,0.00,4,S01
24240,-8.80348,-1.62087,0.58897,-6.8293,2.5610,-10.8537,0.00,0.00,0.00,4,S01
24260,-8.73405,-1.68073,0.50757,-3.7805,4.8780,-11.0976,0.00,0.00,0.00,4,S01
24280,-8.89925,-1.48201,0.46926,-3.9634,8.1098,-10.6707,0.00,0.00,0.00,4,S01
24300,-8.99023,-1.24259,0.45729,-5.0000,10.0000,-10.0610,0.00,0.00,0.00,4,S01
24320,-8.71250,-1.18034,0.46208,-4.0854,10.1829,-9.5122,0.00,0.00,0.00,4,S01
24340,-8.62631,-1.23301,0.57221,-2.2561,9.0244,-8.4146,0.00,0.00,0.00,4,S01
24360,-9.11233,-1.22344,0.67995,-3.7195,7.5000,-6.5854,0.00,0.00,0.00,4,S01
24380,-9.33020,-1.24259,0.76375,-6.7683,8.1098,-4.8780,0.00,0.00,0.00,4,S01
24400,-8.83221,-1.23541,0.65841,-6.6463,9.0854,-4.2073,0.00,0.00,0.00,4,S01
24420,-8.47069,-1.23062,0.52912,-5.6098,10.8537,-3.4756,0.00,0.00,0.00,4,S01
24440,-8.72208,-1.27372,0.56743,-6.5854,14.8171,-2.4390,0.00,0.00,0.00,4,S01
24460,-8.99262,-1.28808,0.58419,-8.7805,18.0488,-1.4024,0.00,0.00,0.00,4,S01
24480,-8.85136,-1.47004,0.70150,-10.0610,19.3902,-0.1829,0.00,0.00,0.00,4,S01
24500,-8.71250,-1.70707,0.87628,-8.1707,19.1463,1.1585,0.00,0.00,0.00,4,S01
24520,-8.99741,-1.91776,1.00317,-5.5488,18.1098,2.9878,0.00,0.00,0.00,4,S01
24540,-9.30626,-1.79805,0.90740,-4.0244,17.4390,4.5122,0.00,0.00,0.00,4,S01
24560,-9.04290,-1.35272,0.55785,-4.5732,17.0732,5.9146,0.00,0.00,0.00,4,S01
24580,-8.67659,-1.07500,0.49321,-8.6585,17.8049,7.0732,0.00,0.00,0.00,4,S01
24600,-8.66222,-1.05105,0.59137,-12.5000,19.5122,7.7439,0.00,0.00,0.00,4,S01
24620,-8.89685,-1.22344,0.69671,-15.7317,22.0732,8.1098,0.00,0.00,0.00,4,S01
24640,-9.01656,-1.81720,0.50518,-16.6463,24.6951,8.2317,0.00,0.00,0.00,4,S01
24660,-9.48343,-2.63362,0.20351,-9.6951,27.3780,6.7683,0.00,0.00,0.00,4,S01
24680,-10.23521,-2.47321,0.05267,0.4268,25.3659,3.7195,0.00,0.00,0.00,4,S01
24700,-11.33654,-0.95768,-0.34955,-4.3293,13.4756,-6.7073,0.00,0.00,0.00,4,S01
24720,-11.92312,-0.97205,-0.39983,-7.1341,10.7927,-14.2073,0.00,0.00,0.00,4,S01
24740,-12.11466,-1.52511,-0.94571,-3.2927,11.1585,-19.2683,0.00,0.00,0.00,4,S01
24760,-12.05002,-1.93212,-1.77889,5.0000,18.5976,-18.7195,0.00,0.00,0.00,4,S01
24780,-12.39239,-1.84593,-2.18591,2.2561,24.7561,-8.7805,0.00,0.00,0.00,4,S01
24800,-12.57435,-1.31681,-2.31519,-8.9024,27.9268,1.8293,0.00,0.00,0.00,4,S01
24820,-11.97819,-0.80924,-2.35350,-18.3537,30.4268,6.6463,0.00,0.00,0.00,4,S01
24840,-10.94629,-0.40462,-2.47560,-19.9390,31.6463,9.5122,0.00,0.00,0.00,4,S01
24860,-10.54885,-0.41180,-2.35111,-15.3659,31.8902,13.1707,0.00,0.00,0.00,4,S01
24880,-10.73560,-0.47884,-2.21224,-4.1463,27.1951,16.5244,0.00,0.00,0.00,4,S01
24900,-10.38605,-0.34477,-2.27928,6.8902,16.0976,20.8537,0.00,0.00,0.00,4,S01
24920,-9.59596,-0.29928,-2.09014,9.6951,4.6951,24.6341,0.00,0.00,0.00,4,S01
24940,-8.95671,-0.24900,-1.86508,9.9390,-1.5244,24.6951,0.00,0.00,0.00,4,S01
24960,-8.56167,-0.28491,-1.81241,11.5854,-3.5366,22.3171,0.00,0.00,0.00,4,S01
24980,-8.18338,-0.26097,-1.83875,14.5122,-4.2683,18.8415,0.00,0.00,0.00,4,S01
25000,-7.90087,-0.17238,-1.81720,17.1341,-4.5122,16.6463,0.00,0.00,0.00,4,S01
25020,-7.86256,0.06704,-1.78368,17.8049,-6.0976,15.4268,0.00,0.00,0.00,4,S01
25040,-7.79313,0.21787,-1.88424,15.8537,-9.8780,14.2683,0.00,0.00,0.00,4,S01
25060,-7.50103,0.22266,-2.02310,13.7195,-13.1098,12.1341,0.00,0.00,0.00,4,S01
25080,-7.29513,0.14126,-1.96564,11.8293,-15.1220,9.5732,0.00,0.00,0.00,4,S01
25100,-7.49864,0.10534,-1.74058,10.3659,-16.4024,8.5366,0.00,0.00,0.00,4,S01
25120,-7.70454,0.07661,-1.71425,9.5732,-18.5366,9.0244,0.00,0.00,0.00,4,S01
25140,-7.69975,0.10774,-1.94888,9.6341,-18.3537,9.8780,0.00,0.00,0.00,4,S01
25160,-7.58244,0.19872,-1.97043,9.6341,-14.3902,10.5488,0.00,0.00,0.00,4,S01
25180,-7.65666,0.35674,-1.88184,9.7561,-10.4878,11.2805,0.00,0.00,0.00,4,S01
25200,-8.03973,0.54827,-1.71425,9.1463,-9.8780,11.5854,0.00,0.00,0.00,4,S01
25220,-8.59040,0.61292,-1.42216,7.0732,-12.6220,11.0366,0.00,0.00,0.00,4,S01
25240,-8.74841,0.62249,-1.39103,5.3659,-14.7561,9.9390,0.00,0.00,0.00,4,S01
25260,-8.65504,0.73023,-1.36230,2.1951,-14.3293,8.4756,0.00,0.00,0.00,4,S01
25280,-8.61194,0.76136,-1.22104,-2.2561,-12.2561,6.4634,0.00,0.00,0.00,4,S01
25300,-8.88009,0.56982,-0.86910,-4.8780,-10.0610,4.2073,0.00,0.00,0.00,4,S01
25320,-9.03093,0.46926,-0.83558,-4.6951,-9.0854,3.2317,0.00,0.00,0.00,4,S01
25340,-8.86333,0.53870,-0.90740,-4.9390,-7.1951,4.0854,0.00,0.00,0.00,4,S01
25360,-9.00220,0.79009,-0.87149,-7.2561,-5.4268,5.1220,0.00,0.00,0.00,4,S01
25380,-9.33020,0.82839,-0.67995,-10.9756,-4.3293,5.6707,0.00,0.00,0.00,4,S01
25400,-9.33499,0.73981,-0.43814,-12.5000,-4.2683,5.1829,0.00,0.00,0.00,4,S01
25420,-9.05727,0.60813,-0.39744,-12.1341,-6.2195,3.5366,0.00,0.00,0.00,4,S01
25440,-8.79151,0.56264,-0.49560,-10.8537,-5.7317,2.0122,0.00,0.00,0.00,4,S01
25460,-8.78672,0.71347,-0.35674,-10.4878,-2.3171,1.4634,0.00,0.00,0.00,4,S01
25480,-8.93756,0.76136,-0.05746,-10.9146,-1.0976,0.5488,0.00,0.00,0.00,4,S01
25500,-9.21049,0.73263,0.35195,-10.5488,-2.0732,-1.8902,0.00,0.00,0.00,4,S01
25520,-9.41879,0.65601,0.42138,-8.4146,-2.1341,-3.6585,0.00,0.00,0.00,4,S01
25540,-9.77792,0.62249,0.48123,-6.0976,-0.1829,-3.5366,0.00,0.00,0.00,4,S01
25560,-10.51055,0.69911,0.76854,-5.6098,0.0610,-3.9634,0.00,0.00,0.00,4,S01
25580,-11.22162,0.72305,0.85473,-4.0244,-2.9268,-5.8537,0.00,0.00,0.00,4,S01
25600,-11.48738,1.08457,0.04788,-0.7317,-5.0610,-7.8049,0.00,0.00,0.00,4,S01
25620,-12.25113,0.89543,0.12929,0.1829,-2.1951,-10.1220,0.00,0.00,0.00,4,S01
25640,-13.88158,0.68235,-1.02711,6.7073,-2.6829,-9.3902,0.00,0.00,0.00,4,S01
25660,-13.27106,-0.13168,-1.09415,10.8537,1.7073,-0.4268,0.00,0.00,0.00,4,S01
25680,-11.46344,-0.29209,-1.69270,15.3049,-1.7073,1.4024,0.00,0.00,0.00,4,S01
25700,-10.11790,0.35674,-2.48039,19.3902,-1.9512,-5.0000,0.00,0.00,0.00,4,S01
25720,-9.73482,0.79009,-2.76051,18.9024,7.8659,-9.7561,0.00,0.00,0.00,4,S01
25740,-10.29028,0.61052,-2.39660,10.8537,15.1220,-14.9390,0.00,0.00,0.00,4,S01
25760,-10.62547,0.28970,-2.06380,-0.0610,15.7317,-22.0122,0.00,0.00,0.00,4,S01
25780,-10.42196,0.10056,-1.83396,-9.8780,8.5366,-29.9390,0.00,0.00,0.00,4,S01
25800,-9.81862,-0.15802,-1.61609,-19.3293,-2.0732,-34.2073,0.00,0.00,0.00,4,S01
25820,-9.01178,-0.50518,-1.38864,-27.0732,-8.1707,-34.0854,0.00,0.00,0.00,4,S01
25840,-8.32943,-0.84515,-1.36709,-30.3659,-7.9268,-32.6220,0.00,0.00,0.00,4,S01
25860,-8.02776,-1.09176,-1.24977,-30.3049,-4.3902,-32.3780,0.00,0.00,0.00,4,S01
25880,-7.85538,-1.20668,-1.13006,-28.2927,-2.3171,-32.9878,0.00,0.00,0.00,4,S01
25900,-7.66384,-0.90740,-1.40300,-21.0366,-3.0488,-30.4268,0.00,0.00,0.00,4,S01
25920,-7.52976,-0.88585,-1.20907,-23.7195,-5.3659,-25.7317,0.00,0.00,0.00,4,S01
25940,-7.44357,-0.93374,-1.12767,-26.6463,-11.0976,-21.9512,0.00,0.00,0.00,4,S01
25960,-7.52976,-1.00796,-1.18274,-28.7195,-15.6707,-20.3049,0.00,0.00,0.00,4,S01
25980,-7.70694,-1.02711,-1.21386,-31.6463,-16.4634,-19.5122,0.00,0.00,0.00,4,S01
26000,-7.96551,-1.08936,-1.08697,-35.2439,-14.7561,-18.6585,0.00,0.00,0.00,4,S01
26020,-8.20253,-1.31202,-0.99359,-37.5610,-14.1463,-18.4146,0.00,0.00,0.00,4,S01
26040,-8.37492,-1.67115,-0.97683,-35.7317,-14.7561,-18.4146,0.00,0.00,0.00,4,S01
26060,-8.47547,-2.00155,-0.96965,-30.5488,-15.0610,-17.0732,0.00,0.00,0.00,4,S01
26080,-8.61194,-2.06620,-0.92416,-27.5000,-15.1220,-15.0000,0.00,0.00,0.00,4,S01
26100,-8.71250,-1.93212,-1.01275,-26.6463,-12.8659,-12.6829,0.00,0.00,0.00,4,S01
26120,-8.69574,-1.67594,-1.01035,-26.2195,-8.1098,-10.7927,0.00,0.00,0.00,4,S01
26140,-8.81066,-1.46046,-0.82121,-25.6098,-5.2439,-9.3902,0.00,0.00,0.00,4,S01
26160,-9.12430,-1.43652,-0.66798,-24.7561,-6.2805,-7.8049,0.00,0.00,0.00,4,S01
26180,-9.20092,-1.58017,-0.68235,-24.2073,-7.0122,-6.6463,0.00,0.00,0.00,4,S01
26200,-8.91601,-1.83156,-0.69911,-23.4756,-3.4146,-6.8902,0.00,0.00,0.00,4,S01
26220,-8.69813,-1.89860,-0.69192,-20.8537,1.8293,-7.7439,0.00,0.00,0.00,4,S01
26240,-8.64786,-1.59933,-0.91937,-19.2683,5.6707,-7.2561,0.00,0.00,0.00,4,S01
26260,-8.79151,-1.31921,-0.97205,-21.7683,9.1463,-5.7317,0.00,0.00,0.00,4,S01
26280,-8.77954,-1.35751,-0.84036,-24.7561,10.9756,-5.4268,0.00,0.00,0.00,4,S01
26300,-8.77714,-1.62327,-0.65601,-24.9390,11.5854,-6.0366,0.00,0.00,0.00,4,S01
26320,-8.98783,-1.85551,-0.53870,-23.4756,12.1951,-6.7073,0.00,0.00,0.00,4,S01
26340,-8.99980,-1.88184,-0.55545,-22.4390,13.1707,-7.0732,0.00,0.00,0.00,4,S01
26360,-8.78433,-1.83396,-0.56743,-21.4024,14.6341,-7.0122,0.00,0.00,0.00,4,S01
26380,-8.80587,-1.89860,-0.53151,-18.9024,16.2805,-6.7073,0.00,0.00,0.00,4,S01
26400,-9.14346,-1.93691,-0.47645,-15.2439,17.3171,-5.7317,0.00,0.00,0.00,4,S01
26420,-9.27514,-1.81241,-0.46926,-12.6829,17.5000,-3.7195,0.00,0.00,0.00,4,S01
26440,-9.14346,-1.68073,-0.45011,-11.8902,16.0976,-1.5854,0.00,0.00,0.00,4,S01
26460,-9.04290,-1.51553,-0.33279,-11.1585,14.8171,-0.6707,0.00,0.00,0.00,4,S01
26480,-9.01656,-1.48919,-0.38307,-10.3049,14.4512,0.1220,0.00,0.00,0.00,4,S01
26500,-9.11951,-1.36948,-0.49560,-9.7561,16.0976,0.3659,0.00,0.00,0.00,4,S01
26520,-9.18176,-1.21865,-0.61292,-9.8171,18.1098,0.3659,0.00,0.00,0.00,4,S01
26540,-9.21528,-1.14682,-0.58419,-12.0732,18.4756,0.6098,0.00,0.00,0.00,4,S01
26560,-9.34696,-1.07021,-0.58658,-15.7317,17.1951,0.9756,0.00,0.00,0.00,4,S01
26580,-9.48104,-0.96965,-0.63446,-20.9146,16.5854,0.9756,0.00,0.00,0.00,4,S01
26600,-9.83299,-1.26653,-0.88825,-24.9390,18.0488,0.9146,0.00,0.00,0.00,4,S01
26620,-10.71405,-2.05183,-1.52511,-20.3659,20.8537,2.1341,0.00,0.00,0.00,4,S01
26640,-11.80820,-2.22900,-1.94170,-12.7439,21.5854,3.3537,0.00,0.00,0.00,4,S01
26660,-12.99094,-1.26174,-1.77889,-18.5366,17.4390,1.2805,0.00,0.00,0.00,4,S01
26680,-12.94066,-0.39504,-2.11647,-29.2683,14.3902,-0.1220,0.00,0.00,0.00,4,S01
26700,-12.00932,-1.39582,-2.46124,-36.5244,14.2073,2.2561,0.00,0.00,0.00,4,S01
26720,-11.13064,-2.31040,-2.82276,-34.5732,13.7805,4.2073,0.00,0.00,0.00,4,S01
26740,-10.35253,-2.54264,-2.76291,-32.0732,18.8415,5.3049,0.00,0.00,0.00,4,S01
26760,-9.91199,-2.62883,-2.66235,-29.5732,24.1463,6.4024,0.00,0.00,0.00,4,S01
26780,-10.09874,-2.64320,-2.48039,-24.5122,23.2317,8.9024,0.00,0.00,0.00,4,S01
26800,-10.30464,-2.50433,-2.26970,-18.1707,16.8293,14.0244,0.00,0.00,0.00,4,S01
26820,-10.07720,-2.03028,-2.27210,-11.8902,9.3293,19.2073,0.00,0.00,0.00,4,S01
26840,-9.60314,-1.41737,-2.31519,-8.2317,3.9024,22.8049,0.00,0.00,0.00,4,S01
26860,-9.05008,-1.11570,-2.37744,-7.1951,0.8537,24.6341,0.00,0.00,0.00,4,S01
26880,-8.65743,-1.06542,-2.45885,-4.5122,0.6707,25.0000,0.00,0.00,0.00,4,S01
26900,-8.50899,-1.13006,-2.16915,-2.3780,0.2439,24.8780,0.00,0.00,0.00,4,S01
26920,-8.40844,-1.09654,-1.91057,-1.2195,-6.4024,25.0000,0.00,0.00,0.00,4,S01
26940,-8.09480,-0.79966,-1.97761,-0.3049,-13.9634,25.7927,0.00,0.00,0.00,4,S01
26960,-7.69018,-0.64883,-2.10929,-1.2805,-16.2195,26.7073,0.00,0.00,0.00,4,S01
26980,-7.92241,-0.69192,-1.81480,-0.9756,-14.4512,26.4634,0.00,0.00,0.00,4,S01
27000,-8.33661,-0.70150,-1.60651,2.2561,-17.0122,25.6098,0.00,0.00,0.00,4,S01
27020,-8.32943,-0.79966,-1.71904,6.3415,-24.5122,25.7927,0.00,0.00,0.00,4,S01
27040,-8.00621,-0.91459,-1.74777,8.9634,-30.0000,25.8537,0.00,0.00,0.00,4,S01
27060,-7.86974,-0.67277,-1.89142,12.9878,-29.1463,24.6951,0.00,0.00,0.00,4,S01
27080,-8.55209,-0.31603,-1.74777,20.4878,-27.9268,24.6341,0.00,0.00,0.00,4,S01
27100,-8.56885,-0.20590,-1.91776,25.7927,-30.1220,25.1829,0.00,0.00,0.00,4,S01
27120,-8.20493,-0.00718,-1.98479,29.5122,-28.2317,24.5122,0.00,0.00,0.00,4,S01
27140,-8.07804,0.24900,-1.93212,31.0366,-25.7927,22.1951,0.00,0.00,0.00,4,S01
27160,-8.44435,0.43574,-1.68552,31.9512,-24.8171,19.5122,0.00,0.00,0.00,4,S01
27180,-8.88488,0.57461,-1.49398,32.1951,-24.3902,17.4390,0.00,0.00,0.00,4,S01
27200,-8.83221,0.64883,-1.55623,32.1951,-23.9024,16.0366,0.00,0.00,0.00,4,S01
27220,-8.49223,0.82600,-1.57299,31.1585,-22.4390,14.9390,0.00,0.00,0.00,4,S01
27240,-8.54251,0.94332,-1.33836,27.5000,-19.0244,13.2927,0.00,0.00,0.00,4,S01
27260,-8.86812,0.78051,-1.09415,24.8171,-14.9390,10.7927,0.00,0.00,0.00,4,S01
27280,-8.97586,0.58658,-0.91937,24.5732,-12.5000,8.5366,0.00,0.00,0.00,4,S01
27300,-8.76038,0.73741,-0.88825,24.5732,-11.8902,7.8049,0.00,0.00,0.00,4,S01
27320,-8.54969,0.93134,-0.88346,21.9512,-10.4268,8.4146,0.00,0.00,0.00,4,S01
27340,-8.58800,0.86431,-0.79248,19.3293,-7.4390,7.0122,0.00,0.00,0.00,4,S01
27360,-8.66222,0.65841,-0.68474,20.3659,-4.3293,3.1098,0.00,0.00,0.00,4,S01
27380,-8.78672,0.78769,-0.43574,21.8902,-2.9878,-0.6707,0.00,0.00,0.00,4,S01
27400,-8.99262,1.22104,-0.34955,19.5122,-2.4390,-1.8902,0.00,0.00,0.00,4,S01
27420,-9.19134,1.38145,-0.39025,14.8171,0.2439,-0.7927,0.00,0.00,0.00,4,S01
27440,-9.54329,1.04387,-0.10534,11.7683,3.4146,-0.8537,0.00,0.00,0.00,4,S01
27460,-9.95988,0.67995,0.40462,13.2927,4.3293,-2.3780,0.00,0.00,0.00,4,S01
27480,-10.78588,0.62010,0.75896,15.6707,5.1829,-2.6220,0.00,0.00,0.00,4,S01
27500,-11.82017,0.73981,0.50757,16.8293,6.8293,-2.7439,0.00,0.00,0.00,4,S01
27520,-12.59589,0.50518,0.38068,19.3902,5.9756,-4.1463,0.00,0.00,0.00,4,S01
27540,-14.01326,0.42856,0.00479,27.9268,-2.1951,-6.0366,0.00,0.00,0.00,4,S01
27560,-13.57512,-0.26576,-1.16598,38.2927,-4.4512,-1.1585,0.00,0.00,0.00,4,S01
27580,-12.00213,-0.44772,-1.31442,48.2317,-2.8659,1.0366,0.00,0.00,0.00,4,S01
27600,-10.53209,0.28012,-2.23618,53.9024,-7.7439,-2.5000,0.00,0.00,0.00,4,S01
27620,-9.67497,1.36948,-2.53546,47.8659,-1.3415,-4.6951,0.00,0.00,0.00,4,S01
27640,-9.84017,1.60890,-2.38223,33.1098,5.7927,-10.3659,0.00,0.00,0.00,4,S01
27660,-10.31422,1.21865,-1.98000,20.0610,9.8780,-21.1585,0.00,0.00,0.00,4,S01
27680,-10.47703,0.54827,-1.76453,10.6098,6.3415,-31.7073,0.00,0.00,0.00,4,S01
27700,-10.06044,-0.20351,-1.52032,2.3780,-3.7805,-37.1341,0.00,0.00,0.00,4,S01
27720,-9.25119,-0.71587,-1.40779,-2.0732,-12.0732,-37.2561,0.00,0.00,0.00,4,S01
27740,-8.71250,-0.78530,-1.39821,-1.3415,-14.1463,-35.9756,0.00,0.00,0.00,4,S01
27760,-8.65025,-0.95768,-1.05824,2.3780,-12.3780,-34.5122,0.00,0.00,0.00,4,S01
27780,-8.43956,-1.07260,-1.22344,10.2439,-11.0976,-32.6829,0.00,0.00,0.00,4,S01
27800,-8.09001,-0.90980,-1.46286,15.3049,-7.5000,-30.4878,0.00,0.00,0.00,4,S01
27820,-7.70933,-0.79009,-1.28808,14.8171,-3.4756,-28.9024,0.00,0.00,0.00,4,S01
27840,-7.50582,-0.58179,-1.38145,14.7561,-2.9878,-28.4756,0.00,0.00,0.00,4,S01
27860,-7.34781,-0.29928,-1.54426,12.9878,-4.0854,-27.6220,0.00,0.00,0.00,4,S01
27880,-7.02938,-0.09098,-1.43173,6.0976,-3.7195,-26.1585,0.00,0.00,0.00,4,S01
27900,-7.00543,-0.23224,-1.27132,-1.4634,-3.1098,-25.6707,0.00,0.00,0.00,4,S01
27920,-7.36217,-0.72544,-0.99120,-5.6707,-2.6220,-27.1341,0.00,0.00,0.00,4,S01
27940,-7.64469,-1.26174,-0.93134,-4.4512,-3.2317,-27.5000,0.00,0.00,0.00,4,S01
27960,-8.03973,-1.47962,-0.83079,-2.2561,-3.9024,-25.3659,0.00,0.00,0.00,4,S01
27980,-8.50899,-1.60651,-0.64165,-2.5610,-4.5732,-21.2805,0.00,0.00,0.00,4,S01
28000,-8.34858,-1.81720,-0.69192,-0.5488,-5.0000,-17.5000,0.00,0.00,0.00,4,S01
28020,-8.07325,-1.92015,-0.76614,4.9390,-2.5610,-17.3780,0.00,0.00,0.00,4,S01
28040,-8.47308,-1.91297,-0.59137,8.7195,2.3171,-18.9024,0.00,0.00,0.00,4,S01
28060,-9.30866,-1.80762,-0.34237,8.6585,4.6951,-19.5122,0.00,0.00,0.00,4,S01
28080,-9.48583,-1.72861,-0.33040,8.5366,3.1098,-19.0854,0.00,0.00,0.00,4,S01
28100,-8.87770,-1.72622,-0.44532,9.8780,0.4878,-18.9634,0.00,0.00,0.00,4,S01
28120,-8.50660,-1.84354,-0.36871,11.4024,-0.1220,-18.4756,0.00,0.00,0.00,4,S01
28140,-8.88488,-1.91776,-0.21069,10.8537,2.0732,-17.6220,0.00,0.00,0.00,4,S01
28160,-9.26077,-1.85551,-0.15562,9.8780,5.3049,-16.2195,0.00,0.00,0.00,4,S01
28180,-8.86094,-1.78847,-0.16520,10.1829,5.9756,-14.2073,0.00,0.00,0.00,4,S01
28200,-8.39647,-1.75016,-0.12689,10.7317,5.3659,-12.3171,0.00,0.00,0.00,4,S01
28220,-8.67180,-1.82438,0.07422,10.3659,8.1707,-10.3659,0.00,0.00,0.00,4,S01
28240,-9.08839,-1.89381,0.13408,9.8780,11.5854,-7.9878,0.00,0.00,0.00,4,S01
28260,-8.75320,-2.14520,0.29688,11.0366,9.1463,-3.8415,0.00,0.00,0.00,4,S01
28280,-8.66940,-2.27689,0.45729,10.6707,8.4756,-2.3780,0.00,0.00,0.00,4,S01
28300,-9.00699,-2.15239,0.53870,9.2683,12.8659,-0.8537,0.00,0.00,0.00,4,S01
28320,-9.29190,-1.91536,0.54348,6.0976,16.2195,0.6707,0.00,0.00,0.00,4,S01
28340,-9.19852,-1.70467,0.51475,0.4878,15.4268,2.5610,0.00,0.00,0.00,4,S01
28360,-9.21049,-1.97043,0.66080,-6.2805,13.9634,4.3293,0.00,0.00,0.00,4,S01
28380,-9.81144,-2.32956,0.58419,-9.4512,14.3293,5.4878,0.00,0.00,0.00,4,S01
28400,-10.10593,-2.48518,-0.56982,-11.2195,15.9146,7.5610,0.00,0.00,0.00,4,S01
28420,-10.56322,-2.26731,-1.94888,-14.5732,23.9024,10.4268,0.00,0.00,0.00,4,S01
28440,-11.94946,-2.26731,-1.83635,-27.8659,32.3780,11.7073,0.00,0.00,0.00,4,S01
28460,-13.57752,-1.84354,-1.27611,-42.3780,28.7195,8.3537,0.00,0.00,0.00,4,S01
28480,-13.41471,-1.09415,-1.63045,-46.6463,16.8902,5.4878,0.00,0.00,0.00,4,S01
28500,-11.84412,-1.29287,-2.75812,-57.9878,14.4512,14.3902,0.00,0.00,0.00,4,S01
28520,-10.18493,-1.78607,-3.37104,-71.8902,33.2317,29.0244,0.00,0.00,0.00,4,S01
28540,-9.60314,-1.47483,-3.03106,-82.1951,58.5366,41.6463,0.00,0.00,0.00,4,S01
28560,-10.07959,-1.56581,-2.41096,-72.7439,70.4878,47.2561,0.00,0.00,0.00,4,S01
28580,-10.90798,-1.04866,-2.83713,-42.7439,53.8415,37.3171,0.00,0.00,0.00,4,S01
28600,-10.84095,-0.85952,-3.12922,-21.8293,17.0122,28.2927,0.00,0.00,0.00,4,S01
28620,-10.18015,-0.53391,-3.15556,-16.9512,-20.1220,23.4756,0.00,0.00,0.00,4,S01
28640,-9.52413,-0.10774,-3.18908,-15.9756,-44.0244,19.5732,0.00,0.00,0.00,4,S01
28660,-8.80109,-0.08859,-3.02388,-14.3293,-46.2805,19.2073,0.00,0.00,0.00,4,S01
28680,-8.39886,-0.21308,-2.76530,-9.8171,-31.4634,21.5854,0.00,0.00,0.00,4,S01
28700,-8.30309,-0.16759,-2.61926,-6.5854,-15.9146,23.7805,0.00,0.00,0.00,4,S01
28720,-8.19535,-0.07661,-2.58095,-4.3293,-8.8415,25.7927,0.00,0.00,0.00,4,S01
28740,-8.12113,0.28252,-2.54025,-2.9878,-9.3293,25.6707,0.00,0.00,0.00,4,S01
28760,-8.01100,0.80685,-2.36787,-3.3537,-14.3902,23.6585,0.00,0.00,0.00,4,S01
28780,-7.72369,0.82121,-2.31759,-7.1951,-19.4512,22.5610,0.00,0.00,0.00,4,S01
28800,-7.46751,0.31843,-2.16436,-7.9878,-19.3902,22.8659,0.00,0.00,0.00,4,S01
28820,-7.51300,0.02155,-1.96803,-5.9756,-18.7195,21.6463,0.00,0.00,0.00,4,S01
28840,-7.68778,0.25379,-1.94888,-3.6585,-17.1951,19.2683,0.00,0.00,0.00,4,S01
28860,-7.67821,0.74699,-1.98240,0.7927,-13.4146,17.5610,0.00,0.00,0.00,4,S01
28880,-7.82425,1.06781,-1.92494,1.5244,-12.3780,16.2805,0.00,0.00,0.00,4,S01
28900,-8.09001,1.28090,-1.79565,-0.6707,-14.1463,16.3415,0.00,0.00,0.00,4,S01
28920,-8.41323,1.40540,-1.67594,-4.3902,-14.4512,15.3659,0.00,0.00,0.00,4,S01
28940,-8.57124,1.35512,-1.44131,-8.5366,-13.2927,12.5000,0.00,0.00,0.00,4,S01
28960,-8.60715,1.09894,-1.46046,-10.6707,-13.9024,10.4268,0.00,0.00,0.00,4,S01
28980,-8.74123,0.86431,-1.30723,-10.9146,-12.3171,8.9024,0.00,0.00,0.00,4,S01
29000,-8.93516,0.90022,-1.13006,-8.8415,-9.8171,8.2317,0.00,0.00,0.00,4,S01
29020,-8.97826,0.86910,-1.02711,-7.4390,-8.8415,8.4146,0.00,0.00,0.00,4,S01
29040,-8.91122,0.88107,-0.99359,-5.2439,-7.6220,7.9878,0.00,0.00,0.00,4,S01
29060,-8.89446,1.09176,-0.97923,-3.8415,-6.6463,8.4756,0.00,0.00,0.00,4,S01
29080,-8.90643,1.25696,-1.07260,-4.2683,-5.1829,10.6707,0.00,0.00,0.00,4,S01
29100,-8.90404,1.30245,-0.98402,-5.1220,-3.6585,11.5854,0.00,0.00,0.00,4,S01
29120,-8.99262,1.35272,-0.86670,-5.0610,-2.3780,10.6098,0.00,0.00,0.00,4,S01
29140,-8.77236,1.33118,-0.89543,-5.5488,-1.4634,9.4512,0.00,0.00,0.00,4,S01
29160,-8.45393,1.32878,-0.82121,-5.9756,-0.9146,8.7805,0.00,0.00,0.00,4,S01
29180,-8.75081,1.48680,-0.70390,-6.4024,0.1220,6.7073,0.00,0.00,0.00,4,S01
29200,-9.32781,1.60172,-0.63686,-6.6463,0.6707,2.8049,0.00,0.00,0.00,4,S01
29220,-9.38048,1.59454,-0.49560,-7.7439,0.1220,-0.9146,0.00,0.00,0.00,4,S01
29240,-8.84418,1.51314,-0.53391,-9.8780,-1.2805,-3.2317,0.00,0.00,0.00,4,S01
29260,-8.42041,1.30484,-0.41899,-11.8293,-0.9756,-4.2073,0.00,0.00,0.00,4,S01
29280,-8.77236,1.14443,-0.22745,-12.4390,0.5488,-6.0366,0.00,0.00,0.00,4,S01
29300,-9.15782,0.90022,-0.06464,-10.3049,1.5854,-8.7805,0.00,0.00,0.00,4,S01
29320,-9.00699,0.82600,-0.21308,-4.5122,2.8659,-10.7927,0.00,0.00,0.00,4,S01
29340,-8.77236,1.18992,-0.56982,0.5488,6.6463,-10.5488,0.00,0.00,0.00,4,S01
29360,-9.09078,1.53229,-0.58419,-0.4268,12.3780,-9.4512,0.00,0.00,0.00,4,S01
29380,-9.73004,1.63285,-0.46687,-2.3171,15.5488,-10.1220,0.00,0.00,0.00,4,S01
29400,-10.27112,1.83396,-0.43574,-2.6829,16.2805,-11.2195,0.00,0.00,0.00,4,S01
29420,-10.92953,1.93212,-0.33279,-5.0610,14.8780,-11.2195,0.00,0.00,0.00,4,S01
29440,-11.99256,2.09493,-0.61292,-7.3171,10.9756,-10.5488,0.00,0.00,0.00,4,S01
29460,-12.70124,0.53630,-0.91459,-0.6098,7.7439,-5.5488,0.00,0.00,0.00,4,S01
29480,-12.89038,0.39744,-1.24259,15.0000,3.9024,-7.0122,0.00,0.00,0.00,4,S01
29500,-12.32296,0.50996,-1.66158,24.3902,1.8293,-5.3049,0.00,0.00,0.00,4,S01
29520,-10.93911,0.74220,-2.34871,25.7317,-0.6098,-4.7561,0.00,0.00,0.00,4,S01
29540,-10.11790,0.99599,-2.59053,25.0000,1.1585,-7.8049,0.00,0.00,0.00,4,S01
29560,-9.97424,0.98641,-2.53307,20.4268,5.4268,-13.1098,0.00,0.00,0.00,4,S01
29580,-9.96946,0.77333,-2.34871,12.7439,6.6463,-19.5732,0.00,0.00,0.00,4,S01
29600,-9.72046,0.59137,-2.26013,3.7195,3.7195,-25.3659,0.00,0.00,0.00,4,S01
29620,-9.55047,0.58897,-2.37505,-4.8780,1.2195,-28.9024,0.00,0.00,0.00,4,S01
29640,-9.28711,0.91459,-2.38462,-12.5610,1.8293,-29.6951,0.00,0.00,0.00,4,S01
29660,-8.91840,0.31364,-2.06380,-17.0122,-0.5488,-28.3537,0.00,0.00,0.00,4,S01
29680,-8.33661,0.04310,-2.18830,-15.0000,-7.9878,-28.2927,0.00,0.00,0.00,4,S01
29700,-8.02776,-0.40462,-1.93451,-11.2195,-9.5122,-30.8537,0.00,0.00,0.00,4,S01
29720,-8.12113,-0.41659,-1.74058,-9.5122,-11.2805,-35.2439,0.00,0.00,0.00,4,S01
29740,-8.14029,-0.51715,-1.45567,-10.9146,-16.7073,-34.3293,0.00,0.00,0.00,4,S01
29760,-7.98466,-0.32561,-1.47004,-10.6098,-21.8293,-29.8171,0.00,0.00,0.00,4,S01
29780,-7.72609,-0.17478,-1.54187,-12.3171,-22.7439,-24.2683,0.00,0.00,0.00,4,S01
29800,-7.58244,-0.35913,-1.49159,-15.7317,-20.3659,-20.3659,0.00,0.00,0.00,4,S01
29820,-7.84819,-0.58897,-1.36709,-17.4390,-17.9878,-19.2073,0.00,0.00,0.00,4,S01
29840,-8.20732,-0.65122,-1.41018,-18.6585,-17.9878,-18.4756,0.00,0.00,0.00,4,S01
29860,-8.40604,-0.77093,-1.31681,-20.7317,-19.5122,-16.5244,0.00,0.00,0.00,4,S01
29880,-8.52815,-0.98162,-1.22344,-20.6707,-22.6829,-15.0000,0.00,0.00,0.00,4,S01
29900,-8.59997,-1.12767,-1.31921,-19.0854,-27.5000,-14.1463,0.00,0.00,0.00,4,S01
29920,-8.50181,-1.09654,-1.52750,-18.5976,-30.9146,-13.7805,0.00,0.00,0.00,4,S01
29940,-8.30070,-1.20907,-1.39103,-19.1463,-30.9756,-12.5000,0.00,0.00,0.00,4,S01
29960,-8.54251,-1.36709,-1.12527,-17.3780,-29.3293,-10.6707,0.00,0.00,0.00,4,S01
29980,-9.09318,-1.41258,-0.87149,-15.9146,-27.9878,-8.6585,0.00,0.00,0.00,4,S01
# DONE 1500 samples in 30.0s
