timestamp,ax,ay,az,gx,gy,gz,mx,my,mz,label,subject_id
0,-9.17458,1.09415,1.33596,0.9146,1.8902,-1.6463,0.00,0.00,0.00,1,S01
20,-9.17698,1.14203,1.33357,1.0366,1.6463,-1.5854,0.00,0.00,0.00,1,S01
40,-9.18655,1.14922,1.32160,0.6098,1.3415,-1.4634,0.00,0.00,0.00,1,S01
60,-9.18895,1.12049,1.29766,0.3659,1.4024,-1.5854,0.00,0.00,0.00,1,S01
80,-9.18176,1.10373,1.28569,0.3049,1.7073,-1.7683,0.00,0.00,0.00,1,S01
100,-9.16979,1.09415,1.30723,0.4268,1.8293,-1.8293,0.00,0.00,0.00,1,S01
120,-9.16261,1.08697,1.31202,0.6098,1.6463,-1.8902,0.00,0.00,0.00,1,S01
140,-9.16500,1.09894,1.28808,0.4878,1.5244,-1.9512,0.00,0.00,0.00,1,S01
160,-9.17937,1.09894,1.24259,0.2439,1.4634,-1.8902,0.00,0.00,0.00,1,S01
180,-9.19373,1.08218,1.26414,0.1829,1.5244,-1.8902,0.00,0.00,0.00,1,S01
200,-9.19852,1.07500,1.25696,0.2439,1.3415,-1.8293,0.00,0.00,0.00,1,S01
220,-9.21289,1.06303,1.24259,0.6098,1.2195,-1.8293,0.00,0.00,0.00,1,S01
240,-9.21289,1.05105,1.27372,0.9756,1.0366,-1.8902,0.00,0.00,0.00,1,S01
260,-9.18895,1.07739,1.28569,1.1585,0.7317,-1.9512,0.00,0.00,0.00,1,S01
280,-9.17937,1.13006,1.31681,1.0976,0.7317,-1.8293,0.00,0.00,0.00,1,S01
300,-9.19852,1.13485,1.28808,0.9146,0.7317,-1.7683,0.00,0.00,0.00,1,S01
320,-9.20092,1.09415,1.27132,0.7927,0.7927,-1.8293,0.00,0.00,0.00,1,S01
340,-9.19613,1.07978,1.26653,0.8537,0.8537,-2.0122,0.00,0.00,0.00,1,S01
360,-9.18655,1.09415,1.28569,0.9146,0.9756,-2.0732,0.00,0.00,0.00,1,S01
380,-9.18655,1.11330,1.28090,0.7927,0.9146,-1.9512,0.00,0.00,0.00,1,S01
400,-9.19134,1.10373,1.25696,0.6707,0.9146,-1.8293,0.00,0.00,0.00,1,S01
420,-9.19613,1.09415,1.24020,0.4268,1.0976,-1.8902,0.00,0.00,0.00,1,S01
440,-9.18655,1.09415,1.23301,0.1220,1.4634,-1.7683,0.00,0.00,0.00,1,S01
460,-9.19373,1.06303,1.23780,0.0000,1.5854,-1.5854,0.00,0.00,0.00,1,S01
480,-9.24162,1.08218,1.25217,0.4268,0.7927,-1.5854,0.00,0.00,0.00,1,S01
500,-9.22007,1.10373,1.21386,0.1829,0.3659,-1.7073,0.00,0.00,0.00,1,S01
520,-9.19852,1.10373,1.21147,-0.1829,0.4878,-1.9512,0.00,0.00,0.00,1,S01
540,-9.19613,1.05345,1.19231,-0.2439,0.6707,-2.0122,0.00,0.00,0.00,1,S01
560,-9.20571,1.01514,1.16119,0.0000,0.8537,-1.9512,0.00,0.00,0.00,1,S01
580,-9.19373,1.01275,1.16598,0.1220,0.9756,-1.8902,0.00,0.00,0.00,1,S01
600,-9.17219,1.02232,1.18752,0.3049,1.2195,-1.9512,0.00,0.00,0.00,1,S01
620,-9.18895,1.06063,1.21147,0.7317,1.4634,-2.0122,0.00,0.00,0.00,1,S01
640,-9.22725,1.05345,1.19231,1.0366,1.2805,-2.0122,0.00,0.00,0.00,1,S01
660,-9.19852,1.06542,1.18034,0.9146,0.8537,-2.0122,0.00,0.00,0.00,1,S01
680,-9.18416,1.07978,1.18274,0.6098,0.9756,-1.8902,0.00,0.00,0.00,1,S01
700,-9.21049,1.05824,1.18513,0.4268,1.1585,-1.7683,0.00,0.00,0.00,1,S01
720,-9.22725,1.06063,1.20189,0.6098,1.0976,-1.7073,0.00,0.00,0.00,1,S01
740,-9.21768,1.08218,1.19231,0.5488,0.7927,-1.7073,0.00,0.00,0.00,1,S01
760,-9.20571,1.09654,1.19710,0.0610,0.6098,-1.6463,0.00,0.00,0.00,1,S01
780,-9.19852,1.08218,1.16598,-0.4268,0.6098,-1.5244,0.00,0.00,0.00,1,S01
800,-9.21049,1.04148,1.18034,-0.6098,0.7927,-1.4634,0.00,0.00,0.00,1,S01
820,-9.20092,1.00796,1.18513,-0.4268,0.7927,-1.4634,0.00,0.00,0.00,1,S01
840,-9.18895,1.00317,1.18992,-0.1829,0.7927,-1.5244,0.00,0.00,0.00,1,S01
860,-9.20092,1.03908,1.18274,-0.0610,0.7927,-1.5244,0.00,0.00,0.00,1,S01
880,-9.22965,1.05824,1.18034,-0.1829,0.6098,-1.4024,0.00,0.00,0.00,1,S01
900,-9.23922,1.04387,1.17076,-0.3659,0.4878,-1.2805,0.00,0.00,0.00,1,S01
920,-9.22725,1.02951,1.17316,-0.4268,0.3659,-1.3415,0.00,0.00,0.00,1,S01
940,-9.22725,1.03669,1.17076,-0.4268,0.3049,-1.4634,0.00,0.00,0.00,1,S01
960,-9.22246,1.02711,1.16598,-0.5488,0.0000,-1.4634,0.00,0.00,0.00,1,S01
980,-9.22725,1.01035,1.18274,-0.5488,-0.3659,-1.4024,0.00,0.00,0.00,1,S01
1000,-9.23444,1.00556,1.19950,-0.3049,-0.4878,-1.4634,0.00,0.00,0.00,1,S01
1020,-9.21768,1.01275,1.21147,-0.1829,-0.5488,-1.5244,0.00,0.00,0.00,1,S01
1040,-9.20331,1.02711,1.18274,-0.2439,-0.5488,-1.5244,0.00,0.00,0.00,1,S01
1060,-9.21049,1.02711,1.20189,-0.2439,-0.4268,-1.4634,0.00,0.00,0.00,1,S01
1080,-9.21528,1.03430,1.21625,-0.2439,-0.4268,-1.4634,0.00,0.00,0.00,1,S01
1100,-9.21049,1.03669,1.19950,-0.3659,-0.4268,-1.4024,0.00,0.00,0.00,1,S01
1120,-9.21289,1.02232,1.18513,-0.7317,-0.6098,-1.4024,0.00,0.00,0.00,1,S01
1140,-9.21289,1.02232,1.18513,-0.7317,-0.6098,-1.4024,0.00,0.00,0.00,1,S01
1160,-9.21289,1.00556,1.21625,-0.6707,-0.7927,-1.4634,0.00,0.00,0.00,1,S01
1180,-9.22486,1.02232,1.22823,-0.5488,-0.9146,-1.4024,0.00,0.00,0.00,1,S01
1200,-9.23444,1.02232,1.21625,-0.6098,-1.0366,-1.2805,0.00,0.00,0.00,1,S01
1220,-9.21528,1.00796,1.24259,-0.7317,-1.1585,-1.2805,0.00,0.00,0.00,1,S01
1240,-9.20331,1.01275,1.25456,-0.6707,-1.2805,-1.2805,0.00,0.00,0.00,1,S01
1260,-9.20331,1.03669,1.23062,-0.4878,-1.0976,-1.2805,0.00,0.00,0.00,1,S01
1280,-9.22246,1.03430,1.23301,-0.5488,-0.9756,-1.2805,0.00,0.00,0.00,1,S01
1300,-9.21049,1.03430,1.25217,-0.7317,-1.3415,-1.3415,0.00,0.00,0.00,1,S01
1320,-9.20810,1.02472,1.23301,-0.7317,-1.5854,-1.3415,0.00,0.00,0.00,1,S01
1340,-9.21528,1.03669,1.21625,-0.7317,-1.5244,-1.3415,0.00,0.00,0.00,1,S01
1360,-9.20331,1.05345,1.22823,-0.9756,-1.4024,-1.2195,0.00,0.00,0.00,1,S01
1380,-9.20571,1.04627,1.26414,-1.2195,-1.2195,-1.1585,0.00,0.00,0.00,1,S01
1400,-9.22007,1.03908,1.26893,-1.3415,-1.2195,-1.0976,0.00,0.00,0.00,1,S01
1420,-9.21768,1.01754,1.26174,-1.4024,-1.2805,-1.0976,0.00,0.00,0.00,1,S01
1440,-9.20092,1.01514,1.28569,-1.4024,-1.2805,-1.0976,0.00,0.00,0.00,1,S01
1460,-9.19134,1.02711,1.30005,-1.3415,-1.2195,-1.0976,0.00,0.00,0.00,1,S01
1480,-9.20092,1.02232,1.30484,-1.0976,-1.0976,-1.0366,0.00,0.00,0.00,1,S01
1500,-9.20810,1.01275,1.30963,-0.9756,-1.0366,-1.1585,0.00,0.00,0.00,1,S01
1520,-9.18895,1.03430,1.30723,-0.9756,-1.0976,-1.2195,0.00,0.00,0.00,1,S01
1540,-9.18176,1.06303,1.30005,-1.1585,-0.9756,-1.2195,0.00,0.00,0.00,1,S01
1560,-9.18176,1.05345,1.30484,-1.2805,-0.8537,-1.0976,0.00,0.00,0.00,1,S01
1580,-9.19134,1.02232,1.32639,-1.0976,-0.9756,-1.0976,0.00,0.00,0.00,1,S01
1600,-9.19373,1.02232,1.33357,-0.9756,-1.2195,-1.2195,0.00,0.00,0.00,1,S01
1620,-9.18176,1.03430,1.32399,-0.9146,-1.3415,-1.2805,0.00,0.00,0.00,1,S01
1640,-9.18895,1.04866,1.36709,-0.8537,-1.4634,-1.0976,0.00,0.00,0.00,1,S01
1660,-9.18416,1.06063,1.35272,-0.8537,-1.3415,-1.0976,0.00,0.00,0.00,1,S01
1680,-9.17937,1.05824,1.34554,-0.9756,-1.0976,-1.1585,0.00,0.00,0.00,1,S01
1700,-9.19613,1.03908,1.33596,-1.0366,-0.9756,-1.1585,0.00,0.00,0.00,1,S01
1720,-9.18416,1.01993,1.34315,-0.9146,-1.0366,-1.1585,0.00,0.00,0.00,1,S01
1740,-9.18176,1.01993,1.35751,-0.6707,-1.0976,-1.1585,0.00,0.00,0.00,1,S01
1760,-9.17458,1.03669,1.36948,-0.4878,-1.0976,-1.2195,0.00,0.00,0.00,1,S01
1780,-9.16740,1.05824,1.38864,-0.3659,-0.9756,-1.2195,0.00,0.00,0.00,1,S01
1800,-9.17698,1.06781,1.36230,-0.3049,-0.9146,-1.2195,0.00,0.00,0.00,1,S01
1820,-9.19373,1.07739,1.33836,-0.3659,-0.7927,-1.1585,0.00,0.00,0.00,1,S01
1840,-9.19852,1.05345,1.36469,-0.4268,-0.7317,-1.1585,0.00,0.00,0.00,1,S01
1860,-9.17698,1.03190,1.40779,-0.3049,-0.8537,-1.2195,0.00,0.00,0.00,1,S01
1880,-9.16500,1.04387,1.39821,0.1220,-0.7927,-1.4024,0.00,0.00,0.00,1,S01
1900,-9.15303,1.05824,1.36948,0.4268,-0.6707,-1.4634,0.00,0.00,0.00,1,S01
1920,-9.16261,1.07260,1.38145,0.3049,-0.6098,-1.3415,0.00,0.00,0.00,1,S01
1940,-9.16979,1.07739,1.38145,0.0000,-0.4878,-1.2195,0.00,0.00,0.00,1,S01
1960,-9.19134,1.07260,1.38145,-0.1220,-0.3659,-1.1585,0.00,0.00,0.00,1,S01
1980,-9.20092,1.07260,1.39343,-0.0610,-0.4878,-1.1585,0.00,0.00,0.00,1,S01
2000,-9.16979,1.05105,1.39582,0.1220,-0.6707,-1.1585,0.00,0.00,0.00,1,S01
2020,-9.16022,1.05345,1.41737,0.1829,-0.6098,-1.1585,0.00,0.00,0.00,1,S01
2040,-9.15782,1.06303,1.39821,0.1829,-0.4268,-0.9756,0.00,0.00,0.00,1,S01
2060,-9.16979,1.05584,1.41497,0.1220,-0.0610,-0.9756,0.00,0.00,0.00,1,S01
2080,-9.17937,1.04627,1.42694,0.2439,0.0610,-1.0366,0.00,0.00,0.00,1,S01
2100,-9.17219,1.05824,1.40300,0.4268,0.0000,-1.0366,0.00,0.00,0.00,1,S01
2120,-9.16979,1.06781,1.41258,0.4268,0.0000,-0.9146,0.00,0.00,0.00,1,S01
2140,-9.16261,1.05105,1.43413,0.3659,0.0610,-0.8537,0.00,0.00,0.00,1,S01
2160,-9.16022,1.03430,1.42455,0.5488,0.4878,-0.9146,0.00,0.00,0.00,1,S01
2180,-9.16261,1.05345,1.42934,0.9146,0.9756,-1.0976,0.00,0.00,0.00,1,S01
2200,-9.17219,1.06781,1.42934,1.0366,1.1585,-1.1585,0.00,0.00,0.00,1,S01
2220,-9.18655,1.05824,1.38624,0.6707,1.3415,-1.2195,0.00,0.00,0.00,1,S01
2240,-9.18655,1.05824,1.38624,0.6707,1.3415,-1.2195,0.00,0.00,0.00,1,S01
2260,-9.18416,1.04387,1.37906,0.4878,1.5244,-1.3415,0.00,0.00,0.00,1,S01
2280,-9.16500,1.04627,1.39103,0.4878,1.7683,-1.4634,0.00,0.00,0.00,1,S01
2300,-9.15782,1.06303,1.40300,0.4268,2.0122,-1.5854,0.00,0.00,0.00,1,S01
2320,-9.17219,1.05105,1.40540,0.3659,2.1341,-1.5854,0.00,0.00,0.00,1,S01
2340,-9.18895,1.04148,1.37427,0.3049,2.1341,-1.5854,0.00,0.00,0.00,1,S01
2360,-9.17219,1.04387,1.36709,0.3659,1.9512,-1.5854,0.00,0.00,0.00,1,S01
2380,-9.18655,1.04866,1.37667,0.5488,1.8293,-1.5244,0.00,0.00,0.00,1,S01
2400,-9.21528,1.06781,1.36948,0.6707,1.5854,-1.3415,0.00,0.00,0.00,1,S01
2420,-9.20092,1.06303,1.33836,0.6098,1.2195,-1.3415,0.00,0.00,0.00,1,S01
2440,-9.17458,1.08218,1.34554,0.4268,1.1585,-1.3415,0.00,0.00,0.00,1,S01
2460,-9.17458,1.08936,1.35272,0.1829,1.4024,-1.2805,0.00,0.00,0.00,1,S01
2480,-9.19134,1.07978,1.36469,0.0000,1.7073,-1.1585,0.00,0.00,0.00,1,S01
2500,-9.21049,1.04387,1.37906,0.1220,1.7683,-1.1585,0.00,0.00,0.00,1,S01
2520,-9.18655,1.02951,1.37427,0.4268,1.4024,-1.4024,0.00,0.00,0.00,1,S01
2540,-9.16500,1.06781,1.34554,0.5488,1.2195,-1.5244,0.00,0.00,0.00,1,S01
2560,-9.18895,1.09176,1.32639,0.4878,1.4634,-1.4634,0.00,0.00,0.00,1,S01
2580,-9.21049,1.07739,1.31202,0.3049,1.2805,-1.3415,0.00,0.00,0.00,1,S01
2600,-9.21768,1.06063,1.30963,0.1829,0.9146,-1.2805,0.00,0.00,0.00,1,S01
2620,-9.20571,1.06063,1.28808,0.1220,0.7317,-1.2805,0.00,0.00,0.00,1,S01
2640,-9.19373,1.07021,1.29526,0.0610,0.5488,-1.2195,0.00,0.00,0.00,1,S01
2660,-9.18176,1.07500,1.32399,0.0000,0.3049,-1.1585,0.00,0.00,0.00,1,S01
2680,-9.18176,1.07739,1.33357,-0.1220,0.1829,-1.1585,0.00,0.00,0.00,1,S01
2700,-9.19134,1.07021,1.30963,-0.3659,0.1829,-1.1585,0.00,0.00,0.00,1,S01
2720,-9.17219,1.05584,1.28329,-0.4878,0.2439,-1.2195,0.00,0.00,0.00,1,S01
2740,-9.19373,1.03190,1.30723,-0.3659,0.4268,-1.2805,0.00,0.00,0.00,1,S01
2760,-9.18416,1.02951,1.32399,0.0000,0.4268,-1.2805,0.00,0.00,0.00,1,S01
2780,-9.17698,1.08936,1.28090,0.3659,0.6098,-1.2805,0.00,0.00,0.00,1,S01
2800,-9.17698,1.09176,1.28569,0.0610,0.6098,-1.2195,0.00,0.00,0.00,1,S01
2820,-9.18655,1.08457,1.29287,-0.1829,0.5488,-1.1585,0.00,0.00,0.00,1,S01
2840,-9.20092,1.07978,1.28808,-0.2439,0.4878,-1.2195,0.00,0.00,0.00,1,S01
2860,-9.19852,1.07978,1.31202,-0.1829,0.6098,-1.2195,0.00,0.00,0.00,1,S01
2880,-9.18655,1.09415,1.31921,-0.1220,0.6707,-1.2805,0.00,0.00,0.00,1,S01
2900,-9.16979,1.09894,1.30245,-0.1220,0.6707,-1.2805,0.00,0.00,0.00,1,S01
2920,-9.17219,1.10373,1.28090,-0.3049,0.8537,-1.2805,0.00,0.00,0.00,1,S01
2940,-9.18655,1.09894,1.30723,-0.6098,1.0976,-1.2195,0.00,0.00,0.00,1,S01
2960,-9.18895,1.08697,1.32639,-0.8537,1.0976,-1.1585,0.00,0.00,0.00,1,S01
2980,-9.18895,1.08218,1.32160,-0.7927,1.0366,-1.1585,0.00,0.00,0.00,1,S01
3000,-9.18416,1.08936,1.32878,-0.6098,0.8537,-1.2195,0.00,0.00,0.00,1,S01
3020,-9.18895,1.07978,1.33596,-0.4878,0.6098,-1.2195,0.00,0.00,0.00,1,S01
3040,-9.18176,1.05824,1.35272,-0.4268,0.3049,-1.1585,0.00,0.00,0.00,1,S01
3060,-9.15543,1.07978,1.32878,-0.4268,0.0610,-1.0976,0.00,0.00,0.00,1,S01
3080,-9.15543,1.09894,1.30245,-0.6098,0.1829,-1.0366,0.00,0.00,0.00,1,S01
3100,-9.18416,1.10612,1.31442,-0.7317,0.5488,-1.0366,0.00,0.00,0.00,1,S01
3120,-9.19373,1.10852,1.29526,-0.9756,0.5488,-1.0366,0.00,0.00,0.00,1,S01
3140,-9.19613,1.08697,1.31202,-1.2195,0.4268,-1.0976,0.00,0.00,0.00,1,S01
3160,-9.18895,1.08457,1.32160,-1.1585,0.3659,-1.2195,0.00,0.00,0.00,1,S01
3180,-9.20092,1.07500,1.33357,-0.9146,0.3049,-1.2805,0.00,0.00,0.00,1,S01
3200,-9.18655,1.06063,1.32399,-0.9146,-0.0610,-1.2805,0.00,0.00,0.00,1,S01
3220,-9.17458,1.05345,1.30963,-0.8537,-0.2439,-1.2195,0.00,0.00,0.00,1,S01
3240,-9.17937,1.05824,1.32639,-0.7317,-0.0610,-1.2195,0.00,0.00,0.00,1,S01
3260,-9.18176,1.08697,1.32399,-0.6707,-0.1829,-1.2195,0.00,0.00,0.00,1,S01
3280,-9.16979,1.10133,1.32160,-0.8537,-0.2439,-1.2195,0.00,0.00,0.00,1,S01
3300,-9.16261,1.10852,1.33357,-1.0976,-0.0610,-1.1585,0.00,0.00,0.00,1,S01
3320,-9.16740,1.09654,1.35512,-1.3415,0.3049,-1.0976,0.00,0.00,0.00,1,S01
3340,-9.17937,1.07260,1.35272,-1.5244,0.4268,-0.9756,0.00,0.00,0.00,1,S01
3360,-9.16979,1.06303,1.35033,-1.4634,0.5488,-0.9146,0.00,0.00,0.00,1,S01
3380,-9.16979,1.06303,1.35033,-1.4634,0.5488,-0.9146,0.00,0.00,0.00,1,S01
3400,-9.17698,1.06063,1.37427,-1.4024,0.6707,-0.9756,0.00,0.00,0.00,1,S01
3420,-9.17458,1.07260,1.37906,-1.2805,0.6098,-1.0366,0.00,0.00,0.00,1,S01
3440,-9.18416,1.06542,1.36709,-1.2805,0.6098,-1.0366,0.00,0.00,0.00,1,S01
3460,-9.19852,1.05105,1.36709,-1.0976,0.6098,-1.0976,0.00,0.00,0.00,1,S01
3480,-9.18655,1.06063,1.34075,-0.9146,0.5488,-1.1585,0.00,0.00,0.00,1,S01
3500,-9.17219,1.07260,1.33357,-0.7927,0.4268,-1.2195,0.00,0.00,0.00,1,S01
3520,-9.17219,1.07739,1.34315,-0.8537,0.3659,-1.2195,0.00,0.00,0.00,1,S01
3540,-9.17219,1.08457,1.34075,-0.8537,0.3659,-1.2195,0.00,0.00,0.00,1,S01
3560,-9.17219,1.08457,1.32639,-0.8537,0.4268,-1.2195,0.00,0.00,0.00,1,S01
3580,-9.17458,1.07500,1.32639,-0.9146,0.5488,-1.2805,0.00,0.00,0.00,1,S01
3600,-9.17937,1.06542,1.31921,-0.8537,0.6098,-1.2195,0.00,0.00,0.00,1,S01
3620,-9.17937,1.06781,1.32160,-0.6707,0.7317,-1.2195,0.00,0.00,0.00,1,S01
3640,-9.17458,1.07978,1.29287,-0.5488,0.7317,-1.2195,0.00,0.00,0.00,1,S01
3660,-9.18176,1.08697,1.26893,-0.6098,0.7927,-1.2805,0.00,0.00,0.00,1,S01
3680,-9.18176,1.08457,1.29287,-0.7317,0.9146,-1.2805,0.00,0.00,0.00,1,S01
3700,-9.18655,1.10373,1.31921,-0.7927,0.9146,-1.2805,0.00,0.00,0.00,1,S01
3720,-9.19852,1.10852,1.30723,-0.8537,0.8537,-1.2195,0.00,0.00,0.00,1,S01
3740,-9.21528,1.08936,1.30484,-0.7927,0.7927,-1.2195,0.00,0.00,0.00,1,S01
3760,-9.20092,1.05345,1.27611,-0.6707,0.5488,-1.2805,0.00,0.00,0.00,1,S01
3780,-9.17937,1.04866,1.30484,-0.4268,0.3659,-1.4634,0.00,0.00,0.00,1,S01
3800,-9.17937,1.07739,1.30484,-0.1220,0.4268,-1.5244,0.00,0.00,0.00,1,S01
3820,-9.19373,1.08697,1.25935,0.0610,0.4268,-1.5244,0.00,0.00,0.00,1,S01
3840,-9.19613,1.08697,1.26174,-0.1220,0.3049,-1.4634,0.00,0.00,0.00,1,S01
3860,-9.20331,1.07978,1.25217,-0.3049,0.4268,-1.4024,0.00,0.00,0.00,1,S01
3880,-9.22007,1.08936,1.25456,-0.3049,0.3659,-1.3415,0.00,0.00,0.00,1,S01
3900,-9.21049,1.08457,1.26893,-0.3659,0.0610,-1.2805,0.00,0.00,0.00,1,S01
3920,-9.17698,1.08218,1.28569,-0.3659,-0.2439,-1.2805,0.00,0.00,0.00,1,S01
3940,-9.17219,1.09415,1.28569,-0.4268,0.1829,-1.2805,0.00,0.00,0.00,1,S01
3960,-9.18416,1.08218,1.25935,-0.4878,0.2439,-1.2805,0.00,0.00,0.00,1,S01
3980,-9.19134,1.06781,1.26893,-0.3659,0.4268,-1.3415,0.00,0.00,0.00,1,S01
4000,-9.19373,1.09654,1.27611,-0.1829,0.6098,-1.4024,0.00,0.00,0.00,1,S01
4020,-9.20571,1.09894,1.26653,-0.1829,0.6098,-1.3415,0.00,0.00,0.00,1,S01
4040,-9.20571,1.06063,1.28090,-0.2439,0.4878,-1.4024,0.00,0.00,0.00,1,S01
4060,-9.18655,1.05824,1.27611,-0.0610,0.3659,-1.4634,0.00,0.00,0.00,1,S01
4080,-9.16979,1.08218,1.25696,-0.0610,0.4878,-1.4634,0.00,0.00,0.00,1,S01
4100,-9.17219,1.10133,1.27611,-0.1829,0.4878,-1.4024,0.00,0.00,0.00,1,S01
4120,-9.19613,1.11091,1.28808,-0.3049,0.4268,-1.3415,0.00,0.00,0.00,1,S01
4140,-9.20810,1.09176,1.28808,-0.4268,0.3659,-1.4024,0.00,0.00,0.00,1,S01
4160,-9.19852,1.07500,1.27372,-0.4268,0.3659,-1.4634,0.00,0.00,0.00,1,S01
4180,-9.17458,1.09176,1.27850,-0.3659,0.3049,-1.5244,0.00,0.00,0.00,1,S01
4200,-9.17219,1.10373,1.28090,-0.3659,0.2439,-1.4634,0.00,0.00,0.00,1,S01
4220,-9.18655,1.08457,1.30245,-0.3049,0.3049,-1.4024,0.00,0.00,0.00,1,S01
4240,-9.20571,1.07021,1.28329,-0.1829,0.2439,-1.3415,0.00,0.00,0.00,1,S01
4260,-9.18416,1.08218,1.27132,-0.2439,0.3049,-1.4024,0.00,0.00,0.00,1,S01
4280,-9.18416,1.10373,1.29287,-0.4878,0.3659,-1.4024,0.00,0.00,0.00,1,S01
4300,-9.19852,1.08936,1.28808,-0.5488,0.3049,-1.3415,0.00,0.00,0.00,1,S01
4320,-9.19613,1.05584,1.28329,-0.4268,0.1220,-1.4024,0.00,0.00,0.00,1,S01
4340,-9.19613,1.07260,1.28329,-0.2439,-0.0610,-1.4634,0.00,0.00,0.00,1,S01
4360,-9.19134,1.08697,1.28569,-0.4268,-0.1220,-1.3415,0.00,0.00,0.00,1,S01
4380,-9.19613,1.06781,1.29047,-0.6707,-0.1220,-1.2805,0.00,0.00,0.00,1,S01
4400,-9.19852,1.03430,1.31681,-0.5488,-0.1220,-1.3415,0.00,0.00,0.00,1,S01
4420,-9.18176,1.05345,1.29526,-0.1220,-0.1220,-1.4634,0.00,0.00,0.00,1,S01
4440,-9.19852,1.09415,1.27132,0.0610,0.0610,-1.4634,0.00,0.00,0.00,1,S01
4460,-9.20810,1.09894,1.28090,-0.3049,-0.2439,-1.3415,0.00,0.00,0.00,1,S01
4480,-9.20092,1.08697,1.30005,-0.5488,-0.4268,-1.2805,0.00,0.00,0.00,1,S01
4500,-9.19134,1.06781,1.29766,-0.6098,-0.3049,-1.3415,0.00,0.00,0.00,1,S01
4520,-9.19134,1.06063,1.29526,-0.5488,-0.3049,-1.4024,0.00,0.00,0.00,1,S01
4540,-9.19373,1.06063,1.30245,-0.5488,-0.3659,-1.3415,0.00,0.00,0.00,1,S01
4560,-9.17698,1.07978,1.31202,-0.6098,-0.3659,-1.3415,0.00,0.00,0.00,1,S01
4580,-9.17698,1.08697,1.29287,-0.7927,-0.3049,-1.2805,0.00,0.00,0.00,1,S01
4600,-9.18655,1.07500,1.30005,-0.9146,-0.1220,-1.3415,0.00,0.00,0.00,1,S01
4620,-9.19373,1.05105,1.32639,-0.9146,0.0000,-1.3415,0.00,0.00,0.00,1,S01
4640,-9.19134,1.04866,1.32399,-0.7317,-0.0610,-1.3415,0.00,0.00,0.00,1,S01
4660,-9.19373,1.07739,1.31921,-0.6098,-0.0610,-1.3415,0.00,0.00,0.00,1,S01
4680,-9.19373,1.07500,1.31202,-0.6098,-0.1829,-1.2805,0.00,0.00,0.00,1,S01
4700,-9.18895,1.06303,1.32399,-0.7317,-0.3049,-1.3415,0.00,0.00,0.00,1,S01
4720,-9.17698,1.05584,1.33118,-0.8537,-0.3659,-1.4024,0.00,0.00,0.00,1,S01
4740,-9.19613,1.05345,1.33357,-0.8537,-0.3659,-1.3415,0.00,0.00,0.00,1,S01
4760,-9.20092,1.04866,1.32160,-0.7927,-0.5488,-1.2805,0.00,0.00,0.00,1,S01
4780,-9.19373,1.04866,1.31921,-0.7927,-0.7927,-1.3415,0.00,0.00,0.00,1,S01
4800,-9.18655,1.05105,1.34554,-0.7927,-0.9146,-1.4024,0.00,0.00,0.00,1,S01
4820,-9.18655,1.05584,1.36709,-0.6707,-1.0366,-1.4024,0.00,0.00,0.00,1,S01
4840,-9.17698,1.07500,1.34794,-0.6098,-1.1585,-1.3415,0.00,0.00,0.00,1,S01
4860,-9.18895,1.07739,1.34315,-0.7317,-1.1585,-1.2805,0.00,0.00,0.00,1,S01
4880,-9.19134,1.05345,1.33596,-0.8537,-1.2195,-1.2195,0.00,0.00,0.00,1,S01
4900,-9.20571,1.03430,1.34554,-0.7927,-1.4024,-1.2805,0.00,0.00,0.00,1,S01
4920,-9.19134,1.05105,1.36948,-0.5488,-1.6463,-1.4024,0.00,0.00,0.00,1,S01
4940,-9.17219,1.07739,1.36948,-0.5488,-1.7683,-1.3415,0.00,0.00,0.00,1,S01
4960,-9.16500,1.08218,1.36469,-0.7317,-1.7073,-1.2195,0.00,0.00,0.00,1,S01
4980,-9.19852,1.06303,1.36469,-0.7927,-1.4634,-1.2195,0.00,0.00,0.00,1,S01
5000,-9.19613,1.05105,1.34794,-0.5488,-1.4024,-1.3415,0.00,0.00,0.00,1,S01
5020,-9.16261,1.06781,1.37906,-0.4878,-1.4634,-1.3415,0.00,0.00,0.00,1,S01
5040,-9.14824,1.09654,1.39343,-0.6098,-1.5854,-1.2805,0.00,0.00,0.00,1,S01
5060,-9.17219,1.08457,1.38624,-0.6707,-1.4634,-1.2195,0.00,0.00,0.00,1,S01
5080,-9.17458,1.06542,1.41737,-0.4878,-1.2805,-1.2805,0.00,0.00,0.00,1,S01
5100,-9.14106,1.10373,1.45089,-0.4878,-1.3415,-1.2805,0.00,0.00,0.00,1,S01
5120,-9.16500,1.11091,1.44849,-0.6707,-1.0976,-1.2805,0.00,0.00,0.00,1,S01
5140,-9.18176,1.08457,1.44131,-0.7317,-1.0976,-1.3415,0.00,0.00,0.00,1,S01
5160,-9.17219,1.08218,1.43652,-0.7317,-1.1585,-1.4024,0.00,0.00,0.00,1,S01
5180,-9.17219,1.08457,1.44131,-0.8537,-1.1585,-1.2195,0.00,0.00,0.00,1,S01
5200,-9.17458,1.06303,1.45567,-0.9756,-1.3415,-1.0976,0.00,0.00,0.00,1,S01
5220,-9.17219,1.06781,1.46525,-0.9146,-1.5244,-1.1585,0.00,0.00,0.00,1,S01
5240,-9.15064,1.08936,1.48441,-1.0366,-1.4634,-1.1585,0.00,0.00,0.00,1,S01
5260,-9.14585,1.07500,1.46525,-1.3415,-1.2195,-1.0976,0.00,0.00,0.00,1,S01
5280,-9.16261,1.04866,1.46286,-1.4634,-0.8537,-0.9756,0.00,0.00,0.00,1,S01
5300,-9.18416,1.02232,1.49159,-1.2805,-0.7317,-1.0366,0.00,0.00,0.00,1,S01
5320,-9.18176,1.01754,1.49638,-0.9756,-0.9756,-1.1585,0.00,0.00,0.00,1,S01
5340,-9.16740,1.02232,1.48441,-0.7317,-1.0976,-1.1585,0.00,0.00,0.00,1,S01
5360,-9.16740,1.02472,1.49638,-0.4878,-1.0976,-1.2195,0.00,0.00,0.00,1,S01
5380,-9.16022,1.02951,1.51314,-0.2439,-0.8537,-1.2805,0.00,0.00,0.00,1,S01
5400,-9.14106,1.05584,1.50595,-0.1829,-0.5488,-1.3415,0.00,0.00,0.00,1,S01
5420,-9.14106,1.06781,1.48680,-0.2439,-0.1829,-1.3415,0.00,0.00,0.00,1,S01
5440,-9.16740,1.06063,1.49877,-0.1829,0.0610,-1.4024,0.00,0.00,0.00,1,S01
5460,-9.17458,1.06542,1.50116,0.0000,-0.1220,-1.4634,0.00,0.00,0.00,1,S01
5480,-9.15782,1.09176,1.49877,-0.0610,-0.3049,-1.4024,0.00,0.00,0.00,1,S01
5500,-9.14585,1.08697,1.49159,-0.1829,-0.3659,-1.2805,0.00,0.00,0.00,1,S01
5520,-9.15782,1.07739,1.50595,-0.1220,-0.1220,-1.3415,0.00,0.00,0.00,1,S01
5540,-9.15782,1.07739,1.50595,-0.1220,-0.1220,-1.3415,0.00,0.00,0.00,1,S01
5560,-9.14346,1.06781,1.49638,-0.1829,-0.1220,-1.3415,0.00,0.00,0.00,1,S01
5580,-9.14585,1.06063,1.49159,-0.2439,0.0610,-1.2805,0.00,0.00,0.00,1,S01
5600,-9.15064,1.06542,1.51792,-0.1220,0.2439,-1.2195,0.00,0.00,0.00,1,S01
5620,-9.15064,1.07021,1.52271,0.0000,0.3049,-1.2195,0.00,0.00,0.00,1,S01
5640,-9.15064,1.07500,1.51074,0.0610,0.3049,-1.2195,0.00,0.00,0.00,1,S01
5660,-9.15782,1.07739,1.50835,0.0000,0.4268,-1.2195,0.00,0.00,0.00,1,S01
5680,-9.15303,1.04387,1.50356,0.0000,0.6707,-1.2805,0.00,0.00,0.00,1,S01
5700,-9.16022,1.02711,1.51074,0.3049,1.0366,-1.4024,0.00,0.00,0.00,1,S01
5720,-9.17698,1.03908,1.49877,0.6707,1.1585,-1.5244,0.00,0.00,0.00,1,S01
5740,-9.16500,1.05824,1.48441,0.8537,1.0366,-1.5244,0.00,0.00,0.00,1,S01
5760,-9.16979,1.05345,1.48441,0.7927,0.9756,-1.5244,0.00,0.00,0.00,1,S01
5780,-9.18416,1.04148,1.46525,0.9146,0.9146,-1.5244,0.00,0.00,0.00,1,S01
5800,-9.17219,1.05105,1.48201,1.2195,1.0366,-1.5854,0.00,0.00,0.00,1,S01
5820,-9.15303,1.04866,1.52750,1.4024,0.9146,-1.6463,0.00,0.00,0.00,1,S01
5840,-9.13867,1.04627,1.52271,1.5244,0.9756,-1.6463,0.00,0.00,0.00,1,S01
5860,-9.15303,1.07021,1.48680,1.6463,1.2195,-1.6463,0.00,0.00,0.00,1,S01
5880,-9.17219,1.09654,1.46765,1.5854,1.4024,-1.5854,0.00,0.00,0.00,1,S01
5900,-9.17937,1.10133,1.46286,1.3415,1.2805,-1.5854,0.00,0.00,0.00,1,S01
5920,-9.17698,1.09654,1.47483,1.0366,1.0976,-1.4634,0.00,0.00,0.00,1,S01
5940,-9.16261,1.08457,1.47483,0.7317,0.9756,-1.3415,0.00,0.00,0.00,1,S01
5960,-9.16500,1.08936,1.47483,0.4878,1.0366,-1.2805,0.00,0.00,0.00,1,S01
5980,-9.15543,1.08936,1.46525,0.3659,1.2195,-1.2805,0.00,0.00,0.00,1,S01
6000,-9.16261,1.07500,1.45328,0.1220,1.3415,-1.2805,0.00,0.00,0.00,1,S01
6020,-9.15543,1.06781,1.45567,-0.1220,1.4634,-1.2805,0.00,0.00,0.00,1,S01
6040,-9.15064,1.06542,1.45328,-0.2439,1.5854,-1.2195,0.00,0.00,0.00,1,S01
6060,-9.16979,1.05584,1.46765,-0.0610,1.5854,-1.2195,0.00,0.00,0.00,1,S01
6080,-9.17458,1.06303,1.45328,0.2439,1.4634,-1.2195,0.00,0.00,0.00,1,S01
6100,-9.16979,1.08218,1.44131,0.2439,1.4024,-1.2805,0.00,0.00,0.00,1,S01
6120,-9.16979,1.08457,1.43652,0.0610,1.3415,-1.2195,0.00,0.00,0.00,1,S01
6140,-9.17458,1.08218,1.43652,0.0000,1.2805,-1.2195,0.00,0.00,0.00,1,S01
6160,-9.17458,1.08218,1.43413,0.0610,1.0366,-1.2195,0.00,0.00,0.00,1,S01
6180,-9.14824,1.08697,1.41737,0.1220,0.9146,-1.1585,0.00,0.00,0.00,1,S01
6200,-9.15303,1.09654,1.42216,0.0610,0.8537,-1.1585,0.00,0.00,0.00,1,S01
6220,-9.15543,1.09894,1.42455,-0.0610,0.7927,-1.1585,0.00,0.00,0.00,1,S01
6240,-9.15543,1.09176,1.42455,-0.2439,0.9146,-1.1585,0.00,0.00,0.00,1,S01
6260,-9.17937,1.07500,1.41737,-0.3659,0.9756,-1.2195,0.00,0.00,0.00,1,S01
6280,-9.17458,1.05824,1.38864,-0.1829,0.6098,-1.2195,0.00,0.00,0.00,1,S01
6300,-9.18176,1.08218,1.41018,-0.1220,0.3659,-1.1585,0.00,0.00,0.00,1,S01
6320,-9.18655,1.08457,1.41258,-0.1829,0.1829,-1.0366,0.00,0.00,0.00,1,S01
6340,-9.17458,1.06781,1.42216,-0.1220,0.1220,-1.0976,0.00,0.00,0.00,1,S01
6360,-9.15064,1.07260,1.41018,-0.0610,0.3049,-1.2195,0.00,0.00,0.00,1,S01
6380,-9.14585,1.10852,1.39343,-0.0610,0.6707,-1.2195,0.00,0.00,0.00,1,S01
6400,-9.15543,1.12288,1.39343,-0.1829,0.9146,-1.1585,0.00,0.00,0.00,1,S01
6420,-9.18176,1.10612,1.38145,-0.3659,0.9146,-1.0976,0.00,0.00,0.00,1,S01
6440,-9.17698,1.09176,1.38385,-0.4268,0.8537,-1.1585,0.00,0.00,0.00,1,S01
6460,-9.17219,1.09176,1.40300,-0.3049,0.7317,-1.2195,0.00,0.00,0.00,1,S01
6480,-9.16979,1.08218,1.41737,-0.2439,0.7317,-1.0976,0.00,0.00,0.00,1,S01
6500,-9.17937,1.08457,1.40061,-0.1220,0.6707,-1.0366,0.00,0.00,0.00,1,S01
6520,-9.16261,1.07500,1.39343,0.0000,0.4878,-1.0976,0.00,0.00,0.00,1,S01
6540,-9.15064,1.09654,1.40061,0.0000,0.3659,-1.2195,0.00,0.00,0.00,1,S01
6560,-9.15782,1.11091,1.38864,0.0610,0.4878,-1.2195,0.00,0.00,0.00,1,S01
6580,-9.17698,1.10373,1.38864,-0.0610,0.5488,-1.1585,0.00,0.00,0.00,1,S01
6600,-9.18655,1.08936,1.37427,-0.2439,0.3659,-1.1585,0.00,0.00,0.00,1,S01
6620,-9.19373,1.08218,1.37427,-0.3659,0.3049,-1.1585,0.00,0.00,0.00,1,S01
6640,-9.19134,1.10373,1.40540,-0.4878,0.1829,-1.0976,0.00,0.00,0.00,1,S01
6660,-9.17937,1.10373,1.41737,-0.6707,0.0000,-1.0366,0.00,0.00,0.00,1,S01
6680,-9.16261,1.09654,1.42455,-0.7927,-0.1220,-0.9756,0.00,0.00,0.00,1,S01
6700,-9.16022,1.08936,1.41976,-0.8537,-0.1220,-1.0976,0.00,0.00,0.00,1,S01
6720,-9.15303,1.09176,1.41258,-0.9756,-0.0610,-1.0976,0.00,0.00,0.00,1,S01
6740,-9.15782,1.08697,1.39343,-0.9146,0.0610,-1.0366,0.00,0.00,0.00,1,S01
6760,-9.16500,1.07978,1.41018,-0.7927,0.1220,-1.0366,0.00,0.00,0.00,1,S01
6780,-9.18416,1.07978,1.41737,-0.4878,0.0610,-1.0976,0.00,0.00,0.00,1,S01
6800,-9.17937,1.09415,1.42934,-0.3659,-0.1220,-1.2195,0.00,0.00,0.00,1,S01
6820,-9.16500,1.09894,1.43652,-0.5488,-0.4878,-1.1585,0.00,0.00,0.00,1,S01
6840,-9.15782,1.09654,1.43892,-0.6707,-0.5488,-1.0366,0.00,0.00,0.00,1,S01
6860,-9.15782,1.08457,1.42455,-0.6707,-0.4878,-0.9756,0.00,0.00,0.00,1,S01
6880,-9.16500,1.09415,1.43892,-0.6707,-0.4878,-1.0366,0.00,0.00,0.00,1,S01
6900,-9.15782,1.10852,1.44131,-0.7317,-0.6707,-1.0976,0.00,0.00,0.00,1,S01
6920,-9.15782,1.11091,1.43892,-0.7317,-0.7317,-1.2195,0.00,0.00,0.00,1,S01
6940,-9.15782,1.10852,1.45089,-0.7317,-0.6098,-1.2805,0.00,0.00,0.00,1,S01
6960,-9.13388,1.11330,1.44610,-0.6707,-0.4878,-1.2195,0.00,0.00,0.00,1,S01
6980,-9.12670,1.12049,1.42934,-0.7317,-0.4268,-1.0976,0.00,0.00,0.00,1,S01
7000,-9.13148,1.12288,1.43173,-0.8537,-0.2439,-1.0976,0.00,0.00,0.00,1,S01
7020,-9.15303,1.12527,1.44849,-0.9146,-0.1220,-1.2195,0.00,0.00,0.00,1,S01
7040,-9.15543,1.12049,1.44849,-0.9756,0.0000,-1.2805,0.00,0.00,0.00,1,S01
7060,-9.14346,1.11091,1.45567,-0.9146,0.1220,-1.2195,0.00,0.00,0.00,1,S01
7080,-9.14585,1.09654,1.47004,-0.9146,0.1829,-1.0976,0.00,0.00,0.00,1,S01
7100,-9.14585,1.10852,1.46046,-0.9146,0.1829,-1.0976,0.00,0.00,0.00,1,S01
7120,-9.14585,1.11091,1.45089,-1.0366,0.1220,-1.0976,0.00,0.00,0.00,1,S01
7140,-9.14824,1.10852,1.46286,-1.0976,0.0610,-1.0976,0.00,0.00,0.00,1,S01
7160,-9.15303,1.09176,1.48441,-1.0976,0.0610,-1.0976,0.00,0.00,0.00,1,S01
7180,-9.17937,1.09415,1.47243,-0.9146,0.0610,-1.1585,0.00,0.00,0.00,1,S01
7200,-9.16022,1.10612,1.49159,-0.6707,-0.1220,-1.2195,0.00,0.00,0.00,1,S01
7220,-9.13388,1.10373,1.50595,-0.5488,-0.3659,-1.2805,0.00,0.00,0.00,1,S01
7240,-9.13627,1.11330,1.49877,-0.2439,-0.2439,-1.4024,0.00,0.00,0.00,1,S01
7260,-9.15064,1.11809,1.47962,0.1220,0.0610,-1.5244,0.00,0.00,0.00,1,S01
7280,-9.14824,1.13725,1.47962,0.0000,0.0000,-1.5244,0.00,0.00,0.00,1,S01
7300,-9.14346,1.15161,1.48919,-0.3049,-0.0610,-1.4024,0.00,0.00,0.00,1,S01
7320,-9.15064,1.14443,1.48441,-0.4878,0.0610,-1.2195,0.00,0.00,0.00,1,S01
7340,-9.15543,1.14443,1.48441,-0.6098,0.1829,-1.1585,0.00,0.00,0.00,1,S01
7360,-9.14824,1.12767,1.49877,-0.7927,0.2439,-1.0366,0.00,0.00,0.00,1,S01
7380,-9.14585,1.12288,1.51792,-1.0976,0.2439,-0.9756,0.00,0.00,0.00,1,S01
7400,-9.15782,1.12527,1.48919,-1.3415,0.2439,-0.9756,0.00,0.00,0.00,1,S01
7420,-9.15064,1.10133,1.46286,-1.4024,0.3659,-1.0976,0.00,0.00,0.00,1,S01
7440,-9.15064,1.03669,1.46046,-0.4878,0.5488,-1.4634,0.00,0.00,0.00,1,S01
7460,-9.15064,1.06781,1.45328,-0.0610,0.5488,-1.5854,0.00,0.00,0.00,1,S01
7480,-9.15543,1.09894,1.44849,0.0000,0.3049,-1.5244,0.00,0.00,0.00,1,S01
7500,-9.14585,1.10612,1.45807,-0.1829,0.1220,-1.4024,0.00,0.00,0.00,1,S01
7520,-9.13627,1.11809,1.46525,-0.2439,0.1829,-1.4024,0.00,0.00,0.00,1,S01
7540,-9.14585,1.12288,1.47004,-0.4878,0.3659,-1.3415,0.00,0.00,0.00,1,S01
7560,-9.15543,1.11091,1.47962,-0.7317,0.3049,-1.2195,0.00,0.00,0.00,1,S01
7580,-9.16261,1.09894,1.47722,-0.7927,0.1829,-1.2805,0.00,0.00,0.00,1,S01
7600,-9.16500,1.09654,1.47962,-0.7317,0.1829,-1.3415,0.00,0.00,0.00,1,S01
7620,-9.16022,1.08697,1.47004,-0.7317,0.1829,-1.3415,0.00,0.00,0.00,1,S01
7640,-9.16740,1.07739,1.47243,-0.6098,0.1220,-1.3415,0.00,0.00,0.00,1,S01
7660,-9.15543,1.07978,1.47962,-0.4268,-0.0610,-1.4024,0.00,0.00,0.00,1,S01
7680,-9.14346,1.09415,1.44849,-0.3659,-0.1220,-1.4634,0.00,0.00,0.00,1,S01
7700,-9.14346,1.11809,1.44370,-0.3659,0.0000,-1.5244,0.00,0.00,0.00,1,S01
7720,-9.15782,1.12288,1.45807,-0.4878,0.0610,-1.4634,0.00,0.00,0.00,1,S01
7740,-9.16979,1.09654,1.47483,-0.4268,-0.1220,-1.4634,0.00,0.00,0.00,1,S01
7760,-9.16979,1.09654,1.47483,-0.4268,-0.1220,-1.4634,0.00,0.00,0.00,1,S01
7780,-9.15064,1.10133,1.47004,-0.4268,-0.1220,-1.4634,0.00,0.00,0.00,1,S01
7800,-9.14106,1.11330,1.47243,-0.6098,0.0610,-1.4024,0.00,0.00,0.00,1,S01
7820,-9.14106,1.10612,1.50116,-0.6098,0.1829,-1.3415,0.00,0.00,0.00,1,S01
7840,-9.15782,1.10612,1.51074,-0.6098,0.1829,-1.3415,0.00,0.00,0.00,1,S01
7860,-9.16979,1.12288,1.45089,-0.6707,0.1220,-1.2195,0.00,0.00,0.00,1,S01
7880,-9.16979,1.12767,1.47004,-0.8537,0.1829,-1.2195,0.00,0.00,0.00,1,S01
7900,-9.15303,1.09176,1.51074,-0.9756,-0.0610,-1.3415,0.00,0.00,0.00,1,S01
7920,-9.15064,1.07739,1.49159,-0.6707,-0.1829,-1.4634,0.00,0.00,0.00,1,S01
7940,-9.16979,1.07978,1.46765,-0.3049,0.0000,-1.5244,0.00,0.00,0.00,1,S01
7960,-9.16740,1.08218,1.47243,-0.3659,-0.2439,-1.4634,0.00,0.00,0.00,1,S01
7980,-9.15064,1.08936,1.47004,-0.5488,-0.5488,-1.4024,0.00,0.00,0.00,1,S01
8000,-9.15303,1.08936,1.47004,-0.6707,-0.3659,-1.3415,0.00,0.00,0.00,1,S01
8020,-9.15543,1.09415,1.47243,-0.7317,-0.2439,-1.4024,0.00,0.00,0.00,1,S01
8040,-9.16500,1.09894,1.49877,-0.7927,-0.2439,-1.3415,0.00,0.00,0.00,1,S01
8060,-9.15064,1.08457,1.50116,-0.9146,-0.4268,-1.2805,0.00,0.00,0.00,1,S01
8080,-9.16022,1.07978,1.48680,-0.9146,-0.4268,-1.3415,0.00,0.00,0.00,1,S01
8100,-9.16261,1.08218,1.47722,-0.8537,-0.4268,-1.4024,0.00,0.00,0.00,1,S01
8120,-9.16261,1.09176,1.50116,-0.8537,-0.3659,-1.4024,0.00,0.00,0.00,1,S01
8140,-9.16022,1.07021,1.52511,-0.7927,-0.3659,-1.4024,0.00,0.00,0.00,1,S01
8160,-9.15543,1.08218,1.49877,-0.6707,-0.3049,-1.4024,0.00,0.00,0.00,1,S01
8180,-9.15782,1.08697,1.47243,-0.6707,-0.1829,-1.4024,0.00,0.00,0.00,1,S01
8200,-9.15782,1.08457,1.48680,-0.7927,-0.1220,-1.3415,0.00,0.00,0.00,1,S01
8220,-9.15303,1.07260,1.49638,-0.8537,-0.1829,-1.2805,0.00,0.00,0.00,1,S01
8240,-9.16261,1.07500,1.48919,-0.7317,-0.2439,-1.2805,0.00,0.00,0.00,1,S01
8260,-9.15782,1.08218,1.49638,-0.5488,-0.4268,-1.3415,0.00,0.00,0.00,1,S01
8280,-9.15064,1.08218,1.49638,-0.6098,-0.5488,-1.2805,0.00,0.00,0.00,1,S01
8300,-9.14585,1.07978,1.50595,-0.7317,-0.4878,-1.2195,0.00,0.00,0.00,1,S01
8320,-9.15782,1.06781,1.50595,-0.6707,-0.4878,-1.2805,0.00,0.00,0.00,1,S01
8340,-9.15303,1.07739,1.50835,-0.4878,-0.4878,-1.3415,0.00,0.00,0.00,1,S01
8360,-9.14585,1.09176,1.51314,-0.5488,-0.4878,-1.3415,0.00,0.00,0.00,1,S01
8380,-9.14585,1.08936,1.50835,-0.7317,-0.4268,-1.2195,0.00,0.00,0.00,1,S01
8400,-9.16022,1.07260,1.51553,-0.7317,-0.4268,-1.2195,0.00,0.00,0.00,1,S01
8420,-9.16500,1.06303,1.52511,-0.4878,-0.5488,-1.3415,0.00,0.00,0.00,1,S01
8440,-9.15782,1.08697,1.52750,-0.3659,-0.6098,-1.3415,0.00,0.00,0.00,1,S01
8460,-9.14585,1.12288,1.53947,-0.5488,-0.5488,-1.2805,0.00,0.00,0.00,1,S01
8480,-9.14824,1.11570,1.52511,-0.7927,-0.3659,-1.2805,0.00,0.00,0.00,1,S01
8500,-9.16740,1.07978,1.54665,-0.8537,-0.1829,-1.3415,0.00,0.00,0.00,1,S01
8520,-9.16261,1.06063,1.54426,-0.7317,-0.3049,-1.4024,0.00,0.00,0.00,1,S01
8540,-9.15303,1.07021,1.54187,-0.6098,-0.4878,-1.3415,0.00,0.00,0.00,1,S01
8560,-9.14824,1.08697,1.55144,-0.4878,-0.5488,-1.2805,0.00,0.00,0.00,1,S01
8580,-9.12430,1.08697,1.55144,-0.4268,-0.5488,-1.2195,0.00,0.00,0.00,1,S01
8600,-9.16022,1.10373,1.54665,-0.5488,-0.1829,-1.2195,0.00,0.00,0.00,1,S01
8620,-9.16500,1.09894,1.55623,-0.7317,-0.1829,-1.1585,0.00,0.00,0.00,1,S01
8640,-9.14824,1.06063,1.57299,-0.7317,-0.3659,-1.2195,0.00,0.00,0.00,1,S01
8660,-9.14106,1.04627,1.58736,-0.2439,-0.4268,-1.4024,0.00,0.00,0.00,1,S01
8680,-9.14106,1.07260,1.58017,0.3049,-0.3659,-1.5244,0.00,0.00,0.00,1,S01
8700,-9.12909,1.10373,1.58496,0.2439,-0.4878,-1.4634,0.00,0.00,0.00,1,S01
8720,-9.12430,1.10852,1.56102,-0.1220,-0.4268,-1.3415,0.00,0.00,0.00,1,S01
8740,-9.14585,1.09415,1.54665,-0.3659,-0.1220,-1.2805,0.00,0.00,0.00,1,S01
8760,-9.16022,1.07978,1.54426,-0.3049,-0.0610,-1.2805,0.00,0.00,0.00,1,S01
8780,-9.14346,1.10373,1.58257,-0.1829,-0.2439,-1.2805,0.00,0.00,0.00,1,S01
8800,-9.12191,1.12288,1.59214,-0.4268,-0.4268,-1.2195,0.00,0.00,0.00,1,S01
8820,-9.12430,1.09894,1.58496,-0.6098,-0.3049,-1.2195,0.00,0.00,0.00,1,S01
8840,-9.14346,1.04627,1.58736,-0.4268,0.2439,-1.3415,0.00,0.00,0.00,1,S01
8860,-9.13867,1.06542,1.60651,-0.2439,0.1829,-1.2805,0.00,0.00,0.00,1,S01
8880,-9.13867,1.06542,1.60651,-0.2439,0.1829,-1.2805,0.00,0.00,0.00,1,S01
8900,-9.13388,1.09654,1.60412,-0.1829,0.0000,-1.2195,0.00,0.00,0.00,1,S01
8920,-9.13867,1.11330,1.58975,-0.1829,0.0610,-1.2805,0.00,0.00,0.00,1,S01
8940,-9.13388,1.08936,1.58257,-0.1829,0.2439,-1.4024,0.00,0.00,0.00,1,S01
8960,-9.13148,1.06542,1.58017,-0.1220,0.4268,-1.4024,0.00,0.00,0.00,1,S01
8980,-9.12670,1.06781,1.57778,-0.0610,0.4268,-1.3415,0.00,0.00,0.00,1,S01
9000,-9.13388,1.08697,1.58257,-0.0610,0.3049,-1.2805,0.00,0.00,0.00,1,S01
9020,-9.12670,1.10133,1.59933,-0.1220,0.2439,-1.3415,0.00,0.00,0.00,1,S01
9040,-9.12670,1.10852,1.59214,-0.1829,0.4268,-1.4024,0.00,0.00,0.00,1,S01
9060,-9.13148,1.10373,1.58017,-0.2439,0.7317,-1.4024,0.00,0.00,0.00,1,S01
9080,-9.13867,1.09894,1.58736,-0.2439,0.9146,-1.3415,0.00,0.00,0.00,1,S01
9100,-9.14106,1.08936,1.58496,-0.3049,0.8537,-1.2195,0.00,0.00,0.00,1,S01
9120,-9.14346,1.05824,1.56341,-0.1829,0.7927,-1.2195,0.00,0.00,0.00,1,S01
9140,-9.15303,1.05105,1.54665,0.1829,0.7927,-1.3415,0.00,0.00,0.00,1,S01
9160,-9.15543,1.07978,1.56820,0.4268,0.7927,-1.2805,0.00,0.00,0.00,1,S01
9180,-9.14585,1.09654,1.58736,0.3659,0.6707,-1.0976,0.00,0.00,0.00,1,S01
9200,-9.13148,1.10133,1.59693,0.3659,0.6098,-1.0366,0.00,0.00,0.00,1,S01
9220,-9.13867,1.11330,1.54426,0.2439,0.7927,-1.1585,0.00,0.00,0.00,1,S01
9240,-9.14346,1.10612,1.52271,0.1220,1.2805,-1.2805,0.00,0.00,0.00,1,S01
9260,-9.14106,1.08936,1.54426,0.0000,1.7073,-1.3415,0.00,0.00,0.00,1,S01
9280,-9.14585,1.08218,1.53708,-0.0610,1.8293,-1.4024,0.00,0.00,0.00,1,S01
9300,-9.15782,1.07978,1.54426,-0.0610,1.8293,-1.4634,0.00,0.00,0.00,1,S01
9320,-9.16979,1.06542,1.53468,0.0610,1.7683,-1.4634,0.00,0.00,0.00,1,S01
9340,-9.16022,1.06303,1.54426,0.1829,1.5854,-1.4634,0.00,0.00,0.00,1,S01
9360,-9.14824,1.07978,1.54187,0.1220,1.4024,-1.4024,0.00,0.00,0.00,1,S01
9380,-9.14346,1.07021,1.52271,0.1829,1.2805,-1.3415,0.00,0.00,0.00,1,S01
9400,-9.13388,1.07260,1.53468,0.3049,1.2195,-1.4024,0.00,0.00,0.00,1,S01
9420,-9.14824,1.10133,1.54187,0.3659,1.0366,-1.4024,0.00,0.00,0.00,1,S01
9440,-9.16022,1.08936,1.50835,0.3049,0.9146,-1.3415,0.00,0.00,0.00,1,S01
9460,-9.15543,1.06063,1.52989,0.4268,0.9146,-1.4024,0.00,0.00,0.00,1,S01
9480,-9.14346,1.04148,1.58017,0.7317,0.6707,-1.5244,0.00,0.00,0.00,1,S01
9500,-9.11951,1.07500,1.55384,0.9756,0.3049,-1.5854,0.00,0.00,0.00,1,S01
9520,-9.12430,1.12049,1.52989,0.9146,0.4878,-1.5244,0.00,0.00,0.00,1,S01
9540,-9.13388,1.13246,1.51792,0.6707,0.6707,-1.5244,0.00,0.00,0.00,1,S01
9560,-9.14346,1.10852,1.50116,0.4268,0.7927,-1.5244,0.00,0.00,0.00,1,S01
9580,-9.15543,1.10373,1.51314,0.1829,1.0366,-1.4634,0.00,0.00,0.00,1,S01
9600,-9.16500,1.13485,1.51553,-0.0610,1.0976,-1.3415,0.00,0.00,0.00,1,S01
9620,-9.14585,1.15401,1.51074,-0.4268,0.9756,-1.2195,0.00,0.00,0.00,1,S01
9640,-9.15064,1.11091,1.50116,-0.7317,1.1585,-1.2195,0.00,0.00,0.00,1,S01
9660,-9.14585,1.07739,1.49398,-0.7317,1.4024,-1.3415,0.00,0.00,0.00,1,S01
9680,-9.13148,1.08697,1.49638,-0.6707,1.7683,-1.3415,0.00,0.00,0.00,1,S01
9700,-9.13627,1.09654,1.50595,-0.7927,1.8902,-1.2195,0.00,0.00,0.00,1,S01
9720,-9.16022,1.07260,1.52511,-0.7927,1.7073,-1.1585,0.00,0.00,0.00,1,S01
9740,-9.17937,1.05345,1.51314,-0.4878,1.6463,-1.2195,0.00,0.00,0.00,1,S01
9760,-9.14346,1.09176,1.48680,-0.3049,1.5854,-1.3415,0.00,0.00,0.00,1,S01
9780,-9.14585,1.08936,1.48680,-0.4878,1.6463,-1.2195,0.00,0.00,0.00,1,S01
9800,-9.17219,1.07260,1.49398,-0.4878,1.7073,-1.2805,0.00,0.00,0.00,1,S01
9820,-9.17458,1.06781,1.47243,-0.1829,1.7073,-1.4024,0.00,0.00,0.00,1,S01
9840,-9.16740,1.09176,1.47243,-0.0610,1.6463,-1.4024,0.00,0.00,0.00,1,S01
9860,-9.15543,1.11330,1.45567,-0.3049,1.4634,-1.2195,0.00,0.00,0.00,1,S01
9880,-9.16022,1.10133,1.45807,-0.4878,1.5244,-1.1585,0.00,0.00,0.00,1,S01
9900,-9.17937,1.08218,1.44610,-0.4268,1.5854,-1.2195,0.00,0.00,0.00,1,S01
9920,-9.16740,1.07260,1.42934,-0.2439,1.5854,-1.3415,0.00,0.00,0.00,1,S01
9940,-9.16500,1.09176,1.42934,-0.1829,1.5854,-1.4024,0.00,0.00,0.00,1,S01
9960,-9.16500,1.09176,1.42934,-0.1829,1.5854,-1.4024,0.00,0.00,0.00,1,S01
9980,-9.17937,1.09176,1.43413,-0.1220,1.5244,-1.3415,0.00,0.00,0.00,1,S01
10000,-9.18895,1.08936,1.40540,-0.0610,1.3415,-1.4024,0.00,0.00,0.00,1,S01
10020,-9.17458,1.09176,1.39821,-0.1829,1.2195,-1.4024,0.00,0.00,0.00,1,S01
10040,-9.16022,1.10373,1.40779,-0.3049,1.1585,-1.3415,0.00,0.00,0.00,1,S01
10060,-9.16022,1.10373,1.42216,-0.3659,1.1585,-1.3415,0.00,0.00,0.00,1,S01
10080,-9.16261,1.09654,1.42455,-0.3659,1.0976,-1.3415,0.00,0.00,0.00,1,S01
10100,-9.16261,1.09415,1.42694,-0.3659,0.9756,-1.3415,0.00,0.00,0.00,1,S01
10120,-9.14824,1.09176,1.43413,-0.3659,0.8537,-1.3415,0.00,0.00,0.00,1,S01
10140,-9.15543,1.09654,1.44131,-0.3659,0.8537,-1.3415,0.00,0.00,0.00,1,S01
10160,-9.16261,1.10133,1.41258,-0.3659,0.8537,-1.2805,0.00,0.00,0.00,1,S01
10180,-9.15543,1.09654,1.41737,-0.3049,0.7317,-1.3415,0.00,0.00,0.00,1,S01
10200,-9.15543,1.09894,1.41976,-0.3659,0.6098,-1.3415,0.00,0.00,0.00,1,S01
10220,-9.17937,1.09415,1.40540,-0.4268,0.6098,-1.2805,0.00,0.00,0.00,1,S01
10240,-9.16979,1.09415,1.40061,-0.4878,0.6098,-1.2805,0.00,0.00,0.00,1,S01
10260,-9.15782,1.08218,1.41018,-0.4878,0.3659,-1.4024,0.00,0.00,0.00,1,S01
10280,-9.14824,1.11330,1.42455,-0.2439,0.5488,-1.5244,0.00,0.00,0.00,1,S01
10300,-9.16740,1.11091,1.39103,-0.1220,0.6707,-1.5244,0.00,0.00,0.00,1,S01
10320,-9.16740,1.08936,1.35991,-0.1829,0.4878,-1.4634,0.00,0.00,0.00,1,S01
10340,-9.16979,1.08697,1.38624,-0.3049,0.4878,-1.4024,0.00,0.00,0.00,1,S01
10360,-9.18655,1.09894,1.40540,-0.3659,0.3659,-1.3415,0.00,0.00,0.00,1,S01
10380,-9.17219,1.10852,1.40061,-0.4268,0.0610,-1.2195,0.00,0.00,0.00,1,S01
10400,-9.15782,1.11091,1.39103,-0.5488,0.0610,-1.2805,0.00,0.00,0.00,1,S01
10420,-9.14824,1.09894,1.37667,-0.7927,0.3659,-1.2805,0.00,0.00,0.00,1,S01
10440,-9.17458,1.07978,1.36709,-0.8537,0.6707,-1.2805,0.00,0.00,0.00,1,S01
10460,-9.17219,1.07500,1.37906,-0.7927,0.6098,-1.2805,0.00,0.00,0.00,1,S01
10480,-9.17698,1.07260,1.37906,-0.7927,0.3659,-1.2195,0.00,0.00,0.00,1,S01
10500,-9.17458,1.06542,1.37906,-0.7927,0.3659,-1.2805,0.00,0.00,0.00,1,S01
10520,-9.18655,1.08457,1.38624,-0.6098,0.4878,-1.2805,0.00,0.00,0.00,1,S01
10540,-9.16979,1.07021,1.38624,-0.5488,0.4268,-1.2805,0.00,0.00,0.00,1,S01
10560,-9.15064,1.08218,1.37427,-0.6098,0.3659,-1.2805,0.00,0.00,0.00,1,S01
10580,-9.15543,1.08457,1.38864,-0.6707,0.4268,-1.2805,0.00,0.00,0.00,1,S01
10600,-9.16500,1.07739,1.39103,-0.6098,0.4268,-1.2805,0.00,0.00,0.00,1,S01
10620,-9.17937,1.07260,1.39582,-0.5488,0.3659,-1.3415,0.00,0.00,0.00,1,S01
10640,-9.17937,1.07500,1.37667,-0.4268,0.1829,-1.3415,0.00,0.00,0.00,1,S01
10660,-9.16261,1.08936,1.38624,-0.3659,0.2439,-1.3415,0.00,0.00,0.00,1,S01
10680,-9.16740,1.10133,1.37667,-0.4878,0.3659,-1.3415,0.00,0.00,0.00,1,S01
10700,-9.16979,1.08457,1.37667,-0.6098,0.4878,-1.3415,0.00,0.00,0.00,1,S01
10720,-9.18655,1.07739,1.37188,-0.4268,0.4878,-1.3415,0.00,0.00,0.00,1,S01
10740,-9.18655,1.09654,1.36948,-0.3049,0.3049,-1.3415,0.00,0.00,0.00,1,S01
10760,-9.17698,1.11091,1.37427,-0.4268,0.1829,-1.2805,0.00,0.00,0.00,1,S01
10780,-9.17458,1.10133,1.37188,-0.4268,0.2439,-1.3415,0.00,0.00,0.00,1,S01
10800,-9.18176,1.09176,1.37427,-0.4268,0.3659,-1.3415,0.00,0.00,0.00,1,S01
10820,-9.18176,1.10373,1.37906,-0.4268,0.3049,-1.3415,0.00,0.00,0.00,1,S01
10840,-9.18416,1.10612,1.38385,-0.6098,0.1220,-1.2195,0.00,0.00,0.00,1,S01
10860,-9.18416,1.08936,1.39343,-0.6707,0.0610,-1.2195,0.00,0.00,0.00,1,S01
10880,-9.16979,1.06303,1.38385,-0.5488,0.1220,-1.2195,0.00,0.00,0.00,1,S01
10900,-9.16740,1.10852,1.38624,-0.2439,0.2439,-1.3415,0.00,0.00,0.00,1,S01
10920,-9.16740,1.10612,1.37427,-0.4268,0.1220,-1.2805,0.00,0.00,0.00,1,S01
10940,-9.16740,1.11091,1.39821,-0.4878,0.0000,-1.2805,0.00,0.00,0.00,1,S01
10960,-9.17458,1.10373,1.38864,-0.5488,0.0000,-1.2195,0.00,0.00,0.00,1,S01
10980,-9.18655,1.09654,1.38385,-0.6098,0.2439,-1.2195,0.00,0.00,0.00,1,S01
11000,-9.17219,1.07978,1.38864,-0.6098,0.2439,-1.2805,0.00,0.00,0.00,1,S01
11020,-9.17937,1.06063,1.41258,-0.3659,0.0000,-1.3415,0.00,0.00,0.00,1,S01
11040,-9.16740,1.09894,1.40061,-0.1829,0.0610,-1.4024,0.00,0.00,0.00,1,S01
11060,-9.15543,1.08457,1.39343,-0.4268,-0.1829,-1.3415,0.00,0.00,0.00,1,S01
11080,-9.15543,1.08457,1.39343,-0.4268,-0.1829,-1.3415,0.00,0.00,0.00,1,S01
11100,-9.16500,1.08697,1.38864,-0.4878,0.0000,-1.3415,0.00,0.00,0.00,1,S01
11120,-9.18176,1.10373,1.40061,-0.3659,0.2439,-1.2805,0.00,0.00,0.00,1,S01
11140,-9.19134,1.12527,1.40540,-0.5488,0.0000,-1.1585,0.00,0.00,0.00,1,S01
11160,-9.16022,1.12288,1.41018,-0.7927,-0.3659,-1.0976,0.00,0.00,0.00,1,S01
11180,-9.14106,1.09176,1.42455,-0.9756,-0.2439,-1.2195,0.00,0.00,0.00,1,S01
11200,-9.14824,1.08218,1.40300,-0.8537,0.1220,-1.2805,0.00,0.00,0.00,1,S01
11220,-9.16500,1.07739,1.39343,-0.7317,0.3659,-1.2805,0.00,0.00,0.00,1,S01
11240,-9.19134,1.06303,1.41258,-0.6707,0.2439,-1.2805,0.00,0.00,0.00,1,S01
11260,-9.18176,1.07021,1.40779,-0.4878,-0.1220,-1.2195,0.00,0.00,0.00,1,S01
11280,-9.16740,1.09654,1.40779,-0.3049,-0.2439,-1.2195,0.00,0.00,0.00,1,S01
11300,-9.16500,1.10373,1.40300,-0.3659,-0.1220,-1.2195,0.00,0.00,0.00,1,S01
11320,-9.16740,1.08936,1.40061,-0.5488,0.0610,-1.2195,0.00,0.00,0.00,1,S01
11340,-9.17219,1.06303,1.39821,-0.5488,0.3049,-1.2805,0.00,0.00,0.00,1,S01
11360,-9.18416,1.07978,1.41258,-0.4268,0.3049,-1.3415,0.00,0.00,0.00,1,S01
11380,-9.17937,1.11330,1.42934,-0.5488,0.0000,-1.2805,0.00,0.00,0.00,1,S01
11400,-9.17937,1.09176,1.41737,-0.7317,-0.1829,-1.2195,0.00,0.00,0.00,1,S01
11420,-9.18895,1.05824,1.41976,-0.5488,-0.1220,-1.2805,0.00,0.00,0.00,1,S01
11440,-9.17937,1.04627,1.41258,-0.1829,-0.1220,-1.4024,0.00,0.00,0.00,1,S01
11460,-9.16022,1.08457,1.43173,-0.0610,-0.1220,-1.3415,0.00,0.00,0.00,1,S01
11480,-9.15782,1.10612,1.42216,-0.2439,-0.2439,-1.2805,0.00,0.00,0.00,1,S01
11500,-9.17219,1.09176,1.42216,-0.3659,-0.3049,-1.2195,0.00,0.00,0.00,1,S01
11520,-9.17698,1.08218,1.41018,-0.2439,-0.2439,-1.3415,0.00,0.00,0.00,1,S01
11540,-9.17458,1.08218,1.40779,-0.1220,-0.1220,-1.4024,0.00,0.00,0.00,1,S01
11560,-9.16500,1.09894,1.41737,-0.3049,-0.1829,-1.3415,0.00,0.00,0.00,1,S01
11580,-9.17219,1.10373,1.42934,-0.5488,-0.3049,-1.2805,0.00,0.00,0.00,1,S01
11600,-9.17937,1.08697,1.43892,-0.6098,-0.4268,-1.2195,0.00,0.00,0.00,1,S01
11620,-9.16500,1.07260,1.44610,-0.5488,-0.5488,-1.2195,0.00,0.00,0.00,1,S01
11640,-9.15543,1.07978,1.43173,-0.5488,-0.6098,-1.2805,0.00,0.00,0.00,1,S01
11660,-9.15064,1.09654,1.43173,-0.5488,-0.4878,-1.2805,0.00,0.00,0.00,1,S01
11680,-9.15782,1.08697,1.44849,-0.5488,-0.5488,-1.2805,0.00,0.00,0.00,1,S01
11700,-9.16022,1.08936,1.44131,-0.4878,-0.6098,-1.2195,0.00,0.00,0.00,1,S01
11720,-9.17219,1.10612,1.43652,-0.4878,-0.6098,-1.2195,0.00,0.00,0.00,1,S01
11740,-9.16740,1.09176,1.43892,-0.6707,-0.5488,-1.1585,0.00,0.00,0.00,1,S01
11760,-9.13388,1.07978,1.45328,-0.8537,-0.4878,-1.1585,0.00,0.00,0.00,1,S01
11780,-9.14824,1.09654,1.45807,-0.7927,-0.4268,-1.2195,0.00,0.00,0.00,1,S01
11800,-9.17698,1.11809,1.44370,-0.8537,-0.3049,-1.1585,0.00,0.00,0.00,1,S01
11820,-9.18176,1.09894,1.45567,-0.9756,-0.2439,-1.0976,0.00,0.00,0.00,1,S01
11840,-9.16979,1.05345,1.49877,-0.8537,-0.5488,-1.1585,0.00,0.00,0.00,1,S01
11860,-9.14824,1.05584,1.49159,-0.4268,-0.7927,-1.2805,0.00,0.00,0.00,1,S01
11880,-9.16022,1.08936,1.47483,-0.1220,-0.5488,-1.3415,0.00,0.00,0.00,1,S01
11900,-9.15303,1.09654,1.47243,-0.1829,-0.7317,-1.3415,0.00,0.00,0.00,1,S01
11920,-9.14824,1.09176,1.47004,-0.3049,-0.7927,-1.2805,0.00,0.00,0.00,1,S01
11940,-9.15543,1.09176,1.47722,-0.3659,-0.5488,-1.2805,0.00,0.00,0.00,1,S01
11960,-9.15543,1.09894,1.47243,-0.4268,-0.4878,-1.2195,0.00,0.00,0.00,1,S01
11980,-9.14824,1.10612,1.48201,-0.6098,-0.4878,-1.1585,0.00,0.00,0.00,1,S01
12000,-9.14585,1.10373,1.51074,-0.7927,-0.3659,-1.1585,0.00,0.00,0.00,1,S01
12020,-9.14346,1.09894,1.51074,-0.9146,-0.2439,-1.2195,0.00,0.00,0.00,1,S01
12040,-9.16022,1.08457,1.50356,-0.9756,-0.1829,-1.2195,0.00,0.00,0.00,1,S01
12060,-9.16261,1.04866,1.51314,-0.7317,-0.2439,-1.2195,0.00,0.00,0.00,1,S01
12080,-9.14346,1.07739,1.52511,-0.4268,-0.3049,-1.2195,0.00,0.00,0.00,1,S01
12100,-9.15303,1.09415,1.51792,-0.4268,-0.3049,-1.2195,0.00,0.00,0.00,1,S01
12120,-9.14824,1.08457,1.52032,-0.4878,-0.3659,-1.2805,0.00,0.00,0.00,1,S01
12140,-9.14824,1.07021,1.52511,-0.4878,-0.2439,-1.2805,0.00,0.00,0.00,1,S01
12160,-9.14824,1.07021,1.52511,-0.4878,-0.2439,-1.2805,0.00,0.00,0.00,1,S01
12180,-9.15543,1.07978,1.52750,-0.4878,-0.3049,-1.2195,0.00,0.00,0.00,1,S01
12200,-9.14824,1.08936,1.53229,-0.4268,-0.4268,-1.2195,0.00,0.00,0.00,1,S01
12220,-9.14824,1.09415,1.52511,-0.4268,-0.4268,-1.2805,0.00,0.00,0.00,1,S01
12240,-9.15782,1.09415,1.51314,-0.4268,-0.3659,-1.4024,0.00,0.00,0.00,1,S01
12260,-9.15303,1.08457,1.52032,-0.4268,-0.3659,-1.3415,0.00,0.00,0.00,1,S01
12280,-9.14346,1.08697,1.52511,-0.2439,-0.4268,-1.2805,0.00,0.00,0.00,1,S01
12300,-9.13867,1.10612,1.53947,-0.1829,-0.5488,-1.2195,0.00,0.00,0.00,1,S01
12320,-9.12191,1.12527,1.53229,-0.3049,-0.4878,-1.2805,0.00,0.00,0.00,1,S01
12340,-9.13148,1.13246,1.52511,-0.4878,-0.2439,-1.2805,0.00,0.00,0.00,1,S01
12360,-9.15064,1.10852,1.51792,-0.6098,0.0000,-1.2805,0.00,0.00,0.00,1,S01
12380,-9.15782,1.10133,1.53708,-0.7317,0.0610,-1.2805,0.00,0.00,0.00,1,S01
12400,-9.15064,1.09654,1.53708,-0.8537,-0.1829,-1.2195,0.00,0.00,0.00,1,S01
12420,-9.14346,1.08457,1.54665,-0.8537,-0.4268,-1.2195,0.00,0.00,0.00,1,S01
12440,-9.13148,1.08697,1.55863,-0.7317,-0.4268,-1.2805,0.00,0.00,0.00,1,S01
12460,-9.12430,1.08697,1.55623,-0.6707,-0.3659,-1.3415,0.00,0.00,0.00,1,S01
12480,-9.13627,1.09654,1.54665,-0.6707,-0.1829,-1.2805,0.00,0.00,0.00,1,S01
12500,-9.14346,1.11570,1.56102,-0.6707,-0.0610,-1.2805,0.00,0.00,0.00,1,S01
12520,-9.15064,1.13006,1.56820,-0.7317,-0.1829,-1.2805,0.00,0.00,0.00,1,S01
12540,-9.14106,1.11809,1.54665,-0.7927,-0.1829,-1.2805,0.00,0.00,0.00,1,S01
12560,-9.13867,1.10133,1.56341,-0.7317,0.0000,-1.3415,0.00,0.00,0.00,1,S01
12580,-9.14824,1.10373,1.55384,-0.6707,0.1220,-1.3415,0.00,0.00,0.00,1,S01
12600,-9.14346,1.09415,1.55863,-0.6707,0.1220,-1.2805,0.00,0.00,0.00,1,S01
12620,-9.13867,1.08697,1.57778,-0.6707,0.0000,-1.2805,0.00,0.00,0.00,1,S01
12640,-9.15543,1.10133,1.54665,-0.6707,-0.1220,-1.1585,0.00,0.00,0.00,1,S01
12660,-9.15543,1.10133,1.53229,-0.7317,-0.1220,-1.1585,0.00,0.00,0.00,1,S01
12680,-9.13867,1.07978,1.58257,-0.7317,-0.1829,-1.2195,0.00,0.00,0.00,1,S01
12700,-9.12670,1.08457,1.59454,-0.4268,-0.2439,-1.4024,0.00,0.00,0.00,1,S01
12720,-9.13388,1.10612,1.54905,-0.0610,0.0000,-1.5244,0.00,0.00,0.00,1,S01
12740,-9.14585,1.10612,1.54665,-0.1829,0.1220,-1.5244,0.00,0.00,0.00,1,S01
12760,-9.14585,1.09415,1.56341,-0.3659,-0.0610,-1.4024,0.00,0.00,0.00,1,S01
12780,-9.15303,1.10133,1.55623,-0.3659,-0.2439,-1.3415,0.00,0.00,0.00,1,S01
12800,-9.14585,1.12049,1.55384,-0.4878,-0.3049,-1.2195,0.00,0.00,0.00,1,S01
12820,-9.13388,1.13006,1.57060,-0.7317,-0.1829,-1.1585,0.00,0.00,0.00,1,S01
12840,-9.12909,1.10612,1.56581,-0.9146,0.0610,-1.1585,0.00,0.00,0.00,1,S01
12860,-9.13388,1.06781,1.56102,-0.8537,0.0610,-1.2195,0.00,0.00,0.00,1,S01
12880,-9.13627,1.08218,1.55144,-0.7317,-0.0610,-1.2805,0.00,0.00,0.00,1,S01
12900,-9.12909,1.09176,1.55144,-0.7927,-0.0610,-1.2195,0.00,0.00,0.00,1,S01
12920,-9.12909,1.08218,1.57060,-0.7317,-0.0610,-1.2195,0.00,0.00,0.00,1,S01
12940,-9.14106,1.07500,1.55623,-0.5488,0.1220,-1.2805,0.00,0.00,0.00,1,S01
12960,-9.15064,1.08457,1.54426,-0.4268,0.2439,-1.3415,0.00,0.00,0.00,1,S01
12980,-9.13148,1.08697,1.54905,-0.4878,0.2439,-1.3415,0.00,0.00,0.00,1,S01
13000,-9.13627,1.08218,1.55144,-0.5488,0.2439,-1.3415,0.00,0.00,0.00,1,S01
13020,-9.13867,1.08457,1.55623,-0.3659,0.3049,-1.4024,0.00,0.00,0.00,1,S01
13040,-9.14585,1.08936,1.56341,-0.1829,0.3049,-1.4634,0.00,0.00,0.00,1,S01
13060,-9.14346,1.09894,1.58017,-0.1829,0.1829,-1.4634,0.00,0.00,0.00,1,S01
13080,-9.12909,1.09894,1.58017,-0.3049,0.1220,-1.4024,0.00,0.00,0.00,1,S01
13100,-9.13388,1.10612,1.57060,-0.3049,0.2439,-1.4024,0.00,0.00,0.00,1,S01
13120,-9.15303,1.09176,1.57538,-0.2439,0.3659,-1.4634,0.00,0.00,0.00,1,S01
13140,-9.14824,1.08457,1.58736,-0.0610,0.3049,-1.4024,0.00,0.00,0.00,1,S01
13160,-9.14106,1.09654,1.58257,0.0000,0.1829,-1.4024,0.00,0.00,0.00,1,S01
13180,-9.12909,1.11570,1.58257,-0.1829,0.1220,-1.4024,0.00,0.00,0.00,1,S01
13200,-9.14824,1.07260,1.55863,0.0000,0.3659,-1.4634,0.00,0.00,0.00,1,S01
13220,-9.14106,1.08457,1.56581,0.0610,0.3049,-1.4634,0.00,0.00,0.00,1,S01
13240,-9.14106,1.08457,1.56581,0.0610,0.3049,-1.4634,0.00,0.00,0.00,1,S01
13260,-9.14106,1.09894,1.57538,-0.0610,0.2439,-1.4024,0.00,0.00,0.00,1,S01
13280,-9.13627,1.10852,1.58736,-0.1829,0.3659,-1.4024,0.00,0.00,0.00,1,S01
13300,-9.12670,1.10133,1.56820,-0.1829,0.6098,-1.4634,0.00,0.00,0.00,1,S01
13320,-9.13867,1.10373,1.55863,-0.2439,0.9146,-1.4634,0.00,0.00,0.00,1,S01
13340,-9.14824,1.10373,1.57060,-0.3659,0.9146,-1.4024,0.00,0.00,0.00,1,S01
13360,-9.15782,1.10133,1.56820,-0.3659,0.7927,-1.3415,0.00,0.00,0.00,1,S01
13380,-9.15303,1.08697,1.57060,-0.1829,0.6707,-1.4024,0.00,0.00,0.00,1,S01
13400,-9.13627,1.08457,1.56581,0.0000,0.7927,-1.4634,0.00,0.00,0.00,1,S01
13420,-9.12909,1.09654,1.56102,0.0000,1.0366,-1.4634,0.00,0.00,0.00,1,S01
13440,-9.12430,1.11091,1.55863,-0.1829,1.2805,-1.3415,0.00,0.00,0.00,1,S01
13460,-9.13148,1.09654,1.56102,-0.3049,1.4634,-1.3415,0.00,0.00,0.00,1,S01
13480,-9.16022,1.07021,1.53468,-0.1829,1.5854,-1.4024,0.00,0.00,0.00,1,S01
13500,-9.16261,1.06063,1.51314,0.0610,1.8293,-1.5244,0.00,0.00,0.00,1,S01
13520,-9.15303,1.04866,1.51792,0.2439,2.0732,-1.5854,0.00,0.00,0.00,1,S01
13540,-9.14106,1.05105,1.56581,0.3659,1.9512,-1.5854,0.00,0.00,0.00,1,S01
13560,-9.14106,1.07021,1.53468,0.5488,1.7073,-1.5854,0.00,0.00,0.00,1,S01
13580,-9.13867,1.08936,1.51553,0.6707,1.9512,-1.6463,0.00,0.00,0.00,1,S01
13600,-9.13627,1.08697,1.51074,0.4268,2.1341,-1.6463,0.00,0.00,0.00,1,S01
13620,-9.14585,1.06303,1.49638,0.1829,2.1341,-1.5244,0.00,0.00,0.00,1,S01
13640,-9.16740,1.05584,1.49398,0.2439,2.1951,-1.4634,0.00,0.00,0.00,1,S01
13660,-9.16979,1.09176,1.48680,0.3659,2.0732,-1.4634,0.00,0.00,0.00,1,S01
13680,-9.16500,1.12288,1.48680,0.1829,1.8293,-1.3415,0.00,0.00,0.00,1,S01
13700,-9.15064,1.09894,1.50356,-0.1829,1.7683,-1.2805,0.00,0.00,0.00,1,S01
13720,-9.15782,1.07260,1.48919,-0.1829,1.8902,-1.2805,0.00,0.00,0.00,1,S01
13740,-9.15543,1.07021,1.46286,-0.1220,1.9512,-1.3415,0.00,0.00,0.00,1,S01
13760,-9.15543,1.07021,1.45807,-0.0610,1.9512,-1.3415,0.00,0.00,0.00,1,S01
13780,-9.16022,1.06542,1.46525,-0.0610,1.8902,-1.2805,0.00,0.00,0.00,1,S01
13800,-9.16261,1.08457,1.46286,0.0610,1.8902,-1.3415,0.00,0.00,0.00,1,S01
13820,-9.16022,1.07978,1.45328,0.0000,2.0122,-1.4024,0.00,0.00,0.00,1,S01
13840,-9.16979,1.05345,1.42694,-0.0610,2.0732,-1.4634,0.00,0.00,0.00,1,S01
13860,-9.16740,1.03190,1.41258,0.0610,2.1341,-1.5244,0.00,0.00,0.00,1,S01
13880,-9.16500,1.05824,1.42216,0.2439,2.1341,-1.5854,0.00,0.00,0.00,1,S01
13900,-9.16022,1.09415,1.43652,0.3049,1.8902,-1.4634,0.00,0.00,0.00,1,S01
13920,-9.15782,1.09176,1.43652,0.1220,1.5854,-1.3415,0.00,0.00,0.00,1,S01
13940,-9.16740,1.07978,1.41737,-0.0610,1.5854,-1.4024,0.00,0.00,0.00,1,S01
13960,-9.16979,1.07021,1.38864,-0.1220,1.7683,-1.4634,0.00,0.00,0.00,1,S01
13980,-9.16261,1.08218,1.41976,-0.1220,1.8293,-1.4024,0.00,0.00,0.00,1,S01
14000,-9.17219,1.08457,1.43413,-0.0610,1.6463,-1.3415,0.00,0.00,0.00,1,S01
14020,-9.17698,1.09176,1.40540,0.0000,1.4024,-1.3415,0.00,0.00,0.00,1,S01
14040,-9.17698,1.08936,1.38385,-0.0610,1.4024,-1.4024,0.00,0.00,0.00,1,S01
14060,-9.17698,1.06542,1.39343,-0.1829,1.5244,-1.4024,0.00,0.00,0.00,1,S01
14080,-9.17219,1.05345,1.37906,-0.1829,1.5854,-1.3415,0.00,0.00,0.00,1,S01
14100,-9.17219,1.06542,1.38385,-0.0610,1.6463,-1.3415,0.00,0.00,0.00,1,S01
14120,-9.16979,1.08218,1.37188,0.0610,1.5854,-1.3415,0.00,0.00,0.00,1,S01
14140,-9.17458,1.08936,1.35512,0.0000,1.4634,-1.3415,0.00,0.00,0.00,1,S01
14160,-9.17937,1.08218,1.37667,-0.1220,1.3415,-1.2805,0.00,0.00,0.00,1,S01
14180,-9.17937,1.07260,1.37188,-0.2439,1.2805,-1.2805,0.00,0.00,0.00,1,S01
14200,-9.16740,1.06781,1.36709,-0.1829,1.2805,-1.3415,0.00,0.00,0.00,1,S01
14220,-9.16740,1.08457,1.35751,-0.1220,1.3415,-1.3415,0.00,0.00,0.00,1,S01
14240,-9.17458,1.09894,1.37188,-0.1220,1.3415,-1.3415,0.00,0.00,0.00,1,S01
14260,-9.18416,1.08936,1.35033,-0.1829,1.2805,-1.3415,0.00,0.00,0.00,1,S01
14280,-9.19134,1.07500,1.33357,-0.1829,1.1585,-1.3415,0.00,0.00,0.00,1,S01
14300,-9.18176,1.11809,1.33836,-0.3049,0.9146,-1.2195,0.00,0.00,0.00,1,S01
14320,-9.18176,1.11809,1.33836,-0.3049,0.9146,-1.2195,0.00,0.00,0.00,1,S01
14340,-9.18895,1.10612,1.33118,-0.4268,0.9756,-1.2195,0.00,0.00,0.00,1,S01
14360,-9.18895,1.10612,1.33118,-0.4268,0.9756,-1.2195,0.00,0.00,0.00,1,S01
14380,-9.16979,1.07021,1.35512,-0.1829,0.4878,-1.4634,0.00,0.00,0.00,1,S01
14400,-9.16740,1.10373,1.33836,0.0610,0.5488,-1.4634,0.00,0.00,0.00,1,S01
14420,-9.16979,1.12288,1.31921,-0.0610,0.2439,-1.4024,0.00,0.00,0.00,1,S01
14440,-9.17219,1.10852,1.31442,-0.3049,0.0000,-1.2805,0.00,0.00,0.00,1,S01
14460,-9.18655,1.08936,1.33836,-0.4268,0.1220,-1.2805,0.00,0.00,0.00,1,S01
14480,-9.18895,1.10852,1.33357,-0.4878,0.0610,-1.2805,0.00,0.00,0.00,1,S01
14500,-9.18176,1.12049,1.34075,-0.6707,-0.0610,-1.1585,0.00,0.00,0.00,1,S01
14520,-9.16740,1.11330,1.35751,-0.9146,-0.1220,-1.0976,0.00,0.00,0.00,1,S01
14540,-9.18176,1.08936,1.35033,-0.9756,0.0000,-1.1585,0.00,0.00,0.00,1,S01
14560,-9.19134,1.05584,1.35991,-0.8537,0.1220,-1.1585,0.00,0.00,0.00,1,S01
14580,-9.17937,1.05824,1.34554,-0.6098,0.0610,-1.2195,0.00,0.00,0.00,1,S01
14600,-9.16979,1.07739,1.35033,-0.6098,0.0000,-1.2195,0.00,0.00,0.00,1,S01
14620,-9.17937,1.09176,1.35272,-0.5488,0.0610,-1.2195,0.00,0.00,0.00,1,S01
14640,-9.19134,1.06303,1.33596,-0.4878,0.1220,-1.2805,0.00,0.00,0.00,1,S01
14660,-9.18176,1.06303,1.33836,-0.4268,0.1220,-1.2805,0.00,0.00,0.00,1,S01
14680,-9.17937,1.07500,1.35033,-0.4268,0.1829,-1.2805,0.00,0.00,0.00,1,S01
14700,-9.18176,1.08218,1.36469,-0.3659,0.1220,-1.2805,0.00,0.00,0.00,1,S01
14720,-9.17937,1.08936,1.35751,-0.3049,-0.0610,-1.2805,0.00,0.00,0.00,1,S01
14740,-9.17698,1.08697,1.36709,-0.2439,0.0000,-1.4024,0.00,0.00,0.00,1,S01
14760,-9.17458,1.08218,1.36230,-0.2439,0.1220,-1.4024,0.00,0.00,0.00,1,S01
14780,-9.18176,1.08218,1.35272,-0.2439,0.1220,-1.3415,0.00,0.00,0.00,1,S01
14800,-9.17937,1.08936,1.36230,-0.2439,0.0610,-1.2805,0.00,0.00,0.00,1,S01
14820,-9.17219,1.10133,1.36469,-0.3659,0.0000,-1.2805,0.00,0.00,0.00,1,S01
14840,-9.18176,1.08936,1.35751,-0.3659,0.0000,-1.2805,0.00,0.00,0.00,1,S01
14860,-9.19134,1.07739,1.36230,-0.3049,0.0000,-1.3415,0.00,0.00,0.00,1,S01
14880,-9.18176,1.07500,1.35991,-0.2439,0.0000,-1.3415,0.00,0.00,0.00,1,S01
14900,-9.16500,1.08457,1.34794,-0.3049,-0.0610,-1.3415,0.00,0.00,0.00,1,S01
14920,-9.16979,1.09415,1.34554,-0.4268,-0.0610,-1.2195,0.00,0.00,0.00,1,S01
14940,-9.18655,1.09894,1.36948,-0.5488,0.0000,-1.2195,0.00,0.00,0.00,1,S01
14960,-9.18655,1.09415,1.35991,-0.5488,0.0000,-1.3415,0.00,0.00,0.00,1,S01
14980,-9.17698,1.08457,1.35991,-0.6098,-0.0610,-1.4024,0.00,0.00,0.00,1,S01
15000,-9.17219,1.07978,1.34554,-0.6707,0.0000,-1.3415,0.00,0.00,0.00,1,S01
15020,-9.18176,1.07021,1.35512,-0.5488,0.0000,-1.2805,0.00,0.00,0.00,1,S01
15040,-9.18416,1.07739,1.38624,-0.3659,0.0610,-1.2805,0.00,0.00,0.00,1,S01
15060,-9.18176,1.10852,1.36709,-0.3049,-0.0610,-1.3415,0.00,0.00,0.00,1,S01
15080,-9.16022,1.10373,1.36709,-0.6098,-0.0610,-1.2805,0.00,0.00,0.00,1,S01
15100,-9.16740,1.08936,1.36469,-0.6707,0.0610,-1.2805,0.00,0.00,0.00,1,S01
15120,-9.19852,1.07739,1.35512,-0.6098,0.1220,-1.2805,0.00,0.00,0.00,1,S01
15140,-9.19373,1.08936,1.36469,-0.5488,0.1220,-1.2195,0.00,0.00,0.00,1,S01
15160,-9.17698,1.07978,1.41018,-0.6098,-0.2439,-1.2195,0.00,0.00,0.00,1,S01
15180,-9.15064,1.07739,1.40300,-0.6098,-0.4878,-1.3415,0.00,0.00,0.00,1,S01
15200,-9.15543,1.08697,1.39103,-0.3049,0.0000,-1.4634,0.00,0.00,0.00,1,S01
15220,-9.16500,1.07500,1.36469,-0.3049,0.2439,-1.4634,0.00,0.00,0.00,1,S01
15240,-9.16740,1.06063,1.36469,-0.3659,-0.0610,-1.4634,0.00,0.00,0.00,1,S01
15260,-9.18176,1.08218,1.36469,-0.4268,-0.1829,-1.4024,0.00,0.00,0.00,1,S01
15280,-9.19852,1.08697,1.38145,-0.4878,-0.2439,-1.2805,0.00,0.00,0.00,1,S01
15300,-9.18655,1.08218,1.38864,-0.5488,-0.3659,-1.2805,0.00,0.00,0.00,1,S01
15320,-9.16979,1.07500,1.39821,-0.6098,-0.3659,-1.2805,0.00,0.00,0.00,1,S01
15340,-9.16500,1.07021,1.39582,-0.6707,-0.2439,-1.2805,0.00,0.00,0.00,1,S01
15360,-9.18655,1.06542,1.38624,-0.7317,-0.3049,-1.2195,0.00,0.00,0.00,1,S01
15380,-9.16500,1.05824,1.37906,-0.4268,-0.4878,-1.2805,0.00,0.00,0.00,1,S01
15400,-9.16500,1.05824,1.37906,-0.4268,-0.4878,-1.2805,0.00,0.00,0.00,1,S01
15420,-9.16500,1.05824,1.37906,-0.4268,-0.4878,-1.2805,0.00,0.00,0.00,1,S01
15440,-9.16979,1.08936,1.39103,-0.3049,-0.3659,-1.2805,0.00,0.00,0.00,1,S01
15460,-9.16979,1.09176,1.36709,-0.4268,-0.3659,-1.2805,0.00,0.00,0.00,1,S01
15480,-9.16500,1.07021,1.35272,-0.5488,-0.2439,-1.2805,0.00,0.00,0.00,1,S01
15500,-9.17937,1.05345,1.38385,-0.4268,-0.1829,-1.4024,0.00,0.00,0.00,1,S01
15520,-9.16979,1.07260,1.39582,-0.2439,-0.2439,-1.4024,0.00,0.00,0.00,1,S01
15540,-9.16979,1.10612,1.42455,-0.4268,-0.4878,-1.2805,0.00,0.00,0.00,1,S01
15560,-9.16022,1.11330,1.41258,-0.6098,-0.4268,-1.2805,0.00,0.00,0.00,1,S01
15580,-9.15543,1.08936,1.40779,-0.7317,-0.1829,-1.3415,0.00,0.00,0.00,1,S01
15600,-9.16261,1.06303,1.40540,-0.6707,0.0000,-1.3415,0.00,0.00,0.00,1,S01
15620,-9.16979,1.06542,1.41497,-0.5488,-0.0610,-1.2805,0.00,0.00,0.00,1,S01
15640,-9.16740,1.08697,1.44131,-0.4268,-0.4878,-1.2195,0.00,0.00,0.00,1,S01
15660,-9.15543,1.10852,1.44131,-0.4268,-0.7927,-1.2195,0.00,0.00,0.00,1,S01
15680,-9.15064,1.11330,1.43173,-0.6098,-0.7927,-1.2195,0.00,0.00,0.00,1,S01
15700,-9.16500,1.09176,1.41976,-0.7927,-0.5488,-1.1585,0.00,0.00,0.00,1,S01
15720,-9.16740,1.07739,1.42216,-0.7317,-0.4878,-1.2195,0.00,0.00,0.00,1,S01
15740,-9.17458,1.08218,1.41976,-0.5488,-0.5488,-1.2195,0.00,0.00,0.00,1,S01
15760,-9.17219,1.10852,1.43652,-0.6098,-0.7927,-1.2195,0.00,0.00,0.00,1,S01
15780,-9.16261,1.11091,1.43173,-0.7927,-0.9756,-1.1585,0.00,0.00,0.00,1,S01
15800,-9.16979,1.07260,1.44610,-0.8537,-0.9146,-1.1585,0.00,0.00,0.00,1,S01
15820,-9.15543,1.05584,1.42934,-0.6707,-0.7317,-1.2195,0.00,0.00,0.00,1,S01
15840,-9.14824,1.05824,1.43892,-0.5488,-0.4878,-1.2195,0.00,0.00,0.00,1,S01
15860,-9.15303,1.07978,1.44131,-0.4878,-0.5488,-1.2195,0.00,0.00,0.00,1,S01
15880,-9.15303,1.07978,1.46525,-0.5488,-0.7317,-1.2195,0.00,0.00,0.00,1,S01
15900,-9.14824,1.08936,1.47962,-0.4878,-0.7317,-1.2805,0.00,0.00,0.00,1,S01
15920,-9.16979,1.08697,1.45807,-0.4878,-0.6098,-1.2195,0.00,0.00,0.00,1,S01
15940,-9.16979,1.07260,1.44370,-0.5488,-0.4268,-1.1585,0.00,0.00,0.00,1,S01
15960,-9.15782,1.06063,1.50356,-0.5488,-0.5488,-1.2805,0.00,0.00,0.00,1,S01
15980,-9.13867,1.07739,1.50835,-0.3049,-0.7927,-1.4024,0.00,0.00,0.00,1,S01
16000,-9.14585,1.10612,1.48680,-0.0610,-0.6098,-1.4634,0.00,0.00,0.00,1,S01
16020,-9.16500,1.07739,1.48919,-0.2439,-0.4268,-1.3415,0.00,0.00,0.00,1,S01
16040,-9.16261,1.04627,1.50595,-0.3049,-0.6098,-1.3415,0.00,0.00,0.00,1,S01
16060,-9.15543,1.06303,1.50595,-0.1220,-0.6098,-1.3415,0.00,0.00,0.00,1,S01
16080,-9.16022,1.11809,1.50356,-0.2439,-0.6707,-1.2805,0.00,0.00,0.00,1,S01
16100,-9.15303,1.12049,1.50116,-0.5488,-0.7927,-1.1585,0.00,0.00,0.00,1,S01
16120,-9.15543,1.09415,1.51074,-0.7927,-0.6098,-1.1585,0.00,0.00,0.00,1,S01
16140,-9.15543,1.06542,1.51314,-0.7927,-0.4268,-1.2195,0.00,0.00,0.00,1,S01
16160,-9.15303,1.06542,1.51314,-0.7317,-0.3659,-1.2195,0.00,0.00,0.00,1,S01
16180,-9.14346,1.07021,1.51792,-0.7317,-0.4268,-1.0976,0.00,0.00,0.00,1,S01
16200,-9.15303,1.05345,1.52032,-0.7317,-0.4268,-1.1585,0.00,0.00,0.00,1,S01
16220,-9.16022,1.06303,1.51314,-0.4878,-0.4268,-1.2195,0.00,0.00,0.00,1,S01
16240,-9.16022,1.08936,1.50595,-0.4268,-0.3049,-1.2805,0.00,0.00,0.00,1,S01
16260,-9.14824,1.07739,1.50835,-0.6707,-0.1829,-1.2195,0.00,0.00,0.00,1,S01
16280,-9.14106,1.05584,1.53468,-0.7317,-0.1220,-1.2195,0.00,0.00,0.00,1,S01
16300,-9.15064,1.07260,1.54665,-0.6098,-0.1220,-1.3415,0.00,0.00,0.00,1,S01
16320,-9.15064,1.09894,1.53947,-0.5488,-0.2439,-1.3415,0.00,0.00,0.00,1,S01
16340,-9.13627,1.10852,1.51792,-0.5488,-0.3659,-1.2805,0.00,0.00,0.00,1,S01
16360,-9.14346,1.10852,1.52511,-0.6707,-0.3049,-1.2195,0.00,0.00,0.00,1,S01
16380,-9.14824,1.09894,1.54905,-0.7927,-0.1220,-1.2195,0.00,0.00,0.00,1,S01
16400,-9.13627,1.09654,1.54426,-0.8537,-0.1220,-1.2805,0.00,0.00,0.00,1,S01
16420,-9.14585,1.09415,1.54187,-0.7927,-0.1829,-1.2805,0.00,0.00,0.00,1,S01
16440,-9.14824,1.07021,1.54426,-0.7317,-0.1829,-1.1585,0.00,0.00,0.00,1,S01
16460,-9.14824,1.05345,1.55384,-0.2439,-0.4878,-1.2195,0.00,0.00,0.00,1,S01
16480,-9.13388,1.07739,1.56102,-0.1829,-0.6098,-1.2805,0.00,0.00,0.00,1,S01
16500,-9.13388,1.07739,1.56102,-0.1829,-0.6098,-1.2805,0.00,0.00,0.00,1,S01
16520,-9.13627,1.09415,1.55623,-0.3049,-0.5488,-1.3415,0.00,0.00,0.00,1,S01
16540,-9.15543,1.08218,1.55144,-0.4268,-0.3659,-1.3415,0.00,0.00,0.00,1,S01
16560,-9.15782,1.05824,1.54905,-0.3659,-0.2439,-1.3415,0.00,0.00,0.00,1,S01
16580,-9.15064,1.06303,1.55144,-0.3049,-0.2439,-1.3415,0.00,0.00,0.00,1,S01
16600,-9.13867,1.09894,1.56341,-0.3659,-0.3049,-1.3415,0.00,0.00,0.00,1,S01
16620,-9.12670,1.10852,1.56581,-0.4268,-0.4268,-1.4024,0.00,0.00,0.00,1,S01
16640,-9.13148,1.09654,1.57538,-0.4878,-0.3659,-1.4634,0.00,0.00,0.00,1,S01
16660,-9.14585,1.09894,1.55863,-0.4268,-0.2439,-1.4634,0.00,0.00,0.00,1,S01
16680,-9.13867,1.11091,1.55384,-0.4878,-0.1829,-1.3415,0.00,0.00,0.00,1,S01
16700,-9.16261,1.07978,1.56341,-0.6098,-0.3049,-1.2195,0.00,0.00,0.00,1,S01
16720,-9.14585,1.07978,1.59693,-0.4268,-0.5488,-1.2805,0.00,0.00,0.00,1,S01
16740,-9.13148,1.09894,1.56820,-0.4878,-0.6707,-1.2195,0.00,0.00,0.00,1,S01
16760,-9.14585,1.09894,1.55144,-0.6098,-0.4878,-1.0366,0.00,0.00,0.00,1,S01
16780,-9.14346,1.07500,1.58257,-0.6707,-0.4268,-1.0976,0.00,0.00,0.00,1,S01
16800,-9.14824,1.05345,1.59454,-0.4268,-0.5488,-1.2805,0.00,0.00,0.00,1,S01
16820,-9.14106,1.07500,1.56341,0.0000,-0.3659,-1.4634,0.00,0.00,0.00,1,S01
16840,-9.13388,1.08936,1.56581,-0.0610,-0.1220,-1.4024,0.00,0.00,0.00,1,S01
16860,-9.13867,1.07260,1.57538,-0.2439,-0.1220,-1.2805,0.00,0.00,0.00,1,S01
16880,-9.15303,1.06303,1.59454,-0.1829,-0.0610,-1.3415,0.00,0.00,0.00,1,S01
16900,-9.15543,1.09415,1.58496,-0.0610,-0.1829,-1.4024,0.00,0.00,0.00,1,S01
16920,-9.13867,1.13485,1.58975,-0.1829,-0.4268,-1.3415,0.00,0.00,0.00,1,S01
16940,-9.12909,1.12767,1.58975,-0.6098,-0.4268,-1.1585,0.00,0.00,0.00,1,S01
16960,-9.12670,1.10612,1.59933,-0.7927,-0.2439,-1.1585,0.00,0.00,0.00,1,S01
16980,-9.11473,1.09415,1.59933,-0.7927,0.0000,-1.2195,0.00,0.00,0.00,1,S01
17000,-9.11951,1.09176,1.58736,-0.7927,0.0610,-1.2195,0.00,0.00,0.00,1,S01
17020,-9.12670,1.09654,1.58975,-0.8537,-0.0610,-1.0976,0.00,0.00,0.00,1,S01
17040,-9.14346,1.08936,1.58257,-0.8537,-0.1829,-1.0976,0.00,0.00,0.00,1,S01
17060,-9.14106,1.08936,1.58257,-0.7317,-0.0610,-1.1585,0.00,0.00,0.00,1,S01
17080,-9.12430,1.09176,1.56341,-0.7927,0.1220,-1.1585,0.00,0.00,0.00,1,S01
17100,-9.13148,1.08218,1.55384,-0.9146,0.3049,-1.1585,0.00,0.00,0.00,1,S01
17120,-9.14585,1.06303,1.56581,-0.8537,0.4268,-1.1585,0.00,0.00,0.00,1,S01
17140,-9.16022,1.04627,1.57060,-0.6098,0.3049,-1.2195,0.00,0.00,0.00,1,S01
17160,-9.15782,1.06303,1.58975,-0.4268,0.0610,-1.2805,0.00,0.00,0.00,1,S01
17180,-9.13148,1.08218,1.60651,-0.4268,-0.1829,-1.2195,0.00,0.00,0.00,1,S01
17200,-9.11951,1.08218,1.60651,-0.3659,-0.1220,-1.2195,0.00,0.00,0.00,1,S01
17220,-9.12909,1.06303,1.62087,-0.1829,0.2439,-1.3415,0.00,0.00,0.00,1,S01
17240,-9.13627,1.06781,1.61130,0.0000,0.4268,-1.4634,0.00,0.00,0.00,1,S01
17260,-9.13627,1.08936,1.60412,0.0610,0.3659,-1.4024,0.00,0.00,0.00,1,S01
17280,-9.14346,1.09415,1.59214,0.0610,0.1829,-1.3415,0.00,0.00,0.00,1,S01
17300,-9.14106,1.08457,1.58736,0.2439,0.1220,-1.4024,0.00,0.00,0.00,1,S01
17320,-9.12670,1.07739,1.59214,0.3659,0.3049,-1.4634,0.00,0.00,0.00,1,S01
17340,-9.12191,1.08697,1.60890,0.4268,0.4878,-1.4634,0.00,0.00,0.00,1,S01
17360,-9.12191,1.08457,1.60890,0.3659,0.6707,-1.4634,0.00,0.00,0.00,1,S01
17380,-9.12430,1.09176,1.58257,0.4268,0.9146,-1.4634,0.00,0.00,0.00,1,S01
17400,-9.12670,1.09176,1.58496,0.4878,1.0976,-1.4634,0.00,0.00,0.00,1,S01
17420,-9.12670,1.10373,1.60412,0.4268,1.2805,-1.4634,0.00,0.00,0.00,1,S01
17440,-9.14106,1.09654,1.62087,0.3049,1.2805,-1.4024,0.00,0.00,0.00,1,S01
17460,-9.14585,1.07739,1.62087,0.3659,1.2805,-1.4634,0.00,0.00,0.00,1,S01
17480,-9.13867,1.06063,1.59214,0.4878,1.2805,-1.5244,0.00,0.00,0.00,1,S01
17500,-9.11951,1.07021,1.58257,0.5488,1.4024,-1.5244,0.00,0.00,0.00,1,S01
17520,-9.11951,1.09176,1.59693,0.4268,1.5244,-1.4634,0.00,0.00,0.00,1,S01
17540,-9.14824,1.07260,1.57299,0.3049,1.5854,-1.4634,0.00,0.00,0.00,1,S01
17560,-9.14824,1.07260,1.57299,0.3049,1.5854,-1.4634,0.00,0.00,0.00,1,S01
17580,-9.14346,1.07739,1.57538,0.3049,1.5244,-1.5244,0.00,0.00,0.00,1,S01
17600,-9.13627,1.09415,1.55863,0.1829,1.4634,-1.4024,0.00,0.00,0.00,1,S01
17620,-9.14106,1.10612,1.55384,0.0610,1.7073,-1.3415,0.00,0.00,0.00,1,S01
17640,-9.14585,1.07500,1.59214,0.0610,1.8293,-1.4634,0.00,0.00,0.00,1,S01
17660,-9.13148,1.06781,1.56581,0.1829,1.6463,-1.5854,0.00,0.00,0.00,1,S01
17680,-9.13388,1.09894,1.52511,0.3049,1.6463,-1.5854,0.00,0.00,0.00,1,S01
17700,-9.14346,1.09654,1.52511,0.1829,1.7683,-1.4634,0.00,0.00,0.00,1,S01
17720,-9.14824,1.07978,1.52750,0.0610,1.5244,-1.4024,0.00,0.00,0.00,1,S01
17740,-9.14585,1.08936,1.52989,0.0610,1.4024,-1.4024,0.00,0.00,0.00,1,S01
17760,-9.14824,1.10852,1.52271,-0.1220,1.4024,-1.2805,0.00,0.00,0.00,1,S01
17780,-9.13388,1.12288,1.52989,-0.5488,1.4634,-1.2195,0.00,0.00,0.00,1,S01
17800,-9.13627,1.10373,1.52750,-0.8537,1.6463,-1.1585,0.00,0.00,0.00,1,S01
17820,-9.14585,1.06781,1.51314,-0.7927,1.8902,-1.2195,0.00,0.00,0.00,1,S01
17840,-9.15543,1.07500,1.51553,-0.6707,1.8902,-1.2805,0.00,0.00,0.00,1,S01
17860,-9.16022,1.06781,1.51074,-0.8537,1.7683,-1.1585,0.00,0.00,0.00,1,S01
17880,-9.15782,1.04627,1.51074,-0.6098,1.8293,-1.2195,0.00,0.00,0.00,1,S01
17900,-9.15303,1.06781,1.49159,-0.3049,1.9512,-1.2805,0.00,0.00,0.00,1,S01
17920,-9.15543,1.07500,1.47722,-0.2439,1.9512,-1.2805,0.00,0.00,0.00,1,S01
17940,-9.16022,1.07978,1.48680,-0.2439,1.8902,-1.2805,0.00,0.00,0.00,1,S01
17960,-9.16979,1.06303,1.47962,-0.2439,1.8293,-1.3415,0.00,0.00,0.00,1,S01
17980,-9.17698,1.07739,1.48680,-0.1829,1.7683,-1.4024,0.00,0.00,0.00,1,S01
18000,-9.16979,1.09176,1.46286,-0.1220,1.7073,-1.4024,0.00,0.00,0.00,1,S01
18020,-9.15782,1.09176,1.44131,-0.1220,1.6463,-1.4024,0.00,0.00,0.00,1,S01
18040,-9.16261,1.08218,1.44131,0.0000,1.5854,-1.5244,0.00,0.00,0.00,1,S01
18060,-9.15064,1.09176,1.44849,0.1220,1.5244,-1.5244,0.00,0.00,0.00,1,S01
18080,-9.14346,1.10373,1.44370,0.0610,1.5244,-1.4634,0.00,0.00,0.00,1,S01
18100,-9.15303,1.10133,1.43173,0.0610,1.5854,-1.4024,0.00,0.00,0.00,1,S01
18120,-9.16979,1.09894,1.43413,0.0610,1.6463,-1.4024,0.00,0.00,0.00,1,S01
18140,-9.16740,1.10612,1.41258,0.0610,1.5244,-1.4634,0.00,0.00,0.00,1,S01
18160,-9.16022,1.10852,1.41018,-0.1220,1.4634,-1.4634,0.00,0.00,0.00,1,S01
18180,-9.16500,1.10133,1.41497,-0.2439,1.4024,-1.4634,0.00,0.00,0.00,1,S01
18200,-9.17219,1.08457,1.40779,-0.2439,1.3415,-1.4634,0.00,0.00,0.00,1,S01
18220,-9.18176,1.08936,1.42216,-0.2439,1.2805,-1.4024,0.00,0.00,0.00,1,S01
18240,-9.17937,1.09415,1.42694,-0.3049,0.9756,-1.3415,0.00,0.00,0.00,1,S01
18260,-9.17219,1.07978,1.40779,-0.4268,0.7317,-1.3415,0.00,0.00,0.00,1,S01
18280,-9.16979,1.06542,1.39821,-0.3659,0.7317,-1.4634,0.00,0.00,0.00,1,S01
18300,-9.17219,1.05824,1.42216,-0.2439,0.7317,-1.5244,0.00,0.00,0.00,1,S01
18320,-9.18895,1.07260,1.41976,-0.0610,0.4878,-1.4634,0.00,0.00,0.00,1,S01
18340,-9.18416,1.08936,1.41976,-0.1220,0.1220,-1.4024,0.00,0.00,0.00,1,S01
18360,-9.16261,1.09654,1.39821,-0.2439,-0.1220,-1.4024,0.00,0.00,0.00,1,S01
18380,-9.16022,1.08457,1.39821,-0.3049,0.0000,-1.4634,0.00,0.00,0.00,1,S01
18400,-9.17937,1.08218,1.40779,-0.1829,0.2439,-1.4634,0.00,0.00,0.00,1,S01
18420,-9.17698,1.10852,1.39821,-0.1220,0.0610,-1.4634,0.00,0.00,0.00,1,S01
18440,-9.16500,1.10133,1.42455,-0.3659,-0.2439,-1.4024,0.00,0.00,0.00,1,S01
18460,-9.15303,1.09654,1.41976,-0.4878,-0.1829,-1.4634,0.00,0.00,0.00,1,S01
18480,-9.17937,1.07500,1.40540,-0.2439,0.0610,-1.5244,0.00,0.00,0.00,1,S01
18500,-9.16022,1.06063,1.39343,-0.1220,-0.1220,-1.5244,0.00,0.00,0.00,1,S01
18520,-9.15064,1.08936,1.39821,-0.2439,-0.3049,-1.4024,0.00,0.00,0.00,1,S01
18540,-9.16500,1.11091,1.40540,-0.5488,-0.1829,-1.2805,0.00,0.00,0.00,1,S01
18560,-9.18176,1.10612,1.41737,-0.8537,-0.1220,-1.1585,0.00,0.00,0.00,1,S01
18580,-9.17219,1.08697,1.41497,-1.0366,-0.1220,-1.2195,0.00,0.00,0.00,1,S01
18600,-9.15543,1.06542,1.43652,-1.0366,0.0000,-1.2805,0.00,0.00,0.00,1,S01
18620,-9.16022,1.06303,1.43652,-1.0366,0.2439,-1.2805,0.00,0.00,0.00,1,S01
18640,-9.17458,1.08697,1.44370,-1.0366,0.2439,-1.2805,0.00,0.00,0.00,1,S01
18660,-9.17458,1.08697,1.44370,-1.0366,0.2439,-1.2805,0.00,0.00,0.00,1,S01
18680,-9.17219,1.06781,1.44131,-1.0366,0.2439,-1.2805,0.00,0.00,0.00,1,S01
18700,-9.17937,1.04627,1.43413,-0.8537,0.3049,-1.2805,0.00,0.00,0.00,1,S01
18720,-9.16979,1.02951,1.41976,-0.6098,0.2439,-1.3415,0.00,0.00,0.00,1,S01
18740,-9.16022,1.06063,1.43413,-0.4268,0.1829,-1.4024,0.00,0.00,0.00,1,S01
18760,-9.15543,1.09176,1.43652,-0.4878,0.1220,-1.4024,0.00,0.00,0.00,1,S01
18780,-9.16261,1.09176,1.44370,-0.6098,0.1220,-1.3415,0.00,0.00,0.00,1,S01
18800,-9.16740,1.06542,1.42455,-0.6098,0.2439,-1.4024,0.00,0.00,0.00,1,S01
18820,-9.16500,1.06303,1.41258,-0.5488,0.2439,-1.4024,0.00,0.00,0.00,1,S01
18840,-9.16022,1.06542,1.42934,-0.6098,0.2439,-1.4024,0.00,0.00,0.00,1,S01
18860,-9.16500,1.07978,1.43413,-0.6707,0.1829,-1.3415,0.00,0.00,0.00,1,S01
18880,-9.17219,1.07739,1.41976,-0.5488,0.0610,-1.3415,0.00,0.00,0.00,1,S01
18900,-9.16979,1.06542,1.40061,-0.4878,0.0610,-1.4024,0.00,0.00,0.00,1,S01
18920,-9.16022,1.06063,1.39103,-0.4268,0.1829,-1.4024,0.00,0.00,0.00,1,S01
18940,-9.15782,1.06303,1.41018,-0.4268,0.2439,-1.4024,0.00,0.00,0.00,1,S01
18960,-9.16500,1.07739,1.41976,-0.3659,0.1829,-1.4024,0.00,0.00,0.00,1,S01
18980,-9.17698,1.09176,1.41258,-0.3049,0.0610,-1.4634,0.00,0.00,0.00,1,S01
19000,-9.17219,1.08936,1.40540,-0.3659,0.0000,-1.4024,0.00,0.00,0.00,1,S01
19020,-9.16022,1.02951,1.43892,-0.4268,0.0000,-1.4024,0.00,0.00,0.00,1,S01
19040,-9.16500,1.03669,1.45328,-0.1829,0.0610,-1.4634,0.00,0.00,0.00,1,S01
19060,-9.15543,1.08218,1.45567,-0.0610,0.0610,-1.4634,0.00,0.00,0.00,1,S01
19080,-9.16261,1.10133,1.43173,-0.1829,0.1220,-1.4024,0.00,0.00,0.00,1,S01
19100,-9.18176,1.07260,1.43892,-0.3049,0.1829,-1.4024,0.00,0.00,0.00,1,S01
19120,-9.17458,1.05824,1.44610,-0.2439,0.0610,-1.4634,0.00,0.00,0.00,1,S01
19140,-9.17219,1.07021,1.43652,-0.3049,-0.1220,-1.4634,0.00,0.00,0.00,1,S01
19160,-9.18416,1.09176,1.43173,-0.3659,-0.1829,-1.2805,0.00,0.00,0.00,1,S01
19180,-9.17219,1.07500,1.45328,-0.3659,-0.3659,-1.2805,0.00,0.00,0.00,1,S01
19200,-9.15064,1.04627,1.46525,-0.2439,-0.4878,-1.4024,0.00,0.00,0.00,1,S01
19220,-9.14106,1.06542,1.43892,-0.1220,-0.2439,-1.5244,0.00,0.00,0.00,1,S01
19240,-9.16261,1.08936,1.43892,-0.1829,0.1220,-1.4634,0.00,0.00,0.00,1,S01
19260,-9.17219,1.08218,1.45328,-0.4268,-0.1220,-1.4024,0.00,0.00,0.00,1,S01
19280,-9.16979,1.08457,1.46046,-0.4878,-0.4268,-1.3415,0.00,0.00,0.00,1,S01
19300,-9.17219,1.08697,1.45089,-0.5488,-0.6707,-1.2805,0.00,0.00,0.00,1,S01
19320,-9.16979,1.07978,1.44370,-0.7317,-0.9146,-1.2195,0.00,0.00,0.00,1,S01
19340,-9.16261,1.06781,1.45328,-0.9756,-0.9146,-1.1585,0.00,0.00,0.00,1,S01
19360,-9.14824,1.05824,1.46765,-1.0976,-0.7927,-1.1585,0.00,0.00,0.00,1,S01
19380,-9.15543,1.05824,1.47004,-1.0366,-0.6098,-1.1585,0.00,0.00,0.00,1,S01
19400,-9.16979,1.06303,1.46525,-0.9146,-0.4268,-1.2195,0.00,0.00,0.00,1,S01
19420,-9.16500,1.06303,1.45807,-0.8537,-0.4268,-1.2805,0.00,0.00,0.00,1,S01
19440,-9.15782,1.06542,1.47243,-0.8537,-0.4878,-1.2195,0.00,0.00,0.00,1,S01
19460,-9.16500,1.06303,1.46286,-0.8537,-0.4268,-1.1585,0.00,0.00,0.00,1,S01
19480,-9.17458,1.04387,1.47004,-0.7927,-0.2439,-1.2195,0.00,0.00,0.00,1,S01
19500,-9.17219,1.02472,1.48441,-0.7317,-0.3049,-1.3415,0.00,0.00,0.00,1,S01
19520,-9.15064,1.04866,1.49638,-0.6707,-0.3659,-1.4024,0.00,0.00,0.00,1,S01
19540,-9.14346,1.06303,1.49638,-0.7317,-0.3659,-1.3415,0.00,0.00,0.00,1,S01
19560,-9.15782,1.05105,1.49398,-0.6707,-0.3049,-1.2805,0.00,0.00,0.00,1,S01
19580,-9.16740,1.04866,1.50595,-0.5488,-0.2439,-1.4024,0.00,0.00,0.00,1,S01
19600,-9.15303,1.06303,1.51074,-0.5488,-0.2439,-1.4634,0.00,0.00,0.00,1,S01
19620,-9.14824,1.06542,1.51553,-0.6098,-0.3049,-1.4024,0.00,0.00,0.00,1,S01
19640,-9.14824,1.07260,1.51553,-0.6098,-0.4268,-1.3415,0.00,0.00,0.00,1,S01
19660,-9.15543,1.06781,1.52032,-0.4878,-0.3049,-1.3415,0.00,0.00,0.00,1,S01
19680,-9.15782,1.06303,1.52511,-0.4878,-0.2439,-1.3415,0.00,0.00,0.00,1,S01
19700,-9.15543,1.06303,1.52271,-0.4878,-0.3049,-1.2805,0.00,0.00,0.00,1,S01
19720,-9.15303,1.06063,1.48201,-0.4268,-0.4268,-1.3415,0.00,0.00,0.00,1,S01
19740,-9.15543,1.05824,1.48680,-0.3659,-0.4268,-1.3415,0.00,0.00,0.00,1,S01
19760,-9.15543,1.05824,1.48680,-0.3659,-0.4268,-1.3415,0.00,0.00,0.00,1,S01
19780,-9.15064,1.05824,1.51074,-0.3659,-0.5488,-1.2195,0.00,0.00,0.00,1,S01
19800,-9.14824,1.05345,1.50835,-0.4878,-0.6098,-1.2195,0.00,0.00,0.00,1,S01
19820,-9.14346,1.05345,1.48680,-0.4268,-0.4878,-1.3415,0.00,0.00,0.00,1,S01
19840,-9.13388,1.06063,1.49398,-0.4268,-0.1829,-1.4024,0.00,0.00,0.00,1,S01
19860,-9.14346,1.07739,1.49877,-0.4268,0.1220,-1.4024,0.00,0.00,0.00,1,S01
19880,-9.13867,1.07021,1.51553,-0.4268,0.1829,-1.4024,0.00,0.00,0.00,1,S01
19900,-9.13627,1.07021,1.53468,-0.4268,0.1220,-1.4634,0.00,0.00,0.00,1,S01
19920,-9.16261,1.08218,1.52271,-0.4878,0.0610,-1.4024,0.00,0.00,0.00,1,S01
19940,-9.16979,1.08697,1.52511,-0.6707,0.0610,-1.2805,0.00,0.00,0.00,1,S01
19960,-9.15782,1.06303,1.55144,-0.7317,-0.0610,-1.2195,0.00,0.00,0.00,1,S01
19980,-9.14346,1.04387,1.56341,-0.6098,-0.2439,-1.2805,0.00,0.00,0.00,1,S01
20000,-9.15064,1.06063,1.53468,-0.2439,-0.1829,-1.3415,0.00,0.00,0.00,1,S01
20020,-9.16261,1.08697,1.53229,-0.2439,-0.0610,-1.3415,0.00,0.00,0.00,1,S01
20040,-9.15782,1.08218,1.52750,-0.3659,-0.3049,-1.2195,0.00,0.00,0.00,1,S01
20060,-9.15543,1.06542,1.51792,-0.4878,-0.3659,-1.2195,0.00,0.00,0.00,1,S01
20080,-9.15543,1.07500,1.50595,-0.6098,-0.3659,-1.2195,0.00,0.00,0.00,1,S01
20100,-9.13148,1.07260,1.52511,-0.9146,-0.3049,-1.0976,0.00,0.00,0.00,1,S01
20120,-9.13627,1.06303,1.53947,-1.0366,-0.0610,-1.0976,0.00,0.00,0.00,1,S01
20140,-9.14346,1.04627,1.52750,-1.0976,0.2439,-1.1585,0.00,0.00,0.00,1,S01
20160,-9.15782,1.03190,1.53229,-0.8537,0.4268,-1.3415,0.00,0.00,0.00,1,S01
20180,-9.14346,1.04627,1.54905,-0.7927,0.1220,-1.2805,0.00,0.00,0.00,1,S01
20200,-9.14585,1.03190,1.54665,-0.6707,-0.0610,-1.2195,0.00,0.00,0.00,1,S01
20220,-9.16740,1.01993,1.54426,-0.3049,0.0000,-1.2805,0.00,0.00,0.00,1,S01
20240,-9.16261,1.03430,1.53229,0.0000,0.0000,-1.3415,0.00,0.00,0.00,1,S01
20260,-9.14585,1.06781,1.54905,-0.0610,-0.1220,-1.3415,0.00,0.00,0.00,1,S01
20280,-9.13148,1.08697,1.54665,-0.3049,-0.1829,-1.2195,0.00,0.00,0.00,1,S01
20300,-9.14346,1.06303,1.54665,-0.3659,-0.0610,-1.2805,0.00,0.00,0.00,1,S01
20320,-9.16979,1.03908,1.54665,-0.1220,0.1220,-1.3415,0.00,0.00,0.00,1,S01
20340,-9.16261,1.04148,1.55144,0.0610,0.0000,-1.4024,0.00,0.00,0.00,1,S01
20360,-9.14106,1.07021,1.55623,-0.1220,-0.1220,-1.2805,0.00,0.00,0.00,1,S01
20380,-9.14106,1.07021,1.55623,-0.2439,-0.1220,-1.3415,0.00,0.00,0.00,1,S01
20400,-9.14824,1.04627,1.55144,-0.1220,0.1220,-1.4024,0.00,0.00,0.00,1,S01
20420,-9.15064,1.04148,1.55384,0.0610,0.1829,-1.4024,0.00,0.00,0.00,1,S01
20440,-9.14346,1.05105,1.56581,0.1220,0.1220,-1.3415,0.00,0.00,0.00,1,S01
20460,-9.13867,1.08218,1.55384,0.1220,0.0610,-1.3415,0.00,0.00,0.00,1,S01
20480,-9.14106,1.09415,1.55623,0.1220,0.0610,-1.4024,0.00,0.00,0.00,1,S01
20500,-9.14824,1.08697,1.55623,0.2439,0.1220,-1.4634,0.00,0.00,0.00,1,S01
20520,-9.14585,1.06303,1.54426,0.2439,0.0610,-1.4634,0.00,0.00,0.00,1,S01
20540,-9.13867,1.05105,1.54905,0.3049,0.0610,-1.4024,0.00,0.00,0.00,1,S01
20560,-9.13627,1.06063,1.55384,0.4268,0.1220,-1.4024,0.00,0.00,0.00,1,S01
20580,-9.12670,1.07978,1.57778,0.4878,0.1829,-1.4024,0.00,0.00,0.00,1,S01
20600,-9.14824,1.07978,1.57778,0.4268,0.3049,-1.4024,0.00,0.00,0.00,1,S01
20620,-9.15782,1.07021,1.55623,0.4268,0.4268,-1.4634,0.00,0.00,0.00,1,S01
20640,-9.15543,1.05584,1.52511,0.4268,0.5488,-1.4024,0.00,0.00,0.00,1,S01
20660,-9.14346,1.06063,1.54426,0.3659,0.6098,-1.4024,0.00,0.00,0.00,1,S01
20680,-9.12909,1.07260,1.57060,0.4268,0.4878,-1.4024,0.00,0.00,0.00,1,S01
20700,-9.14346,1.08697,1.55144,0.4878,0.5488,-1.4634,0.00,0.00,0.00,1,S01
20720,-9.15543,1.08218,1.53947,0.4878,0.9146,-1.4634,0.00,0.00,0.00,1,S01
20740,-9.14106,1.07021,1.53229,0.4268,1.1585,-1.4634,0.00,0.00,0.00,1,S01
20760,-9.12670,1.07260,1.55623,0.3049,1.1585,-1.4634,0.00,0.00,0.00,1,S01
20780,-9.12670,1.08697,1.52032,0.4268,1.2195,-1.4634,0.00,0.00,0.00,1,S01
20800,-9.16022,1.07739,1.51553,0.7927,1.4634,-1.5244,0.00,0.00,0.00,1,S01
20820,-9.16022,1.07739,1.51553,0.7927,1.4634,-1.5244,0.00,0.00,0.00,1,S01
20840,-9.14824,1.08936,1.51553,0.7317,1.2195,-1.4024,0.00,0.00,0.00,1,S01
20860,-9.15064,1.10373,1.52271,0.3659,1.0976,-1.2805,0.00,0.00,0.00,1,S01
20880,-9.15543,1.10133,1.52032,-0.0610,1.0366,-1.1585,0.00,0.00,0.00,1,S01
20900,-9.16261,1.07500,1.52989,-0.3049,1.0976,-1.1585,0.00,0.00,0.00,1,S01
20920,-9.14106,1.06063,1.50595,-0.5488,1.2195,-1.1585,0.00,0.00,0.00,1,S01
20940,-9.13148,1.05345,1.50356,-0.7317,1.3415,-1.1585,0.00,0.00,0.00,1,S01
20960,-9.14585,1.05345,1.52511,-0.7927,1.4634,-1.1585,0.00,0.00,0.00,1,S01
20980,-9.15543,1.04148,1.54665,-0.6707,1.4024,-1.1585,0.00,0.00,0.00,1,S01
21000,-9.16022,1.03669,1.53468,-0.4268,1.3415,-1.1585,0.00,0.00,0.00,1,S01
21020,-9.15782,1.03908,1.50116,-0.2439,1.3415,-1.2195,0.00,0.00,0.00,1,S01
21040,-9.16500,1.03908,1.48680,-0.1829,1.3415,-1.2195,0.00,0.00,0.00,1,S01
21060,-9.16022,1.04627,1.50116,-0.2439,1.2195,-1.1585,0.00,0.00,0.00,1,S01
21080,-9.15064,1.05345,1.51792,-0.1220,1.1585,-1.2195,0.00,0.00,0.00,1,S01
21100,-9.15303,1.06303,1.50116,-0.0610,1.0976,-1.2195,0.00,0.00,0.00,1,S01
21120,-9.16261,1.05824,1.48441,-0.0610,1.2195,-1.2195,0.00,0.00,0.00,1,S01
21140,-9.16979,1.04866,1.49398,0.0000,1.2195,-1.2805,0.00,0.00,0.00,1,S01
21160,-9.15543,1.07021,1.49638,0.1220,1.0976,-1.2805,0.00,0.00,0.00,1,S01
21180,-9.13867,1.10852,1.50595,0.0000,0.9756,-1.2805,0.00,0.00,0.00,1,S01
21200,-9.14824,1.09654,1.47722,-0.1829,0.9756,-1.1585,0.00,0.00,0.00,1,S01
21220,-9.16261,1.06781,1.46765,-0.2439,1.0366,-1.1585,0.00,0.00,0.00,1,S01
21240,-9.16740,1.05105,1.46046,-0.0610,0.9756,-1.1585,0.00,0.00,0.00,1,S01
21260,-9.16261,1.06781,1.49398,0.0610,0.7927,-1.1585,0.00,0.00,0.00,1,S01
21280,-9.15064,1.09176,1.48201,0.1220,0.6098,-1.0976,0.00,0.00,0.00,1,S01
21300,-9.14585,1.09654,1.47004,0.1829,0.6707,-1.1585,0.00,0.00,0.00,1,S01
21320,-9.16261,1.08457,1.47483,0.2439,0.9146,-1.2805,0.00,0.00,0.00,1,S01
21340,-9.15303,1.09415,1.46046,0.2439,1.0366,-1.2195,0.00,0.00,0.00,1,S01
21360,-9.15543,1.11091,1.47004,-0.2439,1.0976,-1.0976,0.00,0.00,0.00,1,S01
21380,-9.14824,1.09654,1.47004,-0.2439,1.2195,-1.2195,0.00,0.00,0.00,1,S01
21400,-9.16740,1.09415,1.43892,-0.2439,1.2195,-1.2805,0.00,0.00,0.00,1,S01
21420,-9.16022,1.09176,1.42934,-0.3659,1.1585,-1.1585,0.00,0.00,0.00,1,S01
21440,-9.15782,1.09176,1.45328,-0.5488,0.9756,-1.0976,0.00,0.00,0.00,1,S01
21460,-9.16500,1.08697,1.46765,-0.4878,0.9146,-1.0976,0.00,0.00,0.00,1,S01
21480,-9.18655,1.10852,1.46525,-0.3049,1.1585,-1.1585,0.00,0.00,0.00,1,S01
21500,-9.17219,1.11330,1.45567,-0.2439,1.1585,-1.2195,0.00,0.00,0.00,1,S01
21520,-9.14585,1.08218,1.45807,-0.3659,0.9146,-1.2195,0.00,0.00,0.00,1,S01
21540,-9.13867,1.07739,1.45807,-0.2439,0.8537,-1.2805,0.00,0.00,0.00,1,S01
21560,-9.16261,1.07739,1.47004,0.0000,0.9756,-1.3415,0.00,0.00,0.00,1,S01
21580,-9.16022,1.07978,1.45807,0.0610,0.5488,-1.3415,0.00,0.00,0.00,1,S01
21600,-9.16500,1.09415,1.44131,-0.1220,0.2439,-1.2805,0.00,0.00,0.00,1,S01
21620,-9.17698,1.09415,1.42934,-0.4268,0.1829,-1.2195,0.00,0.00,0.00,1,S01
21640,-9.17458,1.10133,1.45567,-0.7927,0.1220,-1.0976,0.00,0.00,0.00,1,S01
21660,-9.14585,1.08457,1.48201,-0.8537,0.0610,-1.0976,0.00,0.00,0.00,1,S01
21680,-9.14346,1.07739,1.45328,-0.6707,0.0000,-1.2805,0.00,0.00,0.00,1,S01
21700,-9.14824,1.09176,1.44370,-0.5488,0.0000,-1.3415,0.00,0.00,0.00,1,S01
21720,-9.16261,1.07260,1.43413,-0.5488,0.0000,-1.2805,0.00,0.00,0.00,1,S01
21740,-9.16740,1.05584,1.46765,-0.4878,-0.1829,-1.2805,0.00,0.00,0.00,1,S01
21760,-9.16022,1.06781,1.44610,-0.2439,-0.3049,-1.2805,0.00,0.00,0.00,1,S01
21780,-9.17219,1.10133,1.43413,-0.1220,-0.3049,-1.2805,0.00,0.00,0.00,1,S01
21800,-9.16500,1.10852,1.41018,-0.3049,-0.3659,-1.2805,0.00,0.00,0.00,1,S01
21820,-9.16740,1.08697,1.41497,-0.6098,-0.2439,-1.2195,0.00,0.00,0.00,1,S01
21840,-9.16022,1.06542,1.42455,-0.6098,-0.0610,-1.2195,0.00,0.00,0.00,1,S01
21860,-9.16022,1.07021,1.44610,-0.4268,-0.1220,-1.3415,0.00,0.00,0.00,1,S01
21880,-9.15782,1.09654,1.46765,-0.3659,-0.3049,-1.3415,0.00,0.00,0.00,1,S01
21900,-9.16740,1.07978,1.43652,-0.3659,-0.2439,-1.2805,0.00,0.00,0.00,1,S01
21920,-9.15543,1.06542,1.44131,-0.3659,0.0000,-1.3415,0.00,0.00,0.00,1,S01
21940,-9.15543,1.06542,1.44131,-0.3659,0.0000,-1.3415,0.00,0.00,0.00,1,S01
21960,-9.16261,1.07978,1.46286,-0.3049,0.0610,-1.4024,0.00,0.00,0.00,1,S01
21980,-9.16500,1.10852,1.47004,-0.3049,-0.1220,-1.3415,0.00,0.00,0.00,1,S01
22000,-9.16740,1.12527,1.46765,-0.4268,-0.2439,-1.2805,0.00,0.00,0.00,1,S01
22020,-9.16979,1.10373,1.46765,-0.6098,-0.2439,-1.3415,0.00,0.00,0.00,1,S01
22040,-9.17698,1.08457,1.47722,-0.7317,-0.1829,-1.3415,0.00,0.00,0.00,1,S01
22060,-9.16500,1.07739,1.48680,-0.6707,-0.0610,-1.3415,0.00,0.00,0.00,1,S01
22080,-9.15303,1.07500,1.48441,-0.4878,-0.1220,-1.3415,0.00,0.00,0.00,1,S01
22100,-9.14824,1.10373,1.47483,-0.4878,-0.1220,-1.2805,0.00,0.00,0.00,1,S01
22120,-9.16022,1.11330,1.47243,-0.6707,-0.1220,-1.1585,0.00,0.00,0.00,1,S01
22140,-9.18176,1.11330,1.47004,-0.8537,-0.1220,-1.1585,0.00,0.00,0.00,1,S01
22160,-9.17219,1.08936,1.47004,-0.9146,-0.1220,-1.2195,0.00,0.00,0.00,1,S01
22180,-9.15303,1.08218,1.49398,-0.8537,-0.1220,-1.2805,0.00,0.00,0.00,1,S01
22200,-9.15543,1.08697,1.49159,-0.7317,-0.1829,-1.2805,0.00,0.00,0.00,1,S01
22220,-9.16500,1.09894,1.47483,-0.7317,0.0000,-1.2195,0.00,0.00,0.00,1,S01
22240,-9.15782,1.07978,1.47483,-0.6707,0.0610,-1.2805,0.00,0.00,0.00,1,S01
22260,-9.15543,1.05824,1.48201,-0.5488,-0.1220,-1.4024,0.00,0.00,0.00,1,S01
22280,-9.14585,1.08218,1.49398,-0.3659,-0.1220,-1.4634,0.00,0.00,0.00,1,S01
22300,-9.16740,1.09894,1.49638,-0.2439,-0.0610,-1.4024,0.00,0.00,0.00,1,S01
22320,-9.17219,1.09894,1.49638,-0.3659,-0.3659,-1.3415,0.00,0.00,0.00,1,S01
22340,-9.16740,1.09415,1.48919,-0.5488,-0.4268,-1.3415,0.00,0.00,0.00,1,S01
22360,-9.16500,1.09894,1.47962,-0.6098,-0.3659,-1.3415,0.00,0.00,0.00,1,S01
22380,-9.15064,1.10133,1.49638,-0.7927,-0.4268,-1.2805,0.00,0.00,0.00,1,S01
22400,-9.13148,1.09654,1.52750,-0.9756,-0.4268,-1.2195,0.00,0.00,0.00,1,S01
22420,-9.13388,1.08936,1.53229,-1.0976,-0.3659,-1.2805,0.00,0.00,0.00,1,S01
22440,-9.16261,1.08218,1.51074,-1.0366,-0.1829,-1.3415,0.00,0.00,0.00,1,S01
22460,-9.16500,1.05105,1.49159,-0.9146,-0.0610,-1.2805,0.00,0.00,0.00,1,S01
22480,-9.16500,1.03669,1.51314,-0.7317,-0.1220,-1.3415,0.00,0.00,0.00,1,S01
22500,-9.14106,1.05584,1.53947,-0.4878,-0.4268,-1.2805,0.00,0.00,0.00,1,S01
22520,-9.16022,1.06542,1.50356,-0.1220,-0.5488,-1.3415,0.00,0.00,0.00,1,S01
22540,-9.15543,1.06063,1.49159,-0.1220,-0.3659,-1.4024,0.00,0.00,0.00,1,S01
22560,-9.14346,1.07978,1.51792,-0.1829,-0.1829,-1.4634,0.00,0.00,0.00,1,S01
22580,-9.13627,1.10612,1.52271,-0.2439,-0.1220,-1.4024,0.00,0.00,0.00,1,S01
22600,-9.14585,1.10852,1.52032,-0.4268,-0.1829,-1.4024,0.00,0.00,0.00,1,S01
22620,-9.15782,1.08457,1.52032,-0.4878,-0.1220,-1.4024,0.00,0.00,0.00,1,S01
22640,-9.15543,1.06781,1.51792,-0.4878,-0.1220,-1.4024,0.00,0.00,0.00,1,S01
22660,-9.14585,1.07500,1.50835,-0.5488,-0.2439,-1.3415,0.00,0.00,0.00,1,S01
22680,-9.14585,1.09415,1.53229,-0.6707,-0.2439,-1.2805,0.00,0.00,0.00,1,S01
22700,-9.14824,1.10133,1.54187,-0.7317,-0.2439,-1.2805,0.00,0.00,0.00,1,S01
22720,-9.14824,1.10612,1.54426,-0.7927,-0.2439,-1.3415,0.00,0.00,0.00,1,S01
22740,-9.14824,1.08457,1.52271,-0.9146,-0.1829,-1.3415,0.00,0.00,0.00,1,S01
22760,-9.15064,1.06542,1.51792,-0.8537,-0.0610,-1.3415,0.00,0.00,0.00,1,S01
22780,-9.14824,1.06542,1.52750,-0.7927,-0.1220,-1.3415,0.00,0.00,0.00,1,S01
22800,-9.14585,1.07500,1.55384,-0.7317,-0.3659,-1.2805,0.00,0.00,0.00,1,S01
22820,-9.14346,1.09176,1.54187,-0.7927,-0.4878,-1.2805,0.00,0.00,0.00,1,S01
22840,-9.14585,1.10373,1.54187,-0.9756,-0.3659,-1.2195,0.00,0.00,0.00,1,S01
22860,-9.14585,1.08697,1.54187,-1.2195,-0.1220,-1.1585,0.00,0.00,0.00,1,S01
22880,-9.14824,1.06063,1.53947,-1.2195,0.0000,-1.1585,0.00,0.00,0.00,1,S01
22900,-9.14106,1.05345,1.58017,-1.0976,0.0000,-1.2195,0.00,0.00,0.00,1,S01
22920,-9.15543,1.04866,1.56820,-0.7927,-0.3049,-1.3415,0.00,0.00,0.00,1,S01
22940,-9.16740,1.03908,1.55384,-0.4878,-0.4268,-1.3415,0.00,0.00,0.00,1,S01
22960,-9.14585,1.03190,1.58017,-0.3049,-0.5488,-1.4024,0.00,0.00,0.00,1,S01
22980,-9.11712,1.07739,1.57060,0.1220,-0.4878,-1.4634,0.00,0.00,0.00,1,S01
23000,-9.11712,1.07739,1.57060,0.1220,-0.4878,-1.4634,0.00,0.00,0.00,1,S01
23020,-9.14346,1.09176,1.54665,0.0610,-0.1829,-1.4634,0.00,0.00,0.00,1,S01
23040,-9.16261,1.07260,1.56341,-0.0610,-0.3049,-1.5244,0.00,0.00,0.00,1,S01
23060,-9.16979,1.06781,1.55384,-0.0610,-0.4268,-1.5244,0.00,0.00,0.00,1,S01
23080,-9.15782,1.09176,1.54905,-0.1220,-0.5488,-1.4634,0.00,0.00,0.00,1,S01
23100,-9.14585,1.11570,1.54905,-0.3049,-0.6707,-1.3415,0.00,0.00,0.00,1,S01
23120,-9.14106,1.09176,1.56341,-0.4878,-0.6707,-1.2805,0.00,0.00,0.00,1,S01
23140,-9.12430,1.07260,1.56341,-0.5488,-0.3659,-1.3415,0.00,0.00,0.00,1,S01
23160,-9.12191,1.07500,1.54665,-0.5488,-0.0610,-1.4024,0.00,0.00,0.00,1,S01
23180,-9.13627,1.09415,1.55863,-0.7317,0.1220,-1.2805,0.00,0.00,0.00,1,S01
23200,-9.15543,1.08936,1.57299,-0.8537,0.0000,-1.2195,0.00,0.00,0.00,1,S01
23220,-9.14824,1.07739,1.56341,-0.7317,-0.1220,-1.2195,0.00,0.00,0.00,1,S01
23240,-9.13627,1.09654,1.58017,-0.7317,0.1220,-1.2805,0.00,0.00,0.00,1,S01
23260,-9.11951,1.09894,1.57778,-0.8537,0.3659,-1.2805,0.00,0.00,0.00,1,S01
23280,-9.12430,1.10373,1.61130,-0.9756,0.6098,-1.2805,0.00,0.00,0.00,1,S01
23300,-9.13867,1.07978,1.60172,-0.9756,0.6707,-1.2805,0.00,0.00,0.00,1,S01
23320,-9.16022,1.06542,1.59454,-0.9756,0.5488,-1.2195,0.00,0.00,0.00,1,S01
23340,-9.15782,1.05584,1.59454,-0.9146,0.3659,-1.2195,0.00,0.00,0.00,1,S01
23360,-9.15782,1.05345,1.60651,-0.7927,0.1829,-1.2195,0.00,0.00,0.00,1,S01
23380,-9.15064,1.05105,1.60651,-0.6707,0.1829,-1.2195,0.00,0.00,0.00,1,S01
23400,-9.14106,1.04866,1.60412,-0.6098,0.2439,-1.2805,0.00,0.00,0.00,1,S01
23420,-9.12909,1.03669,1.58496,-0.6098,0.3659,-1.2805,0.00,0.00,0.00,1,S01
23440,-9.14106,1.02472,1.59214,-0.4268,0.4268,-1.4024,0.00,0.00,0.00,1,S01
23460,-9.16022,1.03430,1.60412,-0.0610,0.3659,-1.5244,0.00,0.00,0.00,1,S01
23480,-9.16979,1.05345,1.61130,0.1829,0.1220,-1.5244,0.00,0.00,0.00,1,S01
23500,-9.15303,1.06063,1.57778,0.3049,0.0000,-1.4634,0.00,0.00,0.00,1,S01
23520,-9.13388,1.07500,1.56102,0.2439,0.0610,-1.4634,0.00,0.00,0.00,1,S01
23540,-9.12430,1.08697,1.56102,0.0610,0.3659,-1.4634,0.00,0.00,0.00,1,S01
23560,-9.12909,1.09176,1.55863,-0.0610,0.4878,-1.5244,0.00,0.00,0.00,1,S01
23580,-9.14824,1.07978,1.55623,-0.0610,0.5488,-1.5244,0.00,0.00,0.00,1,S01
23600,-9.15064,1.08218,1.55623,0.0000,0.4878,-1.4634,0.00,0.00,0.00,1,S01
23620,-9.14824,1.09415,1.55144,-0.1220,0.5488,-1.4024,0.00,0.00,0.00,1,S01
23640,-9.12909,1.10133,1.56581,-0.3049,0.6098,-1.3415,0.00,0.00,0.00,1,S01
23660,-9.13148,1.08218,1.59933,-0.3049,0.6098,-1.3415,0.00,0.00,0.00,1,S01
23680,-9.16500,1.07739,1.53229,-0.3049,0.6098,-1.2805,0.00,0.00,0.00,1,S01
23700,-9.14585,1.06303,1.56102,-0.3659,0.6098,-1.2805,0.00,0.00,0.00,1,S01
23720,-9.13627,1.06781,1.61130,-0.3049,0.4268,-1.3415,0.00,0.00,0.00,1,S01
23740,-9.12909,1.09415,1.59454,-0.0610,0.6098,-1.3415,0.00,0.00,0.00,1,S01
23760,-9.13867,1.08457,1.57299,-0.0610,0.8537,-1.4024,0.00,0.00,0.00,1,S01
23780,-9.14824,1.04387,1.54187,-0.2439,0.9756,-1.4634,0.00,0.00,0.00,1,S01
23800,-9.15303,1.03669,1.53708,-0.3049,1.2195,-1.4634,0.00,0.00,0.00,1,S01
23820,-9.15543,1.07021,1.55384,-0.3659,1.2195,-1.3415,0.00,0.00,0.00,1,S01
23840,-9.15064,1.07978,1.57538,-0.4268,1.0366,-1.2805,0.00,0.00,0.00,1,S01
23860,-9.14585,1.06781,1.55623,-0.3659,1.0976,-1.2805,0.00,0.00,0.00,1,S01
23880,-9.12430,1.06303,1.54426,-0.4268,1.4634,-1.3415,0.00,0.00,0.00,1,S01
23900,-9.13148,1.06542,1.54187,-0.5488,1.7683,-1.3415,0.00,0.00,0.00,1,S01
23920,-9.14585,1.05345,1.54187,-0.4268,1.8293,-1.2805,0.00,0.00,0.00,1,S01
23940,-9.15782,1.05345,1.54905,-0.0610,1.7073,-1.4024,0.00,0.00,0.00,1,S01
23960,-9.15064,1.08697,1.52750,0.0610,1.5244,-1.4024,0.00,0.00,0.00,1,S01
23980,-9.15303,1.07021,1.52032,0.0000,1.5854,-1.4024,0.00,0.00,0.00,1,S01
24000,-9.16022,1.04866,1.51792,0.0000,1.7073,-1.4024,0.00,0.00,0.00,1,S01
24020,-9.14824,1.04866,1.52032,0.0610,1.6463,-1.4634,0.00,0.00,0.00,1,S01
24040,-9.13627,1.07260,1.52271,0.0610,1.5854,-1.4024,0.00,0.00,0.00,1,S01
24060,-9.14585,1.07739,1.50595,0.0000,1.5244,-1.3415,0.00,0.00,0.00,1,S01
24080,-9.16740,1.05105,1.50595,0.0000,1.4634,-1.4024,0.00,0.00,0.00,1,S01
24100,-9.16261,1.06781,1.51553,0.0000,1.4634,-1.4634,0.00,0.00,0.00,1,S01
24120,-9.15303,1.06781,1.50116,-0.0610,1.4024,-1.4024,0.00,0.00,0.00,1,S01
24140,-9.15782,1.04627,1.49638,-0.0610,1.3415,-1.4024,0.00,0.00,0.00,1,S01
24160,-9.16740,1.04866,1.48441,0.1829,1.2805,-1.4634,0.00,0.00,0.00,1,S01
24180,-9.15782,1.05584,1.46765,0.3049,1.2195,-1.4634,0.00,0.00,0.00,1,S01
24200,-9.15543,1.07021,1.47483,0.1829,1.2805,-1.4024,0.00,0.00,0.00,1,S01
24220,-9.15543,1.06303,1.47722,0.0610,1.2195,-1.3415,0.00,0.00,0.00,1,S01
24240,-9.16979,1.03430,1.48919,0.1220,1.2195,-1.4024,0.00,0.00,0.00,1,S01
24260,-9.16740,1.03908,1.47722,0.3049,1.1585,-1.4634,0.00,0.00,0.00,1,S01
24280,-9.16261,1.06542,1.45089,0.3049,1.0976,-1.4024,0.00,0.00,0.00,1,S01
24300,-9.16740,1.09654,1.45567,0.1220,1.2195,-1.4024,0.00,0.00,0.00,1,S01
24320,-9.16740,1.08218,1.45567,-0.0610,1.3415,-1.4024,0.00,0.00,0.00,1,S01
24340,-9.16740,1.07978,1.45807,0.0610,1.3415,-1.4634,0.00,0.00,0.00,1,S01
24360,-9.15303,1.09176,1.46046,0.0000,1.3415,-1.4634,0.00,0.00,0.00,1,S01
24380,-9.15782,1.10373,1.44131,-0.2439,1.2805,-1.3415,0.00,0.00,0.00,1,S01
24400,-9.15303,1.08218,1.43652,-0.4878,1.2195,-1.2805,0.00,0.00,0.00,1,S01
24420,-9.17458,1.06781,1.45328,-0.4268,1.2195,-1.3415,0.00,0.00,0.00,1,S01
24440,-9.17937,1.06303,1.43413,-0.4268,1.2195,-1.2805,0.00,0.00,0.00,1,S01
24460,-9.17698,1.07978,1.43892,-0.5488,1.3415,-1.1585,0.00,0.00,0.00,1,S01
24480,-9.16500,1.06063,1.46046,-0.7317,1.2195,-1.0976,0.00,0.00,0.00,1,S01
24500,-9.16979,1.04627,1.47004,-0.6098,0.9146,-1.2195,0.00,0.00,0.00,1,S01
24520,-9.16979,1.05584,1.43652,-0.0610,0.8537,-1.4024,0.00,0.00,0.00,1,S01
24540,-9.17458,1.06303,1.42934,0.0610,0.8537,-1.4024,0.00,0.00,0.00,1,S01
24560,-9.16261,1.06063,1.39821,-0.1220,0.6707,-1.3415,0.00,0.00,0.00,1,S01
24580,-9.16022,1.03908,1.41976,-0.2439,0.7927,-1.3415,0.00,0.00,0.00,1,S01
24600,-9.17458,1.05824,1.44610,-0.1829,0.8537,-1.3415,0.00,0.00,0.00,1,S01
24620,-9.16740,1.08218,1.43652,-0.3049,0.6707,-1.2805,0.00,0.00,0.00,1,S01
24640,-9.15782,1.08218,1.44610,-0.5488,0.6707,-1.2805,0.00,0.00,0.00,1,S01
24660,-9.16740,1.05105,1.43892,-0.6098,0.5488,-1.2805,0.00,0.00,0.00,1,S01
24680,-9.16022,1.04148,1.43652,-0.5488,0.5488,-1.2805,0.00,0.00,0.00,1,S01
24700,-9.16022,1.04627,1.45089,-0.4268,0.4268,-1.2805,0.00,0.00,0.00,1,S01
24720,-9.16261,1.06063,1.47004,-0.4268,0.2439,-1.3415,0.00,0.00,0.00,1,S01
24740,-9.16022,1.05345,1.45567,-0.2439,0.3049,-1.3415,0.00,0.00,0.00,1,S01
24760,-9.17698,1.05105,1.45089,-0.0610,0.3049,-1.4024,0.00,0.00,0.00,1,S01
24780,-9.16500,1.06542,1.42694,0.0000,0.1220,-1.3415,0.00,0.00,0.00,1,S01
24800,-9.17219,1.09415,1.45807,-0.1220,-0.0610,-1.3415,0.00,0.00,0.00,1,S01
24820,-9.17219,1.10852,1.43892,-0.2439,-0.3049,-1.2805,0.00,0.00,0.00,1,S01
24840,-9.16500,1.06542,1.43413,-0.4878,-0.1829,-1.3415,0.00,0.00,0.00,1,S01
24860,-9.15543,1.05584,1.43892,-0.4878,-0.0610,-1.3415,0.00,0.00,0.00,1,S01
24880,-9.15543,1.07260,1.43892,-0.3659,0.0610,-1.3415,0.00,0.00,0.00,1,S01
24900,-9.16261,1.08218,1.43413,-0.3049,0.0000,-1.3415,0.00,0.00,0.00,1,S01
24920,-9.17458,1.10133,1.43173,-0.3049,-0.0610,-1.3415,0.00,0.00,0.00,1,S01
24940,-9.17698,1.09894,1.43652,-0.4268,-0.1220,-1.2805,0.00,0.00,0.00,1,S01
24960,-9.16740,1.07260,1.43652,-0.5488,-0.1829,-1.2805,0.00,0.00,0.00,1,S01
24980,-9.16740,1.05824,1.44849,-0.5488,-0.1829,-1.2805,0.00,0.00,0.00,1,S01
25000,-9.15782,1.05824,1.45089,-0.5488,-0.2439,-1.3415,0.00,0.00,0.00,1,S01
25020,-9.15782,1.07739,1.44610,-0.5488,-0.2439,-1.2805,0.00,0.00,0.00,1,S01
25040,-9.14824,1.07260,1.46286,-0.6098,-0.2439,-1.2805,0.00,0.00,0.00,1,S01
25060,-9.16022,1.07021,1.47243,-0.6707,-0.1220,-1.2195,0.00,0.00,0.00,1,S01
25080,-9.17219,1.06063,1.44849,-0.6707,-0.1220,-1.2805,0.00,0.00,0.00,1,S01
25100,-9.16022,1.05345,1.45328,-0.6707,-0.1220,-1.2805,0.00,0.00,0.00,1,S01
25120,-9.15782,1.06303,1.47483,-0.4878,-0.1829,-1.3415,0.00,0.00,0.00,1,S01
25140,-9.14346,1.07500,1.47722,-0.4878,-0.3049,-1.2805,0.00,0.00,0.00,1,S01
25160,-9.16022,1.05345,1.47962,-0.7317,0.0000,-1.2805,0.00,0.00,0.00,1,S01
25180,-9.16022,1.05345,1.47962,-0.7317,0.0000,-1.2805,0.00,0.00,0.00,1,S01
25200,-9.15064,1.03190,1.49638,-0.6707,-0.0610,-1.4024,0.00,0.00,0.00,1,S01
25220,-9.14824,1.05584,1.48919,-0.4878,-0.1220,-1.4024,0.00,0.00,0.00,1,S01
25240,-9.17458,1.05824,1.47962,-0.2439,-0.0610,-1.4024,0.00,0.00,0.00,1,S01
25260,-9.16740,1.04627,1.44849,-0.2439,-0.3659,-1.4634,0.00,0.00,0.00,1,S01
25280,-9.15303,1.06063,1.46286,-0.3049,-0.4878,-1.4634,0.00,0.00,0.00,1,S01
25300,-9.16261,1.07500,1.48680,-0.5488,-0.3659,-1.2805,0.00,0.00,0.00,1,S01
25320,-9.16261,1.09176,1.49877,-0.7927,-0.4268,-1.1585,0.00,0.00,0.00,1,S01
25340,-9.14585,1.07739,1.51792,-0.9756,-0.4268,-1.1585,0.00,0.00,0.00,1,S01
25360,-9.13867,1.06063,1.49877,-0.9756,-0.2439,-1.2805,0.00,0.00,0.00,1,S01
25380,-9.15064,1.04387,1.49159,-0.9146,0.0000,-1.3415,0.00,0.00,0.00,1,S01
25400,-9.16500,1.04387,1.50116,-0.7927,-0.0610,-1.3415,0.00,0.00,0.00,1,S01
25420,-9.16979,1.03430,1.50356,-0.6098,-0.3049,-1.2805,0.00,0.00,0.00,1,S01
25440,-9.15782,1.04627,1.50356,-0.4268,-0.4878,-1.2805,0.00,0.00,0.00,1,S01
25460,-9.14824,1.07260,1.47722,-0.4268,-0.3049,-1.3415,0.00,0.00,0.00,1,S01
25480,-9.15064,1.06542,1.47243,-0.6098,-0.0610,-1.2805,0.00,0.00,0.00,1,S01
25500,-9.15064,1.04627,1.47962,-0.6707,0.1220,-1.2805,0.00,0.00,0.00,1,S01
25520,-9.16979,1.03190,1.49398,-0.5488,0.1220,-1.2805,0.00,0.00,0.00,1,S01
25540,-9.16740,1.06063,1.48441,-0.4878,0.0000,-1.3415,0.00,0.00,0.00,1,S01
25560,-9.16500,1.06063,1.49159,-0.5488,-0.1829,-1.2805,0.00,0.00,0.00,1,S01
25580,-9.16261,1.05345,1.50116,-0.6707,-0.1829,-1.2805,0.00,0.00,0.00,1,S01
25600,-9.15303,1.06063,1.51314,-0.7317,-0.0610,-1.2805,0.00,0.00,0.00,1,S01
25620,-9.14346,1.07021,1.51314,-0.7927,0.0610,-1.2805,0.00,0.00,0.00,1,S01
25640,-9.14585,1.07739,1.50116,-0.9146,0.1829,-1.2805,0.00,0.00,0.00,1,S01
25660,-9.16500,1.05584,1.51792,-0.8537,0.3049,-1.2805,0.00,0.00,0.00,1,S01
25680,-9.17219,1.03669,1.52032,-0.5488,0.1220,-1.3415,0.00,0.00,0.00,1,S01
25700,-9.16740,1.05584,1.49877,-0.3049,-0.1829,-1.4024,0.00,0.00,0.00,1,S01
25720,-9.14824,1.07739,1.51074,-0.3659,-0.3659,-1.2805,0.00,0.00,0.00,1,S01
25740,-9.14824,1.08218,1.51074,-0.6098,-0.3659,-1.2195,0.00,0.00,0.00,1,S01
25760,-9.15064,1.06542,1.51314,-0.7317,-0.3049,-1.2805,0.00,0.00,0.00,1,S01
25780,-9.14585,1.05105,1.49638,-0.6098,-0.1220,-1.3415,0.00,0.00,0.00,1,S01
25800,-9.14346,1.04866,1.50835,-0.4268,0.0000,-1.4024,0.00,0.00,0.00,1,S01
25820,-9.15782,1.07260,1.50595,-0.4268,-0.0610,-1.4024,0.00,0.00,0.00,1,S01
25840,-9.16261,1.07739,1.50116,-0.4878,-0.1220,-1.3415,0.00,0.00,0.00,1,S01
25860,-9.15543,1.05824,1.50835,-0.4878,-0.1220,-1.4024,0.00,0.00,0.00,1,S01
25880,-9.15782,1.03669,1.50116,-0.4878,-0.1829,-1.4024,0.00,0.00,0.00,1,S01
25900,-9.16261,1.05345,1.50356,-0.4878,0.0000,-1.2805,0.00,0.00,0.00,1,S01
25920,-9.15303,1.06303,1.52271,-0.4878,0.0000,-1.2805,0.00,0.00,0.00,1,S01
25940,-9.13388,1.04866,1.55384,-0.4878,-0.1829,-1.3415,0.00,0.00,0.00,1,S01
25960,-9.13867,1.04387,1.52750,-0.1829,-0.1829,-1.4634,0.00,0.00,0.00,1,S01
25980,-9.16261,1.05345,1.51314,0.0610,0.1829,-1.5854,0.00,0.00,0.00,1,S01
26000,-9.15064,1.07500,1.52271,-0.2439,-0.1829,-1.4024,0.00,0.00,0.00,1,S01
26020,-9.16022,1.06542,1.51074,-0.3659,-0.1220,-1.3415,0.00,0.00,0.00,1,S01
26040,-9.17219,1.05824,1.52271,-0.4268,-0.1829,-1.3415,0.00,0.00,0.00,1,S01
26060,-9.16261,1.06542,1.53229,-0.4878,-0.3659,-1.2805,0.00,0.00,0.00,1,S01
26080,-9.14346,1.06063,1.52511,-0.6707,-0.3659,-1.2195,0.00,0.00,0.00,1,S01
26100,-9.14106,1.04148,1.50835,-0.7927,-0.1829,-1.2195,0.00,0.00,0.00,1,S01
26120,-9.15543,1.02711,1.51314,-0.6707,0.0610,-1.2805,0.00,0.00,0.00,1,S01
26140,-9.16740,1.02951,1.53229,-0.4878,0.0610,-1.3415,0.00,0.00,0.00,1,S01
26160,-9.14585,1.03190,1.52750,-0.4268,-0.1220,-1.3415,0.00,0.00,0.00,1,S01
26180,-9.14106,1.05584,1.51792,-0.4268,0.0000,-1.2805,0.00,0.00,0.00,1,S01
26200,-9.14824,1.04627,1.51074,-0.4878,0.2439,-1.2805,0.00,0.00,0.00,1,S01
26220,-9.16261,1.01993,1.52271,-0.4268,0.3049,-1.2805,0.00,0.00,0.00,1,S01
26240,-9.14824,1.05105,1.51792,-0.3049,0.0000,-1.3415,0.00,0.00,0.00,1,S01
26260,-9.14824,1.05105,1.51792,-0.3049,0.0000,-1.3415,0.00,0.00,0.00,1,S01
26280,-9.14585,1.05824,1.54426,-0.3659,0.0000,-1.2805,0.00,0.00,0.00,1,S01
26300,-9.14585,1.07500,1.56102,-0.3659,0.0610,-1.2805,0.00,0.00,0.00,1,S01
26320,-9.13627,1.07978,1.54665,-0.4878,0.1829,-1.2805,0.00,0.00,0.00,1,S01
26340,-9.14346,1.07021,1.54665,-0.6098,0.3049,-1.3415,0.00,0.00,0.00,1,S01
26360,-9.15782,1.04627,1.54426,-0.4878,0.3049,-1.3415,0.00,0.00,0.00,1,S01
26380,-9.16261,1.04387,1.55623,-0.3049,0.1829,-1.3415,0.00,0.00,0.00,1,S01
26400,-9.15782,1.07500,1.56581,-0.2439,0.0000,-1.3415,0.00,0.00,0.00,1,S01
26420,-9.14585,1.08697,1.55144,-0.3659,-0.1220,-1.2805,0.00,0.00,0.00,1,S01
26440,-9.13867,1.06303,1.54187,-0.4878,0.0000,-1.3415,0.00,0.00,0.00,1,S01
26460,-9.14585,1.06063,1.55623,-0.4878,0.3049,-1.4024,0.00,0.00,0.00,1,S01
26480,-9.15303,1.06063,1.55384,-0.5488,0.3659,-1.3415,0.00,0.00,0.00,1,S01
26500,-9.16261,1.06063,1.56341,-0.5488,0.3049,-1.2195,0.00,0.00,0.00,1,S01
26520,-9.16022,1.05824,1.57538,-0.4878,0.1220,-1.2195,0.00,0.00,0.00,1,S01
26540,-9.13867,1.06542,1.56581,-0.4268,0.0610,-1.2805,0.00,0.00,0.00,1,S01
26560,-9.13627,1.07500,1.54905,-0.5488,0.1220,-1.2195,0.00,0.00,0.00,1,S01
26580,-9.13627,1.05345,1.55384,-0.6707,0.1829,-1.2195,0.00,0.00,0.00,1,S01
26600,-9.13867,1.04866,1.55863,-0.5488,0.2439,-1.2805,0.00,0.00,0.00,1,S01
26620,-9.15543,1.05345,1.51792,-0.4268,0.2439,-1.2195,0.00,0.00,0.00,1,S01
26640,-9.15543,1.06781,1.53229,-0.4268,0.2439,-1.2195,0.00,0.00,0.00,1,S01
26660,-9.14346,1.05105,1.56581,-0.4268,-0.0610,-1.2805,0.00,0.00,0.00,1,S01
26680,-9.13867,1.03908,1.58017,-0.1220,-0.0610,-1.4024,0.00,0.00,0.00,1,S01
26700,-9.14346,1.05584,1.55144,0.2439,0.3049,-1.4634,0.00,0.00,0.00,1,S01
26720,-9.13627,1.05584,1.53468,0.0610,0.4268,-1.4634,0.00,0.00,0.00,1,S01
26740,-9.13388,1.05105,1.54426,-0.1220,0.4268,-1.4024,0.00,0.00,0.00,1,S01
26760,-9.16022,1.02711,1.56102,-0.1220,0.5488,-1.4024,0.00,0.00,0.00,1,S01
26780,-9.16500,1.03908,1.56341,0.0000,0.4268,-1.4024,0.00,0.00,0.00,1,S01
26800,-9.14346,1.06063,1.55863,-0.1220,0.4268,-1.4024,0.00,0.00,0.00,1,S01
26820,-9.12670,1.07260,1.55863,-0.1829,0.6707,-1.3415,0.00,0.00,0.00,1,S01
26840,-9.14585,1.05345,1.54665,-0.4268,0.9756,-1.2805,0.00,0.00,0.00,1,S01
26860,-9.15782,1.02472,1.54905,-0.3659,1.1585,-1.3415,0.00,0.00,0.00,1,S01
26880,-9.14585,1.03190,1.53468,-0.1220,1.2195,-1.4634,0.00,0.00,0.00,1,S01
26900,-9.14346,1.05584,1.53947,0.0610,1.2805,-1.4634,0.00,0.00,0.00,1,S01
26920,-9.15782,1.03908,1.53947,0.1220,1.2805,-1.4024,0.00,0.00,0.00,1,S01
26940,-9.16261,1.03430,1.53468,0.1829,1.3415,-1.4024,0.00,0.00,0.00,1,S01
26960,-9.14346,1.06542,1.52511,0.1829,1.5244,-1.4634,0.00,0.00,0.00,1,S01
26980,-9.14585,1.07021,1.50595,0.0000,1.7683,-1.4024,0.00,0.00,0.00,1,S01
27000,-9.15064,1.05584,1.51314,-0.0610,1.8293,-1.4024,0.00,0.00,0.00,1,S01
27020,-9.16740,1.04148,1.52032,0.0000,1.7683,-1.4634,0.00,0.00,0.00,1,S01
27040,-9.16261,1.07021,1.50835,0.0610,1.7073,-1.4634,0.00,0.00,0.00,1,S01
27060,-9.15543,1.07500,1.51314,-0.1829,1.6463,-1.4024,0.00,0.00,0.00,1,S01
27080,-9.16022,1.04387,1.51314,-0.3659,1.5854,-1.3415,0.00,0.00,0.00,1,S01
27100,-9.16022,1.02951,1.50356,-0.3049,1.5854,-1.4024,0.00,0.00,0.00,1,S01
27120,-9.14585,1.01275,1.49159,-0.1829,1.4634,-1.4024,0.00,0.00,0.00,1,S01
27140,-9.14346,1.03669,1.50356,0.0000,1.4634,-1.4024,0.00,0.00,0.00,1,S01
27160,-9.17937,1.07260,1.48201,0.0000,1.3415,-1.4024,0.00,0.00,0.00,1,S01
27180,-9.17458,1.06063,1.45807,-0.1220,1.3415,-1.4024,0.00,0.00,0.00,1,S01
27200,-9.16022,1.04148,1.44849,-0.0610,1.3415,-1.4024,0.00,0.00,0.00,1,S01
27220,-9.16740,1.04148,1.45089,-0.0610,1.4634,-1.4024,0.00,0.00,0.00,1,S01
27240,-9.16500,1.06303,1.45089,-0.1220,1.4634,-1.3415,0.00,0.00,0.00,1,S01
27260,-9.15543,1.05584,1.45567,-0.1829,1.4024,-1.4024,0.00,0.00,0.00,1,S01
27280,-9.16740,1.04387,1.45089,-0.2439,1.4024,-1.4024,0.00,0.00,0.00,1,S01
27300,-9.17937,1.03190,1.41018,-0.2439,1.4024,-1.3415,0.00,0.00,0.00,1,S01
27320,-9.17458,1.03908,1.44131,0.0610,1.3415,-1.3415,0.00,0.00,0.00,1,S01
27340,-9.17458,1.03908,1.44131,0.0610,1.3415,-1.3415,0.00,0.00,0.00,1,S01
27360,-9.18895,1.05824,1.45089,0.1220,1.1585,-1.3415,0.00,0.00,0.00,1,S01
27380,-9.19134,1.05584,1.43413,0.1220,1.1585,-1.4024,0.00,0.00,0.00,1,S01
27400,-9.18176,1.01514,1.42694,0.2439,1.0976,-1.4634,0.00,0.00,0.00,1,S01
27420,-9.15782,1.01993,1.42694,0.4268,0.9146,-1.5244,0.00,0.00,0.00,1,S01
27440,-9.15543,1.04627,1.42455,0.6098,1.0976,-1.5244,0.00,0.00,0.00,1,S01
27460,-9.17937,1.05345,1.43892,0.4878,1.0976,-1.4634,0.00,0.00,0.00,1,S01
27480,-9.19134,1.04148,1.41018,0.3659,0.8537,-1.4634,0.00,0.00,0.00,1,S01
27500,-9.19134,1.03669,1.39103,0.3659,0.8537,-1.4024,0.00,0.00,0.00,1,S01
27520,-9.18895,1.05824,1.41737,0.2439,0.7927,-1.2805,0.00,0.00,0.00,1,S01
27540,-9.16022,1.07260,1.44610,0.0610,0.6707,-1.2195,0.00,0.00,0.00,1,S01
27560,-9.13388,1.07500,1.44610,-0.2439,0.6707,-1.2805,0.00,0.00,0.00,1,S01
27580,-9.16022,1.05584,1.43413,-0.4268,0.8537,-1.3415,0.00,0.00,0.00,1,S01
27600,-9.17698,1.04148,1.42216,-0.3659,1.0366,-1.2805,0.00,0.00,0.00,1,S01
27620,-9.16979,1.04387,1.43413,-0.2439,0.9756,-1.2805,0.00,0.00,0.00,1,S01
27640,-9.17219,1.07739,1.44131,-0.1829,0.8537,-1.2805,0.00,0.00,0.00,1,S01
27660,-9.18416,1.06303,1.42455,-0.3049,0.6707,-1.2805,0.00,0.00,0.00,1,S01
27680,-9.18895,1.03669,1.41976,-0.3659,0.4878,-1.2805,0.00,0.00,0.00,1,S01
27700,-9.17698,1.04148,1.39582,-0.3049,0.4268,-1.3415,0.00,0.00,0.00,1,S01
27720,-9.15543,1.06303,1.41497,-0.3659,0.4878,-1.2805,0.00,0.00,0.00,1,S01
27740,-9.15782,1.08936,1.42694,-0.5488,0.3659,-1.1585,0.00,0.00,0.00,1,S01
27760,-9.16979,1.07500,1.40540,-0.6707,0.1220,-1.1585,0.00,0.00,0.00,1,S01
27780,-9.18895,1.06303,1.39821,-0.6707,0.0000,-1.2195,0.00,0.00,0.00,1,S01
27800,-9.17937,1.07260,1.38864,-0.7927,-0.1829,-1.2805,0.00,0.00,0.00,1,S01
27820,-9.16740,1.07021,1.40779,-0.9146,-0.2439,-1.1585,0.00,0.00,0.00,1,S01
27840,-9.16979,1.05584,1.41018,-0.8537,-0.3659,-1.0976,0.00,0.00,0.00,1,S01
27860,-9.18176,1.04866,1.40300,-0.6707,-0.4878,-1.1585,0.00,0.00,0.00,1,S01
27880,-9.16740,1.05584,1.40779,-0.6707,-0.5488,-1.2195,0.00,0.00,0.00,1,S01
27900,-9.16979,1.05584,1.41018,-0.6707,-0.4878,-1.1585,0.00,0.00,0.00,1,S01
27920,-9.16500,1.06303,1.42216,-0.7317,-0.3659,-1.1585,0.00,0.00,0.00,1,S01
27940,-9.17219,1.06781,1.42934,-0.6707,-0.1829,-1.2195,0.00,0.00,0.00,1,S01
27960,-9.17219,1.06303,1.43892,-0.6098,-0.1220,-1.2195,0.00,0.00,0.00,1,S01
27980,-9.17698,1.04387,1.45328,-0.5488,-0.1220,-1.2195,0.00,0.00,0.00,1,S01
28000,-9.18416,1.05105,1.43413,-0.6098,-0.3049,-1.2195,0.00,0.00,0.00,1,S01
28020,-9.16500,1.06542,1.43413,-0.7317,-0.4268,-1.2195,0.00,0.00,0.00,1,S01
28040,-9.16261,1.05824,1.46525,-0.8537,-0.4878,-1.1585,0.00,0.00,0.00,1,S01
28060,-9.17458,1.03430,1.44849,-0.7927,-0.3659,-1.2195,0.00,0.00,0.00,1,S01
28080,-9.18895,1.00796,1.44131,-0.4268,-0.1829,-1.3415,0.00,0.00,0.00,1,S01
28100,-9.16500,1.00796,1.45089,-0.0610,-0.3659,-1.4634,0.00,0.00,0.00,1,S01
28120,-9.15064,1.03908,1.48680,0.0610,-0.7927,-1.4634,0.00,0.00,0.00,1,S01
28140,-9.14106,1.08697,1.46286,0.0610,-0.9146,-1.3415,0.00,0.00,0.00,1,S01
28160,-9.15543,1.08218,1.43652,-0.0610,-0.6098,-1.3415,0.00,0.00,0.00,1,S01
28180,-9.16022,1.06303,1.44131,-0.2439,-0.5488,-1.3415,0.00,0.00,0.00,1,S01
28200,-9.16022,1.04866,1.45807,-0.4268,-0.4878,-1.2805,0.00,0.00,0.00,1,S01
28220,-9.16500,1.06063,1.47483,-0.4878,-0.4878,-1.2195,0.00,0.00,0.00,1,S01
28240,-9.17219,1.08697,1.47962,-0.6707,-0.6098,-1.1585,0.00,0.00,0.00,1,S01
28260,-9.15782,1.07260,1.47483,-0.8537,-0.7317,-1.1585,0.00,0.00,0.00,1,S01
28280,-9.16740,1.05584,1.48919,-0.8537,-0.6098,-1.1585,0.00,0.00,0.00,1,S01
28300,-9.16500,1.04866,1.47004,-0.9146,-0.4878,-1.1585,0.00,0.00,0.00,1,S01
28320,-9.17458,1.05584,1.47004,-0.7927,-0.6098,-1.1585,0.00,0.00,0.00,1,S01
28340,-9.16740,1.05345,1.46525,-0.5488,-0.6707,-1.1585,0.00,0.00,0.00,1,S01
28360,-9.16261,1.06542,1.46765,-0.5488,-0.4878,-1.2805,0.00,0.00,0.00,1,S01
28380,-9.14824,1.07500,1.47722,-0.7317,-0.3659,-1.2195,0.00,0.00,0.00,1,S01
28400,-9.15543,1.07739,1.48680,-0.9756,-0.2439,-1.1585,0.00,0.00,0.00,1,S01
28420,-9.17458,1.02232,1.49877,-1.0366,-0.2439,-1.1585,0.00,0.00,0.00,1,S01
28440,-9.15782,1.03669,1.51314,-0.7927,-0.4878,-1.2195,0.00,0.00,0.00,1,S01
28460,-9.15782,1.03669,1.51314,-0.7927,-0.4878,-1.2195,0.00,0.00,0.00,1,S01
28480,-9.15303,1.06542,1.52750,-0.7927,-0.5488,-1.1585,0.00,0.00,0.00,1,S01
28500,-9.14346,1.07739,1.53468,-0.8537,-0.5488,-1.0976,0.00,0.00,0.00,1,S01
28520,-9.13867,1.06303,1.53468,-0.9146,-0.4878,-1.0976,0.00,0.00,0.00,1,S01
28540,-9.14106,1.03908,1.51314,-0.7927,-0.3659,-1.2195,0.00,0.00,0.00,1,S01
28560,-9.15303,1.04627,1.52989,-0.5488,-0.2439,-1.2805,0.00,0.00,0.00,1,S01
28580,-9.15064,1.07260,1.52989,-0.4878,-0.3659,-1.2195,0.00,0.00,0.00,1,S01
28600,-9.15303,1.07739,1.53708,-0.5488,-0.4268,-1.2195,0.00,0.00,0.00,1,S01
28620,-9.15543,1.06063,1.52989,-0.6098,-0.4268,-1.2195,0.00,0.00,0.00,1,S01
28640,-9.13867,1.05584,1.52032,-0.6707,-0.4268,-1.2805,0.00,0.00,0.00,1,S01
28660,-9.12430,1.05345,1.51074,-0.7927,-0.2439,-1.2805,0.00,0.00,0.00,1,S01
28680,-9.15064,1.05345,1.52989,-0.7927,-0.1220,-1.2195,0.00,0.00,0.00,1,S01
28700,-9.16500,1.06303,1.52750,-0.7317,-0.1829,-1.1585,0.00,0.00,0.00,1,S01
28720,-9.15782,1.06063,1.54187,-0.7317,-0.4268,-1.2805,0.00,0.00,0.00,1,S01
28740,-9.15303,1.05584,1.51792,-0.6707,-0.4268,-1.2805,0.00,0.00,0.00,1,S01
28760,-9.16022,1.04866,1.51553,-0.5488,-0.2439,-1.2805,0.00,0.00,0.00,1,S01
28780,-9.15543,1.04627,1.56581,-0.4268,-0.2439,-1.3415,0.00,0.00,0.00,1,S01
28800,-9.14585,1.04627,1.57778,-0.2439,-0.5488,-1.4024,0.00,0.00,0.00,1,S01
28820,-9.13867,1.07260,1.52750,-0.0610,-0.5488,-1.4634,0.00,0.00,0.00,1,S01
28840,-9.15303,1.08218,1.52511,-0.1829,-0.3049,-1.4634,0.00,0.00,0.00,1,S01
28860,-9.14346,1.06781,1.53947,-0.3049,-0.3659,-1.4024,0.00,0.00,0.00,1,S01
28880,-9.14824,1.06542,1.55384,-0.3049,-0.3049,-1.4024,0.00,0.00,0.00,1,S01
28900,-9.15782,1.10852,1.54665,-0.4268,-0.2439,-1.3415,0.00,0.00,0.00,1,S01
28920,-9.15782,1.09894,1.54187,-0.8537,-0.2439,-1.2805,0.00,0.00,0.00,1,S01
28940,-9.14346,1.05105,1.56341,-1.0366,-0.1220,-1.2805,0.00,0.00,0.00,1,S01
28960,-9.12909,1.03908,1.57060,-0.9756,-0.0610,-1.2805,0.00,0.00,0.00,1,S01
28980,-9.13388,1.05105,1.56341,-0.9146,0.0000,-1.2805,0.00,0.00,0.00,1,S01
29000,-9.14346,1.05345,1.56102,-0.9146,0.0000,-1.2195,0.00,0.00,0.00,1,S01
29020,-9.15064,1.02711,1.55623,-0.7317,-0.0610,-1.3415,0.00,0.00,0.00,1,S01
29040,-9.15064,1.03669,1.55863,-0.4878,-0.1220,-1.4024,0.00,0.00,0.00,1,S01
29060,-9.14106,1.05345,1.53708,-0.4268,-0.1220,-1.4024,0.00,0.00,0.00,1,S01
29080,-9.13627,1.05824,1.54426,-0.6098,0.0610,-1.2805,0.00,0.00,0.00,1,S01
29100,-9.14824,1.04387,1.55144,-0.7317,0.2439,-1.2805,0.00,0.00,0.00,1,S01
29120,-9.16261,1.02472,1.56102,-0.5488,0.3049,-1.4024,0.00,0.00,0.00,1,S01
29140,-9.15543,1.01993,1.54905,-0.3659,0.2439,-1.4634,0.00,0.00,0.00,1,S01
29160,-9.15303,1.04866,1.56102,-0.4268,0.1220,-1.4024,0.00,0.00,0.00,1,S01
29180,-9.14106,1.05584,1.57299,-0.6098,0.0000,-1.3415,0.00,0.00,0.00,1,S01
29200,-9.15064,1.03669,1.59214,-0.6098,0.0610,-1.3415,0.00,0.00,0.00,1,S01
29220,-9.14346,1.02711,1.57538,-0.3659,0.1220,-1.4024,0.00,0.00,0.00,1,S01
29240,-9.13388,1.04866,1.55863,-0.3659,0.1829,-1.4024,0.00,0.00,0.00,1,S01
29260,-9.13148,1.05105,1.56581,-0.5488,0.1829,-1.3415,0.00,0.00,0.00,1,S01
29280,-9.16022,1.04627,1.58257,-0.4878,0.1829,-1.3415,0.00,0.00,0.00,1,S01
29300,-9.16500,1.02951,1.58257,-0.1829,0.0000,-1.4024,0.00,0.00,0.00,1,S01
29320,-9.13627,1.05584,1.58257,-0.1220,0.0000,-1.4634,0.00,0.00,0.00,1,S01
29340,-9.12909,1.08218,1.58736,-0.3659,-0.0610,-1.3415,0.00,0.00,0.00,1,S01
29360,-9.12909,1.05584,1.56581,-0.6098,-0.0610,-1.2805,0.00,0.00,0.00,1,S01
29380,-9.14346,1.03669,1.56102,-0.5488,0.1829,-1.3415,0.00,0.00,0.00,1,S01
29400,-9.15543,1.03908,1.54665,-0.3659,0.3049,-1.4024,0.00,0.00,0.00,1,S01
29420,-9.16022,1.05584,1.54665,-0.3049,0.3049,-1.3415,0.00,0.00,0.00,1,S01
29440,-9.15064,1.07500,1.59693,-0.3659,0.0000,-1.2805,0.00,0.00,0.00,1,S01
29460,-9.13627,1.07978,1.58257,-0.5488,-0.2439,-1.2805,0.00,0.00,0.00,1,S01
29480,-9.14585,1.05105,1.54187,-0.6707,0.3049,-1.3415,0.00,0.00,0.00,1,S01
29500,-9.14585,1.05824,1.59454,-0.3659,-0.0610,-1.3415,0.00,0.00,0.00,1,S01
29520,-9.14346,1.05824,1.58257,-0.1829,-0.1220,-1.3415,0.00,0.00,0.00,1,S01
29540,-9.14346,1.05824,1.58257,-0.1829,-0.1220,-1.3415,0.00,0.00,0.00,1,S01
29560,-9.14346,1.04627,1.56581,-0.3049,-0.1220,-1.4024,0.00,0.00,0.00,1,S01
29580,-9.12909,1.06063,1.56820,-0.4268,0.0000,-1.3415,0.00,0.00,0.00,1,S01
29600,-9.15064,1.07021,1.59214,-0.6707,0.2439,-1.2805,0.00,0.00,0.00,1,S01
29620,-9.16740,1.05584,1.59214,-0.7927,0.1829,-1.1585,0.00,0.00,0.00,1,S01
29640,-9.15064,1.04148,1.57060,-0.7317,0.1220,-1.2195,0.00,0.00,0.00,1,S01
29660,-9.12909,1.04387,1.58257,-0.6707,0.1220,-1.2805,0.00,0.00,0.00,1,S01
29680,-9.13148,1.05345,1.58736,-0.7317,0.1220,-1.2805,0.00,0.00,0.00,1,S01
29700,-9.13627,1.04387,1.58257,-0.7927,0.1220,-1.2195,0.00,0.00,0.00,1,S01
29720,-9.15782,1.02951,1.59454,-0.7317,0.1829,-1.2195,0.00,0.00,0.00,1,S01
29740,-9.14824,1.02472,1.58975,-0.5488,0.1829,-1.2805,0.00,0.00,0.00,1,S01
29760,-9.14346,1.03430,1.57778,-0.3659,0.3049,-1.3415,0.00,0.00,0.00,1,S01
29780,-9.13867,1.04627,1.57299,-0.2439,0.3049,-1.3415,0.00,0.00,0.00,1,S01
29800,-9.14585,1.04387,1.56820,-0.3049,0.4268,-1.3415,0.00,0.00,0.00,1,S01
29820,-9.15303,1.04387,1.57299,-0.3049,0.4268,-1.2805,0.00,0.00,0.00,1,S01
29840,-9.15782,1.04148,1.57538,-0.3049,0.3049,-1.2805,0.00,0.00,0.00,1,S01
29860,-9.14585,1.04387,1.58257,-0.2439,0.1829,-1.2805,0.00,0.00,0.00,1,S01
29880,-9.13627,1.05584,1.58736,-0.2439,0.1829,-1.3415,0.00,0.00,0.00,1,S01
29900,-9.13388,1.05584,1.58975,-0.3049,0.3049,-1.3415,0.00,0.00,0.00,1,S01
29920,-9.14585,1.05345,1.58017,-0.2439,0.4878,-1.3415,0.00,0.00,0.00,1,S01
29940,-9.14824,1.04387,1.57538,-0.1220,0.4878,-1.3415,0.00,0.00,0.00,1,S01
29960,-9.13867,1.04387,1.57060,-0.0610,0.4878,-1.3415,0.00,0.00,0.00,1,S01
29980,-9.13627,1.03908,1.57778,-0.0610,0.4268,-1.3415,0.00,0.00,0.00,1,S01
# DONE 1500 samples in 30.0s
