timestamp,ax,ay,az,gx,gy,gz,mx,my,mz,label,subject_id
0,-8.74602,1.00556,-0.75896,-36.2805,-19.2073,-15.5488,0.00,0.00,0.00,2,S01
20,-8.13550,0.55067,-1.06063,-40.0000,-12.6829,-5.7317,0.00,0.00,0.00,2,S01
40,-8.45871,0.22027,-0.28491,-38.0488,-3.2317,-1.8293,0.00,0.00,0.00,2,S01
60,-9.35415,0.27773,0.58658,-27.8049,0.7317,-2.4390,0.00,0.00,0.00,2,S01
80,-9.94791,0.62489,0.94810,-15.6098,-1.5854,-4.0244,0.00,0.00,0.00,2,S01
100,-10.03889,0.86431,1.00796,-7.6220,-5.8537,-4.5122,0.00,0.00,0.00,2,S01
120,-9.75398,1.01035,0.92656,-2.2561,-8.4756,-3.4146,0.00,0.00,0.00,2,S01
140,-9.19373,1.09415,0.58179,2.9878,-8.4146,-0.7317,0.00,0.00,0.00,2,S01
160,-8.77714,1.34075,0.28491,6.0976,-5.0610,3.3537,0.00,0.00,0.00,2,S01
180,-8.56406,1.50835,0.49081,4.7561,-0.5488,7.9268,0.00,0.00,0.00,2,S01
200,-8.55209,1.51553,0.79966,1.9512,3.4146,11.7073,0.00,0.00,0.00,2,S01
220,-8.70053,1.38864,1.09654,-0.1220,6.6463,13.2317,0.00,0.00,0.00,2,S01
240,-8.85615,1.39582,1.24020,-1.1585,8.0488,13.6585,0.00,0.00,0.00,2,S01
260,-8.92319,1.26893,1.46046,-2.2561,8.5976,14.5732,0.00,0.00,0.00,2,S01
280,-8.90643,1.19231,1.53947,-2.0122,8.6585,15.0610,0.00,0.00,0.00,2,S01
300,-8.84658,1.20668,1.52032,-0.1829,9.1463,14.7561,0.00,0.00,0.00,2,S01
320,-8.81545,1.37667,1.49877,1.4634,9.2073,13.2927,0.00,0.00,0.00,2,S01
340,-8.80827,1.58017,1.49159,2.0122,9.0854,11.0976,0.00,0.00,0.00,2,S01
360,-8.79151,1.62806,1.49159,1.7073,9.7561,8.9634,0.00,0.00,0.00,2,S01
380,-8.85855,1.62087,1.60651,1.7073,11.4024,7.1951,0.00,0.00,0.00,2,S01
400,-8.95431,1.71904,1.77410,1.8293,12.3171,6.2195,0.00,0.00,0.00,2,S01
420,-8.91122,1.56102,1.89621,1.9512,11.7683,5.2439,0.00,0.00,0.00,2,S01
440,-8.75081,1.52511,1.90818,4.3293,10.8537,3.4756,0.00,0.00,0.00,2,S01
460,-8.65504,1.64242,2.03028,7.6220,10.6707,1.3415,0.00,0.00,0.00,2,S01
480,-8.69335,1.71185,2.23618,10.3659,9.6951,-0.8537,0.00,0.00,0.00,2,S01
500,-8.71011,1.82678,2.28886,12.9268,7.3780,-2.6220,0.00,0.00,0.00,2,S01
520,-8.74362,1.98240,2.26491,14.0854,5.7317,-3.9634,0.00,0.00,0.00,2,S01
540,-8.77714,2.30801,2.05901,14.3902,5.0610,-4.8780,0.00,0.00,0.00,2,S01
560,-8.69335,2.63362,1.37188,12.0122,4.2073,-4.3902,0.00,0.00,0.00,2,S01
580,-8.81784,3.17232,0.79009,5.6707,4.4512,-2.6220,0.00,0.00,0.00,2,S01
600,-9.52653,2.65756,1.68312,-3.8415,4.2683,1.5854,0.00,0.00,0.00,2,S01
620,-9.96706,1.56102,3.13401,-1.4024,-0.3049,7.0122,0.00,0.00,0.00,2,S01
640,-9.65342,0.76136,3.32794,11.8293,-6.2195,11.9512,0.00,0.00,0.00,2,S01
660,-9.18176,0.92177,3.07894,25.4268,-7.9268,13.5976,0.00,0.00,0.00,2,S01
680,-9.43316,1.94409,2.00874,35.4268,-8.7805,13.1707,0.00,0.00,0.00,2,S01
700,-9.95988,3.11964,0.94810,38.7195,-5.4878,17.1341,0.00,0.00,0.00,2,S01
720,-10.43154,3.44526,0.61531,34.6951,1.1585,25.9756,0.00,0.00,0.00,2,S01
740,-9.86172,1.91536,-0.11492,26.4024,2.1341,31.8902,0.00,0.00,0.00,2,S01
760,-9.50498,1.39582,-0.26336,30.7317,0.4878,22.2561,0.00,0.00,0.00,2,S01
780,-9.06445,1.39343,-0.74220,36.7683,-3.4146,11.2805,0.00,0.00,0.00,2,S01
800,-8.81545,1.64242,-0.91698,37.3780,-5.3659,4.9390,0.00,0.00,0.00,2,S01
820,-8.84658,1.91776,-0.74939,29.3902,-5.3049,1.4634,0.00,0.00,0.00,2,S01
840,-9.20571,1.86508,-0.45969,15.5488,-4.2073,-0.9146,0.00,0.00,0.00,2,S01
860,-9.78271,1.67834,-0.10295,2.0122,-3.5976,-3.7195,0.00,0.00,0.00,2,S01
880,-10.03410,1.56102,0.11971,-6.9512,-5.6707,-8.1707,0.00,0.00,0.00,2,S01
900,-9.78271,1.51314,0.12450,-13.3537,-8.9634,-13.0488,0.00,0.00,0.00,2,S01
920,-9.34218,1.54187,0.06704,-18.9634,-10.3049,-17.0732,0.00,0.00,0.00,2,S01
940,-8.96868,1.49877,0.20111,-22.6220,-9.2683,-20.2439,0.00,0.00,0.00,2,S01
960,-8.72447,1.33596,0.47645,-23.6585,-7.0732,-21.1585,0.00,0.00,0.00,2,S01
980,-8.55688,1.17076,0.42138,-24.1463,-4.5732,-18.9634,0.00,0.00,0.00,2,S01
1000,-8.49463,1.06303,0.72065,-25.0000,-0.5488,-15.0000,0.00,0.00,0.00,2,S01
1020,-8.51857,1.01035,0.85952,-25.1220,1.8293,-11.5244,0.00,0.00,0.00,2,S01
1040,-8.60476,0.81882,0.88346,-24.1463,4.3293,-8.7195,0.00,0.00,0.00,2,S01
1060,-8.70292,0.79727,0.88346,-22.1951,7.9268,-7.8659,0.00,0.00,0.00,2,S01
1080,-8.82982,1.00078,0.79248,-20.4878,11.2195,-7.7439,0.00,0.00,0.00,2,S01
1100,-9.03811,1.25696,0.82600,-20.8537,14.0244,-6.7073,0.00,0.00,0.00,2,S01
1120,-9.18655,1.36948,0.90022,-22.5000,14.8780,-4.5122,0.00,0.00,0.00,2,S01
1140,-9.18895,1.35272,0.95289,-23.6585,14.0854,-2.1951,0.00,0.00,0.00,2,S01
1160,-9.27035,1.26893,1.16119,-25.0000,13.4756,-0.9146,0.00,0.00,0.00,2,S01
1180,-9.29429,1.11809,1.33836,-25.8537,12.2561,-1.1585,0.00,0.00,0.00,2,S01
1200,-9.22725,0.97923,1.51553,-25.1829,10.9146,-2.5000,0.00,0.00,0.00,2,S01
1220,-9.07642,1.14682,1.51553,-23.5976,9.1463,-4.0854,0.00,0.00,0.00,2,S01
1240,-8.82982,1.19950,1.60651,-24.5732,7.9268,-4.6341,0.00,0.00,0.00,2,S01
1260,-8.70292,1.34315,1.80044,-25.1220,7.3780,-4.4512,0.00,0.00,0.00,2,S01
1280,-8.69335,1.28569,1.95846,-25.1829,6.5854,-2.5610,0.00,0.00,0.00,2,S01
1300,-8.76038,1.22344,2.03986,-24.6951,6.4024,0.1829,0.00,0.00,0.00,2,S01
1320,-8.77236,1.26893,2.06380,-24.8171,6.6463,2.8049,0.00,0.00,0.00,2,S01
1340,-8.77236,1.02951,2.04944,-26.2805,6.9512,4.3902,0.00,0.00,0.00,2,S01
1360,-8.96629,0.83318,1.89860,-25.3049,6.7073,4.0854,0.00,0.00,0.00,2,S01
1380,-9.19134,0.81642,1.86987,-24.3902,6.4634,3.5976,0.00,0.00,0.00,2,S01
1400,-9.29908,0.53630,1.68791,-22.9268,4.6341,3.4756,0.00,0.00,0.00,2,S01
1420,-9.39245,0.69911,1.92973,-19.3902,2.8659,1.7683,0.00,0.00,0.00,2,S01
1440,-9.38527,1.27372,2.22661,-20.0000,0.4268,0.0000,0.00,0.00,0.00,2,S01
1460,-9.44513,1.48441,2.29843,-24.6341,-1.5854,-1.9512,0.00,0.00,0.00,2,S01
1480,-9.97664,1.10612,1.99916,-26.8293,-2.1341,-5.9146,0.00,0.00,0.00,2,S01
1500,-10.81940,0.49321,1.48441,-23.9024,-2.5610,-12.6220,0.00,0.00,0.00,2,S01
1520,-11.35330,0.43335,1.02951,-17.1951,-4.1463,-21.2195,0.00,0.00,0.00,2,S01
1540,-11.16177,0.77572,0.68474,-12.5000,-9.3902,-28.2317,0.00,0.00,0.00,2,S01
1560,-10.36450,1.25217,0.46687,-12.9268,-16.0366,-29.6951,0.00,0.00,0.00,2,S01
1580,-9.24641,1.28569,0.18435,-16.5854,-19.0854,-24.3902,0.00,0.00,0.00,2,S01
1600,-8.12113,0.83318,-0.24181,-20.0610,-16.0976,-15.8537,0.00,0.00,0.00,2,S01
1620,-7.66623,0.49799,-0.75178,-23.5976,-8.5366,-9.6341,0.00,0.00,0.00,2,S01
1640,-8.00382,0.32082,-0.72305,-24.5122,0.3659,-6.7073,0.00,0.00,0.00,2,S01
1660,-8.96868,0.25857,-0.15323,-18.5366,5.3659,-6.8293,0.00,0.00,0.00,2,S01
1680,-9.87848,0.59616,0.18914,-7.1341,3.7805,-8.1707,0.00,0.00,0.00,2,S01
1700,-10.38126,0.99838,0.22027,1.7073,-1.4024,-8.9024,0.00,0.00,0.00,2,S01
1720,-10.32140,1.15401,0.14365,6.3415,-5.7927,-8.4146,0.00,0.00,0.00,2,S01
1740,-9.95030,1.08697,0.14126,9.6951,-7.9878,-6.2805,0.00,0.00,0.00,2,S01
1760,-9.43076,1.11570,0.22984,12.8049,-8.5366,-2.2561,0.00,0.00,0.00,2,S01
1780,-9.01656,1.24020,0.23224,14.8171,-6.7683,3.5366,0.00,0.00,0.00,2,S01
1800,-8.71489,1.32399,0.42138,15.2439,-2.6220,8.6585,0.00,0.00,0.00,2,S01
1820,-8.55927,1.33836,0.57221,14.2683,0.9756,11.2805,0.00,0.00,0.00,2,S01
1840,-8.57364,1.42694,0.79966,12.0122,3.7195,11.4024,0.00,0.00,0.00,2,S01
1860,-8.79390,1.41976,1.03908,9.5732,5.6707,10.8537,0.00,0.00,0.00,2,S01
1880,-8.88728,1.26653,1.12527,9.2073,6.3415,10.3049,0.00,0.00,0.00,2,S01
1900,-8.94953,1.28090,1.04627,10.2439,6.8902,9.5732,0.00,0.00,0.00,2,S01
1920,-9.04051,1.31681,1.08697,10.0000,7.7439,9.3293,0.00,0.00,0.00,2,S01
1940,-9.09078,1.37906,1.28090,10.0610,7.0732,8.4146,0.00,0.00,0.00,2,S01
1960,-9.02614,1.38385,1.40061,11.7073,6.5244,7.1951,0.00,0.00,0.00,2,S01
1980,-9.06445,1.46286,1.48680,13.0488,6.0976,6.2195,0.00,0.00,0.00,2,S01
2000,-9.05248,1.66876,1.53468,13.1707,5.9146,6.4024,0.00,0.00,0.00,2,S01
2020,-8.83460,1.66397,1.52750,12.3171,6.0366,6.4024,0.00,0.00,0.00,2,S01
2040,-8.65743,1.63285,1.61130,12.1951,6.6463,4.3293,0.00,0.00,0.00,2,S01
2060,-8.59518,1.68073,1.72383,13.0488,6.9512,1.2805,0.00,0.00,0.00,2,S01
2080,-8.63349,1.75734,1.95367,13.4756,6.5854,-1.7683,0.00,0.00,0.00,2,S01
2100,-8.62391,1.85072,1.92494,13.5366,5.3659,-4.0244,0.00,0.00,0.00,2,S01
2120,-8.67659,1.88663,1.89142,12.6220,4.8780,-5.6707,0.00,0.00,0.00,2,S01
2140,-8.85376,1.96325,1.99198,11.5244,4.8780,-6.9512,0.00,0.00,0.00,2,S01
2160,-8.96629,2.35829,1.56581,10.5488,3.1707,-6.7073,0.00,0.00,0.00,2,S01
2180,-8.97826,2.53067,1.12049,5.6707,2.1951,-4.0854,0.00,0.00,0.00,2,S01
2200,-9.31344,2.69587,1.22583,-0.0610,1.7683,-1.1585,0.00,0.00,0.00,2,S01
2220,-9.69891,2.01113,2.19069,-1.9512,-1.0976,3.0488,0.00,0.00,0.00,2,S01
2240,-9.73482,1.03908,3.25133,6.7073,-5.9146,7.0732,0.00,0.00,0.00,2,S01
2260,-9.18655,0.47645,3.42131,22.5000,-12.0732,9.2073,0.00,0.00,0.00,2,S01
2280,-8.69335,0.81642,2.96163,37.6829,-15.4878,8.0488,0.00,0.00,0.00,2,S01
2300,-9.06684,1.89381,2.04225,48.7805,-14.9390,7.1341,0.00,0.00,0.00,2,S01
2320,-9.73722,3.26090,0.96486,51.0366,-9.8171,12.7439,0.00,0.00,0.00,2,S01
2340,-10.34295,4.12042,0.51475,42.1341,-2.6829,25.2439,0.00,0.00,0.00,2,S01
2360,-10.34056,3.78523,0.54588,27.5610,0.3659,37.5000,0.00,0.00,0.00,2,S01
2380,-10.03410,2.72700,0.23942,17.5000,0.1220,41.2805,0.00,0.00,0.00,2,S01
2400,-9.92636,1.61369,0.15083,16.7073,1.6463,33.2927,0.00,0.00,0.00,2,S01
2420,-9.81623,1.40779,-0.10056,22.3780,-0.3049,17.0122,0.00,0.00,0.00,2,S01
2440,-9.34457,1.57299,-0.65122,25.4878,-5.6707,4.0854,0.00,0.00,0.00,2,S01
2460,-8.39407,1.49398,-1.09894,24.3902,-8.4146,-1.5244,0.00,0.00,0.00,2,S01
2480,-8.02297,1.15640,-1.33596,22.3171,-6.5244,-2.5000,0.00,0.00,0.00,2,S01
2500,-8.84418,0.91937,-0.34237,19.1463,-0.6098,-5.0000,0.00,0.00,0.00,2,S01
2520,-9.82341,0.91459,0.22984,17.6220,-1.7683,-7.3780,0.00,0.00,0.00,2,S01
2540,-10.35013,1.18752,0.30167,14.3902,-6.2195,-8.2317,0.00,0.00,0.00,2,S01
2560,-9.99340,1.53708,0.04070,7.7439,-11.0976,-9.3902,0.00,0.00,0.00,2,S01
2580,-9.60793,1.79326,0.22984,0.0610,-13.7805,-13.9634,0.00,0.00,0.00,2,S01
2600,-9.29669,1.73340,0.30646,-5.3659,-14.7561,-19.3293,0.00,0.00,0.00,2,S01
2620,-9.08360,1.43892,0.56503,-7.3171,-13.0488,-23.2927,0.00,0.00,0.00,2,S01
2640,-8.87531,1.23301,0.65841,-8.5366,-12.0732,-23.8415,0.00,0.00,0.00,2,S01
2660,-8.64307,1.05105,0.82839,-9.7561,-10.3659,-20.9756,0.00,0.00,0.00,2,S01
2680,-8.35576,1.00556,1.00556,-9.3293,-8.2317,-17.1951,0.00,0.00,0.00,2,S01
2700,-8.34858,1.05345,1.15640,-8.6585,-5.2439,-14.0244,0.00,0.00,0.00,2,S01
2720,-8.50660,1.05584,1.11809,-8.1707,-0.8537,-11.7683,0.00,0.00,0.00,2,S01
2740,-8.72208,1.12288,1.13006,-7.7439,4.5122,-10.9756,0.00,0.00,0.00,2,S01
2760,-8.89685,1.23780,1.13485,-7.7439,8.3537,-11.1585,0.00,0.00,0.00,2,S01
2780,-9.04769,1.34794,1.22823,-9.3902,10.2439,-10.9146,0.00,0.00,0.00,2,S01
2800,-9.08600,1.25935,1.39821,-11.3415,10.2439,-9.6951,0.00,0.00,0.00,2,S01
2820,-8.99980,1.12767,1.47962,-12.0732,9.4512,-8.5366,0.00,0.00,0.00,2,S01
2840,-8.93037,1.01035,1.70228,-12.3171,9.6341,-8.0488,0.00,0.00,0.00,2,S01
2860,-8.84897,0.84515,2.00155,-12.0122,9.7561,-7.7439,0.00,0.00,0.00,2,S01
2880,-8.65983,0.83318,2.12126,-10.2439,9.2073,-7.0732,0.00,0.00,0.00,2,S01
2900,-8.58321,0.81882,2.29125,-10.4268,9.1463,-5.7927,0.00,0.00,0.00,2,S01
2920,-8.57124,0.88346,2.35350,-9.5122,8.5366,-4.2073,0.00,0.00,0.00,2,S01
2940,-8.69095,1.00317,2.26013,-8.2927,7.9268,-1.4024,0.00,0.00,0.00,2,S01
2960,-8.98783,0.74939,2.14999,-8.2317,8.4756,1.7073,0.00,0.00,0.00,2,S01
2980,-9.30147,0.74460,1.86508,-5.7317,9.0244,2.5610,0.00,0.00,0.00,2,S01
3000,-9.32542,0.76375,1.55384,-5.9146,7.4390,1.2805,0.00,0.00,0.00,2,S01
3020,-9.58399,0.69192,1.53947,-5.7317,2.9878,-1.9512,0.00,0.00,0.00,2,S01
3040,-9.80665,1.47962,2.28407,-7.2561,-2.1341,-5.3659,0.00,0.00,0.00,2,S01
3060,-9.42597,2.32956,2.65517,-16.7073,-8.3537,-5.7317,0.00,0.00,0.00,2,S01
3080,-8.88249,2.31998,2.80122,-29.0244,-10.0000,-5.2439,0.00,0.00,0.00,2,S01
3100,-9.21289,1.48680,2.55940,-37.6829,-7.3171,-6.8902,0.00,0.00,0.00,2,S01
3120,-11.62864,0.03831,1.27611,-32.9878,-3.0488,-18.5976,0.00,0.00,0.00,2,S01
3140,-11.74356,0.32082,0.57461,-26.8293,-7.6220,-24.7561,0.00,0.00,0.00,2,S01
3160,-10.88883,0.88346,0.34716,-24.6341,-12.9878,-27.3780,0.00,0.00,0.00,2,S01
3180,-9.44034,1.11330,-0.10534,-25.7927,-18.2927,-24.5732,0.00,0.00,0.00,2,S01
3200,-8.09958,0.87388,-0.83797,-28.2927,-18.7195,-16.8902,0.00,0.00,0.00,2,S01
3220,-7.63750,0.45490,-1.09654,-31.7073,-10.1220,-9.1463,0.00,0.00,0.00,2,S01
3240,-8.16662,0.22745,-0.46926,-29.9390,1.4024,-4.8780,0.00,0.00,0.00,2,S01
3260,-9.21768,0.23224,0.27054,-20.7317,7.7439,-3.5366,0.00,0.00,0.00,2,S01
3280,-10.03170,0.45969,0.63207,-8.9634,7.0732,-3.2927,0.00,0.00,0.00,2,S01
3300,-10.24718,0.79727,0.66080,-0.3049,3.1098,-3.1098,0.00,0.00,0.00,2,S01
3320,-10.03649,1.05105,0.62010,3.7805,-0.9146,-2.5000,0.00,0.00,0.00,2,S01
3340,-9.52413,1.25217,0.37828,7.1951,-3.7195,-0.7927,0.00,0.00,0.00,2,S01
3360,-8.93516,1.38145,0.23463,9.9390,-3.2927,2.8659,0.00,0.00,0.00,2,S01
3380,-8.61913,1.41497,0.42856,10.1220,0.0000,7.5000,0.00,0.00,0.00,2,S01
3400,-8.51378,1.34075,0.67038,9.2683,3.9024,11.0366,0.00,0.00,0.00,2,S01
3420,-8.53294,1.22823,0.79966,8.2927,6.7683,12.6220,0.00,0.00,0.00,2,S01
3440,-8.67659,1.19471,0.98641,7.0122,8.6585,12.5000,0.00,0.00,0.00,2,S01
3460,-9.01656,1.25696,1.19231,5.9756,8.9024,11.5244,0.00,0.00,0.00,2,S01
3480,-9.20810,1.24977,1.24977,6.6463,7.7439,11.4634,0.00,0.00,0.00,2,S01
3500,-9.10754,1.15640,1.12527,8.5366,6.1585,12.1951,0.00,0.00,0.00,2,S01
3520,-8.90404,1.24738,0.96007,10.4268,5.7927,11.8293,0.00,0.00,0.00,2,S01
3540,-8.84658,1.45089,0.96007,10.4878,7.0732,10.5488,0.00,0.00,0.00,2,S01
3560,-8.93277,1.46765,1.12288,9.1463,8.5366,8.9634,0.00,0.00,0.00,2,S01
3580,-9.01417,1.39343,1.24259,9.0854,9.0244,7.5000,0.00,0.00,0.00,2,S01
3600,-8.99502,1.32639,1.35991,10.5488,9.4512,6.5854,0.00,0.00,0.00,2,S01
3620,-8.90882,1.51792,1.44849,12.1341,9.3902,5.6707,0.00,0.00,0.00,2,S01
3640,-8.86812,1.60651,1.53708,12.1341,8.9634,4.5122,0.00,0.00,0.00,2,S01
3660,-8.80827,1.63285,1.61848,12.6829,8.6585,2.1951,0.00,0.00,0.00,2,S01
3680,-8.77714,1.75974,1.67115,14.9390,8.7195,-0.6098,0.00,0.00,0.00,2,S01
3700,-8.77236,1.77889,1.81002,16.5244,8.1707,-3.1098,0.00,0.00,0.00,2,S01
3720,-8.73165,1.73101,1.76932,17.5610,6.5244,-4.8171,0.00,0.00,0.00,2,S01
3740,-8.86094,1.75016,1.93930,18.2927,6.0976,-6.4634,0.00,0.00,0.00,2,S01
3760,-8.99262,1.77889,2.04465,19.4512,4.8171,-7.9878,0.00,0.00,0.00,2,S01
3780,-8.98304,2.03507,1.79326,20.9146,2.4390,-8.9024,0.00,0.00,0.00,2,S01
3800,-8.96389,1.97043,1.44610,22.6220,1.0976,-8.7805,0.00,0.00,0.00,2,S01
3820,-8.90643,1.74777,1.55863,23.9024,0.9146,-7.6220,0.00,0.00,0.00,2,S01
3840,-9.03572,2.19788,1.38624,25.5488,-0.3049,-6.0976,0.00,0.00,0.00,2,S01
3860,-9.37091,2.27210,1.78129,24.1463,-1.9512,-2.0732,0.00,0.00,0.00,2,S01
3880,-9.62230,1.95606,2.17872,26.7073,-4.3902,3.2317,0.00,0.00,0.00,2,S01
3900,-10.00058,2.05422,1.62806,33.5366,-4.8171,9.2683,0.00,0.00,0.00,2,S01
3920,-10.58237,2.63841,0.87628,35.7317,-0.2439,17.9878,0.00,0.00,0.00,2,S01
3940,-10.82897,3.01909,0.41899,31.2195,5.1829,29.4512,0.00,0.00,0.00,2,S01
3960,-10.42435,2.64320,0.18914,25.0000,7.2561,38.3537,0.00,0.00,0.00,2,S01
3980,-9.94791,1.74537,-0.08859,23.4146,6.5854,37.8659,0.00,0.00,0.00,2,S01
4000,-9.55765,1.13725,-0.22984,28.5366,4.6951,26.9512,0.00,0.00,0.00,2,S01
4020,-9.06445,1.35272,-0.80924,35.3049,0.1829,12.5610,0.00,0.00,0.00,2,S01
4040,-8.65743,1.73819,-1.17316,36.0366,-2.3780,2.7439,0.00,0.00,0.00,2,S01
4060,-8.42280,1.94409,-1.20189,31.0366,-2.3171,-0.7927,0.00,0.00,0.00,2,S01
4080,-8.99262,2.07098,-1.15640,20.7927,-0.4268,-0.7927,0.00,0.00,0.00,2,S01
4100,-9.44991,1.90578,-0.95529,6.8902,1.4024,-2.1951,0.00,0.00,0.00,2,S01
4120,-9.93594,1.59693,-0.53391,-4.5122,1.2195,-3.9024,0.00,0.00,0.00,2,S01
4140,-10.08198,1.43652,-0.30406,-13.6585,-2.5000,-7.3780,0.00,0.00,0.00,2,S01
4160,-9.70849,1.42455,-0.35434,-20.1829,-7.1951,-12.5610,0.00,0.00,0.00,2,S01
4180,-9.26795,1.28090,-0.20590,-25.1220,-8.5976,-18.1098,0.00,0.00,0.00,2,S01
4200,-9.03093,1.16119,0.09577,-27.5000,-7.4390,-21.8293,0.00,0.00,0.00,2,S01
4220,-8.80827,1.00317,0.38547,-28.5976,-6.2195,-21.9512,0.00,0.00,0.00,2,S01
4240,-8.55209,0.84994,0.45969,-28.7195,-6.0366,-18.7195,0.00,0.00,0.00,2,S01
4260,-8.41562,0.87149,0.50039,-27.1951,-5.1829,-13.7805,0.00,0.00,0.00,2,S01
4280,-8.55688,0.88585,0.56024,-24.8171,-2.5610,-8.1098,0.00,0.00,0.00,2,S01
4300,-8.73165,0.91937,0.45490,-21.9512,0.3049,-3.6585,0.00,0.00,0.00,2,S01
4320,-9.21528,1.10852,0.55067,-19.0854,4.6951,-1.0366,0.00,0.00,0.00,2,S01
4340,-9.33978,1.26653,0.69192,-19.6951,3.9634,-1.4634,0.00,0.00,0.00,2,S01
4360,-9.34936,1.34315,0.80206,-20.6098,3.0488,-1.7683,0.00,0.00,0.00,2,S01
4380,-9.32542,1.31681,0.92895,-21.9512,2.8659,-2.2561,0.00,0.00,0.00,2,S01
4400,-9.19852,1.27850,1.03430,-23.1707,2.9268,-2.9878,0.00,0.00,0.00,2,S01
4420,-9.08600,1.21386,1.23062,-24.0854,3.1707,-3.7805,0.00,0.00,0.00,2,S01
4440,-8.99023,1.13006,1.40300,-24.2073,2.6220,-4.1463,0.00,0.00,0.00,2,S01
4460,-8.82024,1.13485,1.45089,-23.0488,1.5244,-3.9024,0.00,0.00,0.00,2,S01
4480,-8.67659,1.08697,1.65918,-22.8659,1.4634,-3.0488,0.00,0.00,0.00,2,S01
4500,-8.55688,1.09894,1.75495,-21.8293,2.0122,-1.8293,0.00,0.00,0.00,2,S01
4520,-8.61194,1.21625,1.88663,-20.3049,3.3537,0.3049,0.00,0.00,0.00,2,S01
4540,-8.82503,1.31442,2.01592,-19.8171,3.7195,3.2317,0.00,0.00,0.00,2,S01
4560,-9.07163,0.85473,1.97761,-18.7805,2.6220,5.4268,0.00,0.00,0.00,2,S01
4580,-9.24641,0.91459,1.79805,-15.7317,1.4634,5.2439,0.00,0.00,0.00,2,S01
4600,-9.18176,1.04148,1.55623,-17.3171,0.6098,4.5732,0.00,0.00,0.00,2,S01
4620,-9.20571,0.90740,1.56341,-17.5610,0.0610,2.8049,0.00,0.00,0.00,2,S01
4640,-9.44513,0.96007,1.84114,-15.5488,-2.2561,0.2439,0.00,0.00,0.00,2,S01
4660,-9.43316,1.35751,2.18830,-17.2561,-6.0976,-1.3415,0.00,0.00,0.00,2,S01
4680,-9.03811,1.64003,2.34153,-23.5366,-8.3537,-2.3171,0.00,0.00,0.00,2,S01
4700,-9.05727,1.41976,2.37984,-29.3293,-7.3780,-4.4512,0.00,0.00,0.00,2,S01
4720,-9.66060,0.88825,2.12845,-30.1829,-5.5488,-7.8049,0.00,0.00,0.00,2,S01
4740,-10.47942,0.35434,1.61130,-26.4024,-4.5122,-12.3171,0.00,0.00,0.00,2,S01
4760,-11.11149,0.12689,1.17795,-19.5732,-5.6098,-19.1463,0.00,0.00,0.00,2,S01
4780,-11.21923,0.35195,0.80685,-12.9878,-10.2439,-27.0732,0.00,0.00,0.00,2,S01
4800,-10.55125,0.81642,0.40701,-10.0000,-17.1341,-30.5488,0.00,0.00,0.00,2,S01
4820,-9.61511,1.01993,0.14844,-12.6220,-21.2195,-27.0732,0.00,0.00,0.00,2,S01
4840,-8.61673,0.64404,-0.16999,-15.9146,-21.3415,-18.8415,0.00,0.00,0.00,2,S01
4860,-7.94875,0.40462,-0.57221,-18.1707,-17.1341,-11.2805,0.00,0.00,0.00,2,S01
4880,-7.98945,0.29688,-0.71108,-18.3537,-9.6341,-6.8293,0.00,0.00,0.00,2,S01
4900,-8.88249,0.28491,-0.01437,-13.7195,-2.8659,-6.1585,0.00,0.00,0.00,2,S01
4920,-9.88087,0.50757,0.54827,-4.6341,-2.4390,-7.0122,0.00,0.00,0.00,2,S01
4940,-10.25676,0.73981,0.60334,4.2073,-5.9756,-7.1341,0.00,0.00,0.00,2,S01
4960,-10.24718,0.77333,0.60813,10.6098,-9.0244,-6.6463,0.00,0.00,0.00,2,S01
4980,-9.94073,0.78051,0.58419,16.4024,-10.9146,-4.2073,0.00,0.00,0.00,2,S01
5000,-9.49540,0.83079,0.49560,21.8293,-10.6707,0.5488,0.00,0.00,0.00,2,S01
5020,-9.01656,1.00317,0.51475,25.6707,-8.5976,5.6707,0.00,0.00,0.00,2,S01
5040,-8.66222,1.19471,0.55785,27.1341,-6.0976,9.3293,0.00,0.00,0.00,2,S01
5060,-8.46829,1.36469,0.59616,26.5854,-2.8049,10.7317,0.00,0.00,0.00,2,S01
5080,-8.48744,1.48919,0.83079,24.3293,1.2195,10.6098,0.00,0.00,0.00,2,S01
5100,-8.60955,1.48680,1.15640,21.7073,3.8415,9.5122,0.00,0.00,0.00,2,S01
5120,-8.69095,1.45328,1.25217,20.0000,4.5122,8.1707,0.00,0.00,0.00,2,S01
5140,-8.84179,1.43173,1.13964,18.7805,5.6707,7.0732,0.00,0.00,0.00,2,S01
5160,-8.93277,1.36469,1.16358,17.5610,8.1098,6.1585,0.00,0.00,0.00,2,S01
5180,-8.99023,1.29766,1.25217,17.0122,9.3902,4.8171,0.00,0.00,0.00,2,S01
5200,-9.08121,1.19471,1.36709,17.6829,9.7561,3.1098,0.00,0.00,0.00,2,S01
5220,-9.18416,1.21386,1.40779,19.5732,9.6951,1.4024,0.00,0.00,0.00,2,S01
5240,-9.28950,1.33596,1.58257,21.0976,9.3902,0.6707,0.00,0.00,0.00,2,S01
5260,-9.18176,1.43652,1.56820,21.8902,7.7439,1.5244,0.00,0.00,0.00,2,S01
5280,-9.00220,1.60412,1.53947,22.3171,6.4634,2.0732,0.00,0.00,0.00,2,S01
5300,-8.91601,1.71425,1.66876,22.1341,6.0366,1.5854,0.00,0.00,0.00,2,S01
5320,-8.84658,1.75016,1.75495,21.5244,5.3049,0.7317,0.00,0.00,0.00,2,S01
5340,-8.80827,1.75495,1.82438,21.0976,5.1220,-0.1220,0.00,0.00,0.00,2,S01
5360,-8.78911,1.71425,1.92973,20.5488,5.2439,-1.0976,0.00,0.00,0.00,2,S01
5380,-8.79630,1.67834,1.99198,19.6341,5.1220,-2.2561,0.00,0.00,0.00,2,S01
5400,-8.78911,1.80044,2.07098,18.0488,4.9390,-3.0488,0.00,0.00,0.00,2,S01
5420,-8.77236,1.94170,2.06141,16.5854,4.6341,-3.1707,0.00,0.00,0.00,2,S01
5440,-8.69095,2.20745,1.78368,13.5976,4.5122,-2.6220,0.00,0.00,0.00,2,S01
5460,-8.67419,1.98719,1.65439,9.6951,5.7317,-2.0122,0.00,0.00,0.00,2,S01
5480,-8.86333,1.64242,1.89621,10.1220,6.6463,-2.6220,0.00,0.00,0.00,2,S01
5500,-9.22965,1.81959,2.05901,12.0732,3.4146,-1.1585,0.00,0.00,0.00,2,S01
5520,-9.27514,1.74537,2.20027,11.8293,1.1585,1.4634,0.00,0.00,0.00,2,S01
5540,-9.06445,1.49877,2.48039,15.1829,-0.8537,3.4756,0.00,0.00,0.00,2,S01
5560,-8.91122,1.37427,2.50673,21.6463,-2.6829,4.5122,0.00,0.00,0.00,2,S01
5580,-9.05248,1.54905,2.44927,28.1098,-2.2561,6.2195,0.00,0.00,0.00,2,S01
5600,-9.41161,2.15478,1.98719,32.0122,-0.6707,10.1829,0.00,0.00,0.00,2,S01
5620,-9.94551,2.94966,1.39343,30.8537,1.2805,17.2561,0.00,0.00,0.00,2,S01
5640,-10.27591,3.36625,0.96007,24.8780,1.9512,26.8902,0.00,0.00,0.00,2,S01
5660,-10.16817,3.27527,0.84755,16.9512,1.0976,35.7317,0.00,0.00,0.00,2,S01
5680,-9.98382,2.59053,0.78290,11.1585,-0.9756,39.3293,0.00,0.00,0.00,2,S01
5700,-9.79707,1.68073,0.63207,12.3171,-1.5244,35.0000,0.00,0.00,0.00,2,S01
5720,-9.61511,1.36230,0.45969,19.2683,-3.4146,23.4756,0.00,0.00,0.00,2,S01
5740,-9.28232,1.54426,-0.20111,24.8780,-8.1098,12.0732,0.00,0.00,0.00,2,S01
5760,-8.62152,1.73580,-0.87867,25.8537,-10.5488,5.9756,0.00,0.00,0.00,2,S01
5780,-7.95114,1.62327,-1.41737,24.4512,-9.5732,4.8780,0.00,0.00,0.00,2,S01
5800,-8.27676,1.74537,-0.98402,22.1341,-4.3293,4.3902,0.00,0.00,0.00,2,S01
5820,-9.27035,1.86987,-0.41659,17.5610,-1.2805,2.9268,0.00,0.00,0.00,2,S01
5840,-10.35253,2.11647,-0.06225,11.2805,-1.1585,1.5244,0.00,0.00,0.00,2,S01
5860,-10.77630,2.08774,-0.09337,2.3171,-3.6585,-2.6829,0.00,0.00,0.00,2,S01
5880,-10.59674,1.99437,0.23224,-5.4878,-8.6585,-10.9756,0.00,0.00,0.00,2,S01
5900,-10.06044,1.77650,0.19632,-8.9634,-15.5488,-20.3049,0.00,0.00,0.00,2,S01
5920,-9.35415,1.50835,0.19393,-9.6951,-17.2561,-27.3171,0.00,0.00,0.00,2,S01
5940,-8.77954,1.29047,0.66798,-11.3415,-15.0000,-30.3049,0.00,0.00,0.00,2,S01
5960,-8.24802,1.17076,0.93613,-12.3780,-12.5610,-29.5122,0.00,0.00,0.00,2,S01
5980,-7.98227,1.22823,1.05105,-11.7073,-8.4756,-26.4634,0.00,0.00,0.00,2,S01
6000,-7.92720,1.30245,0.97205,-10.6098,-2.6220,-22.1341,0.00,0.00,0.00,2,S01
6020,-8.05409,1.30723,1.03430,-9.5732,4.2683,-17.9878,0.00,0.00,0.00,2,S01
6040,-8.41323,1.22104,1.10852,-8.8415,10.3049,-14.2073,0.00,0.00,0.00,2,S01
6060,-8.80587,1.22823,1.21386,-8.7195,14.0854,-11.4024,0.00,0.00,0.00,2,S01
6080,-8.98783,1.30005,1.30245,-8.0488,15.0000,-9.1463,0.00,0.00,0.00,2,S01
6100,-9.00938,1.26893,1.43173,-7.2561,14.7561,-7.0122,0.00,0.00,0.00,2,S01
6120,-8.96868,1.16119,1.57538,-5.9756,14.5122,-6.2805,0.00,0.00,0.00,2,S01
6140,-8.97586,0.97923,1.80283,-4.1463,14.6341,-6.8902,0.00,0.00,0.00,2,S01
6160,-8.86812,0.97205,1.86748,-1.6463,13.9024,-7.9268,0.00,0.00,0.00,2,S01
6180,-8.73165,1.06542,2.16196,-1.3415,12.8659,-8.2317,0.00,0.00,0.00,2,S01
6200,-8.57603,1.31681,2.51391,-1.7073,10.6707,-7.2561,0.00,0.00,0.00,2,S01
6220,-8.43238,1.39343,2.50912,-2.6220,8.4146,-4.1463,0.00,0.00,0.00,2,S01
6240,-8.55927,1.25456,2.48518,-3.9024,8.7805,0.1220,0.00,0.00,0.00,2,S01
6260,-8.83700,1.12049,2.34632,-4.3902,9.3902,3.8415,0.00,0.00,0.00,2,S01
6280,-9.20810,0.87149,1.89860,-3.5976,8.9024,5.0000,0.00,0.00,0.00,2,S01
6300,-9.44034,0.57461,1.19471,-1.2195,7.1341,2.3780,0.00,0.00,0.00,2,S01
6320,-9.90242,0.79248,1.57060,0.1220,5.2439,-3.7805,0.00,0.00,0.00,2,S01
6340,-10.18493,1.93451,2.51152,-5.7317,0.0000,-9.9390,0.00,0.00,0.00,2,S01
6360,-10.19212,2.57616,2.46124,-18.2317,-7.9878,-12.2561,0.00,0.00,0.00,2,S01
6380,-10.28788,1.88903,1.69270,-26.5244,-10.4268,-14.6951,0.00,0.00,0.00,2,S01
6400,-10.61110,0.98162,1.21386,-26.4024,-8.1707,-21.8902,0.00,0.00,0.00,2,S01
6420,-10.86489,0.78530,0.98402,-24.5122,-8.7195,-30.5488,0.00,0.00,0.00,2,S01
6440,-10.64941,0.74220,0.55545,-23.3537,-12.2561,-31.7683,0.00,0.00,0.00,2,S01
6460,-10.21127,0.96247,0.18196,-22.0732,-12.0122,-26.7073,0.00,0.00,0.00,2,S01
6480,-9.38048,1.05584,-0.32801,-23.4146,-10.3659,-18.6585,0.00,0.00,0.00,2,S01
6500,-8.44914,0.79727,-0.85952,-26.5854,-7.9878,-8.9634,0.00,0.00,0.00,2,S01
6520,-7.88411,0.40701,-1.28090,-26.4634,-2.6220,-1.7073,0.00,0.00,0.00,2,S01
6540,-8.25760,0.46926,-0.69911,-22.6220,5.9756,-0.9146,0.00,0.00,0.00,2,S01
6560,-9.08121,0.68953,-0.03112,-14.2683,8.9024,-3.7195,0.00,0.00,0.00,2,S01
6580,-9.71088,1.04387,0.30646,-5.4268,5.4878,-6.5854,0.00,0.00,0.00,2,S01
6600,-9.93833,1.24020,0.37110,-0.1220,0.6098,-7.4390,0.00,0.00,0.00,2,S01
6620,-9.88566,1.24020,0.30406,3.8415,-2.7439,-5.8537,0.00,0.00,0.00,2,S01
6640,-9.55765,1.18274,0.34955,8.3537,-4.3902,-2.3171,0.00,0.00,0.00,2,S01
6660,-9.10275,1.31681,0.32322,12.0732,-5.0610,2.0122,0.00,0.00,0.00,2,S01
6680,-8.76517,1.57299,0.26576,13.0488,-3.7195,6.4634,0.00,0.00,0.00,2,S01
6700,-8.47787,1.76213,0.35913,8.7805,1.3415,11.9512,0.00,0.00,0.00,2,S01
6720,-8.70771,1.75974,0.63207,5.3049,3.7805,12.5000,0.00,0.00,0.00,2,S01
6740,-9.02853,1.67834,1.01275,2.5610,4.3293,12.7439,0.00,0.00,0.00,2,S01
6760,-9.06445,1.44849,0.91459,2.6220,2.6829,13.4756,0.00,0.00,0.00,2,S01
6780,-8.99502,1.46765,0.78769,3.7805,2.1341,12.9268,0.00,0.00,0.00,2,S01
6800,-8.87531,1.62566,0.65122,3.8415,2.2561,11.4634,0.00,0.00,0.00,2,S01
6820,-8.85615,1.69270,0.74699,2.9268,2.9878,9.8780,0.00,0.00,0.00,2,S01
6840,-8.89446,1.61369,0.90261,3.1707,3.8415,8.2927,0.00,0.00,0.00,2,S01
6860,-8.88967,1.49638,1.11091,4.8780,4.4512,6.5244,0.00,0.00,0.00,2,S01
6880,-8.95671,1.43413,1.32160,6.5854,5.0610,4.9390,0.00,0.00,0.00,2,S01
6900,-8.96868,1.50595,1.44849,8.1707,5.6707,3.9634,0.00,0.00,0.00,2,S01
6920,-8.83460,1.50356,1.47004,10.0610,6.3415,3.4146,0.00,0.00,0.00,2,S01
6940,-8.76038,1.57538,1.54187,12.4390,6.6463,1.8902,0.00,0.00,0.00,2,S01
6960,-8.75799,1.75974,1.55384,15.1220,6.1585,-0.5488,0.00,0.00,0.00,2,S01
6980,-8.86573,1.94888,1.76213,17.0122,5.3049,-3.4146,0.00,0.00,0.00,2,S01
7000,-8.89446,2.06141,1.82678,17.9878,3.0488,-5.3659,0.00,0.00,0.00,2,S01
7020,-8.88009,2.03507,1.93930,18.7805,0.8537,-6.7073,0.00,0.00,0.00,2,S01
7040,-8.86812,2.06380,1.75495,20.3659,-0.8537,-7.7439,0.00,0.00,0.00,2,S01
7060,-8.91122,2.16196,1.55144,21.0366,-1.7073,-8.0488,0.00,0.00,0.00,2,S01
7080,-8.87052,2.73418,0.90022,18.8415,-2.7439,-7.1341,0.00,0.00,0.00,2,S01
7100,-9.14585,3.30879,0.58419,11.0366,-2.8659,-4.0854,0.00,0.00,0.00,2,S01
7120,-9.64145,2.35829,1.88663,2.7439,-4.0244,1.8293,0.00,0.00,0.00,2,S01
7140,-9.70849,1.32160,2.83713,9.8171,-8.4146,6.8902,0.00,0.00,0.00,2,S01
7160,-10.02931,1.36230,2.55222,23.0488,-10.1829,11.5244,0.00,0.00,0.00,2,S01
7180,-10.62786,2.53307,1.54665,31.0366,-7.1341,17.6829,0.00,0.00,0.00,2,S01
7200,-10.88644,3.37343,0.75178,30.0610,-3.9024,26.8293,0.00,0.00,0.00,2,S01
7220,-10.40520,3.17471,0.43096,23.9024,-4.1463,34.2073,0.00,0.00,0.00,2,S01
7240,-9.64384,2.25055,0.03591,20.3659,-4.9390,32.5610,0.00,0.00,0.00,2,S01
7260,-9.29429,1.68073,-0.11013,21.2195,-5.0000,21.3415,0.00,0.00,0.00,2,S01
7280,-8.79630,1.51314,-0.69911,24.0244,-8.8415,9.7561,0.00,0.00,0.00,2,S01
7300,-8.31506,1.34075,-0.93853,24.6341,-10.3049,3.9634,0.00,0.00,0.00,2,S01
7320,-8.30309,1.40300,-1.18274,23.1098,-8.9634,3.1707,0.00,0.00,0.00,2,S01
7340,-9.02375,1.82678,-0.97923,14.3902,-4.9390,2.8049,0.00,0.00,0.00,2,S01
7360,-9.64145,1.77410,-0.69911,2.2561,-1.7073,2.3171,0.00,0.00,0.00,2,S01
7380,-10.24718,1.46286,-0.17957,-8.2927,-0.1220,0.0610,0.00,0.00,0.00,2,S01
7400,-10.52730,1.27132,0.18675,-13.9024,-4.3293,-6.2805,0.00,0.00,0.00,2,S01
7420,-9.99819,1.23062,0.20111,-16.9512,-11.5244,-13.6585,0.00,0.00,0.00,2,S01
7440,-9.27993,1.22583,0.11971,-18.5976,-14.9390,-19.8780,0.00,0.00,0.00,2,S01
7460,-8.89925,1.18513,0.55067,-19.9390,-13.1098,-23.4756,0.00,0.00,0.00,2,S01
7480,-8.57364,1.09415,0.73741,-19.5732,-11.5854,-24.0244,0.00,0.00,0.00,2,S01
7500,-8.40125,1.08697,0.83797,-18.5976,-8.9024,-21.2195,0.00,0.00,0.00,2,S01
7520,-8.31267,1.19710,0.91937,-18.4756,-5.4878,-15.7317,0.00,0.00,0.00,2,S01
7540,-8.41323,1.26414,1.01993,-19.9390,-1.7073,-10.1220,0.00,0.00,0.00,2,S01
7560,-8.65025,1.17316,1.06781,-20.1220,1.6463,-6.2805,0.00,0.00,0.00,2,S01
7580,-8.81306,1.17076,1.07500,-18.8415,4.2073,-4.5732,0.00,0.00,0.00,2,S01
7600,-8.87531,1.24977,0.99838,-17.9878,6.0366,-3.6585,0.00,0.00,0.00,2,S01
7620,-9.04769,1.28329,1.09654,-18.5366,7.7439,-2.7439,0.00,0.00,0.00,2,S01
7640,-9.20810,1.24738,1.31202,-19.7561,8.6585,-1.7073,0.00,0.00,0.00,2,S01
7660,-9.15303,1.18992,1.49877,-20.6707,8.2317,-1.0976,0.00,0.00,0.00,2,S01
7680,-9.05966,1.12288,1.67594,-21.1585,7.9268,-1.5244,0.00,0.00,0.00,2,S01
7700,-8.91601,1.08936,1.79565,-20.8537,8.4756,-2.7439,0.00,0.00,0.00,2,S01
7720,-8.77954,1.04148,1.95606,-20.0610,9.3902,-3.2927,0.00,0.00,0.00,2,S01
7740,-8.62631,0.97444,2.06141,-18.5366,10.0000,-2.7439,0.00,0.00,0.00,2,S01
7760,-8.52096,0.95289,2.12845,-16.0976,10.7317,-1.0366,0.00,0.00,0.00,2,S01
7780,-8.66940,0.90501,2.27449,-14.6951,11.2195,1.2805,0.00,0.00,0.00,2,S01
7800,-8.86333,1.04866,2.29125,-11.8902,9.8171,3.2927,0.00,0.00,0.00,2,S01
7820,-9.10994,0.85712,2.01352,-8.6585,7.9268,4.1463,0.00,0.00,0.00,2,S01
7840,-9.35175,0.98162,1.78368,-4.7561,6.5854,2.0732,0.00,0.00,0.00,2,S01
7860,-9.56005,0.84276,1.61609,-3.4146,2.8659,-1.0366,0.00,0.00,0.00,2,S01
7880,-9.79707,1.55863,2.24576,-4.5122,-2.6220,-4.4512,0.00,0.00,0.00,2,S01
7900,-8.65983,3.25611,2.65038,-30.5488,-14.5732,-3.4756,0.00,0.00,0.00,2,S01
7920,-8.21211,2.43730,2.69827,-44.2683,-13.2927,-3.7195,0.00,0.00,0.00,2,S01
7940,-8.50181,1.09894,2.65038,-50.1829,-8.1707,-5.5488,0.00,0.00,0.00,2,S01
7960,-9.64863,0.06225,2.18830,-47.7439,-2.0732,-8.0488,0.00,0.00,0.00,2,S01
7980,-10.96784,-0.33519,1.58017,-41.4024,-0.2439,-12.5000,0.00,0.00,0.00,2,S01
8000,-11.70525,0.17717,0.99838,-33.4146,-5.2439,-21.5854,0.00,0.00,0.00,2,S01
8020,-11.51132,0.69432,0.58419,-26.8293,-15.6707,-32.6220,0.00,0.00,0.00,2,S01
8040,-10.40759,0.93613,0.16520,-23.7195,-24.9390,-35.1829,0.00,0.00,0.00,2,S01
8060,-8.92558,0.95768,-0.56503,-25.4878,-28.6585,-27.9878,0.00,0.00,0.00,2,S01
8080,-7.72848,0.54588,-1.21625,-28.9634,-22.3171,-16.9512,0.00,0.00,0.00,2,S01
8100,-7.69257,0.17717,-0.94571,-29.2073,-8.9634,-9.0854,0.00,0.00,0.00,2,S01
8120,-8.81306,0.12689,0.19872,-23.0488,4.1463,-5.1220,0.00,0.00,0.00,2,S01
8140,-10.05804,0.72544,1.03669,-13.4146,7.9268,-3.2317,0.00,0.00,0.00,2,S01
8160,-10.39084,1.23541,1.15161,-7.1951,3.4146,-1.8293,0.00,0.00,0.00,2,S01
8180,-10.08917,1.47483,1.01275,-5.0610,-1.5244,-1.5244,0.00,0.00,0.00,2,S01
8200,-9.49780,1.39343,0.64404,-2.4390,-3.4756,-1.0366,0.00,0.00,0.00,2,S01
8220,-8.85376,1.22104,0.44772,1.4634,-1.1585,1.5244,0.00,0.00,0.00,2,S01
8240,-8.51139,1.17316,0.56743,2.8659,4.0854,6.2195,0.00,0.00,0.00,2,S01
8260,-8.54730,1.18752,0.84994,1.2195,9.1463,10.3659,0.00,0.00,0.00,2,S01
8280,-8.62391,1.20189,1.00796,-0.5488,11.5854,12.6220,0.00,0.00,0.00,2,S01
8300,-8.73165,1.23301,1.21865,-1.7683,12.8659,12.9878,0.00,0.00,0.00,2,S01
8320,-8.93756,1.22104,1.61130,-2.1951,13.9024,12.1951,0.00,0.00,0.00,2,S01
8340,-9.04051,1.22344,1.59693,-0.6707,13.1098,11.2195,0.00,0.00,0.00,2,S01
8360,-8.91840,1.26174,1.38385,1.4634,12.9878,11.0976,0.00,0.00,0.00,2,S01
8380,-8.76996,1.21147,1.27372,2.3171,13.8415,10.5488,0.00,0.00,0.00,2,S01
8400,-8.79151,1.15879,1.31202,3.2317,14.7561,8.2927,0.00,0.00,0.00,2,S01
8420,-8.95910,1.14443,1.40300,4.6341,15.0610,5.1220,0.00,0.00,0.00,2,S01
8440,-9.09318,1.17555,1.60412,6.2805,14.5732,2.6220,0.00,0.00,0.00,2,S01
8460,-9.06205,1.28569,1.74058,8.4146,12.8049,1.7073,0.00,0.00,0.00,2,S01
8480,-9.07642,1.37906,1.80283,10.0610,11.7683,1.3415,0.00,0.00,0.00,2,S01
8500,-9.00459,1.42216,1.97043,11.8293,11.7683,-0.3659,0.00,0.00,0.00,2,S01
8520,-8.83460,1.57299,1.99198,15.0000,10.9756,-2.2561,0.00,0.00,0.00,2,S01
8540,-8.73405,1.66876,2.25055,16.8293,9.8171,-3.7805,0.00,0.00,0.00,2,S01
8560,-8.63589,1.70946,2.17872,18.1098,7.6220,-4.2683,0.00,0.00,0.00,2,S01
8580,-8.62631,1.79086,2.17394,18.6585,7.1341,-4.6951,0.00,0.00,0.00,2,S01
8600,-8.82024,1.89621,2.32956,18.7805,7.1341,-5.4878,0.00,0.00,0.00,2,S01
8620,-8.91122,2.13802,2.19548,19.0244,5.2439,-5.1829,0.00,0.00,0.00,2,S01
8640,-8.97107,2.36068,2.09253,17.8049,3.5366,-3.0488,0.00,0.00,0.00,2,S01
8660,-9.02135,2.71742,1.49877,14.8171,1.0976,0.4878,0.00,0.00,0.00,2,S01
8680,-9.52413,2.63362,1.81959,9.0854,0.4268,5.7927,0.00,0.00,0.00,2,S01
8700,-9.69412,1.86508,2.32238,10.3049,-2.8659,12.1341,0.00,0.00,0.00,2,S01
8720,-9.47864,1.20668,2.39420,20.6707,-6.1585,17.0122,0.00,0.00,0.00,2,S01
8740,-9.75637,1.37188,1.79326,32.3171,-6.4634,19.7561,0.00,0.00,0.00,2,S01
8760,-10.17775,1.98000,0.84994,38.7805,-2.9878,24.2683,0.00,0.00,0.00,2,S01
8780,-10.41238,2.31280,0.50518,39.8171,1.8902,32.3780,0.00,0.00,0.00,2,S01
8800,-10.04607,2.08056,0.50039,38.4146,2.8659,40.6098,0.00,0.00,0.00,2,S01
8820,-9.55526,1.73819,0.33279,38.1098,1.4634,41.8902,0.00,0.00,0.00,2,S01
8840,-9.44991,1.73580,-0.22027,40.3659,-0.1829,33.1707,0.00,0.00,0.00,2,S01
8860,-9.27753,1.94888,-0.89783,42.2561,-0.2439,20.1220,0.00,0.00,0.00,2,S01
8880,-8.88249,2.15957,-1.35272,40.4268,0.4268,8.3537,0.00,0.00,0.00,2,S01
8900,-8.60715,2.39181,-1.56341,32.6829,0.6707,-0.4878,0.00,0.00,0.00,2,S01
8920,-8.81784,1.89381,-1.06063,18.1098,1.9512,-6.8902,0.00,0.00,0.00,2,S01
8940,-9.65342,1.35272,-0.23224,5.6707,2.6220,-11.5244,0.00,0.00,0.00,2,S01
8960,-10.23761,1.01514,0.30167,-1.8293,0.0000,-14.6341,0.00,0.00,0.00,2,S01
8980,-10.07720,1.03908,0.33998,-5.1829,-5.3659,-16.7073,0.00,0.00,0.00,2,S01
9000,-9.54568,1.14922,0.19632,-6.8293,-9.8171,-18.7805,0.00,0.00,0.00,2,S01
9020,-9.28232,1.23541,0.30167,-8.9634,-10.8537,-21.1585,0.00,0.00,0.00,2,S01
9040,-8.98304,1.17076,0.37350,-10.1220,-10.7927,-22.8659,0.00,0.00,0.00,2,S01
9060,-8.73405,1.05584,0.39265,-10.2439,-9.6951,-22.6220,0.00,0.00,0.00,2,S01
9080,-8.62870,1.05345,0.51715,-11.0366,-6.8902,-20.5488,0.00,0.00,0.00,2,S01
9100,-8.55209,1.20668,0.59855,-15.6098,-2.5000,-13.9634,0.00,0.00,0.00,2,S01
9120,-8.61194,1.17076,0.52912,-17.1341,0.8537,-10.9146,0.00,0.00,0.00,2,S01
9140,-8.74841,1.07978,0.54109,-17.4390,5.0000,-8.7805,0.00,0.00,0.00,2,S01
9160,-9.03093,0.96247,0.71826,-17.8049,8.4146,-7.0732,0.00,0.00,0.00,2,S01
9180,-9.30626,0.94810,0.89064,-18.8415,8.9024,-5.6098,0.00,0.00,0.00,2,S01
9200,-9.36372,0.98162,1.03908,-19.8171,7.3171,-4.6951,0.00,0.00,0.00,2,S01
9220,-9.34457,1.00556,1.19231,-20.1829,5.6707,-4.6951,0.00,0.00,0.00,2,S01
9240,-9.22725,0.98402,1.31681,-19.5732,4.3902,-5.5488,0.00,0.00,0.00,2,S01
9260,-9.08839,0.96965,1.42694,-18.1707,3.5366,-6.3415,0.00,0.00,0.00,2,S01
9280,-8.90643,1.00317,1.45089,-16.7073,3.0488,-6.6463,0.00,0.00,0.00,2,S01
9300,-8.81066,0.98402,1.56581,-17.5000,3.4146,-6.2805,0.00,0.00,0.00,2,S01
9320,-8.77954,1.00078,1.67834,-18.1707,4.1463,-5.4268,0.00,0.00,0.00,2,S01
9340,-8.73884,1.05824,1.73101,-17.9268,4.9390,-3.5366,0.00,0.00,0.00,2,S01
9360,-8.73644,1.05105,1.90100,-18.1098,5.7927,-0.9146,0.00,0.00,0.00,2,S01
9380,-8.93037,0.56264,1.98240,-17.9268,5.4268,1.6463,0.00,0.00,0.00,2,S01
9400,-9.16500,0.54588,1.62327,-13.5976,4.9390,2.7439,0.00,0.00,0.00,2,S01
9420,-9.16261,0.92416,1.57299,-13.1707,5.0610,3.4756,0.00,0.00,0.00,2,S01
9440,-9.25359,0.83318,1.43652,-14.2683,2.5610,4.3902,0.00,0.00,0.00,2,S01
9460,-9.42837,0.76136,1.55623,-11.4024,-0.4268,3.6585,0.00,0.00,0.00,2,S01
9480,-9.43076,1.38624,1.99198,-12.0732,-2.7439,2.5000,0.00,0.00,0.00,2,S01
9500,-9.06924,2.03507,2.11647,-20.4268,-4.2683,1.8902,0.00,0.00,0.00,2,S01
9520,-9.11951,2.04465,2.28886,-31.3415,-2.8659,0.5488,0.00,0.00,0.00,2,S01
9540,-9.82580,1.34554,2.02310,-37.3171,-1.9512,-2.6220,0.00,0.00,0.00,2,S01
9560,-10.90319,0.39504,1.59693,-35.6098,-0.9756,-7.9878,0.00,0.00,0.00,2,S01
9580,-11.55681,0.03112,1.24020,-28.3537,-2.5000,-15.0000,0.00,0.00,0.00,2,S01
9600,-11.33654,0.15323,0.81163,-22.0122,-8.5976,-20.3049,0.00,0.00,0.00,2,S01
9620,-10.29986,0.70390,0.45729,-19.1463,-15.3049,-20.9146,0.00,0.00,0.00,2,S01
9640,-9.08360,1.06303,0.08380,-21.0366,-18.5366,-16.4634,0.00,0.00,0.00,2,S01
9660,-8.16183,0.75896,-0.30646,-23.4756,-16.6463,-9.6341,0.00,0.00,0.00,2,S01
9680,-7.79552,0.55545,-0.66080,-23.9634,-11.0366,-4.6341,0.00,0.00,0.00,2,S01
9700,-8.09958,0.57940,-0.65841,-23.2317,-3.6585,-2.3780,0.00,0.00,0.00,2,S01
9720,-8.95671,0.66080,-0.07422,-19.5732,1.0366,-2.4390,0.00,0.00,0.00,2,S01
9740,-9.85214,0.84994,0.44293,-12.6220,0.0000,-3.5976,0.00,0.00,0.00,2,S01
9760,-10.26634,0.99120,0.52672,-5.6707,-5.0000,-4.5122,0.00,0.00,0.00,2,S01
9780,-10.14663,0.95768,0.45729,-0.3049,-9.0854,-4.6951,0.00,0.00,0.00,2,S01
9800,-9.84975,0.86191,0.46448,4.8171,-11.7073,-3.7805,0.00,0.00,0.00,2,S01
9820,-9.42837,0.87867,0.41899,10.3659,-12.5000,-0.4878,0.00,0.00,0.00,2,S01
9840,-9.03811,1.04866,0.46926,14.9390,-10.3049,4.2073,0.00,0.00,0.00,2,S01
9860,-8.80109,1.28808,0.62489,16.7683,-7.5610,8.0488,0.00,0.00,0.00,2,S01
9880,-8.58561,1.33596,0.73263,16.5244,-5.3659,10.6707,0.00,0.00,0.00,2,S01
9900,-8.56406,1.40540,0.94571,15.3049,-2.0122,11.0976,0.00,0.00,0.00,2,S01
9920,-8.67659,1.49877,1.17795,13.8415,0.4878,10.2439,0.00,0.00,0.00,2,S01
9940,-8.79390,1.43173,1.35991,12.6829,1.8293,9.8171,0.00,0.00,0.00,2,S01
9960,-8.81545,1.35033,1.35751,12.6220,2.3780,9.3902,0.00,0.00,0.00,2,S01
9980,-8.79390,1.34315,1.33357,13.1098,3.4146,8.4756,0.00,0.00,0.00,2,S01
10000,-8.81784,1.40779,1.31921,13.5366,4.8780,7.0732,0.00,0.00,0.00,2,S01
10020,-8.90643,1.48441,1.39821,13.8415,5.9756,5.4878,0.00,0.00,0.00,2,S01
10040,-8.93277,1.51792,1.42694,14.3293,5.9756,3.6585,0.00,0.00,0.00,2,S01
10060,-8.99741,1.57299,1.52989,15.0000,5.9756,2.6220,0.00,0.00,0.00,2,S01
10080,-9.09797,1.63045,1.67355,15.6098,5.8537,2.5000,0.00,0.00,0.00,2,S01
10100,-9.15064,1.56581,1.83635,16.5854,5.5488,2.0732,0.00,0.00,0.00,2,S01
10120,-8.98783,1.63763,1.84832,18.6585,4.5732,1.2195,0.00,0.00,0.00,2,S01
10140,-8.77954,1.76692,1.93691,20.1220,4.0244,0.3659,0.00,0.00,0.00,2,S01
10160,-8.59518,1.83635,1.98000,20.6098,3.5366,-0.4878,0.00,0.00,0.00,2,S01
10180,-8.48505,1.85311,1.98000,20.5488,4.0244,-1.5244,0.00,0.00,0.00,2,S01
10200,-8.59518,1.88903,2.13802,20.1220,5.0000,-2.9878,0.00,0.00,0.00,2,S01
10220,-8.79151,1.93451,2.25055,20.0000,4.6951,-4.2683,0.00,0.00,0.00,2,S01
10240,-8.87531,1.97282,2.16196,20.2439,3.4756,-4.6341,0.00,0.00,0.00,2,S01
10260,-8.83700,2.35589,1.68791,18.7805,2.1951,-4.4512,0.00,0.00,0.00,2,S01
10280,-9.13148,2.63362,1.58257,11.4024,1.9512,-1.1585,0.00,0.00,0.00,2,S01
10300,-9.46428,2.25294,1.98000,9.5732,-1.0976,2.8659,0.00,0.00,0.00,2,S01
10320,-9.47864,1.47004,2.81079,13.2927,-5.6098,7.1341,0.00,0.00,0.00,2,S01
10340,-9.05248,1.05105,3.11486,22.5610,-10.1220,9.3902,0.00,0.00,0.00,2,S01
10360,-8.79630,1.38624,2.83713,32.1951,-10.6707,9.3293,0.00,0.00,0.00,2,S01
10380,-9.15543,2.11408,2.13323,38.9634,-8.4756,10.0000,0.00,0.00,0.00,2,S01
10400,-9.96946,2.95205,1.31921,40.8537,-5.0000,15.2439,0.00,0.00,0.00,2,S01
10420,-10.63744,3.35667,1.13964,36.6463,-1.4024,24.6951,0.00,0.00,0.00,2,S01
10440,-10.71405,2.89220,0.80445,30.3049,-2.5610,32.7439,0.00,0.00,0.00,2,S01
10460,-10.17536,1.72143,0.45250,29.3902,-4.1463,32.5610,0.00,0.00,0.00,2,S01
10480,-9.60314,1.27611,0.13408,35.9756,-5.6098,21.2195,0.00,0.00,0.00,2,S01
10500,-9.03093,1.47722,-0.61292,41.5854,-9.2683,7.3171,0.00,0.00,0.00,2,S01
10520,-8.31027,1.79326,-1.12049,41.8902,-10.8537,-0.3659,0.00,0.00,0.00,2,S01
10540,-8.14986,2.01831,-1.06063,37.1951,-9.1463,-1.6463,0.00,0.00,0.00,2,S01
10560,-8.72208,1.80762,-0.35434,28.4146,-5.6098,-2.8049,0.00,0.00,0.00,2,S01
10580,-9.86172,1.54905,0.44293,20.8537,-4.2683,-4.0244,0.00,0.00,0.00,2,S01
10600,-10.49379,1.27850,0.64165,16.0976,-6.7073,-5.7927,0.00,0.00,0.00,2,S01
10620,-10.35013,1.37906,0.62968,11.9512,-11.3415,-10.9756,0.00,0.00,0.00,2,S01
10640,-9.94791,1.67115,0.49560,7.1341,-16.5244,-18.2317,0.00,0.00,0.00,2,S01
10660,-9.48104,1.70467,0.39983,4.2683,-18.9024,-24.2073,0.00,0.00,0.00,2,S01
10680,-9.04769,1.62806,0.66798,2.5610,-18.1098,-28.1707,0.00,0.00,0.00,2,S01
10700,-8.57364,1.44131,0.56982,0.7927,-16.7073,-28.1098,0.00,0.00,0.00,2,S01
10720,-8.26718,1.20668,0.84515,-1.5244,-11.7073,-25.0610,0.00,0.00,0.00,2,S01
10740,-8.14986,1.10133,1.11570,-2.9268,-6.7073,-21.1585,0.00,0.00,0.00,2,S01
10760,-8.20493,1.10612,1.27372,-3.5976,-2.2561,-18.0488,0.00,0.00,0.00,2,S01
10780,-8.36055,1.15161,1.19710,-3.6585,2.7439,-15.5488,0.00,0.00,0.00,2,S01
10800,-8.53772,1.26174,1.15401,-3.9024,8.7195,-13.9024,0.00,0.00,0.00,2,S01
10820,-8.81545,1.39103,1.22583,-4.8780,13.3537,-12.3780,0.00,0.00,0.00,2,S01
10840,-8.98065,1.41976,1.33118,-6.5854,15.1829,-9.9390,0.00,0.00,0.00,2,S01
10860,-9.03093,1.34075,1.44370,-8.3537,15.0000,-7.2561,0.00,0.00,0.00,2,S01
10880,-9.01417,1.20189,1.57538,-9.3293,14.5122,-5.7927,0.00,0.00,0.00,2,S01
10900,-8.92319,1.02951,1.78607,-9.2683,14.3902,-5.9756,0.00,0.00,0.00,2,S01
10920,-8.82024,0.89543,1.98958,-8.1098,14.0244,-6.7683,0.00,0.00,0.00,2,S01
10940,-8.76996,0.89783,2.15239,-6.9512,13.2317,-6.6463,0.00,0.00,0.00,2,S01
10960,-8.67898,0.94092,2.29843,-7.5610,12.0122,-5.4268,0.00,0.00,0.00,2,S01
10980,-8.60476,0.94810,2.28407,-7.1341,11.1585,-3.3537,0.00,0.00,0.00,2,S01
11000,-8.79869,0.99838,2.22900,-6.4634,11.0366,-0.6707,0.00,0.00,0.00,2,S01
11020,-9.07402,0.85234,1.97282,-6.8902,10.8537,2.0732,0.00,0.00,0.00,2,S01
11040,-9.37091,0.82839,1.64003,-6.1585,10.0610,2.3171,0.00,0.00,0.00,2,S01
11060,-9.53371,0.60813,1.21625,-5.9146,7.3171,-0.4268,0.00,0.00,0.00,2,S01
11080,-9.88805,0.96726,1.80283,-5.7927,3.5976,-4.6951,0.00,0.00,0.00,2,S01
11100,-9.79468,1.96803,2.58334,-12.1951,-3.3537,-6.9512,0.00,0.00,0.00,2,S01
11120,-9.26317,2.64799,2.75812,-25.0610,-10.4268,-6.0366,0.00,0.00,0.00,2,S01
11140,-8.90882,2.13563,2.53546,-36.6463,-10.5488,-5.7927,0.00,0.00,0.00,2,S01
11160,-9.47146,1.20668,1.90339,-40.7317,-7.7439,-9.3293,0.00,0.00,0.00,2,S01
11180,-10.56801,0.41180,1.33118,-39.2073,-5.1829,-15.9146,0.00,0.00,0.00,2,S01
11200,-11.33654,0.22505,0.86431,-35.0610,-6.7683,-23.0488,0.00,0.00,0.00,2,S01
11220,-11.32457,0.24421,0.40941,-29.9390,-12.1341,-28.3537,0.00,0.00,0.00,2,S01
11240,-10.46984,0.65122,0.34477,-27.3171,-18.2317,-30.4878,0.00,0.00,0.00,2,S01
11260,-9.01656,1.11809,-0.48363,-29.4512,-23.7805,-25.0000,0.00,0.00,0.00,2,S01
11280,-7.83622,0.96007,-1.28090,-33.6585,-19.0854,-14.2073,0.00,0.00,0.00,2,S01
11300,-7.88411,0.57940,-0.96965,-35.1220,-6.5244,-7.0122,0.00,0.00,0.00,2,S01
11320,-8.80109,0.26336,0.12450,-29.3902,2.6220,-5.3659,0.00,0.00,0.00,2,S01
11340,-9.73961,0.30406,0.68474,-16.7073,3.7195,-5.3049,0.00,0.00,0.00,2,S01
11360,-10.29267,0.83558,0.84994,-5.6707,0.6098,-5.4268,0.00,0.00,0.00,2,S01
11380,-10.27112,1.46286,0.73981,-0.7317,-3.2927,-4.3293,0.00,0.00,0.00,2,S01
11400,-9.71567,1.69031,0.51475,0.3659,-5.7927,-1.7073,0.00,0.00,0.00,2,S01
11420,-8.91361,1.59693,0.20351,0.9756,-5.2439,1.8902,0.00,0.00,0.00,2,S01
11440,-8.47547,1.52750,0.23463,0.8537,-0.8537,6.0976,0.00,0.00,0.00,2,S01
11460,-8.52336,1.18034,0.87149,-3.8415,7.4390,12.0122,0.00,0.00,0.00,2,S01
11480,-8.70292,1.17076,1.10852,-4.2683,8.9634,11.7683,0.00,0.00,0.00,2,S01
11500,-8.89207,1.18752,1.37427,-4.3293,9.5732,11.0976,0.00,0.00,0.00,2,S01
11520,-8.98304,1.32160,1.47243,-3.7805,9.5122,10.6098,0.00,0.00,0.00,2,S01
11540,-8.98304,1.37188,1.31921,-3.4146,9.2073,10.9756,0.00,0.00,0.00,2,S01
11560,-8.81545,1.22344,1.19471,-2.6220,9.6951,10.9146,0.00,0.00,0.00,2,S01
11580,-8.78911,1.17076,1.24977,-1.0976,10.3659,8.2927,0.00,0.00,0.00,2,S01
11600,-8.93277,1.19471,1.45328,0.1829,10.4878,4.6341,0.00,0.00,0.00,2,S01
11620,-9.06205,1.28569,1.63763,1.5854,9.8780,2.1951,0.00,0.00,0.00,2,S01
11640,-9.01656,1.32878,1.74058,3.5976,9.1463,1.7073,0.00,0.00,0.00,2,S01
11660,-8.91361,1.67115,1.69270,6.0366,9.1463,2.5000,0.00,0.00,0.00,2,S01
11680,-8.90882,1.64721,1.83156,6.0366,10.1220,2.0122,0.00,0.00,0.00,2,S01
11700,-8.79151,1.70707,1.78847,7.6220,10.1220,0.3659,0.00,0.00,0.00,2,S01
11720,-8.75560,1.83875,1.99916,9.4512,10.0610,-1.5854,0.00,0.00,0.00,2,S01
11740,-8.68377,1.91776,2.06859,10.4878,8.4756,-2.1951,0.00,0.00,0.00,2,S01
11760,-8.65983,1.87466,2.01831,10.9146,7.1951,-1.8902,0.00,0.00,0.00,2,S01
11780,-8.83700,1.75016,2.01592,11.6463,7.2561,-2.1951,0.00,0.00,0.00,2,S01
11800,-9.00220,1.90339,1.95606,13.1098,5.9146,-2.7439,0.00,0.00,0.00,2,S01
11820,-9.17937,2.49955,1.24259,12.5610,2.1341,-2.1341,0.00,0.00,0.00,2,S01
11840,-9.44752,2.90656,0.93374,8.4756,0.0000,0.9146,0.00,0.00,0.00,2,S01
11860,-9.78031,2.11887,1.93930,4.2683,-2.4390,6.4634,0.00,0.00,0.00,2,S01
11880,-9.70849,1.06303,2.60010,11.4024,-7.8049,11.3415,0.00,0.00,0.00,2,S01
11900,-9.87608,0.77333,2.32477,25.3659,-10.7317,14.8780,0.00,0.00,0.00,2,S01
11920,-10.33816,1.47243,1.61848,36.2195,-9.6951,18.8415,0.00,0.00,0.00,2,S01
11940,-10.43154,2.16675,0.95289,40.1829,-8.2317,26.5244,0.00,0.00,0.00,2,S01
11960,-10.17536,2.37984,0.73981,39.0244,-8.1098,34.7561,0.00,0.00,0.00,2,S01
11980,-9.62469,2.06141,0.40701,37.7439,-10.3049,37.4390,0.00,0.00,0.00,2,S01
12000,-9.50259,1.90100,0.13886,38.3537,-11.2805,30.7927,0.00,0.00,0.00,2,S01
12020,-9.47625,1.92494,-0.29688,39.2073,-12.0122,19.3293,0.00,0.00,0.00,2,S01
12040,-9.14106,1.86508,-0.63925,37.7439,-12.7439,8.8415,0.00,0.00,0.00,2,S01
12060,-8.66940,1.87705,-0.98881,34.0244,-12.9268,0.7317,0.00,0.00,0.00,2,S01
12080,-8.51378,1.94409,-1.08697,26.1585,-10.3659,-3.9024,0.00,0.00,0.00,2,S01
12100,-8.77714,1.51792,-0.61052,14.6341,-6.0366,-7.2561,0.00,0.00,0.00,2,S01
12120,-9.44513,1.07739,0.05986,4.6951,-3.7195,-9.7561,0.00,0.00,0.00,2,S01
12140,-9.93594,0.87388,0.58658,-1.9512,-4.0854,-11.0976,0.00,0.00,0.00,2,S01
12160,-9.79228,1.00078,0.64404,-5.5488,-6.8293,-11.4024,0.00,0.00,0.00,2,S01
12180,-9.50019,1.11091,0.62489,-8.9024,-9.2683,-13.0488,0.00,0.00,0.00,2,S01
12200,-9.25119,1.21386,0.69432,-11.2195,-10.7317,-15.6098,0.00,0.00,0.00,2,S01
12220,-8.98783,1.23301,0.71826,-11.8293,-11.0976,-17.2561,0.00,0.00,0.00,2,S01
12240,-8.75320,1.14922,0.67995,-13.4146,-9.8171,-16.2805,0.00,0.00,0.00,2,S01
12260,-8.55927,0.99599,0.73023,-14.6951,-6.9512,-13.1098,0.00,0.00,0.00,2,S01
12280,-8.53533,0.91459,1.00317,-14.6341,-3.5366,-9.6341,0.00,0.00,0.00,2,S01
12300,-8.69574,0.94810,1.21865,-14.9390,-0.9756,-6.6463,0.00,0.00,0.00,2,S01
12320,-8.86333,0.99838,1.22344,-14.7561,0.8537,-4.2683,0.00,0.00,0.00,2,S01
12340,-8.87291,1.03430,1.00796,-12.8049,3.0488,-3.4146,0.00,0.00,0.00,2,S01
12360,-8.95910,1.02711,0.94810,-11.2195,6.9512,-3.4146,0.00,0.00,0.00,2,S01
12380,-9.16740,1.11809,1.10373,-11.9512,10.3049,-3.5366,0.00,0.00,0.00,2,S01
12400,-9.30866,1.22823,1.25935,-14.3293,11.0976,-3.4146,0.00,0.00,0.00,2,S01
12420,-9.24880,1.27372,1.33118,-16.5244,10.5488,-3.5366,0.00,0.00,0.00,2,S01
12440,-9.19134,1.20907,1.42694,-18.0488,9.8171,-3.9634,0.00,0.00,0.00,2,S01
12460,-9.15782,1.11091,1.57299,-18.9634,9.2683,-4.4512,0.00,0.00,0.00,2,S01
12480,-9.06445,1.04627,1.72383,-19.0854,8.2927,-4.5122,0.00,0.00,0.00,2,S01
12500,-8.88967,0.99120,1.81002,-19.7561,7.6220,-3.9024,0.00,0.00,0.00,2,S01
12520,-8.79151,0.92656,2.05422,-20.2439,7.8049,-3.4756,0.00,0.00,0.00,2,S01
12540,-8.74602,1.00556,2.11887,-18.5366,7.1341,-2.5000,0.00,0.00,0.00,2,S01
12560,-8.78193,1.18513,2.26013,-17.0732,6.4024,0.0000,0.00,0.00,0.00,2,S01
12580,-8.76038,1.32639,2.29843,-17.3171,5.3049,3.2317,0.00,0.00,0.00,2,S01
12600,-8.73644,1.11330,2.28646,-18.2927,5.1220,5.8537,0.00,0.00,0.00,2,S01
12620,-8.79151,0.97683,2.18112,-17.6829,6.0366,7.1341,0.00,0.00,0.00,2,S01
12640,-8.83460,1.14922,2.12605,-18.5976,7.5610,8.2317,0.00,0.00,0.00,2,S01
12660,-9.16979,1.20668,2.20745,-20.4878,6.5244,8.1098,0.00,0.00,0.00,2,S01
12680,-9.24162,1.24259,2.24576,-21.5244,5.5488,5.9756,0.00,0.00,0.00,2,S01
12700,-9.27274,1.29766,2.51631,-23.9024,5.6707,2.7439,0.00,0.00,0.00,2,S01
12720,-9.52413,1.23062,2.47800,-26.9512,3.9024,-0.9756,0.00,0.00,0.00,2,S01
12740,-9.89045,0.94810,1.86508,-28.5366,1.9512,-5.3659,0.00,0.00,0.00,2,S01
12760,-10.32380,0.62010,1.51314,-27.3780,2.3780,-12.3171,0.00,0.00,0.00,2,S01
12780,-10.72842,0.57940,1.30484,-24.5122,-0.2439,-21.7683,0.00,0.00,0.00,2,S01
12800,-10.58237,0.74699,0.92416,-21.9512,-6.7073,-29.7561,0.00,0.00,0.00,2,S01
12820,-9.95509,1.27132,0.65601,-21.9512,-12.1951,-32.6220,0.00,0.00,0.00,2,S01
12840,-9.43316,1.36948,0.39744,-25.3049,-13.4146,-29.2683,0.00,0.00,0.00,2,S01
12860,-9.10994,0.90980,0.40941,-26.5244,-10.0000,-21.6463,0.00,0.00,0.00,2,S01
12880,-8.98544,0.40223,0.38307,-23.6585,-5.8537,-13.2317,0.00,0.00,0.00,2,S01
12900,-8.99741,0.13168,0.21308,-18.6585,-3.4756,-6.9512,0.00,0.00,0.00,2,S01
12920,-8.98065,0.15323,-0.05028,-12.1951,-3.4146,-4.1463,0.00,0.00,0.00,2,S01
12940,-8.98783,0.56264,-0.26097,-6.2805,-3.9024,-4.4512,0.00,0.00,0.00,2,S01
12960,-9.06205,1.12049,-0.16520,-3.5366,-3.4146,-6.0366,0.00,0.00,0.00,2,S01
12980,-9.25119,1.46046,0.08140,-3.4146,-3.9024,-6.8902,0.00,0.00,0.00,2,S01
13000,-9.49062,1.41497,0.35434,-2.8659,-4.8780,-6.0366,0.00,0.00,0.00,2,S01
13020,-9.65342,1.22344,0.54827,-0.0610,-5.1220,-4.1463,0.00,0.00,0.00,2,S01
13040,-9.64863,1.06781,0.79966,3.8415,-4.6341,-1.7073,0.00,0.00,0.00,2,S01
13060,-9.39724,1.02951,0.88107,8.1098,-4.6951,1.1585,0.00,0.00,0.00,2,S01
13080,-9.16740,1.06063,0.77812,12.0122,-3.8415,4.4512,0.00,0.00,0.00,2,S01
13100,-9.04529,1.16358,0.75657,14.6951,-1.0366,7.5000,0.00,0.00,0.00,2,S01
13120,-8.93756,1.30723,0.91698,15.4878,1.3415,9.3902,0.00,0.00,0.00,2,S01
13140,-8.87291,1.35512,0.98881,15.2439,2.3780,10.0000,0.00,0.00,0.00,2,S01
13160,-8.79630,1.39582,0.97444,15.0000,4.0854,9.6341,0.00,0.00,0.00,2,S01
13180,-8.71729,1.40779,0.99599,13.8415,6.3415,8.5366,0.00,0.00,0.00,2,S01
13200,-8.77714,1.34075,1.10612,12.0732,8.3537,7.0122,0.00,0.00,0.00,2,S01
13220,-9.03332,1.35751,1.25935,11.3415,10.1220,5.3049,0.00,0.00,0.00,2,S01
13240,-9.16740,1.39103,1.32399,11.7073,9.8780,4.3293,0.00,0.00,0.00,2,S01
13260,-9.12191,1.46525,1.19471,12.5610,8.4756,3.5976,0.00,0.00,0.00,2,S01
13280,-9.13388,1.60890,1.22104,12.4390,8.5976,2.7439,0.00,0.00,0.00,2,S01
13300,-9.10754,1.55863,1.32878,11.7683,9.2073,1.9512,0.00,0.00,0.00,2,S01
13320,-9.09078,1.44849,1.42934,12.5000,9.7561,1.1585,0.00,0.00,0.00,2,S01
13340,-9.11233,1.26174,1.64482,14.4512,9.8171,0.3659,0.00,0.00,0.00,2,S01
13360,-9.10754,1.18274,1.86748,17.2561,8.6585,-0.5488,0.00,0.00,0.00,2,S01
13380,-8.93277,1.27611,2.00155,20.0610,7.1951,-1.5244,0.00,0.00,0.00,2,S01
13400,-8.71968,1.48680,2.04944,22.4390,6.5854,-2.8049,0.00,0.00,0.00,2,S01
13420,-8.58082,1.72143,2.05183,23.6585,6.6463,-4.2683,0.00,0.00,0.00,2,S01
13440,-8.58800,1.91536,2.03747,23.8415,6.2195,-5.8537,0.00,0.00,0.00,2,S01
13460,-8.72208,1.86029,2.20027,21.8293,4.9390,-7.1951,0.00,0.00,0.00,2,S01
13480,-8.81784,1.77650,2.24097,21.5854,2.8049,-8.7805,0.00,0.00,0.00,2,S01
13500,-8.84658,1.69270,2.27449,23.2317,1.0366,-10.0610,0.00,0.00,0.00,2,S01
13520,-8.89685,1.77650,2.18591,25.6707,-0.4268,-10.1829,0.00,0.00,0.00,2,S01
13540,-8.93995,2.03747,1.82199,26.3415,-2.3780,-8.5366,0.00,0.00,0.00,2,S01
13560,-9.11712,2.60968,1.55144,23.3537,-3.3537,-5.6098,0.00,0.00,0.00,2,S01
13580,-9.57441,2.61686,1.92733,18.1098,-4.1463,-0.8537,0.00,0.00,0.00,2,S01
13600,-9.73243,1.86987,2.52109,19.8780,-6.2805,5.4878,0.00,0.00,0.00,2,S01
13620,-9.67976,1.31442,2.18591,30.1829,-8.1098,11.1585,0.00,0.00,0.00,2,S01
13640,-9.89045,1.54665,1.29526,40.0000,-5.9146,16.4634,0.00,0.00,0.00,2,S01
13660,-10.00058,2.02549,0.69911,43.4146,-1.0976,23.7805,0.00,0.00,0.00,2,S01
13680,-9.92397,2.23618,0.57940,41.9512,1.2195,31.8293,0.00,0.00,0.00,2,S01
13700,-9.72285,2.22661,0.44053,38.9634,0.4268,36.9512,0.00,0.00,0.00,2,S01
13720,-9.61511,2.09014,0.28012,35.4878,-0.8537,35.9756,0.00,0.00,0.00,2,S01
13740,-9.77553,2.12845,0.13168,32.9878,-2.5000,27.9878,0.00,0.00,0.00,2,S01
13760,-9.75398,2.11887,-0.26576,31.2195,-5.1829,16.8902,0.00,0.00,0.00,2,S01
13780,-9.26556,2.02789,-0.79727,28.5366,-6.4634,6.2195,0.00,0.00,0.00,2,S01
13800,-8.66701,2.00155,-1.24738,23.7805,-4.6951,-2.8049,0.00,0.00,0.00,2,S01
13820,-8.31267,1.64960,-1.35033,17.0732,-0.5488,-8.7195,0.00,0.00,0.00,2,S01
13840,-8.70771,1.01993,-0.80685,11.2805,4.2683,-12.7439,0.00,0.00,0.00,2,S01
13860,-9.80426,0.79248,0.17957,7.5000,2.5610,-16.0976,0.00,0.00,0.00,2,S01
13880,-9.63427,1.10133,0.22266,4.8780,-0.1829,-15.1220,0.00,0.00,0.00,2,S01
13900,-9.48343,1.42455,0.35434,0.5488,-2.1951,-15.1829,0.00,0.00,0.00,2,S01
13920,-9.33499,1.48201,0.52194,-4.9390,-3.4756,-15.8537,0.00,0.00,0.00,2,S01
13940,-9.12191,1.31442,0.60094,-9.0854,-3.8415,-16.5854,0.00,0.00,0.00,2,S01
13960,-8.94713,1.16358,0.57461,-12.0122,-2.7439,-17.3171,0.00,0.00,0.00,2,S01
13980,-8.83460,1.07021,0.53870,-13.5976,-0.4878,-16.4634,0.00,0.00,0.00,2,S01
14000,-8.73405,1.03190,0.62249,-13.9634,1.5854,-14.1463,0.00,0.00,0.00,2,S01
14020,-8.80827,1.11330,0.69192,-14.4512,2.5000,-10.7927,0.00,0.00,0.00,2,S01
14040,-8.94474,1.12288,0.67038,-15.0610,2.8049,-6.6463,0.00,0.00,0.00,2,S01
14060,-9.09797,1.08697,0.60573,-15.2439,3.5366,-3.5366,0.00,0.00,0.00,2,S01
14080,-9.22965,1.01754,0.62968,-14.6951,4.5122,-2.0122,0.00,0.00,0.00,2,S01
14100,-9.28950,0.95050,0.63925,-14.2683,4.8171,-2.0122,0.00,0.00,0.00,2,S01
14120,-9.26556,0.99120,0.69671,-14.0244,4.6341,-3.1707,0.00,0.00,0.00,2,S01
14140,-9.28471,1.09654,0.73741,-14.2073,4.2073,-4.1463,0.00,0.00,0.00,2,S01
14160,-9.28711,1.22104,0.87149,-14.6341,4.1463,-4.8171,0.00,0.00,0.00,2,S01
14180,-9.23922,1.30005,0.91459,-15.8537,3.3537,-5.0000,0.00,0.00,0.00,2,S01
14200,-9.24880,1.21386,1.14203,-18.3537,2.8049,-5.1829,0.00,0.00,0.00,2,S01
14220,-9.08839,1.08936,1.22344,-18.7195,1.5244,-5.6707,0.00,0.00,0.00,2,S01
14240,-8.96389,0.92895,1.34075,-17.8659,1.0976,-5.6098,0.00,0.00,0.00,2,S01
14260,-8.86094,0.90022,1.53947,-16.3415,1.5244,-4.6341,0.00,0.00,0.00,2,S01
14280,-8.82024,0.95529,1.65679,-15.0000,1.9512,-3.1707,0.00,0.00,0.00,2,S01
14300,-8.74362,1.08457,1.64960,-13.5976,2.8049,-1.7073,0.00,0.00,0.00,2,S01
14320,-8.68377,0.99120,1.77889,-12.8659,4.2073,-0.1829,0.00,0.00,0.00,2,S01
14340,-8.82982,0.63686,1.78847,-10.3659,4.8171,0.6707,0.00,0.00,0.00,2,S01
14360,-8.92319,0.74460,1.69988,-6.0366,5.8537,1.4024,0.00,0.00,0.00,2,S01
14380,-9.03811,1.01754,1.69509,-6.0976,6.7683,2.9878,0.00,0.00,0.00,2,S01
14400,-9.27993,1.44131,1.63763,-8.1707,5.5488,4.2073,0.00,0.00,0.00,2,S01
14420,-9.36133,1.61609,1.42934,-11.7073,3.4756,5.4268,0.00,0.00,0.00,2,S01
14440,-9.37809,1.63045,1.68073,-15.4878,2.6220,5.1220,0.00,0.00,0.00,2,S01
14460,-9.40203,1.72622,2.01592,-19.8171,0.1829,3.2317,0.00,0.00,0.00,2,S01
14480,-9.23683,1.81480,2.12126,-26.4634,-3.1707,0.9756,0.00,0.00,0.00,2,S01
14500,-9.05727,1.54665,2.25534,-33.5976,-4.6341,-1.5244,0.00,0.00,0.00,2,S01
14520,-9.17698,1.02951,2.40617,-37.2561,-4.5122,-4.5122,0.00,0.00,0.00,2,S01
14540,-9.69891,0.42138,2.26013,-35.7317,-4.0244,-7.6829,0.00,0.00,0.00,2,S01
14560,-10.31183,0.02155,1.74058,-29.6951,-4.3293,-11.8902,0.00,0.00,0.00,2,S01
14580,-10.77151,0.03591,1.30245,-22.9878,-5.9756,-18.3537,0.00,0.00,0.00,2,S01
14600,-10.77151,0.21308,0.83318,-17.2561,-11.2195,-25.1829,0.00,0.00,0.00,2,S01
14620,-10.43872,0.89783,0.63446,-14.3293,-15.9146,-28.5366,0.00,0.00,0.00,2,S01
14640,-9.80186,1.31202,0.33998,-16.7073,-17.9878,-25.2439,0.00,0.00,0.00,2,S01
14660,-8.99023,0.97444,0.08140,-20.1220,-16.4634,-16.5854,0.00,0.00,0.00,2,S01
14680,-8.30549,0.53630,-0.21069,-21.2195,-12.7439,-8.2317,0.00,0.00,0.00,2,S01
14700,-8.06846,0.27294,-0.61292,-21.1585,-7.0122,-3.1707,0.00,0.00,0.00,2,S01
14720,-8.59518,0.36871,-0.19632,-19.1463,-0.1829,-2.1341,0.00,0.00,0.00,2,S01
14740,-9.32542,0.61531,0.31364,-14.3293,1.0366,-2.9268,0.00,0.00,0.00,2,S01
14760,-9.78510,0.86431,0.55785,-7.9878,-2.4390,-3.9024,0.00,0.00,0.00,2,S01
14780,-9.84496,0.99359,0.52912,-1.7073,-5.8537,-4.5122,0.00,0.00,0.00,2,S01
14800,-9.69412,0.98641,0.48602,4.3293,-6.8902,-3.8415,0.00,0.00,0.00,2,S01
14820,-9.55526,1.08697,0.64883,9.6951,-5.7927,-1.4634,0.00,0.00,0.00,2,S01
14840,-9.26317,1.22104,0.68953,13.7195,-4.6951,2.8049,0.00,0.00,0.00,2,S01
14860,-8.88728,1.27850,0.66080,15.9756,-2.8049,7.5610,0.00,0.00,0.00,2,S01
14880,-8.66940,1.36230,0.65601,16.5854,0.1829,10.5488,0.00,0.00,0.00,2,S01
14900,-8.71729,1.52032,0.76375,14.8780,3.0488,11.6463,0.00,0.00,0.00,2,S01
14920,-8.81066,1.59454,1.02232,11.9512,4.8780,11.8293,0.00,0.00,0.00,2,S01
14940,-8.80348,1.52032,1.13725,10.0610,5.4878,11.9512,0.00,0.00,0.00,2,S01
14960,-8.83700,1.43413,1.03669,9.2683,6.0366,11.2805,0.00,0.00,0.00,2,S01
14980,-8.93277,1.55384,1.01993,7.9268,7.7439,10.2439,0.00,0.00,0.00,2,S01
15000,-8.94234,1.57060,1.06781,5.3049,8.9024,9.8780,0.00,0.00,0.00,2,S01
15020,-8.93756,1.53229,1.14443,3.3537,9.5732,9.0854,0.00,0.00,0.00,2,S01
15040,-9.12909,1.35991,1.37906,3.0488,9.1463,6.1585,0.00,0.00,0.00,2,S01
15060,-9.12430,1.31442,1.63524,4.8171,8.2927,5.2439,0.00,0.00,0.00,2,S01
15080,-9.03811,1.30005,1.73819,7.8659,7.0122,4.5122,0.00,0.00,0.00,2,S01
15100,-8.94953,1.38385,1.83635,11.6463,6.8902,3.8415,0.00,0.00,0.00,2,S01
15120,-8.82503,1.52511,1.97522,14.6951,6.5244,2.6829,0.00,0.00,0.00,2,S01
15140,-8.69335,1.66636,2.03028,16.5244,5.1829,1.1585,0.00,0.00,0.00,2,S01
15160,-8.54491,1.76932,2.02789,17.5000,4.5122,-0.4268,0.00,0.00,0.00,2,S01
15180,-8.44914,1.82917,2.03507,18.4146,4.7561,-2.3780,0.00,0.00,0.00,2,S01
15200,-8.54969,1.89621,2.20027,19.3293,5.0000,-4.7561,0.00,0.00,0.00,2,S01
15220,-8.75560,2.02310,2.11647,21.0976,3.8415,-6.7073,0.00,0.00,0.00,2,S01
15240,-8.85136,2.00155,2.10450,20.6707,2.9268,-7.0122,0.00,0.00,0.00,2,S01
15260,-8.85136,2.14520,1.97522,21.2195,1.5854,-7.0122,0.00,0.00,0.00,2,S01
15280,-8.95431,2.19069,1.60172,21.8902,0.0610,-6.0976,0.00,0.00,0.00,2,S01
15300,-9.36612,2.77488,1.60172,21.2195,-0.9146,-3.5976,0.00,0.00,0.00,2,S01
15320,-9.79468,3.03106,1.71425,16.2195,-5.3049,2.4390,0.00,0.00,0.00,2,S01
15340,-10.05804,2.30801,2.32477,15.5488,-9.2683,10.4878,0.00,0.00,0.00,2,S01
15360,-10.37168,2.09014,1.80283,23.9024,-10.0610,18.5976,0.00,0.00,0.00,2,S01
15380,-10.75475,2.58813,1.43892,27.5610,-6.4634,28.2927,0.00,0.00,0.00,2,S01
15400,-10.72842,2.72700,0.98402,24.5122,-5.3659,38.0488,0.00,0.00,0.00,2,S01
15420,-10.18254,2.20267,0.75178,24.3902,-5.6707,41.2805,0.00,0.00,0.00,2,S01
15440,-9.67976,1.58017,0.31603,31.3415,-5.5488,33.4756,0.00,0.00,0.00,2,S01
15460,-9.11712,1.61848,-0.41180,39.2683,-7.1951,17.1951,0.00,0.00,0.00,2,S01
15480,-8.65265,1.94170,-1.27850,40.6707,-8.2927,2.2561,0.00,0.00,0.00,2,S01
15500,-8.46111,2.13323,-1.28808,35.0000,-5.4268,-5.8537,0.00,0.00,0.00,2,S01
15520,-8.71968,2.10690,-1.07021,24.6951,-3.5976,-8.3537,0.00,0.00,0.00,2,S01
15540,-9.11233,1.59454,-0.65122,11.0366,-1.3415,-8.8415,0.00,0.00,0.00,2,S01
15560,-9.92636,1.27372,0.01197,0.4878,1.4634,-9.9390,0.00,0.00,0.00,2,S01
15580,-10.32859,1.21386,0.23703,-5.2439,-1.0976,-14.0244,0.00,0.00,0.00,2,S01
15600,-9.88087,1.37667,0.28252,-8.2927,-6.2805,-19.2073,0.00,0.00,0.00,2,S01
15620,-9.19373,1.41018,0.35434,-11.0976,-9.6951,-23.0488,0.00,0.00,0.00,2,S01
15640,-8.90643,1.26653,0.62968,-13.9024,-9.4512,-25.1829,0.00,0.00,0.00,2,S01
15660,-8.75081,1.00796,0.63207,-14.5122,-8.4756,-25.3049,0.00,0.00,0.00,2,S01
15680,-8.61434,1.06063,0.73502,-13.9634,-6.6463,-22.9268,0.00,0.00,0.00,2,S01
15700,-8.49702,1.22583,0.73263,-15.4878,-5.1220,-17.5610,0.00,0.00,0.00,2,S01
15720,-8.39407,1.20668,0.73263,-18.0488,-2.6829,-11.8293,0.00,0.00,0.00,2,S01
15740,-8.46111,1.07021,0.59855,-18.8415,1.0976,-7.8049,0.00,0.00,0.00,2,S01
15760,-8.71968,1.05105,0.67277,-18.8415,5.9756,-5.8537,0.00,0.00,0.00,2,S01
15780,-8.94234,1.09176,0.73981,-19.4512,8.8415,-4.3902,0.00,0.00,0.00,2,S01
15800,-9.06924,1.04387,0.82361,-20.7927,10.0000,-2.8659,0.00,0.00,0.00,2,S01
15820,-9.09078,0.99120,0.95289,-21.0976,10.5488,-2.3171,0.00,0.00,0.00,2,S01
15840,-9.16740,0.98162,1.07500,-20.3659,11.0366,-2.7439,0.00,0.00,0.00,2,S01
15860,-9.25359,1.01754,1.28569,-19.7561,11.5244,-3.8415,0.00,0.00,0.00,2,S01
15880,-9.15303,1.00078,1.35991,-19.0244,10.7317,-4.9390,0.00,0.00,0.00,2,S01
15900,-8.98544,0.96007,1.39582,-18.2927,10.0610,-5.3049,0.00,0.00,0.00,2,S01
15920,-8.85855,0.92656,1.50835,-18.7195,9.6951,-5.1220,0.00,0.00,0.00,2,S01
15940,-8.77475,1.01035,1.61369,-18.3537,9.5122,-4.5122,0.00,0.00,0.00,2,S01
15960,-8.76757,1.13725,1.64003,-18.2927,9.7561,-2.8659,0.00,0.00,0.00,2,S01
15980,-8.85615,1.23062,1.74298,-19.0854,10.5488,-0.6098,0.00,0.00,0.00,2,S01
16000,-8.93277,1.16119,1.87227,-19.8780,10.4268,1.8293,0.00,0.00,0.00,2,S01
16020,-9.00220,0.72065,1.83156,-19.9390,8.9634,4.0854,0.00,0.00,0.00,2,S01
16040,-9.11473,0.83558,1.52750,-18.1098,7.9878,4.7561,0.00,0.00,0.00,2,S01
16060,-9.10515,1.09654,1.27132,-20.6707,9.0244,4.8780,0.00,0.00,0.00,2,S01
16080,-9.28950,0.98641,1.30245,-22.6220,9.0244,3.9634,0.00,0.00,0.00,2,S01
16100,-9.64145,1.16598,1.76453,-22.1951,6.0976,2.2561,0.00,0.00,0.00,2,S01
16120,-9.66779,1.79326,2.30562,-26.6463,1.1585,1.5854,0.00,0.00,0.00,2,S01
16140,-9.07881,2.13084,2.25055,-36.0976,-2.6829,1.2805,0.00,0.00,0.00,2,S01
16160,-8.79630,1.73580,2.26252,-44.9390,-1.7073,-0.8537,0.00,0.00,0.00,2,S01
16180,-9.47864,0.97444,2.00155,-47.3781,0.1829,-4.9390,0.00,0.00,0.00,2,S01
16200,-10.81461,0.16999,1.25456,-41.7683,1.0976,-9.5732,0.00,0.00,0.00,2,S01
16220,-12.04523,-0.20351,0.81882,-30.8537,0.5488,-15.6707,0.00,0.00,0.00,2,S01
16240,-10.83137,1.12049,0.19872,-18.1707,-13.9024,-25.8537,0.00,0.00,0.00,2,S01
16260,-9.32781,1.60890,-0.29688,-22.0122,-19.6951,-20.9146,0.00,0.00,0.00,2,S01
16280,-7.78116,0.98641,-1.22583,-26.4024,-18.1098,-10.1220,0.00,0.00,0.00,2,S01
16300,-7.16345,0.47166,-1.54426,-30.2439,-7.6829,-2.2561,0.00,0.00,0.00,2,S01
16320,-7.86256,0.36871,-0.88107,-32.4390,4.9390,1.2805,0.00,0.00,0.00,2,S01
16340,-9.22965,0.45969,0.06943,-27.5610,11.5244,2.1341,0.00,0.00,0.00,2,S01
16360,-10.32140,0.82600,0.57700,-17.5610,8.5976,0.1220,0.00,0.00,0.00,2,S01
16380,-10.37647,0.99599,0.50039,-9.3902,-0.3659,-3.1098,0.00,0.00,0.00,2,S01
16400,-9.87608,0.98881,0.13408,-4.3902,-7.8659,-5.8537,0.00,0.00,0.00,2,S01
16420,-9.37330,1.03669,-0.05507,0.3659,-8.5366,-5.6098,0.00,0.00,0.00,2,S01
16440,-9.03811,1.08697,-0.01915,4.9390,-4.9390,-1.6463,0.00,0.00,0.00,2,S01
16460,-8.80348,1.34554,-0.03112,9.0854,-0.9756,3.2927,0.00,0.00,0.00,2,S01
16480,-8.66462,1.58496,-0.00958,9.5732,2.3171,7.3171,0.00,0.00,0.00,2,S01
16500,-8.64067,1.54187,0.25139,6.2195,4.2683,9.5122,0.00,0.00,0.00,2,S01
16520,-8.76278,1.37906,0.66080,3.9024,5.5488,9.4512,0.00,0.00,0.00,2,S01
16540,-8.93995,1.34075,0.97923,3.8415,6.4634,8.2927,0.00,0.00,0.00,2,S01
16560,-9.06205,1.50116,0.93374,3.9634,6.7073,7.9268,0.00,0.00,0.00,2,S01
16580,-9.10515,1.60172,0.81403,3.1098,7.5000,8.7805,0.00,0.00,0.00,2,S01
16600,-8.93277,1.53947,0.80685,2.4390,8.4756,9.7561,0.00,0.00,0.00,2,S01
16620,-8.84897,1.54905,0.92656,2.6829,9.0244,8.8415,0.00,0.00,0.00,2,S01
16640,-8.92319,1.58496,1.01275,3.1098,8.8415,6.4634,0.00,0.00,0.00,2,S01
16660,-9.13388,1.57538,1.25456,3.7195,9.3902,4.3902,0.00,0.00,0.00,2,S01
16680,-9.17219,1.57299,1.36230,5.6098,9.8171,3.6585,0.00,0.00,0.00,2,S01
16700,-9.11233,1.52271,1.47243,7.8049,9.1463,2.7439,0.00,0.00,0.00,2,S01
16720,-9.02135,1.65439,1.46525,10.7927,7.3171,1.2805,0.00,0.00,0.00,2,S01
16740,-8.96868,1.88663,1.55863,12.8049,5.9146,0.3659,0.00,0.00,0.00,2,S01
16760,-8.84418,2.00155,1.65679,13.2317,4.6951,-0.1220,0.00,0.00,0.00,2,S01
16780,-8.67419,1.95846,1.73580,13.1098,3.1098,-0.7927,0.00,0.00,0.00,2,S01
16800,-8.83221,1.81959,1.95606,13.2317,2.4390,-2.5000,0.00,0.00,0.00,2,S01
16820,-9.03811,1.89621,1.89381,14.2073,0.9146,-3.6585,0.00,0.00,0.00,2,S01
16840,-9.12670,2.43730,1.62806,13.5976,-1.7073,-2.9878,0.00,0.00,0.00,2,S01
16860,-9.00220,2.84192,0.94810,8.4756,-4.5122,0.0000,0.00,0.00,0.00,2,S01
16880,-9.00938,2.85149,1.06063,1.0976,-5.4878,3.0488,0.00,0.00,0.00,2,S01
16900,-9.30866,1.98240,2.24097,-0.1829,-7.8659,5.4878,0.00,0.00,0.00,2,S01
16920,-9.40682,0.98881,3.34470,9.5122,-13.4146,7.7439,0.00,0.00,0.00,2,S01
16940,-9.28232,0.73741,3.46202,24.8171,-19.7561,9.2683,0.00,0.00,0.00,2,S01
16960,-9.52413,1.36230,2.20267,38.1098,-23.3537,10.6707,0.00,0.00,0.00,2,S01
16980,-10.23282,2.54743,0.74699,45.1829,-20.0000,15.0000,0.00,0.00,0.00,2,S01
17000,-10.82419,3.05261,0.20351,43.3537,-14.6951,24.9390,0.00,0.00,0.00,2,S01
17020,-10.43393,2.63123,0.05986,37.5610,-13.8415,35.6707,0.00,0.00,0.00,2,S01
17040,-9.75877,1.63763,-0.08140,34.7561,-13.7805,37.5000,0.00,0.00,0.00,2,S01
17060,-9.56005,1.09415,-0.07661,39.8780,-12.7439,27.3780,0.00,0.00,0.00,2,S01
17080,-9.33260,1.37427,-0.61770,47.3171,-14.5732,12.9878,0.00,0.00,0.00,2,S01
17100,-8.79151,1.93930,-0.96726,47.5610,-15.1829,2.9268,0.00,0.00,0.00,2,S01
17120,-8.36534,2.29125,-1.14682,38.1098,-12.9268,-2.8049,0.00,0.00,0.00,2,S01
17140,-8.63349,2.02789,-0.58897,22.2561,-7.1951,-6.3415,0.00,0.00,0.00,2,S01
17160,-9.29429,1.41976,0.24421,8.2927,-3.3537,-9.3902,0.00,0.00,0.00,2,S01
17180,-9.91678,0.91698,0.85234,1.1585,-4.2073,-12.6220,0.00,0.00,0.00,2,S01
17200,-10.11550,0.79009,0.86431,-1.3415,-7.1951,-15.1829,0.00,0.00,0.00,2,S01
17220,-9.80904,0.93613,0.81642,-2.7439,-9.5122,-17.3780,0.00,0.00,0.00,2,S01
17240,-9.30147,1.06781,0.72305,-3.6585,-12.1951,-19.6951,0.00,0.00,0.00,2,S01
17260,-8.91840,1.13485,0.71587,-3.5366,-13.3537,-21.3415,0.00,0.00,0.00,2,S01
17280,-8.67659,1.11091,0.65122,-3.1098,-12.3780,-20.7317,0.00,0.00,0.00,2,S01
17300,-8.62391,1.08218,0.83797,-4.5122,-9.7561,-17.6220,0.00,0.00,0.00,2,S01
17320,-8.52575,1.03190,1.02472,-6.8902,-7.8659,-13.2317,0.00,0.00,0.00,2,S01
17340,-8.56645,1.03430,1.14443,-8.3537,-4.9390,-9.0854,0.00,0.00,0.00,2,S01
17360,-8.65025,1.05105,1.12288,-8.7195,-1.1585,-6.2195,0.00,0.00,0.00,2,S01
17380,-8.71250,1.07978,0.99838,-8.3537,2.8659,-4.9390,0.00,0.00,0.00,2,S01
17400,-8.90643,1.16119,0.98162,-8.7805,7.1951,-4.2073,0.00,0.00,0.00,2,S01
17420,-9.39006,1.40540,1.23301,-14.2683,10.9146,-2.8659,0.00,0.00,0.00,2,S01
17440,-9.37569,1.44370,1.29047,-17.6220,9.1463,-2.1951,0.00,0.00,0.00,2,S01
17460,-9.25359,1.30723,1.39343,-20.2439,7.8659,-2.0732,0.00,0.00,0.00,2,S01
17480,-9.11233,1.08936,1.48441,-21.7683,7.5000,-2.6220,0.00,0.00,0.00,2,S01
17500,-9.08600,0.81163,1.77171,-22.6829,7.4390,-3.4756,0.00,0.00,0.00,2,S01
17520,-8.99502,0.80685,1.91536,-20.7927,6.3415,-3.8415,0.00,0.00,0.00,2,S01
17540,-8.75560,0.96247,1.99198,-18.7805,5.8537,-3.0488,0.00,0.00,0.00,2,S01
17560,-8.54251,1.24020,2.02789,-17.6829,6.2195,-1.5244,0.00,0.00,0.00,2,S01
17580,-8.53533,1.47962,2.07577,-18.3537,6.7683,1.0976,0.00,0.00,0.00,2,S01
17600,-8.71011,1.19231,2.13084,-18.7805,7.3780,4.3293,0.00,0.00,0.00,2,S01
17620,-8.82982,1.10373,2.01352,-17.0732,8.1707,6.7683,0.00,0.00,0.00,2,S01
17640,-8.92319,1.23062,2.08056,-18.9634,9.2683,9.1463,0.00,0.00,0.00,2,S01
17660,-9.02375,1.39821,1.99437,-21.7073,8.7195,10.9146,0.00,0.00,0.00,2,S01
17680,-9.17937,1.28569,1.92733,-23.2317,7.1951,11.2805,0.00,0.00,0.00,2,S01
17700,-9.35654,1.33836,2.17154,-23.4756,5.3049,9.2683,0.00,0.00,0.00,2,S01
17720,-9.33260,1.45567,2.39420,-25.7927,2.5610,6.2805,0.00,0.00,0.00,2,S01
17740,-9.10515,1.51553,2.51870,-30.0000,1.1585,3.0488,0.00,0.00,0.00,2,S01
17760,-9.02614,1.27132,2.68390,-35.4878,1.5244,-0.3049,0.00,0.00,0.00,2,S01
17780,-9.22246,0.86910,2.51631,-38.6585,0.9146,-3.8415,0.00,0.00,0.00,2,S01
17800,-9.72764,0.42617,2.23618,-38.0488,0.1220,-7.5000,0.00,0.00,0.00,2,S01
17820,-10.43872,-0.02394,1.93691,-33.1707,-1.4634,-12.6220,0.00,0.00,0.00,2,S01
17840,-10.86728,0.00479,1.44849,-24.8171,-5.3659,-20.0000,0.00,0.00,0.00,2,S01
17860,-10.67335,0.56264,0.99599,-17.5000,-10.6707,-27.4390,0.00,0.00,0.00,2,S01
17880,-10.06762,1.11330,0.69432,-14.9390,-17.0122,-30.7927,0.00,0.00,0.00,2,S01
17900,-9.42597,1.06303,0.49799,-15.7927,-20.4878,-28.4756,0.00,0.00,0.00,2,S01
17920,-9.02135,0.67756,0.50996,-15.4878,-17.5610,-21.9512,0.00,0.00,0.00,2,S01
17940,-8.78193,0.08140,0.42138,-12.6829,-13.0488,-13.4146,0.00,0.00,0.00,2,S01
17960,-8.72926,-0.20351,0.24900,-6.3415,-8.5366,-6.7073,0.00,0.00,0.00,2,S01
17980,-8.78672,0.06225,0.12450,1.0366,-4.1463,-3.4146,0.00,0.00,0.00,2,S01
18000,-9.00459,0.62968,0.18196,6.4024,-1.7683,-2.8659,0.00,0.00,0.00,2,S01
18020,-9.31823,1.09894,0.42617,9.9390,-2.8659,-4.2683,0.00,0.00,0.00,2,S01
18040,-9.54089,1.15640,0.60094,13.5366,-6.1585,-5.8537,0.00,0.00,0.00,2,S01
18060,-9.59117,0.97923,0.67756,18.5976,-7.8659,-6.5854,0.00,0.00,0.00,2,S01
18080,-9.51695,0.87628,0.79487,24.5732,-7.6220,-6.0976,0.00,0.00,0.00,2,S01
18100,-9.44273,0.90261,0.92416,30.3049,-6.2805,-4.0244,0.00,0.00,0.00,2,S01
18120,-9.30866,1.00556,0.97444,35.1829,-4.7561,-0.4268,0.00,0.00,0.00,2,S01
18140,-9.06924,1.03430,0.96486,39.0854,-3.2317,3.1707,0.00,0.00,0.00,2,S01
18160,-8.87770,1.12049,0.88585,42.2561,-1.4024,5.0000,0.00,0.00,0.00,2,S01
18180,-8.88249,1.24498,0.96486,43.9634,0.7317,4.6951,0.00,0.00,0.00,2,S01
18200,-8.90404,1.33596,1.02951,45.0610,1.9512,3.4146,0.00,0.00,0.00,2,S01
18220,-8.85615,1.38864,1.01514,46.2195,3.1098,1.9512,0.00,0.00,0.00,2,S01
18240,-8.86333,1.39582,0.90980,46.7073,4.3902,0.5488,0.00,0.00,0.00,2,S01
18260,-8.94953,1.33118,0.97923,46.3415,5.4878,-0.9756,0.00,0.00,0.00,2,S01
18280,-9.04529,1.21386,1.03908,47.0122,5.5488,-2.7439,0.00,0.00,0.00,2,S01
18300,-9.11473,1.09894,1.05345,49.3902,5.6707,-4.3902,0.00,0.00,0.00,2,S01
18320,-9.10515,1.06303,1.00317,52.2561,6.0366,-6.0366,0.00,0.00,0.00,2,S01
18340,-9.21528,1.10373,1.11809,54.3902,6.0976,-7.6829,0.00,0.00,0.00,2,S01
18360,-9.31584,1.08457,1.24498,56.8293,5.1220,-8.7195,0.00,0.00,0.00,2,S01
18380,-9.27753,0.99838,1.27850,60.1829,4.4512,-9.3293,0.00,0.00,0.00,2,S01
18400,-9.22007,1.01035,1.28569,63.7805,4.2073,-10.2439,0.00,0.00,0.00,2,S01
18420,-9.18895,1.18752,1.30723,66.1585,4.0244,-10.7317,0.00,0.00,0.00,2,S01
18440,-9.10994,1.47722,1.20668,66.5244,4.0854,-10.1220,0.00,0.00,0.00,2,S01
18460,-9.01896,1.60890,1.18992,65.3049,5.0610,-8.9634,0.00,0.00,0.00,2,S01
18480,-8.95431,1.58736,1.23541,63.7805,5.5488,-8.9024,0.00,0.00,0.00,2,S01
18500,-8.92558,1.62806,1.31681,61.8902,5.2439,-9.8780,0.00,0.00,0.00,2,S01
18520,-8.98544,1.82917,1.45089,59.0854,3.9024,-10.6098,0.00,0.00,0.00,2,S01
18540,-9.05008,1.79805,1.62566,54.3293,2.6220,-9.6341,0.00,0.00,0.00,2,S01
18560,-9.00699,1.67115,1.66397,51.9512,1.7683,-8.8415,0.00,0.00,0.00,2,S01
18580,-8.91601,1.57060,1.74298,50.7927,1.5854,-8.4146,0.00,0.00,0.00,2,S01
18600,-8.85376,1.51074,1.90339,49.2683,1.0976,-7.9268,0.00,0.00,0.00,2,S01
18620,-8.92080,1.28569,2.09971,47.8049,-0.1829,-7.1341,0.00,0.00,0.00,2,S01
18640,-9.11233,0.74460,2.15957,52.6829,-3.2317,-7.2561,0.00,0.00,0.00,2,S01
18660,-8.96389,0.54827,2.34871,57.8659,-4.8780,-8.4146,0.00,0.00,0.00,2,S01
18680,-8.70532,0.84515,2.49476,62.1341,-6.8902,-9.3902,0.00,0.00,0.00,2,S01
18700,-8.58800,1.18513,2.32477,63.3537,-8.7195,-9.1463,0.00,0.00,0.00,2,S01
18720,-8.52575,1.28090,2.05901,63.4146,-8.3537,-8.5976,0.00,0.00,0.00,2,S01
18740,-8.56645,1.31442,2.15718,63.0488,-6.4024,-9.3293,0.00,0.00,0.00,2,S01
18760,-8.77236,1.46046,2.25055,61.4024,-5.2439,-9.7561,0.00,0.00,0.00,2,S01
18780,-9.12670,1.74298,2.18112,58.2927,-4.2073,-7.5610,0.00,0.00,0.00,2,S01
18800,-9.77792,2.19548,1.55863,54.3902,-2.4390,-1.5854,0.00,0.00,0.00,2,S01
18820,-10.65899,2.70784,0.46448,49.3293,2.0732,8.5976,0.00,0.00,0.00,2,S01
18840,-11.09234,2.81558,0.02634,41.6463,8.9024,22.3171,0.00,0.00,0.00,2,S01
18860,-10.70208,2.44209,0.16281,33.2927,11.9512,35.1220,0.00,0.00,0.00,2,S01
18880,-10.20648,1.58496,0.10774,29.8780,10.4268,40.1829,0.00,0.00,0.00,2,S01
18900,-10.06522,0.80445,0.41180,34.5122,8.7805,34.3902,0.00,0.00,0.00,2,S01
18920,-10.13944,1.21147,0.51475,44.2683,3.2317,21.6463,0.00,0.00,0.00,2,S01
18940,-10.13705,1.91536,0.00000,47.5610,-6.0366,10.3659,0.00,0.00,0.00,2,S01
18960,-9.66300,2.04944,-0.48602,43.7195,-11.8902,3.9024,0.00,0.00,0.00,2,S01
18980,-8.91840,1.89621,-0.83797,38.4756,-13.7805,-0.4878,0.00,0.00,0.00,2,S01
19000,-8.24563,1.62327,-1.18513,35.3659,-14.4512,-4.3902,0.00,0.00,0.00,2,S01
19020,-8.18338,1.58257,-1.23541,33.8415,-13.0488,-6.8293,0.00,0.00,0.00,2,S01
19040,-8.50899,1.75256,-1.09176,32.8659,-11.0976,-6.8293,0.00,0.00,0.00,2,S01
19060,-8.97826,1.98479,-1.05584,29.6341,-10.1829,-4.5122,0.00,0.00,0.00,2,S01
19080,-9.25598,2.24097,-0.84276,22.9268,-9.8171,-2.0122,0.00,0.00,0.00,2,S01
19100,-9.30387,2.48039,-0.43096,14.2683,-10.3659,-1.5244,0.00,0.00,0.00,2,S01
19120,-9.27035,2.46842,-0.10056,6.2805,-11.0366,-2.8659,0.00,0.00,0.00,2,S01
19140,-9.31344,2.31519,0.11971,0.8537,-11.2195,-5.6098,0.00,0.00,0.00,2,S01
19160,-9.35893,2.26731,0.16520,-3.8415,-12.0122,-8.3537,0.00,0.00,0.00,2,S01
19180,-9.33978,2.04225,0.26097,-10.9146,-13.5976,-8.9634,0.00,0.00,0.00,2,S01
19200,-9.15543,1.79086,0.12929,-18.1098,-15.7927,-8.2927,0.00,0.00,0.00,2,S01
19220,-8.83700,1.67355,0.03352,-22.9268,-15.1829,-7.5610,0.00,0.00,0.00,2,S01
19240,-8.52815,1.52511,0.00958,-25.4878,-10.5488,-7.0732,0.00,0.00,0.00,2,S01
19260,-8.61913,1.44131,0.39265,-27.1341,-3.5976,-6.8902,0.00,0.00,0.00,2,S01
19280,-8.83700,1.43413,0.79966,-27.5610,1.0366,-6.6463,0.00,0.00,0.00,2,S01
19300,-8.90882,1.48680,0.79727,-27.0122,1.9512,-6.2195,0.00,0.00,0.00,2,S01
19320,-8.93277,1.39343,0.74939,-25.9756,3.7195,-5.0610,0.00,0.00,0.00,2,S01
19340,-9.04529,1.28569,0.86670,-25.1220,6.3415,-3.8415,0.00,0.00,0.00,2,S01
19360,-9.12909,1.26893,0.99599,-25.0000,7.9878,-3.4146,0.00,0.00,0.00,2,S01
19380,-9.03332,1.31442,1.06303,-25.3659,8.4146,-3.2927,0.00,0.00,0.00,2,S01
19400,-8.98065,1.36469,1.22344,-26.0366,9.3293,-3.2927,0.00,0.00,0.00,2,S01
19420,-9.19613,1.59214,1.36948,-25.9146,10.2439,-3.9634,0.00,0.00,0.00,2,S01
19440,-9.21289,1.63524,1.60890,-28.5366,9.2683,-4.0854,0.00,0.00,0.00,2,S01
19460,-8.87052,1.58257,1.63285,-30.3659,7.7439,-3.3537,0.00,0.00,0.00,2,S01
19480,-8.66940,1.36230,1.76932,-32.1951,8.2317,-1.6463,0.00,0.00,0.00,2,S01
19500,-8.64307,1.16598,1.98000,-33.6585,9.3902,0.6098,0.00,0.00,0.00,2,S01
19520,-8.74602,1.06781,2.12366,-34.3293,9.5122,3.1098,0.00,0.00,0.00,2,S01
19540,-8.89207,0.95768,2.21224,-34.2073,9.3293,5.1829,0.00,0.00,0.00,2,S01
19560,-9.18176,0.87149,2.43969,-34.0854,9.4512,5.1829,0.00,0.00,0.00,2,S01
19580,-9.41879,0.91698,2.51870,-34.2073,7.6829,2.8049,0.00,0.00,0.00,2,S01
19600,-9.36612,0.81403,2.32716,-34.9390,4.3293,-0.1829,0.00,0.00,0.00,2,S01
19620,-9.20810,0.58897,2.17394,-34.6951,1.5244,-2.5610,0.00,0.00,0.00,2,S01
19640,-9.23444,0.53870,2.34153,-34.0854,0.7927,-3.4146,0.00,0.00,0.00,2,S01
19660,-9.58399,0.92656,2.45166,-35.3049,-0.3659,-2.6220,0.00,0.00,0.00,2,S01
19680,-10.35492,1.15640,1.61130,-38.2927,-3.2317,-2.4390,0.00,0.00,0.00,2,S01
19700,-10.94390,1.18034,0.86910,-36.3415,-4.3293,-7.5610,0.00,0.00,0.00,2,S01
19720,-11.01333,1.42694,0.75178,-33.2317,-9.2683,-18.8415,0.00,0.00,0.00,2,S01
19740,-10.30704,1.86508,0.54827,-32.8049,-18.6585,-29.6951,0.00,0.00,0.00,2,S01
19760,-9.40682,1.95367,0.23942,-36.7683,-25.0000,-33.3537,0.00,0.00,0.00,2,S01
19780,-8.87770,1.74058,-0.10295,-41.5244,-24.8780,-29.8780,0.00,0.00,0.00,2,S01
19800,-8.87770,1.07260,-0.11732,-42.6220,-18.4146,-22.1341,0.00,0.00,0.00,2,S01
19820,-8.94953,0.49799,-0.13168,-37.4390,-12.1341,-13.1707,0.00,0.00,0.00,2,S01
19840,-8.99262,0.47405,-0.19872,-17.1951,-5.5488,-3.2317,0.00,0.00,0.00,2,S01
19860,-9.15064,0.97205,-0.05746,-5.7927,-3.7195,-2.8659,0.00,0.00,0.00,2,S01
19880,-9.35893,1.44131,0.28252,1.7683,-2.1951,-3.1707,0.00,0.00,0.00,2,S01
19900,-9.41640,1.69988,0.67277,6.4024,-2.3780,-3.9024,0.00,0.00,0.00,2,S01
19920,-9.35415,1.75256,0.89304,10.3659,-3.4756,-4.1463,0.00,0.00,0.00,2,S01
19940,-9.23204,1.62327,0.96007,14.6951,-3.5366,-2.5000,0.00,0.00,0.00,2,S01
19960,-9.02375,1.56341,0.76375,18.8415,-3.2317,1.0976,0.00,0.00,0.00,2,S01
19980,-8.73644,1.53468,0.72305,20.4878,-2.3780,4.8780,0.00,0.00,0.00,2,S01
20000,-8.64067,1.52989,0.82121,20.9756,-1.3415,7.2561,0.00,0.00,0.00,2,S01
20020,-8.65983,1.65439,0.84515,21.3415,-0.1220,8.2927,0.00,0.00,0.00,2,S01
20040,-8.84418,1.86269,0.77812,19.6951,1.6463,9.1463,0.00,0.00,0.00,2,S01
20060,-8.98065,1.84114,1.01275,16.5854,3.1707,9.9390,0.00,0.00,0.00,2,S01
20080,-9.05487,1.59214,1.20907,15.6707,3.4146,10.1220,0.00,0.00,0.00,2,S01
20100,-9.03572,1.34315,1.07500,17.3780,3.5366,8.7195,0.00,0.00,0.00,2,S01
20120,-9.10994,1.42216,1.08936,19.3902,5.3659,5.6098,0.00,0.00,0.00,2,S01
20140,-9.24641,1.63285,1.09654,20.4878,6.0366,2.9268,0.00,0.00,0.00,2,S01
20160,-9.19613,1.59454,1.00317,22.3780,5.6707,2.5000,0.00,0.00,0.00,2,S01
20180,-9.16261,1.54187,0.98402,24.8780,6.1585,2.9268,0.00,0.00,0.00,2,S01
20200,-9.23922,1.49159,1.11570,25.9756,6.2805,1.7073,0.00,0.00,0.00,2,S01
20220,-9.19852,1.69031,0.97683,27.1951,5.9146,-0.3659,0.00,0.00,0.00,2,S01
20240,-9.10036,1.95367,1.01754,26.3415,6.5854,-1.2805,0.00,0.00,0.00,2,S01
20260,-8.99980,2.03268,1.13485,24.4512,7.7439,-1.2805,0.00,0.00,0.00,2,S01
20280,-8.90404,2.01831,1.06542,23.1098,8.3537,-1.7683,0.00,0.00,0.00,2,S01
20300,-8.99741,1.98000,1.17795,20.4878,9.2073,-2.8049,0.00,0.00,0.00,2,S01
20320,-9.04051,1.97522,1.20428,17.6829,8.9024,-4.0854,0.00,0.00,0.00,2,S01
20340,-8.97586,1.92733,1.20668,15.7927,8.7195,-5.1829,0.00,0.00,0.00,2,S01
20360,-8.88009,2.00155,1.19710,14.1463,8.2927,-6.4634,0.00,0.00,0.00,2,S01
20380,-8.96629,2.02789,1.37188,10.5488,7.9268,-6.8902,0.00,0.00,0.00,2,S01
20400,-8.98783,2.00395,1.35991,8.7195,7.0122,-6.7683,0.00,0.00,0.00,2,S01
20420,-8.99502,1.76453,1.40061,8.6585,7.1341,-6.2195,0.00,0.00,0.00,2,S01
20440,-9.00220,1.61848,1.45328,10.0000,7.9268,-6.6463,0.00,0.00,0.00,2,S01
20460,-9.08839,1.66158,1.61609,10.4268,7.8049,-7.5610,0.00,0.00,0.00,2,S01
20480,-9.13148,1.78847,1.72622,10.1220,5.6707,-8.2317,0.00,0.00,0.00,2,S01
20500,-9.01656,1.86508,1.70707,10.3049,2.9878,-8.5366,0.00,0.00,0.00,2,S01
20520,-8.88249,1.80283,1.75016,10.7927,1.5244,-9.0854,0.00,0.00,0.00,2,S01
20540,-8.83939,1.90818,1.85072,11.1585,1.0976,-10.0000,0.00,0.00,0.00,2,S01
20560,-8.89207,2.03986,2.05901,10.3659,0.5488,-10.3659,0.00,0.00,0.00,2,S01
20580,-8.94953,2.09493,2.21224,7.5610,-2.3780,-9.5732,0.00,0.00,0.00,2,S01
20600,-8.86094,2.12126,2.31280,6.8293,-4.3902,-9.1463,0.00,0.00,0.00,2,S01
20620,-8.86094,2.12126,2.31280,6.8293,-4.3902,-9.1463,0.00,0.00,0.00,2,S01
20640,-8.80109,2.22182,2.29843,5.9756,-6.3415,-8.5366,0.00,0.00,0.00,2,S01
20660,-9.01417,2.27928,2.28886,5.8537,-7.5000,-7.2561,0.00,0.00,0.00,2,S01
20680,-9.97424,2.17394,1.87466,7.4390,-7.8659,-3.5366,0.00,0.00,0.00,2,S01
20700,-10.12987,2.18351,0.65601,11.5854,-4.0854,5.2439,0.00,0.00,0.00,2,S01
20720,-9.91199,2.28407,0.69432,8.4146,-1.7073,14.9390,0.00,0.00,0.00,2,S01
20740,-9.72525,1.99916,0.10295,3.0488,-4.2683,23.5976,0.00,0.00,0.00,2,S01
20760,-9.42118,1.70228,0.37350,2.3780,-0.5488,29.2073,0.00,0.00,0.00,2,S01
20780,-9.24162,1.72383,0.48602,3.4756,-0.0610,29.7561,0.00,0.00,0.00,2,S01
20800,-9.25359,1.82438,0.47645,2.5610,-2.7439,25.9146,0.00,0.00,0.00,2,S01
20820,-9.44273,1.76692,0.42856,1.4634,-5.4878,20.0000,0.00,0.00,0.00,2,S01
20840,-9.50498,1.73819,0.35195,-0.3659,-7.0122,13.7805,0.00,0.00,0.00,2,S01
20860,-9.41400,1.84354,0.14844,-5.0000,-7.7439,8.4756,0.00,0.00,0.00,2,S01
20880,-9.18895,1.86987,-0.03352,-11.7073,-7.3780,4.8171,0.00,0.00,0.00,2,S01
20900,-9.02375,1.75974,-0.11732,-17.3171,-6.1585,1.8293,0.00,0.00,0.00,2,S01
20920,-8.92319,1.68312,-0.05986,-20.9146,-4.8780,-0.7317,0.00,0.00,0.00,2,S01
20940,-8.97107,1.55863,0.09098,-24.4512,-3.5976,-0.8537,0.00,0.00,0.00,2,S01
20960,-9.07881,1.31442,0.20351,-29.2683,-1.8902,0.3049,0.00,0.00,0.00,2,S01
20980,-9.23922,1.23062,0.40941,-34.0244,0.0000,-0.0610,0.00,0.00,0.00,2,S01
21000,-9.28232,1.37427,0.47405,-38.1098,0.6098,-1.2195,0.00,0.00,0.00,2,S01
21020,-9.21049,1.58257,0.47645,-48.0488,2.7439,-1.2195,0.00,0.00,0.00,2,S01
21040,-9.20331,1.46046,0.65601,-52.7439,4.8780,-1.2805,0.00,0.00,0.00,2,S01
21060,-9.13148,1.32160,0.66559,-56.2195,6.2805,-2.1951,0.00,0.00,0.00,2,S01
21080,-9.08360,1.14682,0.80206,-57.9268,8.2317,-2.8049,0.00,0.00,0.00,2,S01
21100,-9.08121,1.04866,0.87867,-57.8659,9.4512,-2.6220,0.00,0.00,0.00,2,S01
21120,-9.04529,1.00796,0.87149,-56.7683,10.2439,-1.4634,0.00,0.00,0.00,2,S01
21140,-8.96868,1.01993,0.79009,-55.7317,11.6463,-0.1220,0.00,0.00,0.00,2,S01
21160,-8.91122,1.02472,0.84515,-54.3293,13.7805,0.7927,0.00,0.00,0.00,2,S01
21180,-9.04051,1.08936,1.00556,-52.3171,15.4268,1.1585,0.00,0.00,0.00,2,S01
21200,-9.19613,1.18034,1.02711,-50.4878,15.7317,1.1585,0.00,0.00,0.00,2,S01
21220,-9.21768,1.32639,0.97444,-49.9390,15.7317,0.8537,0.00,0.00,0.00,2,S01
21240,-9.16740,1.38145,1.00796,-51.7683,15.8537,0.6098,0.00,0.00,0.00,2,S01
21260,-9.17698,1.37427,1.16598,-53.2317,15.7927,1.0366,0.00,0.00,0.00,2,S01
21280,-9.10036,1.25217,1.21147,-52.7439,15.8537,1.8902,0.00,0.00,0.00,2,S01
21300,-9.02375,1.08457,1.33357,-51.6463,17.1341,2.7439,0.00,0.00,0.00,2,S01
21320,-9.01178,0.92416,1.54665,-50.1220,17.7439,2.8659,0.00,0.00,0.00,2,S01
21340,-9.08360,0.84755,1.78607,-47.1341,16.8902,2.1341,0.00,0.00,0.00,2,S01
21360,-9.08360,0.88585,1.83396,-43.5976,15.4878,1.0976,0.00,0.00,0.00,2,S01
21380,-9.05008,0.92895,1.88184,-40.6098,15.2439,0.3659,0.00,0.00,0.00,2,S01
21400,-8.98544,1.02711,1.90818,-38.1707,14.9390,-0.1829,0.00,0.00,0.00,2,S01
21420,-8.92558,1.12527,1.94649,-36.8293,14.0854,-0.1220,0.00,0.00,0.00,2,S01
21440,-8.90404,1.20428,2.02789,-36.1585,12.9878,0.6098,0.00,0.00,0.00,2,S01
21460,-8.94234,1.01514,2.18830,-36.0976,11.5854,1.4024,0.00,0.00,0.00,2,S01
21480,-9.05966,1.08457,2.18591,-34.5122,9.5122,1.1585,0.00,0.00,0.00,2,S01
21500,-8.90164,1.31681,2.26731,-35.0000,7.9268,0.7927,0.00,0.00,0.00,2,S01
21520,-8.84897,1.35751,2.58574,-37.5610,6.3415,0.3049,0.00,0.00,0.00,2,S01
21540,-8.85615,1.30484,2.52828,-37.8049,3.1707,-0.1220,0.00,0.00,0.00,2,S01
21560,-8.69095,1.34794,2.31759,-37.2561,1.5854,0.1220,0.00,0.00,0.00,2,S01
21580,-8.56406,1.48201,2.44687,-38.9634,2.3171,0.0000,0.00,0.00,0.00,2,S01
21600,-8.78193,1.44131,2.52828,-41.5854,2.1341,-0.7317,0.00,0.00,0.00,2,S01
21620,-9.24401,1.14682,2.38223,-42.1341,1.6463,-2.0732,0.00,0.00,0.00,2,S01
21640,-10.18733,0.77093,2.10690,-39.6341,2.1341,-5.6098,0.00,0.00,0.00,2,S01
21660,-11.70046,0.71826,0.83318,-29.1463,-0.6707,-23.6585,0.00,0.00,0.00,2,S01
21680,-11.16177,1.22344,0.55067,-26.7073,-8.0488,-32.6220,0.00,0.00,0.00,2,S01
21700,-11.16177,1.22344,0.55067,-26.7073,-8.0488,-32.6220,0.00,0.00,0.00,2,S01
21720,-10.03889,1.85311,0.20590,-31.1585,-16.7073,-33.4146,0.00,0.00,0.00,2,S01
21740,-9.15064,1.86269,-0.12929,-39.6341,-17.6829,-24.8171,0.00,0.00,0.00,2,S01
21760,-8.52815,0.99359,-0.48842,-44.8171,-11.2805,-10.9756,0.00,0.00,0.00,2,S01
21780,-8.42520,0.12689,-0.75178,-44.6951,-1.6463,0.6707,0.00,0.00,0.00,2,S01
21800,-8.59518,-0.29688,-0.80924,-40.0610,6.0366,6.2195,0.00,0.00,0.00,2,S01
21820,-9.00220,-0.09337,-0.45250,-33.2317,8.5976,5.7317,0.00,0.00,0.00,2,S01
21840,-9.44513,0.38068,-0.01915,-27.0122,5.1220,2.6220,0.00,0.00,0.00,2,S01
21860,-9.59835,0.76614,0.08140,-23.4146,-1.8902,-0.7317,0.00,0.00,0.00,2,S01
21880,-9.68694,0.79009,0.21787,-21.5244,-5.8537,-2.6220,0.00,0.00,0.00,2,S01
21900,-9.72525,0.70868,0.46448,-17.2561,-5.8537,-2.1951,0.00,0.00,0.00,2,S01
21920,-9.64384,0.74699,0.59616,-12.1951,-4.9390,0.6098,0.00,0.00,0.00,2,S01
21940,-9.39006,0.94810,0.52672,-9.0244,-4.0854,5.2439,0.00,0.00,0.00,2,S01
21960,-9.07163,1.16837,0.43335,-8.3537,-2.6220,10.6707,0.00,0.00,0.00,2,S01
21980,-8.93037,1.29287,0.54827,-9.7561,0.0000,15.0000,0.00,0.00,0.00,2,S01
22000,-8.89446,1.31442,0.70868,-10.9756,2.5610,17.3171,0.00,0.00,0.00,2,S01
22020,-8.82263,1.25456,0.77812,-11.5854,4.2683,18.5976,0.00,0.00,0.00,2,S01
22040,-8.81066,1.13485,0.89304,-12.3171,5.1220,18.7195,0.00,0.00,0.00,2,S01
22060,-8.85855,1.12049,1.06781,-12.1951,6.0366,17.7439,0.00,0.00,0.00,2,S01
22080,-8.95431,1.19471,1.14203,-11.3415,7.5000,16.2195,0.00,0.00,0.00,2,S01
22100,-8.96629,1.24020,1.20668,-10.7317,8.2927,14.6341,0.00,0.00,0.00,2,S01
22120,-8.98304,1.35272,1.30723,-9.8171,8.7195,12.7439,0.00,0.00,0.00,2,S01
22140,-8.99023,1.52750,1.37906,-8.7195,8.4146,10.9146,0.00,0.00,0.00,2,S01
22160,-9.04290,1.67834,1.38864,-8.4756,7.7439,9.8780,0.00,0.00,0.00,2,S01
22180,-8.94474,1.58257,1.45807,-8.1707,7.9268,9.0854,0.00,0.00,0.00,2,S01
22200,-8.77236,1.49398,1.42934,-6.0976,8.3537,7.6220,0.00,0.00,0.00,2,S01
22220,-8.81306,1.48919,1.81720,-1.4024,9.0854,3.7805,0.00,0.00,0.00,2,S01
22240,-8.73165,1.61848,1.84832,1.4634,7.7439,2.4390,0.00,0.00,0.00,2,S01
22260,-8.70771,1.74537,1.98000,3.0488,7.0122,0.7927,0.00,0.00,0.00,2,S01
22280,-8.78672,1.80044,2.08056,4.5732,5.7927,-1.4634,0.00,0.00,0.00,2,S01
22300,-8.84179,1.68312,2.17154,7.3780,3.9024,-3.1707,0.00,0.00,0.00,2,S01
22320,-8.77714,1.83396,2.09014,11.5854,1.1585,-4.3293,0.00,0.00,0.00,2,S01
22340,-8.97826,2.25534,1.76932,11.7073,-2.2561,-4.6951,0.00,0.00,0.00,2,S01
22360,-9.25838,3.02867,1.29047,8.2927,-4.5732,-3.4756,0.00,0.00,0.00,2,S01
22380,-9.67018,3.24175,1.34075,2.0732,-5.3049,0.9146,0.00,0.00,0.00,2,S01
22400,-9.83299,2.24097,2.46603,1.1585,-7.0732,8.0488,0.00,0.00,0.00,2,S01
22420,-9.49780,1.05345,2.73178,11.8902,-11.5244,13.9634,0.00,0.00,0.00,2,S01
22440,-9.76595,1.29287,2.18112,25.3659,-10.9756,17.3171,0.00,0.00,0.00,2,S01
22460,-10.41238,2.44687,1.08457,31.1585,-7.3780,22.3780,0.00,0.00,0.00,2,S01
22480,-10.73799,3.02867,0.48842,29.6951,-4.7561,32.5610,0.00,0.00,0.00,2,S01
22500,-10.03170,2.43251,0.22027,27.9268,-5.7927,40.7317,0.00,0.00,0.00,2,S01
22520,-9.26556,1.79086,-0.11013,29.0244,-7.5000,37.5610,0.00,0.00,0.00,2,S01
22540,-9.11473,1.69031,-0.65362,30.7317,-8.0488,24.2683,0.00,0.00,0.00,2,S01
22560,-8.90164,1.76453,-1.03190,30.1220,-8.5976,12.0122,0.00,0.00,0.00,2,S01
22580,-8.73165,2.03028,-1.06781,27.1951,-8.9024,5.7927,0.00,0.00,0.00,2,S01
22600,-8.82024,2.09971,-0.96965,16.8902,-7.3780,2.6829,0.00,0.00,0.00,2,S01
22620,-9.37809,1.87705,-0.46926,0.9756,-3.6585,-0.3659,0.00,0.00,0.00,2,S01
22640,-10.02213,1.55863,-0.09577,-11.5854,-1.7073,-5.1829,0.00,0.00,0.00,2,S01
22660,-10.24958,1.36469,0.39025,-18.9024,-3.1098,-11.9512,0.00,0.00,0.00,2,S01
22680,-9.91439,1.21386,0.52194,-22.1341,-6.8293,-17.8049,0.00,0.00,0.00,2,S01
22700,-9.43794,1.23301,0.48123,-24.8171,-9.3902,-22.3171,0.00,0.00,0.00,2,S01
22720,-8.72208,1.03190,0.71587,-29.5732,-9.3293,-24.0854,0.00,0.00,0.00,2,S01
22740,-8.72208,1.03190,0.71587,-29.5732,-9.3293,-24.0854,0.00,0.00,0.00,2,S01
22760,-8.53533,0.85473,0.72784,-29.9390,-7.1341,-20.7927,0.00,0.00,0.00,2,S01
22780,-8.44435,0.73023,0.81403,-30.0610,-4.3293,-15.8537,0.00,0.00,0.00,2,S01
22800,-8.54730,0.83318,0.94571,-29.5732,-2.0122,-10.6707,0.00,0.00,0.00,2,S01
22820,-8.61434,0.85952,0.90740,-28.1098,-0.1220,-5.4878,0.00,0.00,0.00,2,S01
22840,-8.68616,0.85712,0.88585,-25.7317,2.9268,-1.7683,0.00,0.00,0.00,2,S01
22860,-8.94713,0.87867,0.92416,-23.5366,6.1585,0.3659,0.00,0.00,0.00,2,S01
22880,-9.20092,0.96007,0.99599,-22.6220,7.8049,1.4634,0.00,0.00,0.00,2,S01
22900,-9.27993,1.06063,0.94332,-22.8659,8.1098,1.9512,0.00,0.00,0.00,2,S01
22920,-9.28232,1.18034,1.07021,-23.7195,8.4146,1.7683,0.00,0.00,0.00,2,S01
22940,-9.21528,1.30723,1.24259,-24.6341,8.4146,0.8537,0.00,0.00,0.00,2,S01
22960,-9.19852,1.34315,1.46286,-25.5488,8.6585,-0.3049,0.00,0.00,0.00,2,S01
22980,-9.15782,1.33836,1.55384,-26.1585,8.5366,-1.5854,0.00,0.00,0.00,2,S01
23000,-9.01178,1.24977,1.53947,-27.1951,8.1707,-2.1341,0.00,0.00,0.00,2,S01
23020,-8.82263,1.13006,1.64482,-27.7439,9.0244,-2.4390,0.00,0.00,0.00,2,S01
23040,-8.66701,0.97923,1.78607,-26.9512,10.1829,-2.3171,0.00,0.00,0.00,2,S01
23060,-8.74362,0.91937,2.01352,-24.4512,11.4024,-1.5244,0.00,0.00,0.00,2,S01
23080,-8.82024,1.05345,2.06141,-21.2805,11.2805,0.1220,0.00,0.00,0.00,2,S01
23100,-8.78433,1.22583,2.13563,-19.7561,10.8537,1.9512,0.00,0.00,0.00,2,S01
23120,-8.76996,1.27372,2.17633,-19.0244,10.1220,3.4146,0.00,0.00,0.00,2,S01
23140,-8.93516,0.99838,2.22900,-17.8659,9.0854,4.8171,0.00,0.00,0.00,2,S01
23160,-9.03332,1.31921,2.16915,-16.4024,8.0488,6.1585,0.00,0.00,0.00,2,S01
23180,-8.92798,1.44131,2.21703,-20.3049,7.1951,7.8049,0.00,0.00,0.00,2,S01
23200,-9.06205,1.33836,2.28167,-22.9268,5.5488,7.5000,0.00,0.00,0.00,2,S01
23220,-9.14585,1.26414,2.23140,-22.7439,3.4146,5.7317,0.00,0.00,0.00,2,S01
23240,-9.06205,1.51792,2.42772,-24.3293,2.3780,3.7805,0.00,0.00,0.00,2,S01
23260,-8.89685,1.84593,2.58574,-29.2683,1.6463,1.8293,0.00,0.00,0.00,2,S01
23280,-8.90164,1.78129,2.73657,-35.6098,1.1585,-0.2439,0.00,0.00,0.00,2,S01
23300,-9.09557,1.28569,2.70784,-38.9024,1.4024,-2.8659,0.00,0.00,0.00,2,S01
23320,-9.63906,0.67038,2.50912,-38.0488,1.8902,-6.0976,0.00,0.00,0.00,2,S01
23340,-10.31901,0.21548,1.97522,-34.2073,1.7683,-11.2195,0.00,0.00,0.00,2,S01
23360,-10.81461,0.10295,1.33596,-27.7439,1.2195,-19.5732,0.00,0.00,0.00,2,S01
23380,-10.96066,0.53391,0.82839,-20.9756,-1.9512,-29.5122,0.00,0.00,0.00,2,S01
23400,-10.48182,1.23541,0.49560,-18.8415,-9.0854,-35.0000,0.00,0.00,0.00,2,S01
23420,-9.13867,1.03190,-0.13408,-24.9390,-15.3049,-22.4390,0.00,0.00,0.00,2,S01
23440,-8.72686,0.34716,-0.40941,-24.8171,-10.7927,-11.1585,0.00,0.00,0.00,2,S01
23460,-8.57364,-0.17717,-0.61052,-22.8049,-5.1829,-3.0488,0.00,0.00,0.00,2,S01
23480,-8.71250,-0.18196,-0.41659,-19.6341,-0.5488,-0.1220,0.00,0.00,0.00,2,S01
23500,-9.03093,0.50518,-0.06464,-15.3659,0.4878,-1.0976,0.00,0.00,0.00,2,S01
23520,-9.44513,1.18513,0.26336,-13.1098,-2.8659,-3.1098,0.00,0.00,0.00,2,S01
23540,-9.75398,1.32878,0.48602,-11.7073,-7.0732,-4.0244,0.00,0.00,0.00,2,S01
23560,-9.79707,1.02711,0.57461,-7.1341,-7.9878,-3.5366,0.00,0.00,0.00,2,S01
23580,-9.69412,0.70150,0.74460,-0.4268,-6.2805,-1.9512,0.00,0.00,0.00,2,S01
23600,-9.49540,0.62728,0.84036,5.6707,-4.6951,1.2805,0.00,0.00,0.00,2,S01
23620,-9.22965,0.85952,0.79966,10.5488,-2.8049,5.9146,0.00,0.00,0.00,2,S01
23640,-8.84658,1.18992,0.60094,13.7195,0.4878,10.4878,0.00,0.00,0.00,2,S01
23660,-8.62870,1.39821,0.63207,13.4146,4.3293,13.1098,0.00,0.00,0.00,2,S01
23680,-8.70053,1.44849,0.98881,11.0976,6.4024,12.9878,0.00,0.00,0.00,2,S01
23700,-8.76517,1.33357,1.16358,9.6951,6.6463,12.1341,0.00,0.00,0.00,2,S01
23720,-8.70532,1.16119,1.24977,9.7561,7.5000,11.0976,0.00,0.00,0.00,2,S01
23740,-8.84179,1.17555,1.23301,9.8171,9.1463,9.2683,0.00,0.00,0.00,2,S01
23760,-9.07881,1.20668,1.41737,9.1463,10.4878,7.6220,0.00,0.00,0.00,2,S01
23780,-9.05727,1.27132,1.32878,9.8780,10.6098,6.7073,0.00,0.00,0.00,2,S01
23800,-8.98304,1.31681,1.27850,11.3415,11.0976,5.0610,0.00,0.00,0.00,2,S01
23820,-9.05487,1.29766,1.28569,13.1707,10.9756,3.0488,0.00,0.00,0.00,2,S01
23840,-9.21528,1.21147,1.46046,15.0610,10.6098,1.0976,0.00,0.00,0.00,2,S01
23860,-9.19852,1.13964,1.52032,18.0488,9.3902,-0.7927,0.00,0.00,0.00,2,S01
23880,-9.07163,1.29526,1.63285,21.9512,8.4756,-2.5000,0.00,0.00,0.00,2,S01
23900,-9.01417,1.54905,1.83396,24.5122,7.2561,-3.7805,0.00,0.00,0.00,2,S01
23920,-8.85855,1.75016,1.83396,25.7927,5.3659,-4.0244,0.00,0.00,0.00,2,S01
23940,-8.69335,1.88184,1.82438,25.6098,5.4878,-4.1463,0.00,0.00,0.00,2,S01
23960,-8.60955,1.92973,1.86508,24.4512,7.0122,-5.1829,0.00,0.00,0.00,2,S01
23980,-8.59518,1.94409,2.00395,23.7195,7.6220,-6.7683,0.00,0.00,0.00,2,S01
24000,-8.75320,2.01113,2.11169,22.1951,7.3171,-7.9268,0.00,0.00,0.00,2,S01
24020,-8.87531,2.06859,2.07817,19.8171,6.5244,-7.5000,0.00,0.00,0.00,2,S01
24040,-8.83700,2.47800,1.75974,17.5610,5.6707,-6.2805,0.00,0.00,0.00,2,S01
24060,-8.88009,2.71263,1.29287,12.9878,5.5488,-4.2073,0.00,0.00,0.00,2,S01
24080,-9.17219,2.69587,1.27611,8.2317,5.9756,-1.1585,0.00,0.00,0.00,2,S01
24100,-9.58160,1.97282,1.86029,7.1341,4.2073,2.7439,0.00,0.00,0.00,2,S01
24120,-9.79707,1.00317,2.81558,15.0610,0.0610,6.5244,0.00,0.00,0.00,2,S01
24140,-9.57441,0.67756,2.94726,29.2683,-5.4878,8.6585,0.00,0.00,0.00,2,S01
24160,-9.33020,1.26414,2.36308,41.7073,-9.1463,9.0854,0.00,0.00,0.00,2,S01
24180,-9.58160,2.12605,1.18992,48.1098,-10.0610,10.9146,0.00,0.00,0.00,2,S01
24200,-9.87369,2.54743,0.52194,48.4146,-6.0976,17.3780,0.00,0.00,0.00,2,S01
24220,-9.87608,2.54504,0.71826,45.0000,-1.2195,26.8293,0.00,0.00,0.00,2,S01
24240,-9.60554,2.37984,0.65841,40.4878,-1.3415,34.3902,0.00,0.00,0.00,2,S01
24260,-9.58638,1.98479,0.27773,37.1341,-2.7439,36.2195,0.00,0.00,0.00,2,S01
24280,-9.70849,1.68073,0.01676,39.0244,-3.0488,30.7927,0.00,0.00,0.00,2,S01
24300,-9.85214,1.78847,-0.40223,43.0488,-5.2439,20.0000,0.00,0.00,0.00,2,S01
24320,-9.43794,2.00634,-0.89304,41.2195,-7.6829,9.7561,0.00,0.00,0.00,2,S01
24340,-8.70292,1.99676,-1.25935,33.7805,-8.1707,2.6829,0.00,0.00,0.00,2,S01
24360,-8.51857,1.52271,-0.96007,26.0366,-5.0610,-1.5854,0.00,0.00,0.00,2,S01
24380,-8.94474,0.81642,-0.28730,21.5854,-2.5610,-5.4268,0.00,0.00,0.00,2,S01
24400,-9.58638,0.65122,0.17957,20.0000,-3.6585,-9.1463,0.00,0.00,0.00,2,S01
24420,-9.84975,1.02472,0.14844,17.7439,-6.4634,-11.0366,0.00,0.00,0.00,2,S01
24440,-9.82102,1.42694,0.26576,12.0732,-8.2927,-12.1341,0.00,0.00,0.00,2,S01
24460,-9.65821,1.52750,0.41420,6.3415,-10.3659,-14.0854,0.00,0.00,0.00,2,S01
24480,-9.43076,1.40300,0.58419,1.6463,-11.7073,-16.5244,0.00,0.00,0.00,2,S01
24500,-9.14585,1.17316,0.58897,-1.6463,-12.4390,-18.7195,0.00,0.00,0.00,2,S01
24520,-8.92558,1.03908,0.65122,-2.9268,-11.6463,-19.8780,0.00,0.00,0.00,2,S01
24540,-8.66701,1.03908,0.71347,-3.2317,-10.4268,-19.2073,0.00,0.00,0.00,2,S01
24560,-8.49942,1.20189,0.73502,-3.9634,-8.7195,-17.1341,0.00,0.00,0.00,2,S01
24580,-8.62631,1.26414,0.74699,-5.1829,-5.9756,-13.8415,0.00,0.00,0.00,2,S01
24600,-8.87531,1.19231,0.75417,-6.5854,-3.2317,-10.4268,0.00,0.00,0.00,2,S01
24620,-9.17219,1.14922,0.79727,-8.5366,1.7073,-7.1951,0.00,0.00,0.00,2,S01
24640,-9.19134,1.24738,0.87149,-10.9756,2.0732,-6.5854,0.00,0.00,0.00,2,S01
24660,-9.19373,1.27372,0.94332,-13.5976,1.8902,-6.0366,0.00,0.00,0.00,2,S01
24680,-9.16740,1.14682,0.98881,-15.2439,2.1951,-5.3659,0.00,0.00,0.00,2,S01
24700,-9.18416,0.98402,1.21147,-16.2195,2.9878,-5.0610,0.00,0.00,0.00,2,S01
24720,-9.13148,1.02472,1.29287,-17.1341,2.6220,-5.4878,0.00,0.00,0.00,2,S01
24740,-9.02375,1.13964,1.33836,-19.7561,2.7439,-5.8537,0.00,0.00,0.00,2,S01
24760,-8.91601,1.14443,1.47483,-24.0854,3.7805,-6.0366,0.00,0.00,0.00,2,S01
24780,-8.89446,0.97444,1.57778,-25.8537,4.6951,-6.7073,0.00,0.00,0.00,2,S01
24800,-8.95431,0.75417,1.71904,-25.2439,5.0610,-6.8293,0.00,0.00,0.00,2,S01
24820,-8.95192,0.54827,1.76692,-23.4756,5.2439,-5.8537,0.00,0.00,0.00,2,S01
24840,-8.86333,0.60094,1.93451,-21.7683,5.6707,-4.4512,0.00,0.00,0.00,2,S01
24860,-8.82263,0.49081,2.05901,-20.3659,5.4268,-2.8049,0.00,0.00,0.00,2,S01
24880,-9.13388,0.81403,1.92973,-17.9268,4.3902,-0.2439,0.00,0.00,0.00,2,S01
24900,-9.13388,0.81403,1.92973,-17.9268,4.3902,-0.2439,0.00,0.00,0.00,2,S01
24920,-9.13867,0.91937,1.87945,-19.4512,3.0488,1.8293,0.00,0.00,0.00,2,S01
24940,-9.21289,1.26653,2.26970,-23.0488,1.9512,3.7805,0.00,0.00,0.00,2,S01
24960,-8.98544,1.72143,2.25534,-29.0854,-0.9146,5.8537,0.00,0.00,0.00,2,S01
24980,-8.79869,1.64482,2.40378,-36.8293,-1.8293,7.3780,0.00,0.00,0.00,2,S01
25000,-9.70849,1.26174,2.05422,-43.1707,-2.0122,6.2195,0.00,0.00,0.00,2,S01
25020,-11.21923,1.52989,0.84755,-46.5244,-2.5000,1.7683,0.00,0.00,0.00,2,S01
25040,-11.54005,1.64960,0.23224,-50.7317,-5.2439,-6.0976,0.00,0.00,0.00,2,S01
25060,-10.65420,2.03507,0.37110,-55.1220,-13.2317,-15.7317,0.00,0.00,0.00,2,S01
25080,-9.56723,2.14520,0.12210,-60.5488,-19.8780,-19.7561,0.00,0.00,0.00,2,S01
25100,-8.85855,1.79805,-0.66798,-64.9390,-18.9634,-15.4268,0.00,0.00,0.00,2,S01
25120,-8.55209,0.78051,-1.02951,-65.0000,-7.5000,-6.2805,0.00,0.00,0.00,2,S01
25140,-8.57842,-0.10056,-0.77572,-60.3659,7.1341,1.7683,0.00,0.00,0.00,2,S01
25160,-9.02614,0.22984,-0.30885,-52.9268,16.2195,5.9146,0.00,0.00,0.00,2,S01
25180,-9.53611,1.18513,0.00718,-46.5854,16.6463,8.5366,0.00,0.00,0.00,2,S01
25200,-9.52413,2.07577,0.05507,-43.5976,13.1707,11.0366,0.00,0.00,0.00,2,S01
25220,-9.28950,2.74376,0.20590,-46.8902,11.7073,12.8659,0.00,0.00,0.00,2,S01
25240,-9.16022,2.81319,0.24421,-53.5976,10.9146,13.4756,0.00,0.00,0.00,2,S01
25260,-8.98304,2.36068,-0.01197,-57.8659,11.3415,14.1463,0.00,0.00,0.00,2,S01
25280,-8.85376,1.98958,0.05746,-60.3659,15.0000,15.3659,0.00,0.00,0.00,2,S01
25300,-8.83221,1.85551,0.10774,-63.4146,17.4390,17.3171,0.00,0.00,0.00,2,S01
25320,-8.95192,1.99437,0.13408,-66.5854,19.2683,19.8171,0.00,0.00,0.00,2,S01
25340,-9.10275,1.94170,0.32801,-69.8171,20.7927,22.3171,0.00,0.00,0.00,2,S01
25360,-9.24880,1.74777,0.50757,-71.0976,20.8537,23.2317,0.00,0.00,0.00,2,S01
25380,-9.32302,1.66876,0.65601,-71.4024,20.1220,21.9512,0.00,0.00,0.00,2,S01
25400,-9.22965,1.79326,0.53630,-71.7073,19.5122,20.4268,0.00,0.00,0.00,2,S01
25420,-9.19134,1.92015,0.41420,-71.7073,20.2439,19.1463,0.00,0.00,0.00,2,S01
25440,-9.19373,1.98479,0.39504,-71.6463,20.7927,17.5610,0.00,0.00,0.00,2,S01
25460,-9.13867,2.04704,0.36871,-72.8659,20.3659,15.9146,0.00,0.00,0.00,2,S01
25480,-9.04529,2.10450,0.29928,-75.0610,19.9390,14.7561,0.00,0.00,0.00,2,S01
25500,-9.00459,2.16915,0.27533,-77.4390,20.0000,13.9634,0.00,0.00,0.00,2,S01
25520,-9.03093,2.23140,0.30406,-79.0244,20.0610,13.5976,0.00,0.00,0.00,2,S01
25540,-9.12191,2.16196,0.31843,-79.1463,20.1829,12.9268,0.00,0.00,0.00,2,S01
25560,-9.27035,2.26013,0.44772,-78.1707,20.4878,11.4024,0.00,0.00,0.00,2,S01
25580,-9.26077,2.38223,0.51236,-77.8659,18.4756,10.0610,0.00,0.00,0.00,2,S01
25600,-9.11233,2.40857,0.45729,-77.9268,15.8537,8.7195,0.00,0.00,0.00,2,S01
25620,-9.00459,2.44209,0.50996,-77.8049,14.6341,7.0732,0.00,0.00,0.00,2,S01
25640,-8.97347,2.48279,0.62249,-78.1707,13.2927,5.1829,0.00,0.00,0.00,2,S01
25660,-8.93756,2.52588,0.61531,-78.0488,11.5244,3.4756,0.00,0.00,0.00,2,S01
25680,-8.98544,2.55222,0.65122,-77.6829,10.5488,2.0732,0.00,0.00,0.00,2,S01
25700,-9.09557,2.47321,0.69432,-77.0122,8.9024,0.8537,0.00,0.00,0.00,2,S01
25720,-9.11233,2.30322,0.84755,-75.0610,6.9512,0.1220,0.00,0.00,0.00,2,S01
25740,-9.20810,2.17154,1.02951,-72.1951,4.4512,-0.4878,0.00,0.00,0.00,2,S01
25760,-9.24641,2.17872,0.92416,-67.8049,0.9146,-0.7317,0.00,0.00,0.00,2,S01
25780,-9.43076,2.18830,0.74939,-62.8049,-1.0976,0.3049,0.00,0.00,0.00,2,S01
25800,-9.83778,2.25055,0.58658,-57.0122,-1.6463,3.2317,0.00,0.00,0.00,2,S01
25820,-9.15543,2.18112,0.46687,-51.2805,-3.4146,10.6707,0.00,0.00,0.00,2,S01
25840,-8.92798,2.20745,0.79009,-50.1829,-5.1220,9.3902,0.00,0.00,0.00,2,S01
25860,-9.08360,2.44209,0.86670,-49.4512,-6.3415,7.9878,0.00,0.00,0.00,2,S01
25880,-8.98783,2.62644,0.50039,-51.2195,-6.5244,8.9634,0.00,0.00,0.00,2,S01
25900,-8.94953,2.36787,0.31843,-54.7561,-4.0244,10.3049,0.00,0.00,0.00,2,S01
25920,-9.07163,1.80523,0.41659,-57.8049,-0.6707,10.3659,0.00,0.00,0.00,2,S01
25940,-9.27035,1.32399,0.58419,-60.6707,1.0366,9.7561,0.00,0.00,0.00,2,S01
25960,-9.30626,1.09415,0.59855,-64.9390,1.0976,9.3902,0.00,0.00,0.00,2,S01
25980,-9.22725,1.10612,0.61770,-69.7561,1.9512,8.6585,0.00,0.00,0.00,2,S01
26000,-9.27035,1.14922,0.75896,-74.7561,4.3293,7.0732,0.00,0.00,0.00,2,S01
26020,-9.43316,1.30484,0.97444,-79.6951,6.2195,4.2683,0.00,0.00,0.00,2,S01
26040,-9.47864,1.20668,0.86670,-86.5244,6.5854,1.5854,0.00,0.00,0.00,2,S01
26060,-9.40203,0.86670,0.88107,-92.5000,7.5610,-1.1585,0.00,0.00,0.00,2,S01
26080,-9.21289,0.62728,0.82361,-94.3293,8.3537,-3.5976,0.00,0.00,0.00,2,S01
26100,-8.98065,0.59616,0.73981,-95.8537,10.1829,-4.3902,0.00,0.00,0.00,2,S01
26120,-8.78672,0.58419,0.72784,-98.5976,12.9878,-3.0488,0.00,0.00,0.00,2,S01
26140,-8.79151,0.52194,0.81642,-101.5854,15.7317,-0.2439,0.00,0.00,0.00,2,S01
26160,-8.92319,0.47166,0.86910,-102.9878,17.6220,2.9268,0.00,0.00,0.00,2,S01
26180,-9.00699,0.55306,0.84755,-103.3537,18.8415,5.6098,0.00,0.00,0.00,2,S01
26200,-9.00220,0.64643,0.73981,-103.2317,20.1220,7.1951,0.00,0.00,0.00,2,S01
26220,-9.05966,0.69192,0.76614,-102.4390,22.3171,7.6220,0.00,0.00,0.00,2,S01
26240,-9.20331,0.69911,0.80685,-101.5854,23.7195,7.2561,0.00,0.00,0.00,2,S01
26260,-9.34218,0.71108,0.84994,-101.7073,23.9634,6.4634,0.00,0.00,0.00,2,S01
26280,-9.32542,0.68235,0.78530,-102.8049,23.3537,5.7927,0.00,0.00,0.00,2,S01
26300,-9.29429,0.58658,0.94092,-103.2317,22.2561,5.1829,0.00,0.00,0.00,2,S01
26320,-9.28711,0.46208,1.06063,-101.9512,19.1463,5.0610,0.00,0.00,0.00,2,S01
26340,-9.20571,0.26576,1.10612,-100.0610,15.6707,5.4268,0.00,0.00,0.00,2,S01
26360,-9.13148,0.15083,1.24738,-96.6463,13.8415,5.3659,0.00,0.00,0.00,2,S01
26380,-9.16022,0.20590,1.34315,-92.3781,12.5000,5.0610,0.00,0.00,0.00,2,S01
26400,-9.16740,0.31843,1.38145,-88.4756,11.5244,5.3049,0.00,0.00,0.00,2,S01
26420,-9.15782,0.37589,1.55863,-85.6098,11.2805,5.5488,0.00,0.00,0.00,2,S01
26440,-9.17698,0.41899,1.55623,-82.9878,11.1585,5.3049,0.00,0.00,0.00,2,S01
26460,-9.15543,0.48123,1.58257,-80.7927,11.6463,4.8171,0.00,0.00,0.00,2,S01
26480,-9.16261,0.51236,1.73101,-78.9634,11.3415,4.5732,0.00,0.00,0.00,2,S01
26500,-9.20810,0.46687,1.84593,-77.1341,9.8171,4.7561,0.00,0.00,0.00,2,S01
26520,-9.23444,0.56743,1.91776,-75.8537,8.2927,4.2683,0.00,0.00,0.00,2,S01
26540,-9.20331,0.56024,2.01352,-75.1829,6.8293,2.8659,0.00,0.00,0.00,2,S01
26560,-9.10275,0.23703,2.09971,-72.6220,5.3049,1.7073,0.00,0.00,0.00,2,S01
26580,-8.95910,0.11971,2.20027,-67.7439,4.1463,1.0976,0.00,0.00,0.00,2,S01
26600,-8.93277,0.12210,2.22421,-63.6585,3.1098,1.0976,0.00,0.00,0.00,2,S01
26620,-8.94953,0.33279,2.19069,-60.7927,2.5610,1.5244,0.00,0.00,0.00,2,S01
26640,-8.80348,0.87628,2.30322,-60.5488,2.5000,2.3171,0.00,0.00,0.00,2,S01
26660,-8.66940,1.30245,2.44448,-62.6829,2.5000,3.9634,0.00,0.00,0.00,2,S01
26680,-9.35654,1.18752,2.44927,-64.7561,2.8659,5.6707,0.00,0.00,0.00,2,S01
26700,-11.19768,1.16358,1.32878,-63.9634,3.0488,5.3659,0.00,0.00,0.00,2,S01
26720,-12.04044,1.03669,0.42617,-61.3415,4.7561,1.7683,0.00,0.00,0.00,2,S01
26740,-11.55442,0.99838,0.38786,-60.0610,1.4024,-3.2927,0.00,0.00,0.00,2,S01
26760,-10.20409,1.68073,-0.07183,-59.3902,-6.5244,-4.0244,0.00,0.00,0.00,2,S01
26780,-8.52336,1.93930,-1.26653,-63.5366,-8.3537,2.5610,0.00,0.00,0.00,2,S01
26800,-7.70215,0.96486,-2.04944,-74.3293,-1.5854,10.9146,0.00,0.00,0.00,2,S01
26820,-8.44914,-0.22984,-0.79727,-83.4756,10.3049,15.1220,0.00,0.00,0.00,2,S01
26840,-9.65821,-0.37828,0.47645,-79.0854,16.8293,16.2805,0.00,0.00,0.00,2,S01
26860,-10.27591,0.12689,0.47884,-67.8049,14.8171,15.6707,0.00,0.00,0.00,2,S01
26880,-10.28549,0.55067,0.40701,-59.0854,10.2439,15.3659,0.00,0.00,0.00,2,S01
26900,-9.74679,0.91219,0.24900,-53.8415,4.5122,16.7683,0.00,0.00,0.00,2,S01
26920,-9.16261,1.24259,0.27533,-52.0122,2.6220,20.1220,0.00,0.00,0.00,2,S01
26940,-8.67419,1.43652,-0.00958,-50.2439,4.1463,23.7195,0.00,0.00,0.00,2,S01
26960,-8.56167,1.42694,-0.17957,-49.5732,8.5366,25.9756,0.00,0.00,0.00,2,S01
26980,-8.80587,1.32160,0.01676,-50.1829,12.8659,27.0122,0.00,0.00,0.00,2,S01
27000,-9.07642,1.23062,0.35434,-49.5732,15.1829,27.9268,0.00,0.00,0.00,2,S01
27020,-8.95671,1.68073,0.08859,-46.8902,13.8415,27.1341,0.00,0.00,0.00,2,S01
27040,-8.86094,1.88184,0.16281,-48.5366,14.5122,26.0366,0.00,0.00,0.00,2,S01
27060,-8.83939,1.83396,0.25857,-50.1829,15.8537,25.1829,0.00,0.00,0.00,2,S01
27080,-8.83460,1.73819,0.47884,-50.3659,17.3171,23.2927,0.00,0.00,0.00,2,S01
27100,-8.90882,1.69749,0.74460,-49.6341,17.3780,20.1220,0.00,0.00,0.00,2,S01
27120,-8.88728,1.63045,0.88346,-48.4146,16.7073,16.8902,0.00,0.00,0.00,2,S01
27140,-8.80587,1.58736,0.86670,-45.7317,16.5244,13.6585,0.00,0.00,0.00,2,S01
27160,-8.71729,1.57778,0.98402,-42.0122,17.3171,9.9390,0.00,0.00,0.00,2,S01
27180,-8.60715,1.56581,1.16837,-37.5000,17.6220,6.4024,0.00,0.00,0.00,2,S01
27200,-8.46590,1.58017,1.31921,-32.0732,17.7439,3.5366,0.00,0.00,0.00,2,S01
27220,-8.42998,1.71664,1.41258,-26.3415,17.8049,1.4024,0.00,0.00,0.00,2,S01
27240,-8.58082,2.08056,1.73101,-22.2561,16.6463,-0.6098,0.00,0.00,0.00,2,S01
27260,-8.72686,2.37744,1.95127,-19.2683,12.9878,-2.7439,0.00,0.00,0.00,2,S01
27280,-8.72447,2.40857,1.82678,-16.0366,9.8171,-5.0000,0.00,0.00,0.00,2,S01
27300,-8.74602,2.43011,1.70467,-13.1098,9.3902,-7.1951,0.00,0.00,0.00,2,S01
27320,-8.75560,2.30562,1.21625,-11.7683,8.9024,-8.2317,0.00,0.00,0.00,2,S01
27340,-9.05487,2.97599,0.88346,-13.5976,8.3537,-8.0488,0.00,0.00,0.00,2,S01
27360,-9.79468,2.94487,1.34794,-19.8171,5.7927,-4.2073,0.00,0.00,0.00,2,S01
27380,-10.34535,1.82199,3.13401,-17.0732,1.1585,3.3537,0.00,0.00,0.00,2,S01
27400,-10.48182,1.30484,3.31118,-0.8537,-6.4634,11.1585,0.00,0.00,0.00,2,S01
27420,-11.10910,2.21464,1.73101,13.2317,-10.8537,17.8659,0.00,0.00,0.00,2,S01
27440,-11.57118,3.81157,-0.19393,17.9268,-7.9878,26.0976,0.00,0.00,0.00,2,S01
27460,-11.05642,4.12521,-0.96965,11.3415,-4.0854,35.8537,0.00,0.00,0.00,2,S01
27480,-9.76355,2.61447,-1.13964,3.0488,-6.7683,40.1220,0.00,0.00,0.00,2,S01
27500,-8.91601,0.72305,-1.28090,3.8415,-8.7805,31.7683,0.00,0.00,0.00,2,S01
27520,-9.43794,1.08936,-1.28329,8.5976,-7.9878,14.9390,0.00,0.00,0.00,2,S01
27540,-9.90960,2.36068,-1.24977,1.8902,-9.5122,4.6951,0.00,0.00,0.00,2,S01
27560,-9.50019,3.07176,-0.94810,-11.7073,-11.3415,1.4024,0.00,0.00,0.00,2,S01
27580,-9.03093,2.98557,-1.30484,-26.4024,-12.6829,-2.6829,0.00,0.00,0.00,2,S01
27600,-9.13627,2.72939,-1.01754,-41.4024,-9.2073,-12.5000,0.00,0.00,0.00,2,S01
27620,-9.09078,2.27449,-0.62728,-51.0366,-9.2683,-22.5000,0.00,0.00,0.00,2,S01
27640,-8.96868,1.43173,-0.43574,-56.3415,-10.9146,-27.5000,0.00,0.00,0.00,2,S01
27660,-9.02614,0.64883,-0.14126,-59.3902,-9.5122,-28.5366,0.00,0.00,0.00,2,S01
27680,-8.97826,0.41180,0.44532,-59.8171,-7.6220,-26.2805,0.00,0.00,0.00,2,S01
27700,-8.70771,0.80924,0.46208,-57.2561,-9.8780,-22.5610,0.00,0.00,0.00,2,S01
27720,-8.57603,1.16119,0.33998,-54.8171,-10.4878,-17.8049,0.00,0.00,0.00,2,S01
27740,-8.42041,1.02951,0.51236,-52.0732,-8.1098,-13.5976,0.00,0.00,0.00,2,S01
27760,-8.40604,0.72065,0.62010,-48.8415,-5.9146,-10.9756,0.00,0.00,0.00,2,S01
27780,-8.53772,0.44772,0.79009,-45.5488,-2.1341,-9.1463,0.00,0.00,0.00,2,S01
27800,-8.53054,0.36871,0.86191,-41.2805,0.9146,-7.9878,0.00,0.00,0.00,2,S01
27820,-8.43956,0.59376,0.89783,-36.9512,3.3537,-6.8293,0.00,0.00,0.00,2,S01
27840,-8.52096,0.83797,0.89304,-33.9024,6.9512,-5.1829,0.00,0.00,0.00,2,S01
27860,-8.72208,0.90261,1.05105,-31.9512,11.8902,-3.0488,0.00,0.00,0.00,2,S01
27880,-8.84897,0.93853,1.21147,-29.9390,14.4512,-1.6463,0.00,0.00,0.00,2,S01
27900,-8.79869,0.98402,1.24498,-28.0488,14.8171,-0.7317,0.00,0.00,0.00,2,S01
27920,-8.72926,0.98162,1.47004,-26.7683,15.8537,-0.1829,0.00,0.00,0.00,2,S01
27940,-8.78433,1.02472,1.69509,-26.1585,15.8537,0.0610,0.00,0.00,0.00,2,S01
27960,-8.83221,1.02711,1.84593,-25.9756,14.0244,1.4024,0.00,0.00,0.00,2,S01
27980,-8.84897,0.99120,2.00874,-25.9756,11.5854,3.8415,0.00,0.00,0.00,2,S01
28000,-8.87291,0.93374,2.03986,-25.7317,8.8415,6.2805,0.00,0.00,0.00,2,S01
28020,-8.90882,0.59616,1.75256,-24.3293,6.5854,7.1341,0.00,0.00,0.00,2,S01
28040,-9.27514,0.04788,1.19231,-18.2317,5.0610,4.8780,0.00,0.00,0.00,2,S01
28060,-9.78989,0.07422,1.60172,-10.2439,4.3902,-0.6098,0.00,0.00,0.00,2,S01
28080,-9.52413,2.70305,3.09570,-19.9390,-6.2195,-9.3902,0.00,0.00,0.00,2,S01
28100,-8.96629,3.06218,2.92332,-30.8537,-4.8780,-9.0854,0.00,0.00,0.00,2,S01
28120,-8.96629,3.06218,2.92332,-30.8537,-4.8780,-9.0854,0.00,0.00,0.00,2,S01
28140,-9.39485,1.95367,2.51152,-38.9024,0.5488,-9.0244,0.00,0.00,0.00,2,S01
28160,-11.20247,0.82600,1.20668,-38.3537,3.5976,-11.3415,0.00,0.00,0.00,2,S01
28180,-12.01889,-0.27773,-0.05746,-33.0488,4.8171,-17.7439,0.00,0.00,0.00,2,S01
28200,-10.50336,0.63207,-0.73981,-20.9756,-9.5732,-39.0244,0.00,0.00,0.00,2,S01
28220,-8.69095,1.84114,-1.22104,-25.5488,-22.4390,-38.7195,0.00,0.00,0.00,2,S01
28240,-8.35576,1.44610,-1.93930,-37.5610,-24.2073,-30.9146,0.00,0.00,0.00,2,S01
28260,-9.75398,0.33998,-0.91459,-43.0488,-8.9634,-15.9146,0.00,0.00,0.00,2,S01
28280,-10.58477,-0.39025,0.43096,-30.1220,5.0610,1.8293,0.00,0.00,0.00,2,S01
28300,-10.38844,-0.71826,0.79248,-10.9756,4.2073,12.9878,0.00,0.00,0.00,2,S01
28320,-9.92875,-0.20111,0.91459,0.7317,-2.1341,15.4268,0.00,0.00,0.00,2,S01
28340,-9.17458,0.48123,0.44053,5.9146,-9.2683,15.6707,0.00,0.00,0.00,2,S01
28360,-8.18338,1.13246,-0.02394,9.0244,-10.7927,17.0732,0.00,0.00,0.00,2,S01
28380,-7.52976,1.72622,-0.34716,8.3537,-6.4024,19.4512,0.00,0.00,0.00,2,S01
28400,-7.55849,1.81241,-0.02394,2.6220,0.4268,21.3415,0.00,0.00,0.00,2,S01
28420,-8.12592,1.49159,0.58419,-3.2927,6.2805,21.7683,0.00,0.00,0.00,2,S01
28440,-8.60715,1.13485,0.90022,-3.9634,9.6951,21.4024,0.00,0.00,0.00,2,S01
28460,-8.71489,0.95050,0.82121,-1.9512,11.0976,20.1829,0.00,0.00,0.00,2,S01
28480,-8.79869,0.96247,0.89783,-1.7683,12.1951,17.5610,0.00,0.00,0.00,2,S01
28500,-8.80827,1.17795,1.17316,-2.5000,12.8659,14.6341,0.00,0.00,0.00,2,S01
28520,-8.64546,1.44610,1.01754,-1.8902,11.9512,13.1707,0.00,0.00,0.00,2,S01
28540,-8.53294,1.49398,1.03669,-0.7927,13.2317,12.8049,0.00,0.00,0.00,2,S01
28560,-8.60237,1.59454,1.04387,0.2439,15.6707,11.6463,0.00,0.00,0.00,2,S01
28580,-8.75081,1.54187,1.14443,0.7927,18.4146,9.5732,0.00,0.00,0.00,2,S01
28600,-8.79151,1.57299,1.30963,1.9512,20.0000,6.5244,0.00,0.00,0.00,2,S01
28620,-8.76757,1.68552,1.54187,3.8415,19.8171,3.2317,0.00,0.00,0.00,2,S01
28640,-8.83939,1.79805,1.92494,5.7927,17.1951,0.9146,0.00,0.00,0.00,2,S01
28660,-8.77714,1.88663,1.95846,9.2073,12.6220,0.5488,0.00,0.00,0.00,2,S01
28680,-8.69813,2.11408,1.85072,12.0732,9.5732,1.4024,0.00,0.00,0.00,2,S01
28700,-8.82503,2.46842,1.69031,11.5854,8.2927,2.1341,0.00,0.00,0.00,2,S01
28720,-9.00459,3.24175,1.21147,7.4390,7.0122,2.2561,0.00,0.00,0.00,2,S01
28740,-9.36133,3.99353,0.34716,-1.4024,5.7317,4.4512,0.00,0.00,0.00,2,S01
28760,-9.86411,2.67672,1.15401,-10.8537,4.7561,10.4268,0.00,0.00,0.00,2,S01
28780,-10.32859,0.84036,3.50751,-3.4146,2.7439,16.0976,0.00,0.00,0.00,2,S01
28800,-11.00136,-0.10774,3.59849,19.0244,-4.1463,19.7561,0.00,0.00,0.00,2,S01
28820,-12.05241,1.12527,1.27611,38.7805,-6.8902,24.9390,0.00,0.00,0.00,2,S01
28840,-11.70046,2.83473,-0.29688,45.9146,-0.6098,36.2195,0.00,0.00,0.00,2,S01
28860,-10.45308,3.27048,-1.79326,45.3049,0.3049,46.7683,0.00,0.00,0.00,2,S01
28880,-8.92080,1.37906,-2.09253,37.1341,-1.5244,47.8659,0.00,0.00,0.00,2,S01
28900,-8.89925,0.17717,-1.60412,38.4756,0.0610,33.3537,0.00,0.00,0.00,2,S01
28920,-10.07241,1.07021,-1.11091,44.5122,-0.3049,15.9146,0.00,0.00,0.00,2,S01
28940,-10.38605,2.58095,-1.40061,38.0488,-8.9634,6.0366,0.00,0.00,0.00,2,S01
28960,-9.74201,3.22499,-1.62327,21.4634,-13.8415,0.2439,0.00,0.00,0.00,2,S01
28980,-8.84897,3.56975,-1.67115,-0.1220,-13.8415,-9.6341,0.00,0.00,0.00,2,S01
29000,-8.27676,3.47159,-1.61369,-23.8415,-14.2073,-22.3171,0.00,0.00,0.00,2,S01
29020,-8.47547,2.55222,-1.01993,-42.2561,-13.9634,-32.8049,0.00,0.00,0.00,2,S01
29040,-8.96389,1.31681,-0.19872,-48.6585,-11.8293,-37.1951,0.00,0.00,0.00,2,S01
29060,-9.05008,0.33040,0.08140,-46.9512,-9.9390,-35.0610,0.00,0.00,0.00,2,S01
29080,-8.75560,-0.07183,0.51236,-44.4512,-7.7439,-30.1829,0.00,0.00,0.00,2,S01
29100,-8.41083,0.39265,0.87867,-41.1585,-7.3780,-26.1585,0.00,0.00,0.00,2,S01
29120,-8.27915,0.99838,0.64165,-36.8293,-8.4756,-22.0122,0.00,0.00,0.00,2,S01
29140,-8.17141,0.69671,0.83797,-27.5610,-0.4268,-13.4146,0.00,0.00,0.00,2,S01
29160,-8.17141,0.69671,0.83797,-27.5610,-0.4268,-13.4146,0.00,0.00,0.00,2,S01
29180,-8.31985,0.53391,0.92895,-22.8659,3.5976,-9.8780,0.00,0.00,0.00,2,S01
29200,-8.40604,0.55067,0.93374,-19.3293,6.2195,-7.2561,0.00,0.00,0.00,2,S01
29220,-8.56885,0.72065,1.07500,-17.3780,9.2073,-5.0000,0.00,0.00,0.00,2,S01
29240,-8.78672,0.99359,1.07978,-15.8537,11.8902,-2.9268,0.00,0.00,0.00,2,S01
29260,-8.85855,1.24738,1.20189,-15.4268,14.0244,-1.4024,0.00,0.00,0.00,2,S01
29280,-8.68616,1.31681,1.33836,-16.5854,14.7561,0.1829,0.00,0.00,0.00,2,S01
29300,-8.48266,1.26893,1.51314,-18.9024,15.4268,2.0122,0.00,0.00,0.00,2,S01
29320,-8.51139,1.25935,1.74298,-21.8902,16.8902,3.9634,0.00,0.00,0.00,2,S01
29340,-8.68616,1.20907,1.92015,-24.5122,16.5854,6.5244,0.00,0.00,0.00,2,S01
29360,-9.12670,1.15640,2.14281,-26.6463,13.5366,9.3902,0.00,0.00,0.00,2,S01
29380,-9.47146,0.84276,2.10690,-27.6829,8.8415,12.0122,0.00,0.00,0.00,2,S01
29400,-9.78510,-0.06704,1.26174,-12.5000,3.2927,4.0854,0.00,0.00,0.00,2,S01
29420,-10.04846,0.78290,2.25534,-11.9512,0.4268,-5.3659,0.00,0.00,0.00,2,S01
29440,-10.07720,1.70946,2.73418,-15.9756,-6.9512,-11.4024,0.00,0.00,0.00,2,S01
29460,-11.07079,1.98000,2.01831,-17.4390,-11.2805,-14.4512,0.00,0.00,0.00,2,S01
29480,-12.13381,1.38864,0.50996,-13.1098,-8.3537,-17.3171,0.00,0.00,0.00,2,S01
29500,-12.22958,0.34716,-0.05986,-11.6463,-6.0366,-23.5366,0.00,0.00,0.00,2,S01
29520,-11.35809,0.52433,-0.70868,-11.5854,-13.2317,-31.6463,0.00,0.00,0.00,2,S01
29540,-9.74440,0.78769,-0.86191,-13.9634,-23.1707,-35.0000,0.00,0.00,0.00,2,S01
29560,-8.32943,1.50835,-1.69031,-17.3780,-31.7073,-32.1341,0.00,0.00,0.00,2,S01
29580,-8.49702,1.00796,-1.67834,-23.1098,-24.3293,-23.5976,0.00,0.00,0.00,2,S01
29600,-9.47386,0.39025,-0.57940,-19.6341,-7.6220,-11.5854,0.00,0.00,0.00,2,S01
29620,-10.04128,0.12689,0.50039,-8.2927,0.5488,-1.8293,0.00,0.00,0.00,2,S01
29640,-9.94073,0.35674,0.64165,3.7195,-2.4390,3.0488,0.00,0.00,0.00,2,S01
29660,-9.58399,0.63446,0.30406,9.5122,-7.1951,4.9390,0.00,0.00,0.00,2,S01
29680,-8.87291,0.75417,0.16759,13.2317,-8.4146,6.5244,0.00,0.00,0.00,2,S01
29700,-8.23845,0.86191,-0.00239,16.9512,-8.4146,7.0732,0.00,0.00,0.00,2,S01
29720,-7.98466,0.93853,-0.23703,21.0976,-6.4024,7.8659,0.00,0.00,0.00,2,S01
29740,-8.22408,1.12767,-0.01915,23.2317,-1.7683,10.0610,0.00,0.00,0.00,2,S01
29760,-8.50660,1.34554,0.41899,22.0732,1.2195,12.6220,0.00,0.00,0.00,2,S01
29780,-8.62152,1.69509,0.50278,19.5122,1.4634,14.7561,0.00,0.00,0.00,2,S01
29800,-8.54730,1.65918,0.66319,16.0366,1.9512,15.7927,0.00,0.00,0.00,2,S01
29820,-8.48984,1.50356,0.75178,14.5732,3.9024,14.7561,0.00,0.00,0.00,2,S01
29840,-8.60476,1.39343,0.85234,14.1463,7.0732,12.7439,0.00,0.00,0.00,2,S01
29860,-8.90882,1.35991,1.18034,12.9878,9.9390,10.9756,0.00,0.00,0.00,2,S01
29880,-9.04529,1.40540,1.16598,13.4756,10.4268,10.1829,0.00,0.00,0.00,2,S01
29900,-8.97347,1.38145,1.10612,14.7561,9.9390,9.6341,0.00,0.00,0.00,2,S01
29920,-8.82263,1.39582,1.18513,16.7683,9.2073,7.8659,0.00,0.00,0.00,2,S01
29940,-8.69095,1.41737,1.29287,19.0244,8.7195,5.2439,0.00,0.00,0.00,2,S01
29960,-8.65265,1.47722,1.57778,20.8537,8.4146,2.0732,0.00,0.00,0.00,2,S01
29980,-8.71250,1.58496,1.90578,22.9268,7.0732,-0.7927,0.00,0.00,0.00,2,S01
# DONE 1500 samples in 30.0s
