timestamp,ax,ay,az,gx,gy,gz,mx,my,mz,label,subject_id
0,-7.11078,0.11253,5.96635,-1.5854,3.7195,-0.9146,0.00,0.00,0.00,0,S01
20,-7.13712,0.12210,5.89213,-1.6463,5.8537,-0.8537,0.00,0.00,0.00,0,S01
40,-7.36456,0.01915,5.90650,-2.1341,8.2317,-1.0366,0.00,0.00,0.00,0,S01
60,-7.36456,0.01915,5.90650,-2.1341,8.2317,-1.0366,0.00,0.00,0.00,0,S01
80,-7.40287,-0.00239,5.88734,-2.2561,7.2561,-1.0366,0.00,0.00,0.00,0,S01
100,-7.36456,-0.06464,5.76045,-2.3171,6.0976,-0.8537,0.00,0.00,0.00,0,S01
120,-7.42681,-0.15323,5.70299,-2.4390,6.0366,-0.7927,0.00,0.00,0.00,0,S01
140,-7.47470,-0.19632,5.71975,-2.1951,6.1585,-0.8537,0.00,0.00,0.00,0,S01
160,-7.46273,-0.16520,5.66468,-2.0732,5.8537,-0.8537,0.00,0.00,0.00,0,S01
180,-7.47470,-0.10056,5.65032,-2.2561,6.3415,-1.0976,0.00,0.00,0.00,0,S01
200,-7.49625,-0.03352,5.67426,-2.2561,6.8902,-1.4024,0.00,0.00,0.00,0,S01
220,-7.48667,0.00479,5.69820,-1.9512,6.8902,-1.4634,0.00,0.00,0.00,0,S01
240,-7.44836,0.04070,5.68623,-1.4634,6.4634,-1.5854,0.00,0.00,0.00,0,S01
260,-7.45076,0.03352,5.64074,-0.5488,6.4024,-1.8902,0.00,0.00,0.00,0,S01
280,-7.53934,0.02873,5.64313,0.4268,6.2195,-2.3171,0.00,0.00,0.00,0,S01
300,-7.60877,0.02634,5.66947,1.1585,4.8171,-2.4390,0.00,0.00,0.00,0,S01
320,-7.55849,-0.04070,5.65032,1.2195,2.7439,-2.2561,0.00,0.00,0.00,0,S01
340,-7.46033,-0.11732,5.61440,1.0366,1.6463,-2.1341,0.00,0.00,0.00,0,S01
360,-7.44597,-0.13886,5.54737,1.2805,2.3780,-2.1951,0.00,0.00,0.00,0,S01
380,-7.56089,-0.11971,5.51385,1.5244,3.7195,-2.3780,0.00,0.00,0.00,0,S01
400,-7.65426,-0.06704,5.52103,1.5854,4.1463,-2.3780,0.00,0.00,0.00,0,S01
420,-7.61835,-0.02394,5.52103,1.2195,3.2317,-2.1341,0.00,0.00,0.00,0,S01
440,-7.57047,-0.00239,5.50906,0.5488,2.4390,-1.7683,0.00,0.00,0.00,0,S01
460,-7.55849,0.05746,5.51145,0.2439,2.3780,-1.7683,0.00,0.00,0.00,0,S01
480,-7.59680,0.14365,5.54737,0.6098,2.5610,-1.7683,0.00,0.00,0.00,0,S01
500,-7.57047,0.13408,5.58088,1.0976,2.1341,-1.5244,0.00,0.00,0.00,0,S01
520,-7.54174,0.07901,5.55934,1.0976,1.4634,-1.2195,0.00,0.00,0.00,0,S01
540,-7.53455,0.02873,5.58567,0.8537,1.3415,-1.0366,0.00,0.00,0.00,0,S01
560,-7.56089,-0.01915,5.59285,0.3659,1.0366,-0.7317,0.00,0.00,0.00,0,S01
580,-7.57525,-0.07422,5.56412,-0.1220,0.4878,-0.4878,0.00,0.00,0.00,0,S01
600,-7.49625,-0.09816,5.54258,-0.3659,0.6098,-0.3049,0.00,0.00,0.00,0,S01
620,-7.42921,-0.13886,5.55215,-1.0366,1.5244,0.1220,0.00,0.00,0.00,0,S01
640,-7.48906,-0.14365,5.59285,-1.8902,2.5610,0.4268,0.00,0.00,0.00,0,S01
660,-7.58004,-0.06704,5.61201,-2.5610,2.5610,0.4878,0.00,0.00,0.00,0,S01
680,-7.56807,-0.00958,5.62398,-2.9268,1.6463,0.4268,0.00,0.00,0.00,0,S01
700,-7.48427,0.04310,5.58567,-3.1098,1.5854,0.4878,0.00,0.00,0.00,0,S01
720,-7.53216,0.03591,5.55215,-2.9268,2.6220,0.4878,0.00,0.00,0.00,0,S01
740,-7.61117,0.04310,5.48751,-2.1951,3.2927,0.4878,0.00,0.00,0.00,0,S01
760,-7.62793,0.08140,5.45160,-2.2561,3.4146,0.9146,0.00,0.00,0.00,0,S01
780,-7.61835,0.01197,5.44202,-2.9878,3.0488,1.2805,0.00,0.00,0.00,0,S01
800,-7.63032,-0.01676,5.48751,-3.2927,2.8049,1.1585,0.00,0.00,0.00,0,S01
820,-7.66623,-0.03112,5.46117,-2.9268,2.7439,0.8537,0.00,0.00,0.00,0,S01
840,-7.68060,-0.02155,5.44441,-2.9878,2.2561,0.9146,0.00,0.00,0.00,0,S01
860,-7.56568,-0.08140,5.52821,-3.2317,1.7073,1.5244,0.00,0.00,0.00,0,S01
880,-7.55131,-0.08619,5.51385,-2.6220,1.1585,2.0122,0.00,0.00,0.00,0,S01
900,-7.65666,-0.02873,5.48033,-1.9512,1.2805,2.5610,0.00,0.00,0.00,0,S01
920,-7.67342,0.02394,5.44681,-2.3780,1.5244,3.4756,0.00,0.00,0.00,0,S01
940,-7.54652,0.10534,5.35344,-4.0854,0.8537,4.8171,0.00,0.00,0.00,0,S01
960,-7.38851,0.24181,5.35822,-6.7683,2.1341,6.9512,0.00,0.00,0.00,0,S01
980,-7.62074,0.10774,5.36301,-9.1463,4.8780,9.0854,0.00,0.00,0.00,0,S01
1000,-7.91284,0.06464,5.41808,-10.4878,5.7317,9.1463,0.00,0.00,0.00,0,S01
1020,-7.89129,0.10295,5.34865,-11.8902,3.9024,9.7561,0.00,0.00,0.00,0,S01
1040,-7.87692,-0.00479,5.36780,-13.9634,2.9878,10.6707,0.00,0.00,0.00,0,S01
1060,-7.87214,-0.01676,5.42287,-13.3537,3.3537,10.5488,0.00,0.00,0.00,0,S01
1080,-7.70454,0.08619,5.33428,-12.1341,0.5488,12.0122,0.00,0.00,0.00,0,S01
1100,-7.66384,0.18196,5.28640,-12.0732,0.7317,13.1707,0.00,0.00,0.00,0,S01
1120,-7.63990,0.26097,5.25767,-12.9878,2.2561,14.6341,0.00,0.00,0.00,0,S01
1140,-7.62074,0.17478,5.25288,-15.1220,2.6829,16.4024,0.00,0.00,0.00,0,S01
1160,-7.64469,0.18196,5.39174,-16.0976,3.0488,17.1951,0.00,0.00,0.00,0,S01
1180,-7.65426,0.34955,5.38935,-16.2805,4.5122,17.8659,0.00,0.00,0.00,0,S01
1200,-7.66863,0.46448,5.25048,-18.4756,7.2561,18.5366,0.00,0.00,0.00,0,S01
1220,-7.70454,0.33279,5.22654,-21.8293,8.5976,19.3902,0.00,0.00,0.00,0,S01
1240,-7.70933,0.13886,5.34625,-23.8415,7.9268,19.6951,0.00,0.00,0.00,0,S01
1260,-7.75482,0.24900,5.34625,-23.7805,7.6829,19.8171,0.00,0.00,0.00,0,S01
1280,-7.74524,0.43335,5.18105,-24.0854,7.9878,20.6098,0.00,0.00,0.00,0,S01
1300,-7.63032,0.54588,5.07571,-26.2805,8.5976,21.2805,0.00,0.00,0.00,0,S01
1320,-7.53455,0.44053,5.19063,-29.1463,8.4756,20.5488,0.00,0.00,0.00,0,S01
1340,-7.55131,0.27054,5.34625,-29.3902,7.3780,17.8659,0.00,0.00,0.00,0,S01
1360,-7.60159,0.34477,5.37977,-26.4634,7.0122,14.1463,0.00,0.00,0.00,0,S01
1380,-7.66623,0.42617,5.36062,-22.9878,8.0488,10.9146,0.00,0.00,0.00,0,S01
1400,-7.66384,0.39983,5.36062,-20.2439,8.3537,8.0488,0.00,0.00,0.00,0,S01
1420,-7.61117,0.39744,5.43963,-18.2317,6.9512,4.3902,0.00,0.00,0.00,0,S01
1440,-7.59201,0.37350,5.48272,-15.1220,4.6341,0.2439,0.00,0.00,0.00,0,S01
1460,-7.60877,0.32561,5.44681,-10.1220,2.5000,-3.3537,0.00,0.00,0.00,0,S01
1480,-7.63032,0.38547,5.38217,-4.9390,0.9146,-6.8293,0.00,0.00,0.00,0,S01
1500,-7.63750,0.45250,5.26485,-0.6098,0.0000,-9.9390,0.00,0.00,0.00,0,S01
1520,-7.68539,0.42856,5.22415,2.6829,-0.5488,-12.6829,0.00,0.00,0.00,0,S01
1540,-7.74764,0.28252,5.26724,4.8171,-1.7683,-15.0610,0.00,0.00,0.00,0,S01
1560,-7.81467,0.06704,5.18824,7.0732,-2.9878,-16.2805,0.00,0.00,0.00,0,S01
1580,-7.80749,-0.12929,5.12838,10.1829,-2.4390,-17.0732,0.00,0.00,0.00,0,S01
1600,-7.86256,-0.16759,5.05177,13.7805,-0.0610,-18.4146,0.00,0.00,0.00,0,S01
1620,-7.95593,-0.17238,5.09726,16.6463,1.6463,-19.6951,0.00,0.00,0.00,0,S01
1640,-7.97987,-0.21548,5.13317,19.6341,1.5244,-20.6098,0.00,0.00,0.00,0,S01
1660,-7.95354,-0.16281,5.11880,22.6829,0.9756,-21.0976,0.00,0.00,0.00,0,S01
1680,-7.91762,-0.14126,5.08289,23.6585,0.6707,-20.7317,0.00,0.00,0.00,0,S01
1700,-7.87692,-0.21069,5.09007,24.0244,0.7317,-20.0000,0.00,0.00,0.00,0,S01
1720,-7.87453,-0.28252,5.05416,25.2439,1.4634,-20.1220,0.00,0.00,0.00,0,S01
1740,-7.90565,-0.16999,4.98712,26.3415,2.8049,-20.5488,0.00,0.00,0.00,0,S01
1760,-7.93438,-0.00239,5.00388,26.1585,4.2683,-20.6098,0.00,0.00,0.00,0,S01
1780,-7.88650,0.06943,5.02064,25.0610,5.1829,-20.0610,0.00,0.00,0.00,0,S01
1800,-7.87692,-0.02155,5.05416,24.6341,6.2805,-19.8171,0.00,0.00,0.00,0,S01
1820,-7.91044,0.08859,4.93684,26.9512,7.3171,-20.4878,0.00,0.00,0.00,0,S01
1840,-8.03973,0.21308,4.94403,27.5000,8.9024,-21.4024,0.00,0.00,0.00,0,S01
1860,-8.12353,0.34477,4.93445,28.0488,8.9634,-21.8902,0.00,0.00,0.00,0,S01
1880,-8.07085,0.22745,4.91769,27.5610,8.6585,-22.2561,0.00,0.00,0.00,0,S01
1900,-8.10916,0.08619,4.84347,27.8659,9.2073,-22.8049,0.00,0.00,0.00,0,S01
1920,-8.14747,-0.04788,4.78122,28.5976,10.1220,-24.2683,0.00,0.00,0.00,0,S01
1940,-8.12831,-0.11732,4.65672,29.8171,10.6098,-25.7317,0.00,0.00,0.00,0,S01
1960,-8.09480,-0.28491,4.73334,28.5366,10.5488,-25.9756,0.00,0.00,0.00,0,S01
1980,-7.95833,-0.48123,4.82192,26.7073,9.4512,-25.7317,0.00,0.00,0.00,0,S01
2000,-7.75961,-0.80685,4.73573,27.6829,8.5976,-25.7927,0.00,0.00,0.00,0,S01
2020,-7.94157,-0.73981,4.75488,30.5488,9.3902,-27.6829,0.00,0.00,0.00,0,S01
2040,-8.14507,-0.29209,4.57532,35.2439,9.7561,-27.6829,0.00,0.00,0.00,0,S01
2060,-8.03973,-0.28252,4.74052,35.9146,10.8537,-23.7805,0.00,0.00,0.00,0,S01
2080,-7.97987,-0.12450,4.76446,35.3659,11.2195,-20.3659,0.00,0.00,0.00,0,S01
2100,-8.00621,-0.08859,4.88657,32.0122,11.2805,-16.7683,0.00,0.00,0.00,0,S01
2120,-7.89129,-0.04070,5.15711,27.7439,10.1220,-11.9512,0.00,0.00,0.00,0,S01
2140,-7.71891,-0.05028,5.28640,21.1585,7.4390,-6.4024,0.00,0.00,0.00,0,S01
2160,-7.59920,-0.24181,5.34386,11.8293,4.6951,-1.3415,0.00,0.00,0.00,0,S01
2180,-7.56089,-0.54348,5.26964,3.2927,2.7439,2.7439,0.00,0.00,0.00,0,S01
2200,-8.13071,-0.28730,4.86502,-7.3780,-0.2439,8.9024,0.00,0.00,0.00,0,S01
2220,-8.13071,-0.28730,4.86502,-7.3780,-0.2439,8.9024,0.00,0.00,0.00,0,S01
2240,-8.13071,-0.28730,4.86502,-7.3780,-0.2439,8.9024,0.00,0.00,0.00,0,S01
2260,-8.29830,-0.08380,4.63517,-9.9390,-2.5610,8.5976,0.00,0.00,0.00,0,S01
2280,-8.36534,0.10056,4.41012,-10.7927,-3.1098,8.1098,0.00,0.00,0.00,0,S01
2300,-8.33422,0.42617,4.20661,-11.5854,1.4024,9.3902,0.00,0.00,0.00,0,S01
2320,-8.38210,0.46926,4.17788,-13.9024,2.8049,10.4268,0.00,0.00,0.00,0,S01
2340,-8.31985,0.42138,4.24253,-16.5854,2.9878,11.2195,0.00,0.00,0.00,0,S01
2360,-8.23605,0.27533,4.37421,-17.6220,3.9024,11.7073,0.00,0.00,0.00,0,S01
2380,-8.22887,0.15323,4.40533,-15.6707,5.3659,11.0976,0.00,0.00,0.00,0,S01
2400,-8.26478,0.17717,4.41251,-12.3171,6.8293,9.5122,0.00,0.00,0.00,0,S01
2420,-8.31506,0.29209,4.40054,-9.9390,6.8293,8.1098,0.00,0.00,0.00,0,S01
2440,-8.31027,0.36152,4.42209,-10.3049,4.4512,7.6829,0.00,0.00,0.00,0,S01
2460,-8.25042,0.28252,4.48913,-11.8293,2.0122,7.9268,0.00,0.00,0.00,0,S01
2480,-8.20732,0.09098,4.50349,-12.0732,1.6463,7.9878,0.00,0.00,0.00,0,S01
2500,-8.19056,-0.04070,4.52265,-10.5488,2.6220,7.3171,0.00,0.00,0.00,0,S01
2520,-8.19775,-0.02394,4.50110,-8.5976,2.9268,5.9146,0.00,0.00,0.00,0,S01
2540,-8.15465,0.05986,4.47237,-7.4390,2.4390,4.1463,0.00,0.00,0.00,0,S01
2560,-8.16423,0.13886,4.49631,-6.9512,2.5000,2.8049,0.00,0.00,0.00,0,S01
2580,-8.21929,0.17478,4.53462,-6.4024,2.9878,2.3171,0.00,0.00,0.00,0,S01
2600,-8.26000,0.18196,4.53462,-5.8537,2.4390,2.6829,0.00,0.00,0.00,0,S01
2620,-8.20732,0.10774,4.48673,-6.1585,0.9146,3.1098,0.00,0.00,0.00,0,S01
2640,-8.16662,0.05746,4.48913,-6.5244,0.1220,2.7439,0.00,0.00,0.00,0,S01
2660,-8.17859,0.04788,4.49392,-5.8537,0.4268,2.0732,0.00,0.00,0.00,0,S01
2680,-8.21211,0.03831,4.51068,-5.0610,0.7317,1.6463,0.00,0.00,0.00,0,S01
2700,-8.22408,0.01197,4.52025,-4.5732,0.1220,1.3415,0.00,0.00,0.00,0,S01
2720,-8.21451,0.01437,4.49392,-3.8415,-0.5488,0.8537,0.00,0.00,0.00,0,S01
2740,-8.21451,0.05028,4.44124,-2.5610,-0.6707,0.1220,0.00,0.00,0.00,0,S01
2760,-8.24084,0.11492,4.42209,-1.4634,-0.2439,-0.5488,0.00,0.00,0.00,0,S01
2780,-8.25042,0.12210,4.45082,-1.1585,-0.2439,-0.7927,0.00,0.00,0.00,0,S01
2800,-8.19296,0.12929,4.47716,-0.7927,-0.3659,-0.9146,0.00,0.00,0.00,0,S01
2820,-8.14986,0.14605,4.50589,0.0610,0.2439,-1.1585,0.00,0.00,0.00,0,S01
2840,-8.15705,0.16041,4.51546,0.6098,1.0976,-1.4024,0.00,0.00,0.00,0,S01
2860,-8.20972,0.14605,4.53941,0.3049,1.6463,-1.2195,0.00,0.00,0.00,0,S01
2880,-8.20972,0.08619,4.58729,-0.4878,1.4634,-0.7927,0.00,0.00,0.00,0,S01
2900,-8.17620,0.06464,4.57293,-0.4878,0.7317,-0.6707,0.00,0.00,0.00,0,S01
2920,-8.15226,0.10534,4.54659,0.0000,0.4878,-0.8537,0.00,0.00,0.00,0,S01
2940,-8.17859,0.12450,4.55856,0.0000,0.6707,-0.9756,0.00,0.00,0.00,0,S01
2960,-8.23605,0.12210,4.54659,-0.1829,0.5488,-0.9756,0.00,0.00,0.00,0,S01
2980,-8.20253,0.10774,4.50589,-0.4268,-0.0610,-0.9756,0.00,0.00,0.00,0,S01
3000,-8.14507,0.12689,4.46519,-0.4878,-0.3049,-1.0976,0.00,0.00,0.00,0,S01
3020,-8.16902,0.17238,4.45561,-0.5488,0.0610,-1.2195,0.00,0.00,0.00,0,S01
3040,-8.20493,0.18675,4.46279,-0.9756,0.1829,-1.1585,0.00,0.00,0.00,0,S01
3060,-8.22169,0.16759,4.48195,-1.4634,0.0610,-0.9756,0.00,0.00,0.00,0,S01
3080,-8.21929,0.12929,4.47237,-1.8293,-0.3049,-0.7927,0.00,0.00,0.00,0,S01
3100,-8.21929,0.10295,4.48434,-2.0122,-0.4268,-0.6707,0.00,0.00,0.00,0,S01
3120,-8.23127,0.10534,4.49631,-1.7683,-0.2439,-0.6707,0.00,0.00,0.00,0,S01
3140,-8.21451,0.10534,4.47955,-1.1585,-0.1829,-0.7927,0.00,0.00,0.00,0,S01
3160,-8.21211,0.12210,4.46997,-0.6098,-0.2439,-0.9756,0.00,0.00,0.00,0,S01
3180,-8.22648,0.12689,4.45800,-0.4268,-0.4878,-1.0976,0.00,0.00,0.00,0,S01
3200,-8.23366,0.12689,4.44124,-0.6098,-0.6707,-0.9756,0.00,0.00,0.00,0,S01
3220,-8.21451,0.12210,4.46997,-0.9756,-0.5488,-0.6707,0.00,0.00,0.00,0,S01
3240,-8.18338,0.08859,4.51307,-0.7927,-0.3049,-0.6707,0.00,0.00,0.00,0,S01
3260,-8.20014,0.06225,4.52744,0.0610,-0.3659,-1.0366,0.00,0.00,0.00,0,S01
3280,-8.21929,0.07661,4.50110,0.7317,-0.5488,-1.2195,0.00,0.00,0.00,0,S01
3300,-8.12831,0.20351,4.57532,0.2439,0.9146,-0.6098,0.00,0.00,0.00,0,S01
3320,-8.12831,0.20351,4.57532,0.2439,0.9146,-0.6098,0.00,0.00,0.00,0,S01
3340,-8.12831,0.20351,4.57532,0.2439,0.9146,-0.6098,0.00,0.00,0.00,0,S01
3360,-8.10916,0.25139,4.51068,0.7927,1.1585,-0.6098,0.00,0.00,0.00,0,S01
3380,-8.14747,0.20590,4.50110,-0.2439,1.1585,-0.3049,0.00,0.00,0.00,0,S01
3400,-8.16662,0.14605,4.52265,-2.0122,0.8537,-0.0610,0.00,0.00,0.00,0,S01
3420,-8.17380,0.12450,4.48434,-3.0488,0.6098,0.0000,0.00,0.00,0.00,0,S01
3440,-8.21451,0.13647,4.41491,-3.1707,0.5488,0.0000,0.00,0.00,0.00,0,S01
3460,-8.27436,0.16041,4.39575,-3.7805,0.3659,0.3659,0.00,0.00,0.00,0,S01
3480,-8.27197,0.16520,4.40054,-4.8780,-0.4878,0.7927,0.00,0.00,0.00,0,S01
3500,-8.23366,0.16999,4.40054,-5.3659,-1.4024,0.9756,0.00,0.00,0.00,0,S01
3520,-8.21690,0.15802,4.46519,-5.3049,-1.3415,0.9756,0.00,0.00,0.00,0,S01
3540,-8.16902,0.15802,4.52504,-5.3049,-1.5244,1.2195,0.00,0.00,0.00,0,S01
3560,-8.16423,0.14605,4.54180,-5.3659,-1.9512,1.1585,0.00,0.00,0.00,0,S01
3580,-8.18338,0.13647,4.57771,-4.8171,-2.1341,0.8537,0.00,0.00,0.00,0,S01
3600,-8.15705,0.12210,4.59447,-3.9634,-2.2561,0.4878,0.00,0.00,0.00,0,S01
3620,-8.13310,0.12210,4.56095,-2.6220,-2.0732,-0.1220,0.00,0.00,0.00,0,S01
3640,-8.13310,0.14126,4.53462,-1.2195,-1.6463,-0.7317,0.00,0.00,0.00,0,S01
3660,-8.11874,0.13168,4.59687,-0.9146,-1.4024,-1.1585,0.00,0.00,0.00,0,S01
3680,-8.12113,0.10056,4.62320,-1.0976,-1.2195,-1.2195,0.00,0.00,0.00,0,S01
3700,-8.14507,0.09098,4.57532,-1.2805,-0.8537,-1.0976,0.00,0.00,0.00,0,S01
3720,-8.14747,0.11013,4.57293,-1.0976,-0.4878,-1.0976,0.00,0.00,0.00,0,S01
3740,-8.10677,0.16041,4.58729,-0.9756,-0.4268,-1.1585,0.00,0.00,0.00,0,S01
3760,-8.09001,0.17717,4.56574,-1.4024,0.1220,-1.2195,0.00,0.00,0.00,0,S01
3780,-8.15226,0.16041,4.55138,-1.6463,1.2195,-1.3415,0.00,0.00,0.00,0,S01
3800,-8.17380,0.15562,4.59447,-1.2195,1.4024,-1.5854,0.00,0.00,0.00,0,S01
3820,-8.14268,0.19632,4.59687,-0.3659,0.9756,-1.8293,0.00,0.00,0.00,0,S01
3840,-8.18817,0.17957,4.58490,0.0000,0.9146,-1.9512,0.00,0.00,0.00,0,S01
3860,-8.25042,0.11971,4.61363,-0.2439,0.3659,-1.9512,0.00,0.00,0.00,0,S01
3880,-8.21929,0.08380,4.61123,-0.2439,-1.3415,-1.8902,0.00,0.00,0.00,0,S01
3900,-8.10437,0.14605,4.55617,0.9756,-2.1341,-2.2561,0.00,0.00,0.00,0,S01
3920,-8.08282,0.17957,4.51068,2.8049,-1.2195,-3.0488,0.00,0.00,0.00,0,S01
3940,-8.17380,0.18914,4.53462,3.9024,0.3049,-3.5366,0.00,0.00,0.00,0,S01
3960,-8.24802,0.16041,4.59926,4.2073,0.7317,-3.4756,0.00,0.00,0.00,0,S01
3980,-8.21690,0.13647,4.57053,4.3902,-0.1829,-3.1707,0.00,0.00,0.00,0,S01
4000,-8.14268,0.10534,4.50349,4.8171,-1.0366,-3.2927,0.00,0.00,0.00,0,S01
4020,-8.15226,0.10534,4.48673,5.0610,-1.0366,-3.5366,0.00,0.00,0.00,0,S01
4040,-8.17859,0.12689,4.58011,4.5732,-0.4878,-3.6585,0.00,0.00,0.00,0,S01
4060,-8.15705,0.14365,4.58968,4.1463,-0.6707,-3.4756,0.00,0.00,0.00,0,S01
4080,-8.09480,0.09337,4.60166,3.7195,-1.1585,-3.1098,0.00,0.00,0.00,0,S01
4100,-8.10198,0.05986,4.61841,3.2927,-0.9756,-2.9878,0.00,0.00,0.00,0,S01
4120,-8.12592,0.09577,4.59926,3.1707,-0.4268,-2.8659,0.00,0.00,0.00,0,S01
4140,-8.16902,0.12450,4.62081,2.7439,0.2439,-2.5000,0.00,0.00,0.00,0,S01
4160,-8.16662,0.10295,4.64715,1.8293,0.0610,-1.9512,0.00,0.00,0.00,0,S01
4180,-8.10916,0.08140,4.60884,0.7317,-0.7927,-1.5244,0.00,0.00,0.00,0,S01
4200,-8.06846,0.07422,4.61841,-0.1829,-0.5488,-1.1585,0.00,0.00,0.00,0,S01
4220,-8.05888,0.09337,4.63757,-0.4878,0.4878,-0.7927,0.00,0.00,0.00,0,S01
4240,-8.10198,0.13168,4.66151,-0.8537,0.9756,-0.7317,0.00,0.00,0.00,0,S01
4260,-8.14268,0.16759,4.67109,-0.9756,0.9146,-0.7317,0.00,0.00,0.00,0,S01
4280,-8.15944,0.21308,4.65193,-0.9756,0.6707,-0.3659,0.00,0.00,0.00,0,S01
4300,-8.15705,0.21787,4.58968,-1.7683,0.4878,0.2439,0.00,0.00,0.00,0,S01
4320,-8.12592,0.22266,4.52265,-2.6220,0.4878,0.6098,0.00,0.00,0.00,0,S01
4340,-8.10677,0.22745,4.48434,-2.7439,0.8537,0.3659,0.00,0.00,0.00,0,S01
4360,-8.12113,0.25618,4.53701,-2.1341,1.2805,-0.1220,0.00,0.00,0.00,0,S01
4380,-8.18099,0.31125,4.55138,-1.2805,1.4634,-0.5488,0.00,0.00,0.00,0,S01
4400,-8.22408,0.32801,4.53462,-0.9756,1.1585,-0.6098,0.00,0.00,0.00,0,S01
4420,-8.17380,0.19393,4.46040,-0.7317,0.0610,-0.7927,0.00,0.00,0.00,0,S01
4440,-8.21211,0.14605,4.50828,-0.5488,0.0610,-0.9756,0.00,0.00,0.00,0,S01
4460,-8.21211,0.14605,4.50828,-0.5488,0.0610,-0.9756,0.00,0.00,0.00,0,S01
4480,-8.20732,0.13647,4.48913,-0.6098,-0.0610,-0.9756,0.00,0.00,0.00,0,S01
4500,-8.10677,0.15323,4.48673,-1.2805,0.0000,-0.9756,0.00,0.00,0.00,0,S01
4520,-8.03734,0.15802,4.57053,-1.8293,0.7317,-1.4634,0.00,0.00,0.00,0,S01
4540,-8.13789,0.13408,4.70221,-1.4634,1.6463,-2.0122,0.00,0.00,0.00,0,S01
4560,-8.18817,0.10295,4.70700,-0.1829,1.3415,-2.0122,0.00,0.00,0.00,0,S01
4580,-8.14507,0.05746,4.68545,0.2439,-0.1829,-1.7683,0.00,0.00,0.00,0,S01
4600,-8.09001,0.00239,4.64475,-0.3659,-1.2805,-1.5854,0.00,0.00,0.00,0,S01
4620,-8.09958,0.05267,4.61841,-0.6098,-1.0976,-1.8902,0.00,0.00,0.00,0,S01
4640,-8.14747,0.11013,4.61841,-0.1829,-0.7317,-2.1951,0.00,0.00,0.00,0,S01
4660,-8.14268,0.12689,4.59208,0.5488,-0.5488,-2.1341,0.00,0.00,0.00,0,S01
4680,-8.13550,0.16999,4.55377,1.0366,-0.1220,-2.0122,0.00,0.00,0.00,0,S01
4700,-8.14268,0.22027,4.52504,0.7927,0.5488,-2.0122,0.00,0.00,0.00,0,S01
4720,-8.16423,0.22266,4.52025,0.3659,0.9756,-2.0122,0.00,0.00,0.00,0,S01
4740,-8.20253,0.20830,4.53462,0.1829,1.0366,-1.9512,0.00,0.00,0.00,0,S01
4760,-8.23845,0.19393,4.53941,0.3659,0.5488,-1.7073,0.00,0.00,0.00,0,S01
4780,-8.07804,0.19632,4.56814,-0.3049,-0.3049,-1.2805,0.00,0.00,0.00,0,S01
4800,-8.14029,0.21069,4.58250,-0.3049,0.4878,-1.5244,0.00,0.00,0.00,0,S01
4820,-8.20732,0.19872,4.63517,0.5488,0.8537,-1.6463,0.00,0.00,0.00,0,S01
4840,-8.12113,0.14126,4.60644,1.2195,0.0610,-1.5244,0.00,0.00,0.00,0,S01
4860,-8.04212,0.09577,4.58011,0.8537,0.3659,-1.2195,0.00,0.00,0.00,0,S01
4880,-8.09240,0.09337,4.60405,0.4878,1.5244,-1.4024,0.00,0.00,0.00,0,S01
4900,-8.15944,0.09816,4.63039,0.2439,1.7683,-1.5244,0.00,0.00,0.00,0,S01
4920,-8.14986,0.10056,4.61602,-0.1829,0.9756,-1.5244,0.00,0.00,0.00,0,S01
4940,-8.16183,0.10295,4.56814,-0.3659,0.5488,-1.5244,0.00,0.00,0.00,0,S01
4960,-8.22408,0.14126,4.54898,-0.3049,0.3659,-1.5244,0.00,0.00,0.00,0,S01
4980,-8.21690,0.20111,4.54180,-0.2439,-0.0610,-1.4024,0.00,0.00,0.00,0,S01
5000,-8.15465,0.20590,4.48434,-0.1220,-0.3049,-1.3415,0.00,0.00,0.00,0,S01
5020,-8.16662,0.16999,4.49631,0.2439,0.0610,-1.4024,0.00,0.00,0.00,0,S01
5040,-8.21690,0.15802,4.56814,0.2439,0.2439,-1.3415,0.00,0.00,0.00,0,S01
5060,-8.18817,0.18435,4.59447,0.0610,-0.4268,-1.2195,0.00,0.00,0.00,0,S01
5080,-8.08282,0.21787,4.56574,0.0610,-0.9146,-1.3415,0.00,0.00,0.00,0,S01
5100,-8.08761,0.23463,4.58490,0.2439,-0.3659,-1.5854,0.00,0.00,0.00,0,S01
5120,-8.19296,0.20590,4.62560,0.1220,0.1220,-1.5244,0.00,0.00,0.00,0,S01
5140,-8.19296,0.17238,4.60166,-0.1220,-0.6707,-1.4024,0.00,0.00,0.00,0,S01
5160,-8.11156,0.15083,4.54180,-0.1829,-1.7073,-1.4634,0.00,0.00,0.00,0,S01
5180,-8.13310,0.14126,4.55856,-0.3049,-1.7073,-1.6463,0.00,0.00,0.00,0,S01
5200,-8.20014,0.12689,4.56814,-0.1220,-1.6463,-1.7683,0.00,0.00,0.00,0,S01
5220,-8.15226,0.11971,4.58011,-0.1220,-1.9512,-1.5244,0.00,0.00,0.00,0,S01
5240,-8.11634,0.11971,4.59926,-0.4268,-1.9512,-1.3415,0.00,0.00,0.00,0,S01
5260,-8.11395,0.12689,4.61363,-0.6707,-1.5854,-1.4024,0.00,0.00,0.00,0,S01
5280,-8.09001,0.13168,4.62560,-0.6707,-1.3415,-1.6463,0.00,0.00,0.00,0,S01
5300,-8.06846,0.13408,4.65672,-0.7317,-0.5488,-1.6463,0.00,0.00,0.00,0,S01
5320,-8.08761,0.14126,4.69264,-0.6707,0.3049,-1.6463,0.00,0.00,0.00,0,S01
5340,-8.11156,0.17478,4.67348,-0.2439,0.6707,-1.8902,0.00,0.00,0.00,0,S01
5360,-8.10198,0.19632,4.62799,0.1829,0.7927,-2.0732,0.00,0.00,0.00,0,S01
5380,-8.10677,0.19393,4.60405,0.3049,1.1585,-2.1951,0.00,0.00,0.00,0,S01
5400,-8.18099,0.19154,4.63039,0.2439,1.4024,-2.0732,0.00,0.00,0.00,0,S01
5420,-8.20014,0.21308,4.60166,0.5488,0.6098,-2.1341,0.00,0.00,0.00,0,S01
5440,-8.13550,0.20590,4.56814,0.9146,-0.1829,-2.1341,0.00,0.00,0.00,0,S01
5460,-8.16183,0.17478,4.57532,1.1585,0.1829,-2.0122,0.00,0.00,0.00,0,S01
5480,-8.21451,0.15562,4.58490,1.3415,0.5488,-1.8902,0.00,0.00,0.00,0,S01
5500,-8.17859,0.12929,4.57532,1.5854,0.1220,-1.7073,0.00,0.00,0.00,0,S01
5520,-8.07564,0.07183,4.66151,0.6707,0.2439,-1.2805,0.00,0.00,0.00,0,S01
5540,-8.07564,0.07183,4.66151,0.6707,0.2439,-1.2805,0.00,0.00,0.00,0,S01
5560,-8.11874,0.09577,4.64475,-0.0610,0.3659,-1.2195,0.00,0.00,0.00,0,S01
5580,-8.12353,0.12689,4.63517,-0.1829,0.3049,-1.0976,0.00,0.00,0.00,0,S01
5600,-8.10198,0.14126,4.63039,-0.1220,0.4268,-0.8537,0.00,0.00,0.00,0,S01
5620,-8.08282,0.15323,4.63278,-0.4878,0.6098,-0.6707,0.00,0.00,0.00,0,S01
5640,-8.14747,0.15562,4.63278,-0.8537,0.9756,-0.8537,0.00,0.00,0.00,0,S01
5660,-8.23366,0.16520,4.61841,-0.6098,0.4878,-1.1585,0.00,0.00,0.00,0,S01
5680,-8.17620,0.19393,4.49392,-0.1829,-0.6098,-1.3415,0.00,0.00,0.00,0,S01
5700,-8.10916,0.22266,4.51068,-0.2439,-0.8537,-1.3415,0.00,0.00,0.00,0,S01
5720,-8.13550,0.27294,4.52025,-0.3659,-0.5488,-1.3415,0.00,0.00,0.00,0,S01
5740,-8.13789,0.27294,4.53701,-0.9756,-0.2439,-1.1585,0.00,0.00,0.00,0,S01
5760,-8.10916,0.19632,4.63757,-1.5244,0.1829,-0.9146,0.00,0.00,0.00,0,S01
5780,-8.09001,0.14605,4.70461,-0.9756,0.5488,-1.0976,0.00,0.00,0.00,0,S01
5800,-8.08761,0.17478,4.70221,-0.0610,0.3659,-1.4634,0.00,0.00,0.00,0,S01
5820,-8.09001,0.19872,4.68545,0.1220,-0.0610,-1.6463,0.00,0.00,0.00,0,S01
5840,-8.09240,0.17478,4.65672,-0.2439,-0.5488,-1.6463,0.00,0.00,0.00,0,S01
5860,-8.07804,0.14126,4.65193,-0.6098,-0.6707,-1.6463,0.00,0.00,0.00,0,S01
5880,-8.05170,0.14126,4.62081,-0.4268,-0.2439,-1.9512,0.00,0.00,0.00,0,S01
5900,-8.09240,0.16281,4.58250,0.3049,0.8537,-2.4390,0.00,0.00,0.00,0,S01
5920,-8.12831,0.15083,4.59447,0.7927,2.0122,-2.6220,0.00,0.00,0.00,0,S01
5940,-8.17859,0.12929,4.60884,0.9756,2.5610,-2.5000,0.00,0.00,0.00,0,S01
5960,-8.18099,0.11492,4.61363,0.8537,2.1341,-2.3171,0.00,0.00,0.00,0,S01
5980,-8.14507,0.10774,4.57053,0.6098,1.5244,-2.0732,0.00,0.00,0.00,0,S01
6000,-8.17620,0.08140,4.54659,0.7317,2.3780,-1.8902,0.00,0.00,0.00,0,S01
6020,-8.18338,0.11253,4.54898,0.3659,2.5000,-1.7073,0.00,0.00,0.00,0,S01
6040,-8.16662,0.12689,4.57053,-0.3659,2.1341,-1.4634,0.00,0.00,0.00,0,S01
6060,-8.16423,0.13168,4.55856,-0.9146,1.5244,-1.1585,0.00,0.00,0.00,0,S01
6080,-8.14268,0.17717,4.57532,-1.1585,1.3415,-1.1585,0.00,0.00,0.00,0,S01
6100,-8.12113,0.21548,4.57053,-1.0976,1.4024,-1.4634,0.00,0.00,0.00,0,S01
6120,-8.12592,0.25618,4.57293,-0.5488,1.7683,-1.7683,0.00,0.00,0.00,0,S01
6140,-8.16423,0.23463,4.59687,-0.1829,1.9512,-1.8902,0.00,0.00,0.00,0,S01
6160,-8.20493,0.19154,4.56574,0.3049,1.5244,-1.7683,0.00,0.00,0.00,0,S01
6180,-8.20493,0.16041,4.51786,0.4268,0.9146,-1.5244,0.00,0.00,0.00,0,S01
6200,-8.16183,0.12450,4.51546,0.2439,1.0366,-1.5854,0.00,0.00,0.00,0,S01
6220,-8.11874,0.09816,4.54898,0.2439,1.5854,-1.7073,0.00,0.00,0.00,0,S01
6240,-8.12592,0.08380,4.58250,0.3659,2.3171,-1.8293,0.00,0.00,0.00,0,S01
6260,-8.15226,0.11492,4.60405,0.4878,2.6829,-1.9512,0.00,0.00,0.00,0,S01
6280,-8.21929,0.16281,4.59687,0.2439,2.1951,-1.9512,0.00,0.00,0.00,0,S01
6300,-8.30070,0.16999,4.61363,-0.5488,0.6098,-1.7683,0.00,0.00,0.00,0,S01
6320,-8.25042,0.13168,4.60405,-1.0366,-1.8902,-1.5244,0.00,0.00,0.00,0,S01
6340,-8.19535,0.17478,4.50828,-0.4268,-3.4146,-1.5244,0.00,0.00,0.00,0,S01
6360,-8.26239,0.19632,4.42927,0.5488,-3.2317,-1.7683,0.00,0.00,0.00,0,S01
6380,-8.26000,0.20111,4.44843,1.2195,-2.9878,-1.8902,0.00,0.00,0.00,0,S01
6400,-8.14029,0.15562,4.46040,1.5854,-2.8659,-1.9512,0.00,0.00,0.00,0,S01
6420,-8.11874,0.14365,4.49152,2.0122,-1.6463,-2.0732,0.00,0.00,0.00,0,S01
6440,-8.14268,0.12689,4.54180,2.5000,-0.3659,-2.2561,0.00,0.00,0.00,0,S01
6460,-8.12353,0.10774,4.57293,2.1951,0.0000,-2.2561,0.00,0.00,0.00,0,S01
6480,-8.10437,0.10295,4.62560,1.4634,0.0000,-2.1341,0.00,0.00,0.00,0,S01
6500,-8.10437,0.12929,4.67348,0.7317,-0.3049,-1.9512,0.00,0.00,0.00,0,S01
6520,-8.14747,0.14605,4.63996,0.5488,-0.7317,-1.8902,0.00,0.00,0.00,0,S01
6540,-8.17859,0.14844,4.57293,0.8537,-1.0366,-1.6463,0.00,0.00,0.00,0,S01
6560,-8.12831,0.14126,4.52025,0.6707,-1.0366,-1.3415,0.00,0.00,0.00,0,S01
6580,-8.13789,0.14365,4.53941,0.0610,-0.5488,-1.1585,0.00,0.00,0.00,0,S01
6600,-8.15944,0.15083,4.53701,-0.5488,-0.3659,-1.0366,0.00,0.00,0.00,0,S01
6620,-8.14747,0.14605,4.59447,-0.8537,-0.1829,-0.8537,0.00,0.00,0.00,0,S01
6640,-8.14747,0.14605,4.59447,-0.8537,-0.1829,-0.8537,0.00,0.00,0.00,0,S01
6660,-8.13550,0.15562,4.59447,-1.0976,-0.3659,-0.7927,0.00,0.00,0.00,0,S01
6680,-8.13789,0.18914,4.58011,-1.3415,-0.4878,-0.7927,0.00,0.00,0.00,0,S01
6700,-8.19296,0.20351,4.56574,-1.3415,-0.8537,-0.8537,0.00,0.00,0.00,0,S01
6720,-8.23605,0.18196,4.54898,-1.3415,-2.0122,-0.7317,0.00,0.00,0.00,0,S01
6740,-8.18099,0.14605,4.56335,-1.4634,-3.3537,-0.4268,0.00,0.00,0.00,0,S01
6760,-8.06128,0.12689,4.60166,-1.5854,-3.7805,-0.3049,0.00,0.00,0.00,0,S01
6780,-8.00142,0.14126,4.63996,-1.5244,-2.8659,-0.4878,0.00,0.00,0.00,0,S01
6800,-8.08282,0.18675,4.65912,-1.0366,-1.2805,-0.8537,0.00,0.00,0.00,0,S01
6820,-8.16423,0.19393,4.66391,-0.2439,-1.0366,-1.1585,0.00,0.00,0.00,0,S01
6840,-8.12592,0.20111,4.67827,0.3659,-1.8902,-1.0976,0.00,0.00,0.00,0,S01
6860,-8.07325,0.18196,4.69024,0.2439,-2.6220,-0.9756,0.00,0.00,0.00,0,S01
6880,-8.10437,0.15562,4.70221,-0.2439,-2.9878,-1.0366,0.00,0.00,0.00,0,S01
6900,-8.16183,0.14844,4.65672,-0.6098,-3.5366,-1.0366,0.00,0.00,0.00,0,S01
6920,-8.10916,0.15802,4.62081,-0.5488,-3.8415,-0.9756,0.00,0.00,0.00,0,S01
6940,-8.01100,0.15562,4.66391,-0.6707,-3.4146,-0.9756,0.00,0.00,0.00,0,S01
6960,-8.02297,0.17957,4.71418,-0.6707,-2.2561,-1.0976,0.00,0.00,0.00,0,S01
6980,-8.03494,0.19393,4.72855,-0.4878,-1.0366,-1.1585,0.00,0.00,0.00,0,S01
7000,-8.04931,0.19872,4.75967,-0.6707,-0.4878,-0.9756,0.00,0.00,0.00,0,S01
7020,-8.02776,0.14844,4.79319,-0.9756,-0.7927,-0.7927,0.00,0.00,0.00,0,S01
7040,-8.03255,0.12450,4.77883,-1.1585,-1.2805,-0.7317,0.00,0.00,0.00,0,S01
7060,-8.09719,0.13886,4.73573,-1.5244,-1.2195,-0.6098,0.00,0.00,0.00,0,S01
7080,-8.10437,0.17238,4.74531,-1.8293,-1.0976,-0.5488,0.00,0.00,0.00,0,S01
7100,-8.07325,0.19154,4.70939,-1.5244,-1.3415,-0.6098,0.00,0.00,0.00,0,S01
7120,-8.11156,0.20351,4.71897,-0.9756,-1.8902,-0.7317,0.00,0.00,0.00,0,S01
7140,-8.06846,0.21308,4.73573,-0.9146,-2.6829,-0.7317,0.00,0.00,0.00,0,S01
7160,-7.92241,0.20111,4.79319,-1.2805,-2.3171,-0.6707,0.00,0.00,0.00,0,S01
7180,-7.90087,0.16759,4.86502,-1.4634,-0.7927,-0.9146,0.00,0.00,0.00,0,S01
7200,-8.00142,0.15802,4.89375,-1.1585,0.3659,-1.2195,0.00,0.00,0.00,0,S01
7220,-8.04452,0.19154,4.84826,-0.4268,0.3659,-1.4024,0.00,0.00,0.00,0,S01
7240,-7.96790,0.16520,4.76925,-0.8537,0.9146,-1.2805,0.00,0.00,0.00,0,S01
7260,-8.05649,0.15802,4.77164,-0.9146,1.5854,-1.5854,0.00,0.00,0.00,0,S01
7280,-8.10916,0.16759,4.75010,-0.2439,1.5244,-1.8293,0.00,0.00,0.00,0,S01
7300,-8.13310,0.17717,4.70461,0.4268,1.0976,-1.9512,0.00,0.00,0.00,0,S01
7320,-8.12353,0.15323,4.65193,0.5488,0.6098,-1.7683,0.00,0.00,0.00,0,S01
7340,-8.09958,0.11732,4.65193,0.3659,0.2439,-1.5854,0.00,0.00,0.00,0,S01
7360,-8.08761,0.10056,4.68306,0.0610,-0.0610,-1.4634,0.00,0.00,0.00,0,S01
7380,-8.04931,0.12450,4.70461,-0.3659,-0.1829,-1.3415,0.00,0.00,0.00,0,S01
7400,-8.02058,0.17238,4.71418,-0.4878,0.4268,-1.3415,0.00,0.00,0.00,0,S01
7420,-8.04691,0.19632,4.71897,-0.4878,1.0366,-1.4634,0.00,0.00,0.00,0,S01
7440,-8.08043,0.21548,4.75488,-0.6098,0.9756,-1.5854,0.00,0.00,0.00,0,S01
7460,-8.06367,0.20111,4.75488,-0.8537,0.3049,-1.4634,0.00,0.00,0.00,0,S01
7480,-8.07564,0.20351,4.73334,-1.0366,-0.1220,-1.1585,0.00,0.00,0.00,0,S01
7500,-8.05409,0.18435,4.72855,-1.2805,-0.2439,-0.9756,0.00,0.00,0.00,0,S01
7520,-8.05170,0.16520,4.75249,-1.1585,-0.2439,-1.1585,0.00,0.00,0.00,0,S01
7540,-8.03734,0.15323,4.76207,-0.7317,-0.4268,-1.4024,0.00,0.00,0.00,0,S01
7560,-8.03494,0.14605,4.76686,-0.4878,-0.4268,-1.5244,0.00,0.00,0.00,0,S01
7580,-8.05409,0.12450,4.75967,-0.6098,-0.3659,-1.4024,0.00,0.00,0.00,0,S01
7600,-8.08043,0.10534,4.77164,-1.1585,-0.4268,-1.0976,0.00,0.00,0.00,0,S01
7620,-8.08761,0.08859,4.80037,-1.4634,-0.7927,-0.9756,0.00,0.00,0.00,0,S01
7640,-8.06846,0.11013,4.78362,-0.8537,-1.2195,-1.1585,0.00,0.00,0.00,0,S01
7660,-8.09001,0.16281,4.76925,0.1220,-1.4634,-1.3415,0.00,0.00,0.00,0,S01
7680,-8.10677,0.24421,4.73813,0.3659,-2.0122,-1.1585,0.00,0.00,0.00,0,S01
7700,-8.10677,0.28970,4.72376,-0.5488,-2.9268,-0.6098,0.00,0.00,0.00,0,S01
7720,-7.98945,0.16759,4.74770,-2.9268,-3.5366,0.1220,0.00,0.00,0.00,0,S01
7740,-7.98945,0.16759,4.74770,-2.9268,-3.5366,0.1220,0.00,0.00,0.00,0,S01
7760,-7.93917,0.14844,4.76925,-2.9268,-2.9268,0.2439,0.00,0.00,0.00,0,S01
7780,-8.00621,0.14605,4.75728,-2.7439,-2.5610,0.1220,0.00,0.00,0.00,0,S01
7800,-7.99185,0.12450,4.78601,-2.6220,-2.2561,-0.3049,0.00,0.00,0.00,0,S01
7820,-7.96311,0.11971,4.91290,-1.8293,-1.4634,-0.8537,0.00,0.00,0.00,0,S01
7840,-8.02058,0.16041,4.91530,-0.7317,-1.6463,-1.4634,0.00,0.00,0.00,0,S01
7860,-8.03494,0.21308,4.86262,0.0610,-2.6220,-1.8902,0.00,0.00,0.00,0,S01
7880,-7.97030,0.13168,4.86981,0.1220,-3.2927,-1.8902,0.00,0.00,0.00,0,S01
7900,-7.95354,0.10534,4.95839,0.0000,-3.2317,-1.7073,0.00,0.00,0.00,0,S01
7920,-7.97269,0.16041,4.97036,-0.7317,-3.2317,-1.3415,0.00,0.00,0.00,0,S01
7940,-7.95833,0.23942,4.86741,-1.5854,-3.4146,-1.0976,0.00,0.00,0.00,0,S01
7960,-7.93917,0.24421,4.79798,-2.0122,-2.9268,-1.2195,0.00,0.00,0.00,0,S01
7980,-7.94396,0.11492,4.85784,-1.9512,-1.7683,-1.0976,0.00,0.00,0.00,0,S01
8000,-8.01100,0.03112,4.93924,-1.3415,-1.0366,-0.9756,0.00,0.00,0.00,0,S01
8020,-7.95114,0.11732,4.92966,-0.5488,-1.0976,-1.3415,0.00,0.00,0.00,0,S01
8040,-7.89847,0.18196,4.88657,0.0000,-0.6098,-1.8293,0.00,0.00,0.00,0,S01
8060,-8.00382,0.15802,4.91530,0.6707,-0.1220,-2.3780,0.00,0.00,0.00,0,S01
8080,-8.05888,0.13647,4.93924,1.4024,-0.9756,-2.6220,0.00,0.00,0.00,0,S01
8100,-7.96072,0.16041,4.92727,1.8293,-2.1341,-2.6829,0.00,0.00,0.00,0,S01
8120,-7.90326,0.19872,4.91290,1.8902,-2.0732,-2.8049,0.00,0.00,0.00,0,S01
8140,-7.87932,0.14605,4.98473,1.4634,-1.6463,-2.6829,0.00,0.00,0.00,0,S01
8160,-7.85777,0.08859,4.92487,0.9756,-1.7073,-2.4390,0.00,0.00,0.00,0,S01
8180,-7.87692,0.02873,4.90811,0.2439,-1.0976,-2.0122,0.00,0.00,0.00,0,S01
8200,-7.91284,0.00718,5.02543,-0.6098,0.0610,-1.7683,0.00,0.00,0.00,0,S01
8220,-7.97987,0.00718,5.03261,-0.4878,0.1220,-1.8902,0.00,0.00,0.00,0,S01
8240,-7.95593,0.05746,5.01346,0.0610,-1.2195,-2.1341,0.00,0.00,0.00,0,S01
8260,-7.90087,0.12450,4.95600,0.3049,-2.2561,-2.0732,0.00,0.00,0.00,0,S01
8280,-7.85538,0.21787,4.90811,0.4878,-1.5854,-2.1341,0.00,0.00,0.00,0,S01
8300,-7.88650,0.27533,4.90811,0.4878,0.2439,-2.0732,0.00,0.00,0.00,0,S01
8320,-7.91523,0.26815,4.93206,0.4268,1.7073,-1.8902,0.00,0.00,0.00,0,S01
8340,-7.93438,0.22505,4.94403,0.2439,2.5000,-1.5854,0.00,0.00,0.00,0,S01
8360,-7.94396,0.19632,4.90093,0.3659,2.6829,-1.4634,0.00,0.00,0.00,0,S01
8380,-7.95354,0.12450,4.96557,0.6098,2.6220,-1.5244,0.00,0.00,0.00,0,S01
8400,-7.98227,0.09337,5.00388,1.0366,1.2195,-2.0732,0.00,0.00,0.00,0,S01
8420,-7.99663,0.11253,4.97276,1.2805,-0.5488,-2.5610,0.00,0.00,0.00,0,S01
8440,-7.94636,0.14605,4.92727,1.7073,-0.4878,-2.6220,0.00,0.00,0.00,0,S01
8460,-7.93438,0.25379,4.84826,0.6707,0.7927,-2.1341,0.00,0.00,0.00,0,S01
8480,-8.01579,0.20351,4.92727,-0.9756,0.6707,-1.5854,0.00,0.00,0.00,0,S01
8500,-8.02297,0.03831,5.01106,-2.1951,-0.4268,-0.9756,0.00,0.00,0.00,0,S01
8520,-7.92720,-0.03591,4.99191,-2.0122,-1.7683,-0.7317,0.00,0.00,0.00,0,S01
8540,-7.89129,0.07422,5.01106,-1.5854,-1.5244,-0.9146,0.00,0.00,0.00,0,S01
8560,-7.83143,0.13168,5.00388,-2.2561,-0.7317,-0.7927,0.00,0.00,0.00,0,S01
8580,-7.87214,0.13408,4.96797,-2.3780,0.1220,-0.8537,0.00,0.00,0.00,0,S01
8600,-7.97509,0.13886,4.99670,-1.2195,0.6098,-1.2805,0.00,0.00,0.00,0,S01
8620,-8.00382,0.14605,4.98473,-0.3659,0.0000,-1.2805,0.00,0.00,0.00,0,S01
8640,-7.91044,0.13168,4.94163,-0.4268,-0.7317,-0.9756,0.00,0.00,0.00,0,S01
8660,-7.89847,0.13886,4.92248,-0.9756,-0.6098,-0.9146,0.00,0.00,0.00,0,S01
8680,-7.92720,0.14126,4.97994,-1.2805,-0.2439,-0.9756,0.00,0.00,0.00,0,S01
8700,-7.94157,0.14844,5.00628,-1.0366,-0.4268,-0.9756,0.00,0.00,0.00,0,S01
8720,-7.93917,0.14844,5.01585,-0.7317,-0.8537,-0.8537,0.00,0.00,0.00,0,S01
8740,-7.92241,0.12929,5.00867,-0.9146,-1.3415,-0.7317,0.00,0.00,0.00,0,S01
8760,-7.90565,0.13408,4.99909,-0.9146,-1.6463,-0.7317,0.00,0.00,0.00,0,S01
8780,-7.92481,0.12689,4.99191,-0.7927,-1.8293,-0.7927,0.00,0.00,0.00,0,S01
8800,-7.91762,0.12210,5.00867,-0.5488,-2.1951,-0.7927,0.00,0.00,0.00,0,S01
8820,-7.79552,0.12689,4.97994,-0.6098,-1.2805,-0.8537,0.00,0.00,0.00,0,S01
8840,-7.79552,0.12689,4.97994,-0.6098,-1.2805,-0.8537,0.00,0.00,0.00,0,S01
8860,-7.88171,0.13886,5.00628,-0.6098,0.1829,-1.1585,0.00,0.00,0.00,0,S01
8880,-7.92960,0.13168,5.03740,-0.4268,0.4878,-1.3415,0.00,0.00,0.00,0,S01
8900,-7.86016,0.10056,5.04458,-0.1220,0.4268,-1.4024,0.00,0.00,0.00,0,S01
8920,-7.80270,0.08140,5.05416,-0.3049,1.0976,-1.3415,0.00,0.00,0.00,0,S01
8940,-7.89847,0.10295,5.05416,-0.6707,2.0732,-1.4634,0.00,0.00,0.00,0,S01
8960,-7.95354,0.13886,5.04458,-0.3049,1.8902,-1.8902,0.00,0.00,0.00,0,S01
8980,-7.90565,0.16520,5.00149,0.3049,1.2805,-2.1341,0.00,0.00,0.00,0,S01
9000,-7.87932,0.16999,4.98712,0.2439,1.4024,-2.0122,0.00,0.00,0.00,0,S01
9020,-7.87453,0.15323,4.99909,-0.3659,1.7073,-1.7683,0.00,0.00,0.00,0,S01
9040,-7.89368,0.15083,4.98473,-0.4268,2.3171,-1.8293,0.00,0.00,0.00,0,S01
9060,-7.95833,0.14844,4.94163,-0.3049,2.6220,-1.9512,0.00,0.00,0.00,0,S01
9080,-8.00621,0.14126,4.93924,-0.5488,2.5000,-1.7683,0.00,0.00,0.00,0,S01
9100,-8.03494,0.13647,4.96797,-0.7317,1.8293,-1.5244,0.00,0.00,0.00,0,S01
9120,-7.98706,0.12929,4.88417,-0.7317,0.7927,-1.4024,0.00,0.00,0.00,0,S01
9140,-7.89129,0.11253,4.85544,-0.6098,0.6707,-1.3415,0.00,0.00,0.00,0,S01
9160,-7.95833,0.10774,4.90333,-0.7317,1.4634,-1.2195,0.00,0.00,0.00,0,S01
9180,-8.05170,0.07901,4.93924,-1.2195,1.0366,-0.9756,0.00,0.00,0.00,0,S01
9200,-7.96311,0.06704,4.92248,-1.2195,-0.0610,-0.9146,0.00,0.00,0.00,0,S01
9220,-7.90087,0.08619,4.90093,-0.9756,0.0000,-1.0976,0.00,0.00,0.00,0,S01
9240,-7.94157,0.09577,4.91530,-0.6707,0.6707,-1.2195,0.00,0.00,0.00,0,S01
9260,-7.92720,0.11971,4.94163,-0.4878,1.2195,-1.1585,0.00,0.00,0.00,0,S01
9280,-7.87932,0.10774,4.93445,-0.6707,2.0122,-1.0366,0.00,0.00,0.00,0,S01
9300,-7.91762,0.09098,4.93206,-0.9756,2.9878,-0.9756,0.00,0.00,0.00,0,S01
9320,-7.97748,0.11013,4.96557,-1.0366,3.5366,-1.0366,0.00,0.00,0.00,0,S01
9340,-7.98227,0.14126,4.95360,-0.9146,3.2927,-0.9756,0.00,0.00,0.00,0,S01
9360,-7.93199,0.12929,4.88657,-1.2805,2.9878,-0.7927,0.00,0.00,0.00,0,S01
9380,-7.91762,0.12929,4.84586,-1.8293,3.3537,-0.6707,0.00,0.00,0.00,0,S01
9400,-7.97269,0.15802,4.87459,-1.7683,4.2683,-0.7927,0.00,0.00,0.00,0,S01
9420,-8.00382,0.15802,4.89854,-1.5854,4.5122,-0.7317,0.00,0.00,0.00,0,S01
9440,-7.99663,0.12689,4.89135,-1.5854,4.0854,-0.6707,0.00,0.00,0.00,0,S01
9460,-8.00382,0.11253,4.88417,-1.5244,3.5976,-0.6707,0.00,0.00,0.00,0,S01
9480,-8.01339,0.14605,4.84347,-1.2805,3.2927,-0.9146,0.00,0.00,0.00,0,S01
9500,-8.01100,0.15323,4.83629,-1.0976,3.1098,-1.0366,0.00,0.00,0.00,0,S01
9520,-8.03494,0.12210,4.85065,-0.9756,2.8049,-1.0976,0.00,0.00,0.00,0,S01
9540,-8.03734,0.11013,4.87699,-0.7317,2.1951,-1.1585,0.00,0.00,0.00,0,S01
9560,-8.00621,0.10534,4.86981,-0.3049,1.8293,-1.2195,0.00,0.00,0.00,0,S01
9580,-7.99424,0.12450,4.85065,-0.1220,1.7683,-1.2805,0.00,0.00,0.00,0,S01
9600,-7.97509,0.14365,4.82910,0.0610,1.8902,-1.4634,0.00,0.00,0.00,0,S01
9620,-8.00621,0.13408,4.83629,0.0000,2.0732,-1.6463,0.00,0.00,0.00,0,S01
9640,-8.03015,0.12450,4.82432,0.1220,2.0732,-1.7683,0.00,0.00,0.00,0,S01
9660,-8.05170,0.12450,4.78601,0.3659,1.7073,-1.7683,0.00,0.00,0.00,0,S01
9680,-8.05170,0.10534,4.73334,0.4878,1.3415,-1.7073,0.00,0.00,0.00,0,S01
9700,-8.05170,0.08140,4.75249,0.4878,1.0976,-1.7683,0.00,0.00,0.00,0,S01
9720,-8.05888,0.07901,4.78840,0.4878,0.8537,-1.8902,0.00,0.00,0.00,0,S01
9740,-8.05888,0.12929,4.80516,0.4268,0.9756,-1.9512,0.00,0.00,0.00,0,S01
9760,-8.02297,0.14126,4.77643,0.3049,1.4024,-1.7683,0.00,0.00,0.00,0,S01
9780,-8.00621,0.15323,4.74052,0.2439,2.1341,-1.7683,0.00,0.00,0.00,0,S01
9800,-8.00621,0.16041,4.76686,0.3049,2.6220,-1.8902,0.00,0.00,0.00,0,S01
9820,-8.01339,0.11253,4.77643,0.4878,2.8049,-1.9512,0.00,0.00,0.00,0,S01
9840,-8.04212,0.11492,4.80995,0.3659,2.6829,-1.8902,0.00,0.00,0.00,0,S01
9860,-8.07325,0.09098,4.80037,-0.1829,2.1951,-1.7073,0.00,0.00,0.00,0,S01
9880,-8.09480,0.06464,4.75967,-0.5488,1.4024,-1.5244,0.00,0.00,0.00,0,S01
9900,-8.09958,0.07901,4.68545,-0.6098,0.4878,-1.4634,0.00,0.00,0.00,0,S01
9920,-8.08522,0.10295,4.64954,-1.1585,-0.1220,-1.0366,0.00,0.00,0.00,0,S01
9940,-8.08522,0.10295,4.64954,-1.1585,-0.1220,-1.0366,0.00,0.00,0.00,0,S01
9960,-8.04452,0.12689,4.65193,-1.2805,0.4878,-0.9146,0.00,0.00,0.00,0,S01
9980,-8.04212,0.12689,4.69742,-1.3415,1.5244,-0.8537,0.00,0.00,0.00,0,S01
10000,-8.07325,0.11013,4.75010,-1.1585,2.4390,-0.8537,0.00,0.00,0.00,0,S01
10020,-8.07085,0.09337,4.76446,-0.7927,2.6220,-0.7927,0.00,0.00,0.00,0,S01
10040,-8.04931,0.10056,4.76925,-0.4878,2.2561,-0.8537,0.00,0.00,0.00,0,S01
10060,-8.04212,0.13408,4.75728,-0.4878,2.0122,-0.9756,0.00,0.00,0.00,0,S01
10080,-8.04931,0.13886,4.75249,-0.5488,1.8293,-1.1585,0.00,0.00,0.00,0,S01
10100,-8.07085,0.15323,4.73573,-0.2439,1.8293,-1.2805,0.00,0.00,0.00,0,S01
10120,-8.08522,0.14126,4.70700,0.2439,1.7683,-1.4024,0.00,0.00,0.00,0,S01
10140,-8.08761,0.14365,4.66869,0.3659,1.7683,-1.4024,0.00,0.00,0.00,0,S01
10160,-8.09958,0.13408,4.64954,0.0610,1.9512,-1.3415,0.00,0.00,0.00,0,S01
10180,-8.10198,0.13408,4.60884,-0.2439,2.1341,-1.4024,0.00,0.00,0.00,0,S01
10200,-8.09480,0.14365,4.61841,-0.2439,2.3780,-1.4634,0.00,0.00,0.00,0,S01
10220,-8.10677,0.12210,4.63278,-0.3049,2.6829,-1.2805,0.00,0.00,0.00,0,S01
10240,-8.11395,0.09577,4.66869,-0.5488,2.8049,-0.9146,0.00,0.00,0.00,0,S01
10260,-8.10437,0.07183,4.69503,-0.9146,2.6220,-0.6098,0.00,0.00,0.00,0,S01
10280,-8.11874,0.08380,4.65912,-1.2805,2.3171,-0.6098,0.00,0.00,0.00,0,S01
10300,-8.11874,0.12450,4.65193,-1.2805,2.0122,-0.9146,0.00,0.00,0.00,0,S01
10320,-8.11874,0.15083,4.61363,-0.9146,1.8293,-1.0366,0.00,0.00,0.00,0,S01
10340,-8.14507,0.14365,4.63757,-0.9146,1.7073,-0.7927,0.00,0.00,0.00,0,S01
10360,-8.15226,0.12689,4.61841,-1.2195,1.2805,-0.3659,0.00,0.00,0.00,0,S01
10380,-8.13550,0.11013,4.59687,-1.2805,0.9146,-0.3659,0.00,0.00,0.00,0,S01
10400,-8.14507,0.13647,4.56814,-1.0976,0.4268,-0.7317,0.00,0.00,0.00,0,S01
10420,-8.17380,0.13886,4.62320,-1.2805,-0.3659,-1.0366,0.00,0.00,0.00,0,S01
10440,-8.17380,0.14844,4.67588,-1.1585,-1.1585,-1.1585,0.00,0.00,0.00,0,S01
10460,-8.09719,0.14844,4.64236,-0.6098,-1.7683,-1.2805,0.00,0.00,0.00,0,S01
10480,-8.03734,0.14365,4.61363,-0.2439,-1.7073,-1.5244,0.00,0.00,0.00,0,S01
10500,-8.06128,0.11732,4.64715,-0.4268,-1.0366,-1.5854,0.00,0.00,0.00,0,S01
10520,-8.12113,0.06704,4.66151,-0.7927,-0.7317,-1.3415,0.00,0.00,0.00,0,S01
10540,-8.15705,0.05267,4.67588,-0.9756,-1.0366,-1.2195,0.00,0.00,0.00,0,S01
10560,-8.12353,0.07661,4.64236,-0.9146,-1.8902,-1.3415,0.00,0.00,0.00,0,S01
10580,-8.06367,0.11013,4.60405,-0.6707,-1.9512,-1.5854,0.00,0.00,0.00,0,S01
10600,-8.07085,0.12450,4.62560,-0.4268,-1.0366,-1.6463,0.00,0.00,0.00,0,S01
10620,-8.11395,0.13408,4.65672,-0.2439,-0.4268,-1.6463,0.00,0.00,0.00,0,S01
10640,-8.14029,0.12210,4.69742,-0.4878,-0.7317,-1.4634,0.00,0.00,0.00,0,S01
10660,-8.11395,0.11013,4.69264,-0.6707,-1.2805,-1.4024,0.00,0.00,0.00,0,S01
10680,-8.07804,0.11732,4.65912,-0.6098,-1.2805,-1.4024,0.00,0.00,0.00,0,S01
10700,-8.08282,0.12689,4.65433,-0.5488,-1.0366,-1.3415,0.00,0.00,0.00,0,S01
10720,-8.12113,0.11732,4.69742,-0.7317,-1.0366,-1.2805,0.00,0.00,0.00,0,S01
10740,-8.12592,0.11971,4.70461,-1.0366,-1.4634,-1.1585,0.00,0.00,0.00,0,S01
10760,-8.08282,0.14126,4.69024,-1.1585,-1.7683,-1.0366,0.00,0.00,0.00,0,S01
10780,-8.06367,0.15083,4.69024,-1.1585,-1.7683,-1.0976,0.00,0.00,0.00,0,S01
10800,-8.07325,0.14365,4.70221,-1.1585,-1.7073,-1.1585,0.00,0.00,0.00,0,S01
10820,-8.08282,0.13168,4.69742,-1.0366,-1.7683,-1.2195,0.00,0.00,0.00,0,S01
10840,-8.06607,0.12689,4.70700,-0.9146,-1.5854,-1.0976,0.00,0.00,0.00,0,S01
10860,-8.03494,0.09098,4.71658,-0.6707,-1.1585,-1.0976,0.00,0.00,0.00,0,S01
10880,-8.07325,0.08859,4.76686,-0.4268,-1.0976,-1.4634,0.00,0.00,0.00,0,S01
10900,-8.08043,0.11253,4.75249,-0.5488,-1.4024,-1.4634,0.00,0.00,0.00,0,S01
10920,-8.06607,0.11253,4.73334,-0.6098,-1.5854,-1.2805,0.00,0.00,0.00,0,S01
10940,-8.05888,0.11492,4.72137,-0.4878,-1.5244,-1.1585,0.00,0.00,0.00,0,S01
10960,-8.04452,0.12450,4.72615,-0.6098,-1.5854,-1.1585,0.00,0.00,0.00,0,S01
10980,-8.05409,0.12210,4.74531,-0.9756,-1.8293,-1.1585,0.00,0.00,0.00,0,S01
11000,-8.03734,0.11971,4.78362,-1.2195,-1.9512,-1.0366,0.00,0.00,0.00,0,S01
11020,-8.02776,0.12689,4.81235,-0.8537,-1.7073,-1.0976,0.00,0.00,0.00,0,S01
11040,-8.02297,0.12450,4.80995,-0.6098,-1.5244,-1.1585,0.00,0.00,0.00,0,S01
11060,-8.04212,0.11492,4.81474,-0.6707,-1.7683,-1.2195,0.00,0.00,0.00,0,S01
11080,-8.06128,0.08140,4.80277,-0.8537,-2.1951,-1.1585,0.00,0.00,0.00,0,S01
11100,-8.03734,0.08859,4.79798,-0.9146,-2.5000,-1.0976,0.00,0.00,0.00,0,S01
11120,-7.98706,0.11732,4.79319,-0.8537,-2.1951,-1.0366,0.00,0.00,0.00,0,S01
11140,-7.97748,0.10534,4.82671,-0.9756,-1.5854,-1.1585,0.00,0.00,0.00,0,S01
11160,-8.01100,0.10534,4.83868,-0.8537,-1.2195,-1.2805,0.00,0.00,0.00,0,S01
11180,-8.03494,0.08619,4.84108,-0.6707,-1.0366,-1.1585,0.00,0.00,0.00,0,S01
11200,-8.02536,0.07661,4.84347,-0.7317,-1.3415,-0.9756,0.00,0.00,0.00,0,S01
11220,-8.01100,0.09337,4.83629,-0.8537,-1.7073,-0.8537,0.00,0.00,0.00,0,S01
11240,-7.97987,0.11253,4.83629,-0.9756,-1.9512,-0.9146,0.00,0.00,0.00,0,S01
11260,-7.98706,0.13168,4.80516,-0.9756,-1.8293,-1.0976,0.00,0.00,0.00,0,S01
11280,-8.01818,0.14126,4.81235,-1.0366,-1.5244,-1.1585,0.00,0.00,0.00,0,S01
11300,-7.98706,0.12929,4.83868,-0.9756,-1.2195,-1.1585,0.00,0.00,0.00,0,S01
11320,-7.96551,0.09816,4.84826,-0.4878,-0.7927,-1.2805,0.00,0.00,0.00,0,S01
11340,-7.96551,0.11253,4.85305,0.1829,-0.3049,-1.5244,0.00,0.00,0.00,0,S01
11360,-7.99185,0.10056,4.88417,0.0000,-0.3659,-1.6463,0.00,0.00,0.00,0,S01
11380,-7.99185,0.10774,4.85065,-0.3659,-0.8537,-1.7073,0.00,0.00,0.00,0,S01
11400,-8.00142,0.11971,4.84826,-0.7317,-0.7927,-1.4634,0.00,0.00,0.00,0,S01
11420,-8.05409,0.12929,4.86262,-1.2195,-0.9756,-0.9756,0.00,0.00,0.00,0,S01
11440,-8.08282,0.12689,4.83389,-1.5854,-2.0732,-0.4878,0.00,0.00,0.00,0,S01
11460,-8.04452,0.08380,4.82432,-2.0122,-2.9878,0.1220,0.00,0.00,0.00,0,S01
11480,-7.94636,0.07661,4.85305,-2.5000,-3.1098,0.6098,0.00,0.00,0.00,0,S01
11500,-7.90087,0.12210,4.83389,-2.8049,-2.4390,0.6098,0.00,0.00,0.00,0,S01
11520,-7.92720,0.11732,4.84347,-3.2927,-1.2195,0.4878,0.00,0.00,0.00,0,S01
11540,-7.97509,0.13408,4.89854,-3.7805,-0.3659,0.6098,0.00,0.00,0.00,0,S01
11560,-7.92960,0.13408,4.97755,-4.3293,-0.3049,0.9146,0.00,0.00,0.00,0,S01
11580,-7.87453,0.14126,4.97515,-4.2683,-0.0610,1.0366,0.00,0.00,0.00,0,S01
11600,-7.89368,0.10056,5.00149,-3.8415,0.4878,0.8537,0.00,0.00,0.00,0,S01
11620,-7.94157,0.06704,5.02782,-3.2317,0.4268,0.4268,0.00,0.00,0.00,0,S01
11640,-7.94396,0.07183,4.98952,-2.3171,-0.1220,-0.1220,0.00,0.00,0.00,0,S01
11660,-7.96072,0.10056,4.94403,-1.4024,-0.3659,-0.6098,0.00,0.00,0.00,0,S01
11680,-7.96790,0.11971,4.91051,-1.0976,-0.7927,-0.8537,0.00,0.00,0.00,0,S01
11700,-7.99185,0.10295,4.89854,-1.2805,-1.4634,-0.9146,0.00,0.00,0.00,0,S01
11720,-8.01100,0.11253,4.94881,-0.9756,-2.0732,-1.0976,0.00,0.00,0.00,0,S01
11740,-7.95354,0.11492,4.95839,-0.3659,-2.8049,-1.2195,0.00,0.00,0.00,0,S01
11760,-7.89368,0.07183,4.90093,0.0000,-2.9268,-1.4634,0.00,0.00,0.00,0,S01
11780,-7.92481,0.07661,4.93206,-0.0610,-2.4390,-1.5854,0.00,0.00,0.00,0,S01
11800,-7.91044,0.09816,4.99909,-0.9756,-2.1951,-1.4024,0.00,0.00,0.00,0,S01
11820,-7.85538,0.13647,5.00628,-1.7683,-1.8902,-1.2195,0.00,0.00,0.00,0,S01
11840,-7.86256,0.15083,4.98952,-2.0732,-1.1585,-1.1585,0.00,0.00,0.00,0,S01
11860,-7.91044,0.12929,4.99670,-1.8902,-0.4268,-1.1585,0.00,0.00,0.00,0,S01
11880,-7.91044,0.14126,4.97515,-1.8293,0.0000,-1.0366,0.00,0.00,0.00,0,S01
11900,-7.88889,0.14126,4.93924,-2.0122,0.4268,-1.1585,0.00,0.00,0.00,0,S01
11920,-7.91284,0.10774,4.92487,-1.9512,0.9146,-1.3415,0.00,0.00,0.00,0,S01
11940,-7.96072,0.08380,4.92727,-1.3415,1.4024,-1.2805,0.00,0.00,0.00,0,S01
11960,-7.94157,0.06704,4.91290,-1.4634,1.7073,-0.7927,0.00,0.00,0.00,0,S01
11980,-7.92241,0.03591,4.93445,-2.3780,2.0732,-0.4268,0.00,0.00,0.00,0,S01
12000,-7.91284,0.01915,4.91530,-2.6220,2.5000,-0.5488,0.00,0.00,0.00,0,S01
12020,-7.92481,0.04070,4.92727,-1.9512,3.0488,-0.7927,0.00,0.00,0.00,0,S01
12040,-7.92960,0.06464,4.92727,-1.8902,3.6585,-0.6707,0.00,0.00,0.00,0,S01
12060,-7.93438,0.07422,4.97036,-2.4390,3.9024,-0.4878,0.00,0.00,0.00,0,S01
12080,-7.93678,0.07661,4.98473,-2.8049,3.6585,-0.5488,0.00,0.00,0.00,0,S01
12100,-7.93199,0.06225,4.94403,-2.5000,3.2927,-0.5488,0.00,0.00,0.00,0,S01
12120,-8.00142,0.10056,4.90572,-1.2805,2.9268,-1.2805,0.00,0.00,0.00,0,S01
12140,-7.96790,0.17478,4.87699,-0.7927,2.5000,-1.2805,0.00,0.00,0.00,0,S01
12160,-7.93438,0.15083,4.83629,-0.9146,2.7439,-1.0366,0.00,0.00,0.00,0,S01
12180,-7.97030,0.13168,4.85544,-0.9146,3.7195,-1.1585,0.00,0.00,0.00,0,S01
12200,-8.02297,0.09816,4.87220,-0.3659,4.0854,-1.2805,0.00,0.00,0.00,0,S01
12220,-8.02058,0.04549,4.87938,0.0000,3.5976,-1.2195,0.00,0.00,0.00,0,S01
12240,-8.01818,0.01197,4.86023,-0.1220,3.0488,-0.9756,0.00,0.00,0.00,0,S01
12260,-8.02297,0.03112,4.83389,-0.4878,2.6220,-0.9146,0.00,0.00,0.00,0,S01
12280,-8.02776,0.06225,4.80995,-0.7927,2.2561,-0.8537,0.00,0.00,0.00,0,S01
12300,-8.02776,0.07901,4.80756,-0.6707,2.0732,-0.7317,0.00,0.00,0.00,0,S01
12320,-8.03494,0.07422,4.80037,0.0000,2.1341,-0.7317,0.00,0.00,0.00,0,S01
12340,-8.03973,0.07901,4.80037,0.3049,2.3171,-0.7317,0.00,0.00,0.00,0,S01
12360,-8.04212,0.08619,4.80756,-0.1220,2.2561,-0.6707,0.00,0.00,0.00,0,S01
12380,-8.03494,0.08380,4.82192,-0.4878,1.8293,-0.7317,0.00,0.00,0.00,0,S01
12400,-7.99663,0.09577,4.81235,-0.2439,1.6463,-0.8537,0.00,0.00,0.00,0,S01
12420,-7.98706,0.11732,4.80516,0.1220,1.7683,-0.9146,0.00,0.00,0.00,0,S01
12440,-8.01818,0.10774,4.82192,0.2439,2.1341,-0.8537,0.00,0.00,0.00,0,S01
12460,-8.07085,0.09577,4.80756,0.3049,2.3780,-0.8537,0.00,0.00,0.00,0,S01
12480,-8.09958,0.08619,4.81235,0.2439,1.7683,-0.9146,0.00,0.00,0.00,0,S01
12500,-8.09001,0.09577,4.75249,0.3659,0.4268,-0.8537,0.00,0.00,0.00,0,S01
12520,-8.04691,0.11013,4.71179,0.3659,-0.3049,-0.8537,0.00,0.00,0.00,0,S01
12540,-8.06367,0.13168,4.71179,0.0610,-0.3049,-0.7927,0.00,0.00,0.00,0,S01
12560,-8.07085,0.12689,4.74770,-0.1220,-0.4878,-0.7927,0.00,0.00,0.00,0,S01
12580,-8.04691,0.12210,4.76446,0.0610,-1.2195,-0.9756,0.00,0.00,0.00,0,S01
12600,-8.01818,0.11492,4.77404,0.5488,-1.5854,-1.1585,0.00,0.00,0.00,0,S01
12620,-7.98945,0.13647,4.80516,0.6707,-1.3415,-1.2805,0.00,0.00,0.00,0,S01
12640,-8.00861,0.13168,4.84108,0.3659,-1.2805,-1.2805,0.00,0.00,0.00,0,S01
12660,-8.00142,0.14126,4.83389,0.1220,-1.5244,-1.4024,0.00,0.00,0.00,0,S01
12680,-7.96311,0.15323,4.80756,0.1829,-1.4634,-1.5854,0.00,0.00,0.00,0,S01
12700,-7.97748,0.16759,4.82910,0.3049,-0.6707,-1.5854,0.00,0.00,0.00,0,S01
12720,-8.00861,0.13647,4.86502,0.0610,-0.3049,-1.5244,0.00,0.00,0.00,0,S01
12740,-8.03734,0.13168,4.86023,-0.0610,-0.7927,-1.5244,0.00,0.00,0.00,0,S01
12760,-8.03973,0.11732,4.80277,-0.3049,-1.4634,-1.4634,0.00,0.00,0.00,0,S01
12780,-8.02297,0.14605,4.72855,-0.4878,-1.5854,-1.5854,0.00,0.00,0.00,0,S01
12800,-8.02058,0.13647,4.78840,-0.9756,-0.9146,-1.5854,0.00,0.00,0.00,0,S01
12820,-8.01818,0.11732,4.86023,-1.2805,-0.6707,-1.5244,0.00,0.00,0.00,0,S01
12840,-8.01579,0.12689,4.84347,-1.2195,-1.0366,-1.4634,0.00,0.00,0.00,0,S01
12860,-8.08282,0.13647,4.78601,-1.7683,-1.4634,-1.2805,0.00,0.00,0.00,0,S01
12880,-8.17141,0.11253,4.83868,-2.3780,-2.2561,-0.9756,0.00,0.00,0.00,0,S01
12900,-8.11395,0.03352,4.88896,-2.8659,-4.1463,-0.6098,0.00,0.00,0.00,0,S01
12920,-7.92002,0.03831,4.90333,-2.2561,-5.1829,-0.6098,0.00,0.00,0.00,0,S01
12940,-7.90565,0.09098,4.91290,-0.3049,-4.5122,-1.0976,0.00,0.00,0.00,0,S01
12960,-7.90326,0.13647,4.90811,1.4634,-3.4146,-1.4024,0.00,0.00,0.00,0,S01
12980,-7.82665,0.12450,4.92487,1.6463,-2.0122,-1.5244,0.00,0.00,0.00,0,S01
13000,-7.86495,0.10295,4.87699,1.6463,-0.9146,-1.9512,0.00,0.00,0.00,0,S01
13020,-7.91523,0.07661,4.91290,1.9512,-0.1220,-2.5610,0.00,0.00,0.00,0,S01
13040,-7.90326,0.10056,4.95600,2.7439,0.1829,-2.9878,0.00,0.00,0.00,0,S01
13060,-7.88650,0.13168,4.93206,3.2317,0.4878,-3.0488,0.00,0.00,0.00,0,S01
13080,-7.94396,0.11971,4.92487,2.6220,0.9146,-2.8049,0.00,0.00,0.00,0,S01
13100,-7.98706,0.08859,4.94403,1.9512,0.9146,-2.5610,0.00,0.00,0.00,0,S01
13120,-7.93199,0.11732,4.88896,1.8293,0.7317,-2.5000,0.00,0.00,0.00,0,S01
13140,-7.89368,0.16281,4.84347,2.1341,1.7683,-2.5610,0.00,0.00,0.00,0,S01
13160,-8.00142,0.16281,4.86741,2.1341,3.0488,-2.5610,0.00,0.00,0.00,0,S01
13180,-8.03973,0.16759,4.87220,1.6463,2.7439,-2.1951,0.00,0.00,0.00,0,S01
13200,-7.94396,0.14365,4.87699,0.7927,1.9512,-1.7073,0.00,0.00,0.00,0,S01
13220,-7.92481,0.15323,4.84826,0.6098,2.1341,-1.7683,0.00,0.00,0.00,0,S01
13240,-7.95354,0.15323,4.89135,0.7317,2.6220,-1.9512,0.00,0.00,0.00,0,S01
13260,-7.94875,0.11971,4.95600,0.4878,2.5610,-1.9512,0.00,0.00,0.00,0,S01
13280,-7.97030,0.11732,4.93924,0.4268,2.1951,-2.0122,0.00,0.00,0.00,0,S01
13300,-8.00861,0.11492,4.88896,0.8537,1.8293,-2.1951,0.00,0.00,0.00,0,S01
13320,-7.99424,0.08859,4.80756,1.5244,1.2805,-2.3171,0.00,0.00,0.00,0,S01
13340,-7.97030,0.08859,4.80037,1.5854,1.8902,-2.4390,0.00,0.00,0.00,0,S01
13360,-8.01818,0.09577,4.77883,1.8902,2.8659,-2.6220,0.00,0.00,0.00,0,S01
13380,-8.10677,0.08140,4.83150,1.9512,2.6220,-2.5610,0.00,0.00,0.00,0,S01
13400,-8.07085,0.05986,4.87220,1.2805,0.7927,-2.1951,0.00,0.00,0.00,0,S01
13420,-8.00142,0.08380,4.83150,0.2439,-0.6098,-1.8293,0.00,0.00,0.00,0,S01
13440,-7.99424,0.13647,4.78122,-0.1220,-0.6098,-1.8902,0.00,0.00,0.00,0,S01
13460,-8.07085,0.20590,4.74531,0.6098,-0.2439,-2.1951,0.00,0.00,0.00,0,S01
13480,-8.13550,0.22745,4.74291,1.6463,-0.5488,-2.3780,0.00,0.00,0.00,0,S01
13500,-8.08522,0.19872,4.76446,1.8293,-1.2805,-2.0732,0.00,0.00,0.00,0,S01
13520,-8.00142,0.16520,4.77164,1.4024,-1.4634,-1.8293,0.00,0.00,0.00,0,S01
13540,-7.95833,0.16041,4.79080,1.0976,-0.8537,-1.8902,0.00,0.00,0.00,0,S01
13560,-7.96311,0.15802,4.82671,1.0366,0.0610,-1.9512,0.00,0.00,0.00,0,S01
13580,-7.95114,0.11732,4.89135,0.6098,0.6098,-1.7073,0.00,0.00,0.00,0,S01
13600,-7.96311,0.08380,4.96797,-0.3049,0.7317,-1.3415,0.00,0.00,0.00,0,S01
13620,-7.97509,0.09577,4.95600,-1.0366,0.3659,-1.0976,0.00,0.00,0.00,0,S01
13640,-7.94396,0.11253,4.87938,-1.0976,0.2439,-1.1585,0.00,0.00,0.00,0,S01
13660,-7.96311,0.11971,4.85305,-1.0366,0.5488,-1.1585,0.00,0.00,0.00,0,S01
13680,-7.98945,0.12450,4.86502,-1.2195,0.8537,-0.9756,0.00,0.00,0.00,0,S01
13700,-8.01818,0.11971,4.83389,-1.2195,0.8537,-0.8537,0.00,0.00,0.00,0,S01
13720,-8.00621,0.12210,4.80516,-1.1585,0.7927,-0.7927,0.00,0.00,0.00,0,S01
13740,-7.99663,0.10534,4.79080,-0.9756,0.7317,-1.0366,0.00,0.00,0.00,0,S01
13760,-8.02536,0.11013,4.80037,-0.6707,0.7317,-1.3415,0.00,0.00,0.00,0,S01
13780,-8.07804,0.13886,4.79798,-0.3049,0.4268,-1.6463,0.00,0.00,0.00,0,S01
13800,-8.08282,0.14844,4.78362,-0.1220,-0.3659,-1.6463,0.00,0.00,0.00,0,S01
13820,-8.05170,0.14126,4.79319,0.1220,-1.1585,-1.7073,0.00,0.00,0.00,0,S01
13840,-8.01100,0.13886,4.77883,0.5488,-1.4024,-1.8293,0.00,0.00,0.00,0,S01
13860,-8.01100,0.14844,4.79319,1.1585,-0.8537,-1.8902,0.00,0.00,0.00,0,S01
13880,-8.01579,0.12929,4.82671,0.9756,-0.1829,-1.6463,0.00,0.00,0.00,0,S01
13900,-8.00142,0.11253,4.85784,0.2439,-0.0610,-1.4024,0.00,0.00,0.00,0,S01
13920,-7.98945,0.13886,4.89614,-0.1220,-0.1220,-1.3415,0.00,0.00,0.00,0,S01
13940,-7.95593,0.14126,4.89854,-0.1829,-0.1220,-1.4024,0.00,0.00,0.00,0,S01
13960,-7.97987,0.13408,4.92248,0.2439,0.3049,-1.3415,0.00,0.00,0.00,0,S01
13980,-8.03494,0.10056,4.91290,0.4268,0.1220,-1.0976,0.00,0.00,0.00,0,S01
14000,-7.98227,0.09098,4.85305,0.0610,-0.9756,-0.9146,0.00,0.00,0.00,0,S01
14020,-7.90565,0.12689,4.81474,-0.2439,-0.9756,-0.9146,0.00,0.00,0.00,0,S01
14040,-7.94636,0.14126,4.87459,-0.6098,0.1829,-0.9146,0.00,0.00,0.00,0,S01
14060,-7.99185,0.15562,4.90333,-0.9756,0.7927,-0.9146,0.00,0.00,0.00,0,S01
14080,-8.02297,0.17478,4.84826,-0.7927,0.6098,-0.9756,0.00,0.00,0.00,0,S01
14100,-8.00861,0.17478,4.80995,-0.3049,0.0610,-1.1585,0.00,0.00,0.00,0,S01
14120,-8.01100,0.13647,4.81235,-0.0610,-0.0610,-1.1585,0.00,0.00,0.00,0,S01
14140,-8.02058,0.09577,4.82910,-0.1829,0.0610,-0.9756,0.00,0.00,0.00,0,S01
14160,-8.04691,0.08140,4.82671,-0.4268,-0.1829,-0.9146,0.00,0.00,0.00,0,S01
14180,-8.04212,0.11732,4.79319,-0.5488,-0.8537,-1.0366,0.00,0.00,0.00,0,S01
14200,-7.98227,0.15802,4.81713,-0.7317,-1.0366,-1.0976,0.00,0.00,0.00,0,S01
14220,-7.96790,0.18435,4.83150,-0.7317,-0.4878,-1.0976,0.00,0.00,0.00,0,S01
14240,-8.01579,0.19632,4.84108,-0.6098,-0.1829,-1.0976,0.00,0.00,0.00,0,S01
14260,-7.99424,0.15802,4.85065,-0.2439,-0.8537,-1.2195,0.00,0.00,0.00,0,S01
14280,-7.91523,0.11732,4.85065,0.2439,-0.9756,-1.3415,0.00,0.00,0.00,0,S01
14300,-7.90565,0.09577,4.90811,0.2439,-0.1220,-1.4024,0.00,0.00,0.00,0,S01
14320,-7.95354,0.09098,4.99670,-0.2439,0.3659,-1.3415,0.00,0.00,0.00,0,S01
14340,-7.98227,0.14605,4.96318,-0.8537,-0.3049,-1.1585,0.00,0.00,0.00,0,S01
14360,-8.01579,0.19393,4.90333,-1.2195,-1.2805,-0.9756,0.00,0.00,0.00,0,S01
14380,-7.99663,0.19632,4.81953,-1.0976,-1.8902,-0.9756,0.00,0.00,0.00,0,S01
14400,-7.98466,0.19632,4.81953,-0.8537,-1.4634,-1.0366,0.00,0.00,0.00,0,S01
14420,-8.01339,0.18196,4.84586,-0.6707,-0.9756,-1.0366,0.00,0.00,0.00,0,S01
14440,-8.00382,0.14844,4.86741,-0.8537,-1.4024,-0.9146,0.00,0.00,0.00,0,S01
14460,-7.96311,0.15802,4.84108,-0.9146,-1.5854,-0.8537,0.00,0.00,0.00,0,S01
14480,-7.94875,0.14844,4.83629,-1.2195,-1.2805,-0.7927,0.00,0.00,0.00,0,S01
14500,-7.99903,0.15323,4.87459,-1.5854,-0.9756,-0.8537,0.00,0.00,0.00,0,S01
14520,-8.03255,0.14365,4.94403,-1.3415,-1.5244,-1.0366,0.00,0.00,0.00,0,S01
14540,-7.88171,0.16041,4.94403,-1.1585,-3.1707,-0.6707,0.00,0.00,0.00,0,S01
14560,-7.82186,0.15083,4.91769,-2.0122,-2.3171,-0.3049,0.00,0.00,0.00,0,S01
14580,-7.86735,0.11492,4.98233,-2.8659,-0.9146,-0.3049,0.00,0.00,0.00,0,S01
14600,-7.92481,0.07422,5.05655,-2.9878,0.0610,-0.4878,0.00,0.00,0.00,0,S01
14620,-7.92481,0.09577,5.06852,-2.1341,0.1220,-0.6707,0.00,0.00,0.00,0,S01
14640,-7.93199,0.09098,5.02304,-1.1585,0.1220,-0.9146,0.00,0.00,0.00,0,S01
14660,-7.91284,0.09098,4.94403,-0.4268,0.1220,-1.1585,0.00,0.00,0.00,0,S01
14680,-7.94875,0.07901,4.89375,0.2439,0.3049,-1.7073,0.00,0.00,0.00,0,S01
14700,-7.99424,0.07183,4.94403,0.9146,0.6707,-2.0122,0.00,0.00,0.00,0,S01
14720,-7.97269,0.07422,4.98952,1.4024,1.0976,-1.7073,0.00,0.00,0.00,0,S01
14740,-7.94636,0.12929,4.94403,1.2805,0.9756,-1.4024,0.00,0.00,0.00,0,S01
14760,-7.92960,0.20590,4.91290,0.4268,0.6707,-1.2195,0.00,0.00,0.00,0,S01
14780,-7.92002,0.21308,4.92966,-0.4268,0.6098,-1.2805,0.00,0.00,0.00,0,S01
14800,-7.92720,0.25139,4.91769,-0.4268,0.7927,-1.2195,0.00,0.00,0.00,0,S01
14820,-7.96072,0.27773,4.90811,-0.1829,0.7927,-1.0976,0.00,0.00,0.00,0,S01
14840,-7.97748,0.22745,4.93924,-0.4878,0.2439,-0.8537,0.00,0.00,0.00,0,S01
14860,-7.96311,0.16520,4.97036,-0.7927,-0.4878,-0.7927,0.00,0.00,0.00,0,S01
14880,-7.92481,0.16041,4.91769,-0.7927,-0.7927,-0.6707,0.00,0.00,0.00,0,S01
14900,-7.95593,0.15083,4.91290,-0.9146,-0.6707,-0.6707,0.00,0.00,0.00,0,S01
14920,-7.97509,0.15083,4.94881,-1.0976,-0.6707,-0.7927,0.00,0.00,0.00,0,S01
14940,-7.97269,0.12929,4.99909,-0.8537,-0.9756,-1.0976,0.00,0.00,0.00,0,S01
14960,-7.92960,0.13168,4.97755,-0.0610,-1.2195,-1.2805,0.00,0.00,0.00,0,S01
14980,-7.94157,0.13647,4.96318,0.4268,-0.7317,-1.2805,0.00,0.00,0.00,0,S01
15000,-8.00142,0.13886,4.93924,0.1829,-0.9146,-1.4024,0.00,0.00,0.00,0,S01
15020,-7.93678,0.13647,4.92008,-0.2439,-1.2805,-1.6463,0.00,0.00,0.00,0,S01
15040,-7.85777,0.13408,4.92727,0.0000,-0.4878,-1.9512,0.00,0.00,0.00,0,S01
15060,-7.94636,0.12689,4.95360,0.7927,0.4268,-2.0122,0.00,0.00,0.00,0,S01
15080,-8.02297,0.08859,5.00149,0.4878,-0.6098,-1.3415,0.00,0.00,0.00,0,S01
15100,-7.91762,0.11732,4.99670,-0.7317,-2.6829,-0.7927,0.00,0.00,0.00,0,S01
15120,-7.78834,0.20351,4.91290,-1.6463,-3.6585,-0.9146,0.00,0.00,0.00,0,S01
15140,-7.83862,0.24660,4.87699,-1.8293,-2.1341,-1.4024,0.00,0.00,0.00,0,S01
15160,-8.01339,0.24181,4.95839,-1.2195,-0.7317,-1.6463,0.00,0.00,0.00,0,S01
15180,-8.01100,0.22027,4.97036,-0.1829,-1.5244,-1.7073,0.00,0.00,0.00,0,S01
15200,-7.87932,0.20351,4.98233,0.5488,-2.4390,-1.7073,0.00,0.00,0.00,0,S01
15220,-7.78834,0.19393,5.01106,0.5488,-2.0122,-1.8902,0.00,0.00,0.00,0,S01
15240,-7.81707,0.15802,5.04458,0.3049,-1.0366,-2.1951,0.00,0.00,0.00,0,S01
15260,-7.86974,0.10774,5.06613,0.2439,-0.3659,-2.2561,0.00,0.00,0.00,0,S01
15280,-7.85777,0.09577,5.04458,0.8537,0.3049,-2.5610,0.00,0.00,0.00,0,S01
15300,-7.84580,0.10534,5.07571,1.5244,1.1585,-2.9268,0.00,0.00,0.00,0,S01
15320,-7.88171,0.08859,5.07571,1.8902,1.3415,-3.0488,0.00,0.00,0.00,0,S01
15340,-7.89847,0.07661,5.09247,1.7683,0.8537,-2.8659,0.00,0.00,0.00,0,S01
15360,-7.85298,0.08859,5.02782,1.2195,0.2439,-2.5610,0.00,0.00,0.00,0,S01
15380,-7.87214,0.10295,4.94403,0.7927,0.5488,-2.3780,0.00,0.00,0.00,0,S01
15400,-7.93678,0.11971,4.97036,0.5488,1.2195,-2.3171,0.00,0.00,0.00,0,S01
15420,-7.95114,0.15802,5.00867,0.3659,1.0366,-2.1341,0.00,0.00,0.00,0,S01
15440,-7.90805,0.16999,4.98952,0.1220,0.4268,-1.9512,0.00,0.00,0.00,0,S01
15460,-7.88171,0.18196,4.95121,0.0610,0.2439,-1.8293,0.00,0.00,0.00,0,S01
15480,-7.90326,0.19154,4.98473,0.0000,0.5488,-1.7073,0.00,0.00,0.00,0,S01
15500,-7.93199,0.16041,5.05416,-0.1829,0.4878,-1.5854,0.00,0.00,0.00,0,S01
15520,-7.90805,0.15802,5.02543,-0.3659,-0.1220,-1.4634,0.00,0.00,0.00,0,S01
15540,-7.88650,0.16520,5.00149,-0.3049,-0.1829,-1.4634,0.00,0.00,0.00,0,S01
15560,-7.95833,0.16520,4.96797,-0.1829,-0.0610,-1.5244,0.00,0.00,0.00,0,S01
15580,-7.96311,0.14126,5.01585,-0.2439,-0.4878,-1.4634,0.00,0.00,0.00,0,S01
15600,-7.91284,0.11971,5.05177,-0.3659,-1.2805,-1.2805,0.00,0.00,0.00,0,S01
15620,-7.85059,0.11253,5.04937,-0.5488,-1.7683,-1.2195,0.00,0.00,0.00,0,S01
15640,-7.82186,0.11013,5.01825,-0.5488,-1.2805,-1.4634,0.00,0.00,0.00,0,S01
15660,-7.85777,0.13168,5.02782,-0.1220,-0.2439,-1.6463,0.00,0.00,0.00,0,S01
15680,-7.89847,0.10534,5.04937,-0.3659,0.4268,-1.4024,0.00,0.00,0.00,0,S01
15700,-7.88650,0.10056,5.05895,-0.8537,0.3049,-1.3415,0.00,0.00,0.00,0,S01
15720,-7.86735,0.14126,5.04937,-0.7317,-0.0610,-1.5854,0.00,0.00,0.00,0,S01
15740,-7.91762,0.18675,5.00388,-0.0610,0.0000,-1.5244,0.00,0.00,0.00,0,S01
15760,-7.86256,0.16041,5.00867,-0.6707,-0.0610,-1.2805,0.00,0.00,0.00,0,S01
15780,-7.86256,0.14605,5.03501,-1.1585,0.2439,-1.2195,0.00,0.00,0.00,0,S01
15800,-7.90326,0.15802,5.05416,-1.0366,0.4268,-1.3415,0.00,0.00,0.00,0,S01
15820,-7.88411,0.17717,5.05655,-0.6707,0.2439,-1.4024,0.00,0.00,0.00,0,S01
15840,-7.83383,0.17957,5.04937,-0.4268,0.1829,-1.4024,0.00,0.00,0.00,0,S01
15860,-7.85298,0.15802,5.02304,-0.3659,0.6098,-1.5244,0.00,0.00,0.00,0,S01
15880,-7.91044,0.12210,5.03261,-0.5488,0.8537,-1.4634,0.00,0.00,0.00,0,S01
15900,-7.91044,0.08380,5.03740,-0.7317,0.4878,-1.3415,0.00,0.00,0.00,0,S01
15920,-7.89129,0.07661,5.01346,-0.4268,0.1829,-1.4024,0.00,0.00,0.00,0,S01
15940,-7.90805,0.07661,5.00867,0.0610,0.0610,-1.5854,0.00,0.00,0.00,0,S01
15960,-7.93199,0.07901,5.00867,0.0000,-0.3049,-1.6463,0.00,0.00,0.00,0,S01
15980,-7.93917,0.10295,5.00388,-0.5488,-1.0366,-1.5244,0.00,0.00,0.00,0,S01
16000,-7.91523,0.12689,5.01585,-0.9146,-1.5854,-1.4634,0.00,0.00,0.00,0,S01
16020,-7.83862,0.13647,5.01825,-0.6098,-1.4024,-1.4634,0.00,0.00,0.00,0,S01
16040,-7.81946,0.15083,5.04458,-0.0610,-0.5488,-1.5244,0.00,0.00,0.00,0,S01
16060,-7.81707,0.13886,5.05416,-0.1220,0.3049,-1.5244,0.00,0.00,0.00,0,S01
16080,-7.81228,0.11971,5.04698,-0.6707,0.8537,-1.5854,0.00,0.00,0.00,0,S01
16100,-7.83622,0.12450,5.07571,-1.2805,1.5244,-1.5854,0.00,0.00,0.00,0,S01
16120,-7.86495,0.14605,5.09726,-1.6463,2.0732,-1.4024,0.00,0.00,0.00,0,S01
16140,-7.86016,0.15802,5.09486,-1.7683,2.3171,-1.1585,0.00,0.00,0.00,0,S01
16160,-7.89608,0.13647,5.08768,-1.8902,2.1951,-0.8537,0.00,0.00,0.00,0,S01
16180,-7.93678,0.07183,5.06374,-2.0122,1.5244,-0.6707,0.00,0.00,0.00,0,S01
16200,-7.94636,0.06225,5.01106,-1.7073,0.8537,-0.5488,0.00,0.00,0.00,0,S01
16220,-7.92720,0.03112,4.95360,-1.7683,0.4878,-0.4268,0.00,0.00,0.00,0,S01
16240,-7.90565,0.07183,4.91290,-1.6463,0.6098,-0.6707,0.00,0.00,0.00,0,S01
16260,-7.93917,0.11253,4.91290,-1.2805,1.0976,-1.0976,0.00,0.00,0.00,0,S01
16280,-8.00142,0.14365,4.91530,-0.9146,1.1585,-1.2805,0.00,0.00,0.00,0,S01
16300,-7.96311,0.15562,4.93924,-0.6707,0.9146,-1.0976,0.00,0.00,0.00,0,S01
16320,-7.92241,0.11971,4.95839,-0.5488,0.8537,-0.8537,0.00,0.00,0.00,0,S01
16340,-7.89847,0.11971,4.96797,-0.6098,0.7927,-0.8537,0.00,0.00,0.00,0,S01
16360,-7.88411,0.14844,4.97276,-0.9146,0.7317,-1.0366,0.00,0.00,0.00,0,S01
16380,-7.92002,0.15083,5.00388,-0.8537,0.7927,-1.2805,0.00,0.00,0.00,0,S01
16400,-7.93199,0.12450,5.04219,-0.6098,0.4878,-1.3415,0.00,0.00,0.00,0,S01
16420,-7.91044,0.08619,5.04698,-0.1220,-0.1220,-1.3415,0.00,0.00,0.00,0,S01
16440,-7.89129,0.06943,5.03740,0.1220,-0.6098,-1.4024,0.00,0.00,0.00,0,S01
16460,-7.87214,0.07183,5.03501,-0.1220,-0.7927,-1.4634,0.00,0.00,0.00,0,S01
16480,-7.88171,0.08859,5.02064,-0.4268,-0.7317,-1.6463,0.00,0.00,0.00,0,S01
16500,-7.89847,0.09577,5.01346,-0.1220,-0.4878,-1.8293,0.00,0.00,0.00,0,S01
16520,-7.91044,0.08859,5.02064,0.3659,-0.3659,-1.8902,0.00,0.00,0.00,0,S01
16540,-7.89129,0.11732,5.02064,0.4878,-0.1220,-1.8902,0.00,0.00,0.00,0,S01
16560,-7.86735,0.16520,5.01346,0.3659,0.4268,-2.1341,0.00,0.00,0.00,0,S01
16580,-7.87214,0.16759,5.03979,0.5488,1.0976,-2.3171,0.00,0.00,0.00,0,S01
16600,-7.88411,0.15562,5.07571,1.2195,1.4634,-2.5000,0.00,0.00,0.00,0,S01
16620,-7.85777,0.17717,5.05655,1.9512,1.5244,-2.6829,0.00,0.00,0.00,0,S01
16640,-7.83143,0.18196,5.02543,2.2561,1.8293,-2.9268,0.00,0.00,0.00,0,S01
16660,-7.85777,0.12689,5.01585,2.3780,2.5610,-3.1098,0.00,0.00,0.00,0,S01
16680,-7.94396,0.05267,4.98952,2.8659,3.0488,-3.2317,0.00,0.00,0.00,0,S01
16700,-7.97987,0.00000,4.99909,3.4146,2.7439,-3.3537,0.00,0.00,0.00,0,S01
16720,-7.92481,-0.04070,5.00149,3.1098,2.0732,-2.9878,0.00,0.00,0.00,0,S01
16740,-7.88411,-0.07661,5.00628,1.9512,1.7683,-2.5000,0.00,0.00,0.00,0,S01
16760,-7.91044,-0.03352,4.97276,1.0366,2.1341,-2.3171,0.00,0.00,0.00,0,S01
16780,-7.96551,0.07422,4.90093,0.7927,2.8049,-2.1341,0.00,0.00,0.00,0,S01
16800,-8.01818,0.14365,4.85065,0.3049,3.0488,-1.7683,0.00,0.00,0.00,0,S01
16820,-8.03734,0.16041,4.83868,-0.4268,2.8049,-1.2805,0.00,0.00,0.00,0,S01
16840,-8.01818,0.15323,4.84347,-0.8537,2.1341,-0.7927,0.00,0.00,0.00,0,S01
16860,-7.97269,0.15802,4.88178,-1.0366,1.9512,-0.4268,0.00,0.00,0.00,0,S01
16880,-7.95354,0.18435,4.93684,-1.2195,2.1341,-0.2439,0.00,0.00,0.00,0,S01
16900,-7.95833,0.20351,4.94163,-1.4634,2.0732,-0.1829,0.00,0.00,0.00,0,S01
16920,-7.94875,0.21069,4.92727,-1.3415,1.8293,-0.3659,0.00,0.00,0.00,0,S01
16940,-7.93438,0.22505,4.93445,-0.9146,1.7683,-0.4268,0.00,0.00,0.00,0,S01
16960,-7.90326,0.21308,4.94642,-0.7927,2.3171,-0.3659,0.00,0.00,0.00,0,S01
16980,-7.89608,0.15323,4.94642,-1.0366,2.8049,-0.4268,0.00,0.00,0.00,0,S01
17000,-7.91762,0.09816,4.95360,-0.9756,3.4146,-0.4878,0.00,0.00,0.00,0,S01
17020,-7.97269,0.07901,4.92008,-0.4878,3.9634,-0.6098,0.00,0.00,0.00,0,S01
17040,-8.03494,0.08380,4.89135,-0.3659,3.7195,-0.4878,0.00,0.00,0.00,0,S01
17060,-8.03973,0.06225,4.87938,-1.0366,2.8659,-0.2439,0.00,0.00,0.00,0,S01
17080,-8.00621,0.06943,4.82910,-1.4634,1.8293,-0.2439,0.00,0.00,0.00,0,S01
17100,-8.00382,0.10056,4.78122,-1.1585,1.7073,-0.5488,0.00,0.00,0.00,0,S01
17120,-8.03494,0.10534,4.76925,-0.3049,2.1951,-0.9756,0.00,0.00,0.00,0,S01
17140,-8.05409,0.09816,4.80995,0.4268,2.3171,-1.0976,0.00,0.00,0.00,0,S01
17160,-8.04931,0.09577,4.83150,0.6707,1.5854,-0.9756,0.00,0.00,0.00,0,S01
17180,-8.03255,0.08619,4.81235,0.1220,0.5488,-0.8537,0.00,0.00,0.00,0,S01
17200,-8.01339,0.09337,4.80995,-0.6707,-0.1829,-0.7927,0.00,0.00,0.00,0,S01
17220,-7.98227,0.11732,4.82432,-1.2805,-0.3049,-0.7317,0.00,0.00,0.00,0,S01
17240,-7.96072,0.15562,4.83150,-1.6463,0.1829,-0.7317,0.00,0.00,0.00,0,S01
17260,-7.97269,0.20111,4.83868,-1.3415,0.9146,-1.0366,0.00,0.00,0.00,0,S01
17280,-8.00382,0.25139,4.80037,-0.1220,1.3415,-1.6463,0.00,0.00,0.00,0,S01
17300,-8.03734,0.25857,4.80516,0.9146,1.4024,-2.0122,0.00,0.00,0.00,0,S01
17320,-8.04212,0.21069,4.83389,1.0366,0.8537,-2.0122,0.00,0.00,0.00,0,S01
17340,-8.02058,0.16999,4.84347,0.7927,0.0000,-1.9512,0.00,0.00,0.00,0,S01
17360,-8.00861,0.13408,4.83389,0.6707,-0.5488,-1.9512,0.00,0.00,0.00,0,S01
17380,-8.01100,0.11253,4.81474,0.7317,-0.6707,-2.0732,0.00,0.00,0.00,0,S01
17400,-8.02536,0.10295,4.79080,0.6707,-0.7317,-2.1951,0.00,0.00,0.00,0,S01
17420,-8.04452,0.09577,4.79798,0.4268,-0.7927,-2.0122,0.00,0.00,0.00,0,S01
17440,-8.04931,0.09337,4.78362,0.1220,-1.0366,-1.8293,0.00,0.00,0.00,0,S01
17460,-8.03255,0.10056,4.76925,0.0000,-1.4024,-1.7073,0.00,0.00,0.00,0,S01
17480,-8.00382,0.09816,4.78362,-0.1220,-1.4634,-1.5854,0.00,0.00,0.00,0,S01
17500,-8.00861,0.09337,4.80037,-0.1220,-1.0366,-1.4634,0.00,0.00,0.00,0,S01
17520,-8.02058,0.09816,4.82432,-0.1220,-0.6707,-1.2195,0.00,0.00,0.00,0,S01
17540,-8.02776,0.11013,4.84586,-0.5488,-0.9146,-0.9146,0.00,0.00,0.00,0,S01
17560,-8.01100,0.15083,4.88178,-1.4024,-1.5854,-0.6707,0.00,0.00,0.00,0,S01
17580,-7.98227,0.17238,4.88896,-2.1951,-2.1951,-0.5488,0.00,0.00,0.00,0,S01
17600,-7.96551,0.19872,4.90093,-2.0732,-2.2561,-0.5488,0.00,0.00,0.00,0,S01
17620,-7.95593,0.20111,4.89854,-1.4634,-2.1951,-0.5488,0.00,0.00,0.00,0,S01
17640,-7.94875,0.18435,4.90811,-1.2195,-2.0732,-0.4268,0.00,0.00,0.00,0,S01
17660,-7.96311,0.15562,4.92008,-1.8293,-2.1951,-0.2439,0.00,0.00,0.00,0,S01
17680,-7.96072,0.14126,4.95360,-2.4390,-2.5610,-0.1829,0.00,0.00,0.00,0,S01
17700,-7.91762,0.10774,4.98473,-2.3780,-2.8659,-0.4268,0.00,0.00,0.00,0,S01
17720,-7.90326,0.08859,4.94881,-1.5244,-2.5000,-0.8537,0.00,0.00,0.00,0,S01
17740,-7.91284,0.12689,4.91051,-0.5488,-1.4634,-1.2195,0.00,0.00,0.00,0,S01
17760,-7.93199,0.15802,4.92248,-0.4268,-0.4878,-1.4634,0.00,0.00,0.00,0,S01
17780,-7.97030,0.17478,4.93684,0.0000,-0.4878,-1.8902,0.00,0.00,0.00,0,S01
17800,-7.97269,0.15083,4.96318,0.9756,-1.3415,-2.3780,0.00,0.00,0.00,0,S01
17820,-7.91762,0.15083,4.94642,2.5610,-2.0122,-2.8659,0.00,0.00,0.00,0,S01
17840,-7.86495,0.16281,4.92248,3.5976,-1.4634,-3.0488,0.00,0.00,0.00,0,S01
17860,-7.88171,0.12689,4.97036,3.1707,-0.4268,-2.8049,0.00,0.00,0.00,0,S01
17880,-7.91284,0.09577,4.98473,2.0122,-0.1829,-2.1951,0.00,0.00,0.00,0,S01
17900,-7.93438,0.07183,4.96318,0.2439,-0.4268,-1.4634,0.00,0.00,0.00,0,S01
17920,-7.96072,0.03352,4.97276,-1.3415,-0.7317,-0.8537,0.00,0.00,0.00,0,S01
17940,-7.94157,0.07661,4.93206,-2.0122,-0.9146,-0.5488,0.00,0.00,0.00,0,S01
17960,-7.89608,0.19872,4.87938,-2.3780,0.0000,-0.4268,0.00,0.00,0.00,0,S01
17980,-7.90805,0.23703,4.85544,-3.4146,1.7073,-0.1829,0.00,0.00,0.00,0,S01
18000,-7.98706,0.23224,4.83868,-4.3293,2.8049,0.0000,0.00,0.00,0.00,0,S01
18020,-8.02776,0.22505,4.87459,-4.4512,2.9878,0.1220,0.00,0.00,0.00,0,S01
18040,-8.01579,0.21308,4.93445,-4.2683,2.3780,0.3049,0.00,0.00,0.00,0,S01
18060,-7.97509,0.19393,4.92248,-3.9024,1.0976,0.3049,0.00,0.00,0.00,0,S01
18080,-7.94875,0.11732,4.90093,-3.7805,0.3049,0.2439,0.00,0.00,0.00,0,S01
18100,-7.96311,0.07183,4.92248,-3.4756,0.1220,-0.1220,0.00,0.00,0.00,0,S01
18120,-7.94396,0.09337,4.96557,-2.5610,0.1220,-0.7317,0.00,0.00,0.00,0,S01
18140,-7.95833,0.11253,4.96557,-1.7073,-0.1220,-1.2805,0.00,0.00,0.00,0,S01
18160,-7.91762,0.06943,4.94403,-1.0366,-0.6098,-1.7683,0.00,0.00,0.00,0,S01
18180,-7.91762,0.13408,4.90811,-0.3049,-0.1829,-2.1341,0.00,0.00,0.00,0,S01
18200,-7.93199,0.14844,4.92248,0.0610,0.6707,-2.1341,0.00,0.00,0.00,0,S01
18220,-7.96311,0.13168,4.94163,0.3659,0.9756,-2.1951,0.00,0.00,0.00,0,S01
18240,-7.95593,0.12210,4.92487,0.7317,0.6098,-2.3171,0.00,0.00,0.00,0,S01
18260,-7.95114,0.13647,4.92966,0.6098,0.6098,-2.1951,0.00,0.00,0.00,0,S01
18280,-7.94875,0.11013,4.95600,0.3659,0.4878,-2.0732,0.00,0.00,0.00,0,S01
18300,-7.95833,0.09098,4.95360,0.3049,0.1829,-2.0122,0.00,0.00,0.00,0,S01
18320,-7.97748,0.07422,4.92966,0.1829,-0.0610,-1.8293,0.00,0.00,0.00,0,S01
18340,-7.97030,0.05986,4.92248,-0.1220,-0.3659,-1.6463,0.00,0.00,0.00,0,S01
18360,-7.96072,0.09098,4.91051,-0.2439,-0.8537,-1.7683,0.00,0.00,0.00,0,S01
18380,-7.92720,0.12929,4.92008,-0.3049,-0.7317,-1.7073,0.00,0.00,0.00,0,S01
18400,-7.92960,0.10056,4.94642,-0.4268,-0.1220,-1.3415,0.00,0.00,0.00,0,S01
18420,-7.98227,0.05267,4.97515,-0.6707,-0.1829,-0.8537,0.00,0.00,0.00,0,S01
18440,-8.02297,0.02634,4.95839,-1.2805,-1.2195,-0.6707,0.00,0.00,0.00,0,S01
18460,-8.00621,0.06464,4.92248,-1.4024,-2.5000,-0.6707,0.00,0.00,0.00,0,S01
18480,-7.96790,0.12450,4.92966,-1.2805,-3.0488,-0.5488,0.00,0.00,0.00,0,S01
18500,-7.93678,0.15802,4.97276,-1.5244,-3.3537,-0.3659,0.00,0.00,0.00,0,S01
18520,-7.88650,0.17238,4.98233,-1.7683,-3.4146,-0.4268,0.00,0.00,0.00,0,S01
18540,-7.86974,0.19393,4.99191,-2.0122,-2.9878,-0.7927,0.00,0.00,0.00,0,S01
18560,-7.87453,0.21548,5.05655,-2.1341,-2.7439,-1.1585,0.00,0.00,0.00,0,S01
18580,-7.87932,0.18914,5.09247,-1.5854,-3.1098,-1.3415,0.00,0.00,0.00,0,S01
18600,-7.88411,0.10295,5.08768,-0.4878,-3.7805,-1.5854,0.00,0.00,0.00,0,S01
18620,-7.89368,0.05746,5.05177,0.4268,-4.5732,-1.9512,0.00,0.00,0.00,0,S01
18640,-7.90805,0.03112,4.99909,0.7317,-5.3659,-2.2561,0.00,0.00,0.00,0,S01
18660,-7.92960,-0.00718,5.00628,0.7317,-5.7927,-2.5000,0.00,0.00,0.00,0,S01
18680,-7.88889,0.01437,5.00149,1.0976,-5.5488,-2.6220,0.00,0.00,0.00,0,S01
18700,-7.83862,0.07422,5.05895,1.1585,-4.5732,-2.5000,0.00,0.00,0.00,0,S01
18720,-7.79552,0.11732,5.12359,0.7317,-3.6585,-2.5000,0.00,0.00,0.00,0,S01
18740,-7.77876,0.12929,5.13317,0.5488,-3.1098,-2.3780,0.00,0.00,0.00,0,S01
18760,-7.78116,0.11253,5.14753,0.4878,-2.4390,-2.0122,0.00,0.00,0.00,0,S01
18780,-7.77397,0.08140,5.18824,0.3049,-2.0122,-1.7073,0.00,0.00,0.00,0,S01
18800,-7.80031,0.10534,5.21457,0.1220,-2.0122,-1.8902,0.00,0.00,0.00,0,S01
18820,-7.79313,0.11971,5.21457,0.3049,-2.2561,-2.1341,0.00,0.00,0.00,0,S01
18840,-7.75003,0.13168,5.16669,0.8537,-2.1951,-2.3780,0.00,0.00,0.00,0,S01
18860,-7.74524,0.11253,5.12359,1.5244,-1.3415,-2.4390,0.00,0.00,0.00,0,S01
18880,-7.80749,0.07422,5.11641,1.6463,-0.0610,-2.3171,0.00,0.00,0.00,0,S01
18900,-7.83622,0.06704,5.14514,0.9146,0.7317,-1.9512,0.00,0.00,0.00,0,S01
18920,-7.81228,0.05986,5.16190,-0.0610,0.7927,-1.7073,0.00,0.00,0.00,0,S01
18940,-7.78594,0.06464,5.17387,-0.4878,0.6707,-1.6463,0.00,0.00,0.00,0,S01
18960,-7.81707,0.07901,5.15950,-0.3049,0.7317,-1.6463,0.00,0.00,0.00,0,S01
18980,-7.86256,0.10056,5.17387,-0.1220,0.6098,-1.5244,0.00,0.00,0.00,0,S01
19000,-7.84340,0.11732,5.16669,-0.3049,-0.0610,-1.3415,0.00,0.00,0.00,0,S01
19020,-7.79791,0.11253,5.16429,-0.8537,-0.7317,-1.0976,0.00,0.00,0.00,0,S01
19040,-7.79791,0.09337,5.14993,-1.2195,-1.0976,-0.9146,0.00,0.00,0.00,0,S01
19060,-7.83862,0.09098,5.17866,-1.3415,-1.2805,-0.8537,0.00,0.00,0.00,0,S01
19080,-7.85538,0.09577,5.17626,-1.3415,-1.7683,-0.7927,0.00,0.00,0.00,0,S01
19100,-7.81946,0.10774,5.15232,-1.0976,-2.3171,-0.8537,0.00,0.00,0.00,0,S01
19120,-7.80031,0.11253,5.13077,-0.7927,-2.3780,-0.9146,0.00,0.00,0.00,0,S01
19140,-7.84101,0.08380,5.11401,-0.6707,-2.3171,-0.7927,0.00,0.00,0.00,0,S01
19160,-7.86495,0.08619,5.14035,-0.7927,-2.8049,-0.7317,0.00,0.00,0.00,0,S01
19180,-7.84340,0.07901,5.18105,-1.0976,-3.8415,-0.8537,0.00,0.00,0.00,0,S01
19200,-7.77397,0.12689,5.21457,-0.9756,-4.3902,-1.0976,0.00,0.00,0.00,0,S01
19220,-7.74524,0.12689,5.22654,-0.3659,-3.8415,-1.1585,0.00,0.00,0.00,0,S01
19240,-7.74045,0.10056,5.22894,0.2439,-3.2317,-1.0976,0.00,0.00,0.00,0,S01
19260,-7.74764,0.09098,5.29119,0.1829,-3.2317,-1.0366,0.00,0.00,0.00,0,S01
19280,-7.65187,0.09577,5.36062,-0.2439,-3.4756,-1.0976,0.00,0.00,0.00,0,S01
19300,-7.59201,0.11971,5.32949,-0.4878,-2.9268,-1.2805,0.00,0.00,0.00,0,S01
19320,-7.63032,0.10295,5.33428,-0.4878,-1.5244,-1.3415,0.00,0.00,0.00,0,S01
19340,-7.67821,0.08380,5.33668,-0.3659,-0.3049,-1.3415,0.00,0.00,0.00,0,S01
19360,-7.71891,0.08380,5.31992,-0.3659,0.0000,-1.4634,0.00,0.00,0.00,0,S01
19380,-7.69736,0.09577,5.28161,-0.7317,0.6098,-1.3415,0.00,0.00,0.00,0,S01
19400,-7.67102,0.09337,5.24809,-0.6707,1.6463,-1.2805,0.00,0.00,0.00,0,S01
19420,-7.70215,0.09337,5.24809,-0.6098,2.9878,-1.3415,0.00,0.00,0.00,0,S01
19440,-7.74764,0.11971,5.29837,-0.7317,3.7195,-1.4634,0.00,0.00,0.00,0,S01
19460,-7.75721,0.13886,5.30316,-0.7317,3.5976,-1.4634,0.00,0.00,0.00,0,S01
19480,-7.74764,0.13647,5.27443,-0.6707,3.2317,-1.4024,0.00,0.00,0.00,0,S01
19500,-7.73567,0.11253,5.23133,-0.3659,3.2317,-1.3415,0.00,0.00,0.00,0,S01
19520,-7.76440,0.10295,5.21697,-0.1829,3.4756,-1.4024,0.00,0.00,0.00,0,S01
19540,-7.81467,0.10774,5.22415,-0.1829,3.2317,-1.5244,0.00,0.00,0.00,0,S01
19560,-7.85059,0.09816,5.19302,-0.3659,2.5000,-1.5244,0.00,0.00,0.00,0,S01
19580,-7.85059,0.08859,5.17866,-0.2439,1.5854,-1.4634,0.00,0.00,0.00,0,S01
19600,-7.80989,0.09098,5.14993,0.0000,0.9146,-1.4024,0.00,0.00,0.00,0,S01
19620,-7.77637,0.08859,5.15232,0.0000,0.8537,-1.3415,0.00,0.00,0.00,0,S01
19640,-7.81467,0.09337,5.14514,-0.1829,1.1585,-1.2805,0.00,0.00,0.00,0,S01
19660,-7.85059,0.10534,5.17148,-0.3659,1.0976,-1.2195,0.00,0.00,0.00,0,S01
19680,-7.82425,0.08619,5.17866,-0.4268,0.5488,-1.0976,0.00,0.00,0.00,0,S01
19700,-7.77876,0.08140,5.16190,-0.3659,0.0610,-1.0366,0.00,0.00,0.00,0,S01
19720,-7.78834,0.09577,5.17148,-0.3049,0.1220,-0.9146,0.00,0.00,0.00,0,S01
19740,-7.82425,0.11013,5.20499,-0.4268,0.0610,-0.9146,0.00,0.00,0.00,0,S01
19760,-7.78594,0.11253,5.23612,-0.4878,-0.5488,-0.9146,0.00,0.00,0.00,0,S01
19780,-7.72609,0.10534,5.23373,-0.3659,-0.9146,-0.9756,0.00,0.00,0.00,0,S01
19800,-7.70454,0.09816,5.24091,-0.0610,-0.3659,-1.0366,0.00,0.00,0.00,0,S01
19820,-7.73327,0.09098,5.26006,0.1829,0.4268,-1.0976,0.00,0.00,0.00,0,S01
19840,-7.72609,0.08380,5.26964,0.1220,0.7317,-1.1585,0.00,0.00,0.00,0,S01
19860,-7.69736,0.09337,5.26006,-0.0610,1.0976,-1.2195,0.00,0.00,0.00,0,S01
19880,-7.71891,0.10056,5.23851,-0.0610,1.8902,-1.2195,0.00,0.00,0.00,0,S01
19900,-7.79552,0.09816,5.25767,0.0610,2.3171,-1.3415,0.00,0.00,0.00,0,S01
19920,-7.80989,0.10534,5.21218,0.3049,1.7073,-1.4024,0.00,0.00,0.00,0,S01
19940,-7.76679,0.12210,5.16669,0.3659,1.3415,-1.4024,0.00,0.00,0.00,0,S01
19960,-7.75482,0.12689,5.20739,0.4268,1.8902,-1.4024,0.00,0.00,0.00,0,S01
19980,-7.78594,0.13886,5.20499,0.6707,2.3780,-1.4634,0.00,0.00,0.00,0,S01
20000,-7.78116,0.13168,5.18345,0.6707,2.5000,-1.5854,0.00,0.00,0.00,0,S01
20020,-7.77876,0.12450,5.16429,0.8537,2.5610,-1.7073,0.00,0.00,0.00,0,S01
20040,-7.83862,0.11732,5.14035,0.8537,2.5610,-1.7683,0.00,0.00,0.00,0,S01
20060,-7.90805,0.11971,5.09486,0.6098,2.0122,-1.5244,0.00,0.00,0.00,0,S01
20080,-7.91523,0.11253,5.07092,0.1829,0.8537,-1.2805,0.00,0.00,0.00,0,S01
20100,-7.85777,0.11971,5.05177,-0.3049,-0.3049,-1.1585,0.00,0.00,0.00,0,S01
20120,-7.80749,0.13408,5.04219,-0.4268,-0.3659,-1.1585,0.00,0.00,0.00,0,S01
20140,-7.81946,0.12210,5.07810,-0.2439,0.4878,-1.0976,0.00,0.00,0.00,0,S01
20160,-7.88411,0.11492,5.11880,-0.0610,0.6707,-1.1585,0.00,0.00,0.00,0,S01
20180,-7.85777,0.10534,5.13077,-0.2439,-0.4878,-1.0976,0.00,0.00,0.00,0,S01
20200,-7.76200,0.10295,5.13796,-0.6098,-1.3415,-0.9756,0.00,0.00,0.00,0,S01
20220,-7.77637,0.10534,5.16190,-0.7927,-1.1585,-0.9756,0.00,0.00,0.00,0,S01
20240,-7.80510,0.10056,5.22894,-0.8537,-1.1585,-1.0366,0.00,0.00,0.00,0,S01
20260,-7.78355,0.10295,5.23612,-0.6707,-1.7683,-1.1585,0.00,0.00,0.00,0,S01
20280,-7.75482,0.11971,5.17866,-0.4268,-2.0122,-1.2195,0.00,0.00,0.00,0,S01
20300,-7.77876,0.12210,5.14993,-0.4878,-1.7683,-1.0366,0.00,0.00,0.00,0,S01
20320,-7.82186,0.12450,5.15950,-0.7927,-1.7683,-0.9756,0.00,0.00,0.00,0,S01
20340,-7.81467,0.13168,5.18105,-1.0976,-2.1951,-1.0366,0.00,0.00,0.00,0,S01
20360,-7.79313,0.12689,5.18584,-0.8537,-2.3780,-1.0366,0.00,0.00,0.00,0,S01
20380,-7.80989,0.12450,5.16429,-0.3659,-2.3171,-1.0366,0.00,0.00,0.00,0,S01
20400,-7.80749,0.11971,5.16429,-0.3049,-2.2561,-0.9756,0.00,0.00,0.00,0,S01
20420,-7.77876,0.13168,5.19542,-0.7927,-2.4390,-1.0366,0.00,0.00,0.00,0,S01
20440,-7.75721,0.12929,5.24091,-1.2195,-2.6220,-1.0366,0.00,0.00,0.00,0,S01
20460,-7.75003,0.12929,5.26006,-1.2195,-2.6220,-0.9756,0.00,0.00,0.00,0,S01
20480,-7.73327,0.13408,5.29358,-1.0366,-2.6829,-0.9146,0.00,0.00,0.00,0,S01
20500,-7.69736,0.15083,5.28161,-0.9146,-2.5610,-0.9756,0.00,0.00,0.00,0,S01
20520,-7.67342,0.13408,5.27443,-0.9146,-1.9512,-1.0366,0.00,0.00,0.00,0,S01
20540,-7.72130,0.13647,5.30555,-0.8537,-1.4024,-1.2805,0.00,0.00,0.00,0,S01
20560,-7.74524,0.13408,5.31992,-0.7927,-1.5244,-1.4024,0.00,0.00,0.00,0,S01
20580,-7.70933,0.12210,5.30795,-0.7317,-2.5610,-1.4024,0.00,0.00,0.00,0,S01
20600,-7.72848,0.11732,5.29837,-0.7927,-3.0488,-1.5244,0.00,0.00,0.00,0,S01
20620,-7.77158,0.11013,5.33668,-0.6707,-3.4756,-1.5854,0.00,0.00,0.00,0,S01
20640,-7.69496,0.10056,5.37977,-0.3659,-3.7805,-1.5854,0.00,0.00,0.00,0,S01
20660,-7.61356,0.08859,5.36301,-0.1220,-3.4756,-1.5244,0.00,0.00,0.00,0,S01
20680,-7.67342,0.09577,5.33907,-0.1829,-2.6220,-1.5854,0.00,0.00,0.00,0,S01
20700,-7.70694,0.12689,5.32949,-0.4268,-2.2561,-1.5244,0.00,0.00,0.00,0,S01
20720,-7.68539,0.16520,5.36301,-0.6707,-2.2561,-1.5244,0.00,0.00,0.00,0,S01
20740,-7.62553,0.14844,5.38456,-0.6098,-2.1341,-1.5854,0.00,0.00,0.00,0,S01
20760,-7.61835,0.12450,5.35583,-0.3659,-1.6463,-1.6463,0.00,0.00,0.00,0,S01
20780,-7.65905,0.10295,5.33668,0.0000,-0.7317,-1.7073,0.00,0.00,0.00,0,S01
20800,-7.68060,0.09337,5.33428,0.0000,-0.1220,-1.6463,0.00,0.00,0.00,0,S01
20820,-7.67102,0.10774,5.34386,-0.3049,0.0610,-1.6463,0.00,0.00,0.00,0,S01
20840,-7.63272,0.11732,5.33189,-0.4878,0.3049,-1.7073,0.00,0.00,0.00,0,S01
20860,-7.67102,0.10295,5.33189,-0.3659,0.9756,-1.7683,0.00,0.00,0.00,0,S01
20880,-7.73088,0.09098,5.31513,-0.0610,1.4634,-1.7073,0.00,0.00,0.00,0,S01
20900,-7.71412,0.08619,5.33189,-0.0610,1.4024,-1.5854,0.00,0.00,0.00,0,S01
20920,-7.69257,0.07183,5.34386,-0.3049,1.0366,-1.4634,0.00,0.00,0.00,0,S01
20940,-7.69975,0.08140,5.34865,-0.4878,0.7317,-1.4634,0.00,0.00,0.00,0,S01
20960,-7.70694,0.09098,5.35104,-0.4878,0.4268,-1.4024,0.00,0.00,0.00,0,S01
20980,-7.68299,0.11492,5.35822,-0.4268,0.2439,-1.3415,0.00,0.00,0.00,0,S01
21000,-7.67342,0.11971,5.36062,-0.4878,0.2439,-1.2805,0.00,0.00,0.00,0,S01
21020,-7.68299,0.11013,5.36301,-0.4268,0.1220,-1.2195,0.00,0.00,0.00,0,S01
21040,-7.68539,0.10534,5.33907,-0.3659,-0.0610,-1.2805,0.00,0.00,0.00,0,S01
21060,-7.69018,0.11971,5.32231,-0.4268,-0.1220,-1.2805,0.00,0.00,0.00,0,S01
21080,-7.67102,0.11732,5.33668,-0.5488,0.0000,-1.2195,0.00,0.00,0.00,0,S01
21100,-7.66623,0.12689,5.35344,-0.5488,0.1220,-1.1585,0.00,0.00,0.00,0,S01
21120,-7.66863,0.11492,5.35344,-0.5488,0.1829,-1.2195,0.00,0.00,0.00,0,S01
21140,-7.67581,0.10056,5.36062,-0.4878,0.2439,-1.2195,0.00,0.00,0.00,0,S01
21160,-7.67102,0.11013,5.35822,-0.5488,0.3659,-1.2195,0.00,0.00,0.00,0,S01
21180,-7.66384,0.11732,5.37498,-0.6707,0.6098,-1.2195,0.00,0.00,0.00,0,S01
21200,-7.65187,0.11253,5.37977,-0.6707,0.7317,-1.2805,0.00,0.00,0.00,0,S01
21220,-7.66623,0.10295,5.36780,-0.5488,0.9146,-1.3415,0.00,0.00,0.00,0,S01
21240,-7.69018,0.09098,5.37019,-0.4268,1.2195,-1.2805,0.00,0.00,0.00,0,S01
21260,-7.68539,0.08380,5.36541,-0.5488,1.2805,-1.2195,0.00,0.00,0.00,0,S01
21280,-7.68060,0.10534,5.35583,-0.6098,1.2805,-1.2805,0.00,0.00,0.00,0,S01
21300,-7.68539,0.11253,5.33907,-0.5488,1.2805,-1.4024,0.00,0.00,0.00,0,S01
21320,-7.72130,0.11971,5.34386,-0.3659,1.4024,-1.4024,0.00,0.00,0.00,0,S01
21340,-7.70454,0.11732,5.33189,-0.1829,1.3415,-1.3415,0.00,0.00,0.00,0,S01
21360,-7.68778,0.10295,5.32470,-0.1220,1.3415,-1.2805,0.00,0.00,0.00,0,S01
21380,-7.69975,0.10774,5.31034,-0.1220,1.5854,-1.3415,0.00,0.00,0.00,0,S01
21400,-7.71651,0.11971,5.34146,-0.1829,1.8293,-1.3415,0.00,0.00,0.00,0,S01
21420,-7.73567,0.12450,5.33907,-0.0610,1.6463,-1.3415,0.00,0.00,0.00,0,S01
21440,-7.73088,0.13647,5.30555,0.0610,1.2195,-1.2805,0.00,0.00,0.00,0,S01
21460,-7.70454,0.12929,5.28879,0.1220,0.9146,-1.3415,0.00,0.00,0.00,0,S01
21480,-7.71651,0.11492,5.30795,0.0610,0.9146,-1.4024,0.00,0.00,0.00,0,S01
21500,-7.73806,0.09098,5.31034,0.0000,0.7317,-1.3415,0.00,0.00,0.00,0,S01
21520,-7.73327,0.08859,5.28640,-0.2439,0.3049,-1.2195,0.00,0.00,0.00,0,S01
21540,-7.71412,0.10056,5.27682,-0.4268,0.1220,-1.1585,0.00,0.00,0.00,0,S01
21560,-7.71172,0.10295,5.28879,-0.4878,0.3659,-1.1585,0.00,0.00,0.00,0,S01
21580,-7.71172,0.11253,5.29119,-0.4268,0.4878,-1.1585,0.00,0.00,0.00,0,S01
21600,-7.70933,0.11253,5.31992,-0.4268,0.5488,-1.1585,0.00,0.00,0.00,0,S01
21620,-7.69975,0.11732,5.33189,-0.4268,0.4878,-1.1585,0.00,0.00,0.00,0,S01
21640,-7.70454,0.11971,5.33428,-0.5488,0.4878,-1.1585,0.00,0.00,0.00,0,S01
21660,-7.70454,0.12929,5.33907,-0.6098,0.4878,-1.1585,0.00,0.00,0.00,0,S01
21680,-7.69736,0.12929,5.32949,-0.5488,0.3049,-1.2195,0.00,0.00,0.00,0,S01
21700,-7.69975,0.12929,5.31034,-0.4268,0.1829,-1.2805,0.00,0.00,0.00,0,S01
21720,-7.70215,0.12689,5.31513,-0.3659,0.2439,-1.3415,0.00,0.00,0.00,0,S01
21740,-7.69975,0.12689,5.31034,-0.4268,0.3659,-1.4024,0.00,0.00,0.00,0,S01
21760,-7.70454,0.12689,5.31034,-0.4878,0.3659,-1.4024,0.00,0.00,0.00,0,S01
21780,-7.72130,0.11732,5.29358,-0.3049,0.1220,-1.4634,0.00,0.00,0.00,0,S01
21800,-7.69736,0.10295,5.30316,-0.1829,0.1829,-1.4634,0.00,0.00,0.00,0,S01
21820,-7.68539,0.10534,5.30555,-0.1829,0.5488,-1.4634,0.00,0.00,0.00,0,S01
21840,-7.70454,0.10295,5.28640,-0.3659,0.9756,-1.4634,0.00,0.00,0.00,0,S01
21860,-7.71651,0.11732,5.31034,-0.4268,1.2195,-1.5244,0.00,0.00,0.00,0,S01
21880,-7.71172,0.11492,5.31992,-0.3659,1.1585,-1.5244,0.00,0.00,0.00,0,S01
21900,-7.70933,0.10774,5.31992,-0.2439,1.0366,-1.5244,0.00,0.00,0.00,0,S01
21920,-7.70933,0.10295,5.30795,-0.2439,1.0366,-1.4634,0.00,0.00,0.00,0,S01
21940,-7.70933,0.10774,5.30555,-0.2439,1.2195,-1.4634,0.00,0.00,0.00,0,S01
21960,-7.72369,0.11253,5.29837,-0.2439,1.4024,-1.4634,0.00,0.00,0.00,0,S01
21980,-7.73327,0.11492,5.28400,-0.2439,1.4634,-1.4634,0.00,0.00,0.00,0,S01
22000,-7.74045,0.11732,5.27921,-0.2439,1.3415,-1.4634,0.00,0.00,0.00,0,S01
22020,-7.74764,0.10534,5.29119,-0.3049,1.0976,-1.4024,0.00,0.00,0.00,0,S01
22040,-7.74764,0.09098,5.26724,-0.2439,0.9756,-1.4024,0.00,0.00,0.00,0,S01
22060,-7.74045,0.09577,5.26485,-0.3049,0.9146,-1.4024,0.00,0.00,0.00,0,S01
22080,-7.74285,0.10774,5.28400,-0.4268,0.7927,-1.4024,0.00,0.00,0.00,0,S01
22100,-7.74524,0.11971,5.27682,-0.3659,0.7927,-1.4634,0.00,0.00,0.00,0,S01
22120,-7.73567,0.11253,5.30076,-0.3049,0.9146,-1.4024,0.00,0.00,0.00,0,S01
22140,-7.72848,0.10534,5.30076,-0.1829,0.8537,-1.3415,0.00,0.00,0.00,0,S01
22160,-7.74524,0.11971,5.26485,-0.1220,0.6707,-1.3415,0.00,0.00,0.00,0,S01
22180,-7.72848,0.10774,5.26964,-0.1829,0.4878,-1.4024,0.00,0.00,0.00,0,S01
22200,-7.73088,0.10774,5.25288,-0.3049,0.3659,-1.4024,0.00,0.00,0.00,0,S01
22220,-7.73567,0.11013,5.26964,-0.6098,0.2439,-1.3415,0.00,0.00,0.00,0,S01
22240,-7.73567,0.11253,5.26724,-0.5488,0.1829,-1.3415,0.00,0.00,0.00,0,S01
22260,-7.74764,0.10774,5.25288,-0.3659,0.1829,-1.3415,0.00,0.00,0.00,0,S01
22280,-7.75243,0.09337,5.24330,-0.2439,0.1829,-1.3415,0.00,0.00,0.00,0,S01
22300,-7.75721,0.10295,5.22175,-0.3659,0.1220,-1.3415,0.00,0.00,0.00,0,S01
22320,-7.74045,0.12450,5.24091,-0.5488,0.1220,-1.2805,0.00,0.00,0.00,0,S01
22340,-7.73327,0.12210,5.25288,-0.6098,0.1220,-1.2805,0.00,0.00,0.00,0,S01
22360,-7.75721,0.10774,5.26724,-0.4878,0.1829,-1.2805,0.00,0.00,0.00,0,S01
22380,-7.75243,0.10056,5.28879,-0.4268,0.1220,-1.2195,0.00,0.00,0.00,0,S01
22400,-7.74285,0.10056,5.26485,-0.5488,-0.1220,-1.1585,0.00,0.00,0.00,0,S01
22420,-7.73088,0.10774,5.27203,-0.6098,-0.2439,-1.1585,0.00,0.00,0.00,0,S01
22440,-7.72848,0.11253,5.27682,-0.5488,-0.2439,-1.2195,0.00,0.00,0.00,0,S01
22460,-7.73088,0.11253,5.27921,-0.4878,-0.1220,-1.2195,0.00,0.00,0.00,0,S01
22480,-7.74045,0.10774,5.27443,-0.4878,-0.0610,-1.2195,0.00,0.00,0.00,0,S01
22500,-7.73806,0.11253,5.27203,-0.4878,-0.1220,-1.2805,0.00,0.00,0.00,0,S01
22520,-7.73806,0.11013,5.29119,-0.4878,-0.1220,-1.2805,0.00,0.00,0.00,0,S01
22540,-7.73088,0.11732,5.26964,-0.4268,-0.1220,-1.3415,0.00,0.00,0.00,0,S01
22560,-7.71651,0.11253,5.26724,-0.3659,-0.0610,-1.4024,0.00,0.00,0.00,0,S01
22580,-7.71651,0.09337,5.28640,-0.3049,0.1220,-1.3415,0.00,0.00,0.00,0,S01
22600,-7.73088,0.09098,5.30316,-0.3659,0.1829,-1.3415,0.00,0.00,0.00,0,S01
22620,-7.73567,0.11013,5.28640,-0.4878,0.1829,-1.3415,0.00,0.00,0.00,0,S01
22640,-7.72369,0.11492,5.28640,-0.5488,0.2439,-1.3415,0.00,0.00,0.00,0,S01
22660,-7.72369,0.11492,5.28161,-0.4878,0.3049,-1.3415,0.00,0.00,0.00,0,S01
22680,-7.72369,0.10534,5.28161,-0.4268,0.3049,-1.2805,0.00,0.00,0.00,0,S01
22700,-7.72609,0.09337,5.27682,-0.4268,0.3659,-1.2805,0.00,0.00,0.00,0,S01
22720,-7.72369,0.09816,5.27682,-0.4878,0.4268,-1.2805,0.00,0.00,0.00,0,S01
22740,-7.73567,0.10295,5.27203,-0.4878,0.3659,-1.2805,0.00,0.00,0.00,0,S01
22760,-7.74285,0.10534,5.26964,-0.4878,0.3049,-1.2195,0.00,0.00,0.00,0,S01
22780,-7.72369,0.10774,5.29597,-0.4878,0.2439,-1.2195,0.00,0.00,0.00,0,S01
22800,-7.74764,0.12210,5.31034,-0.4268,0.1220,-1.2805,0.00,0.00,0.00,0,S01
22820,-7.75243,0.12689,5.28161,-0.3659,0.0000,-1.3415,0.00,0.00,0.00,0,S01
22840,-7.71891,0.11253,5.29837,-0.3659,0.0000,-1.2805,0.00,0.00,0.00,0,S01
22860,-7.75243,0.10774,5.29597,-0.1829,0.0610,-1.2805,0.00,0.00,0.00,0,S01
22880,-7.74285,0.10295,5.27682,-0.0610,-0.0610,-1.2805,0.00,0.00,0.00,0,S01
22900,-7.71651,0.09816,5.27682,-0.1220,-0.2439,-1.2805,0.00,0.00,0.00,0,S01
22920,-7.71891,0.10774,5.29597,-0.3659,-0.3049,-1.2805,0.00,0.00,0.00,0,S01
22940,-7.72609,0.10774,5.29837,-0.5488,-0.3659,-1.2195,0.00,0.00,0.00,0,S01
22960,-7.72130,0.11013,5.28161,-0.4878,-0.3659,-1.2195,0.00,0.00,0.00,0,S01
22980,-7.73088,0.11732,5.26485,-0.5488,-0.0610,-1.2195,0.00,0.00,0.00,0,S01
23000,-7.72130,0.10774,5.26964,-0.6707,0.0610,-1.2195,0.00,0.00,0.00,0,S01
23020,-7.72130,0.09577,5.28640,-0.6098,0.2439,-1.1585,0.00,0.00,0.00,0,S01
23040,-7.73327,0.09577,5.30555,-0.3659,0.3049,-1.2195,0.00,0.00,0.00,0,S01
23060,-7.72609,0.09816,5.29358,-0.3049,0.2439,-1.2805,0.00,0.00,0.00,0,S01
23080,-7.70933,0.09577,5.28400,-0.4268,0.0610,-1.2195,0.00,0.00,0.00,0,S01
23100,-7.71891,0.11253,5.30076,-0.5488,0.0610,-1.2195,0.00,0.00,0.00,0,S01
23120,-7.71412,0.11971,5.28400,-0.4878,0.1220,-1.2805,0.00,0.00,0.00,0,S01
23140,-7.72609,0.11492,5.29119,-0.3659,0.2439,-1.3415,0.00,0.00,0.00,0,S01
23160,-7.73088,0.11253,5.28640,-0.3659,0.2439,-1.3415,0.00,0.00,0.00,0,S01
23180,-7.72369,0.12450,5.27921,-0.3049,0.0610,-1.3415,0.00,0.00,0.00,0,S01
23200,-7.71891,0.11253,5.27682,-0.3049,0.0610,-1.3415,0.00,0.00,0.00,0,S01
23220,-7.71651,0.10534,5.28400,-0.3049,0.1829,-1.3415,0.00,0.00,0.00,0,S01
23240,-7.72130,0.11492,5.26964,-0.3049,0.3049,-1.4024,0.00,0.00,0.00,0,S01
23260,-7.72369,0.11253,5.28400,-0.3659,0.3049,-1.4024,0.00,0.00,0.00,0,S01
23280,-7.72369,0.11253,5.28640,-0.4268,0.1829,-1.4024,0.00,0.00,0.00,0,S01
23300,-7.72369,0.10774,5.27203,-0.4268,0.1220,-1.3415,0.00,0.00,0.00,0,S01
23320,-7.72369,0.10774,5.28161,-0.4268,0.2439,-1.3415,0.00,0.00,0.00,0,S01
23340,-7.73327,0.10056,5.30076,-0.4878,0.3049,-1.3415,0.00,0.00,0.00,0,S01
23360,-7.72609,0.10295,5.30316,-0.3659,0.2439,-1.3415,0.00,0.00,0.00,0,S01
23380,-7.72130,0.10295,5.30555,-0.3659,0.1220,-1.3415,0.00,0.00,0.00,0,S01
23400,-7.71412,0.10534,5.30555,-0.4268,0.0610,-1.2805,0.00,0.00,0.00,0,S01
23420,-7.71651,0.11732,5.30795,-0.4878,0.1829,-1.2805,0.00,0.00,0.00,0,S01
23440,-7.72130,0.11971,5.28400,-0.5488,0.1829,-1.3415,0.00,0.00,0.00,0,S01
23460,-7.72369,0.11013,5.27443,-0.4878,0.2439,-1.2805,0.00,0.00,0.00,0,S01
23480,-7.71891,0.09337,5.29358,-0.4268,0.2439,-1.2805,0.00,0.00,0.00,0,S01
23500,-7.71891,0.08859,5.29358,-0.4268,0.1829,-1.2195,0.00,0.00,0.00,0,S01
23520,-7.73806,0.09816,5.30076,-0.4878,0.1829,-1.2805,0.00,0.00,0.00,0,S01
23540,-7.75243,0.12210,5.28400,-0.5488,0.1829,-1.3415,0.00,0.00,0.00,0,S01
23560,-7.69975,0.12210,5.30076,-0.4878,0.1220,-1.2805,0.00,0.00,0.00,0,S01
23580,-7.71891,0.12210,5.27921,-0.1829,0.1220,-1.3415,0.00,0.00,0.00,0,S01
23600,-7.72848,0.10534,5.27921,-0.1220,0.1220,-1.2805,0.00,0.00,0.00,0,S01
23620,-7.71412,0.09577,5.29837,-0.1829,0.0610,-1.2805,0.00,0.00,0.00,0,S01
23640,-7.71412,0.10056,5.29837,-0.3659,-0.0610,-1.3415,0.00,0.00,0.00,0,S01
23660,-7.71412,0.09337,5.30076,-0.4878,-0.3049,-1.2805,0.00,0.00,0.00,0,S01
23680,-7.71412,0.08859,5.28161,-0.3659,-0.3049,-1.2805,0.00,0.00,0.00,0,S01
23700,-7.71891,0.09337,5.27921,-0.4268,-0.1220,-1.2195,0.00,0.00,0.00,0,S01
23720,-7.70454,0.12450,5.28400,-0.6098,0.0000,-1.2195,0.00,0.00,0.00,0,S01
23740,-7.70933,0.12450,5.28879,-0.7317,0.2439,-1.2805,0.00,0.00,0.00,0,S01
23760,-7.72609,0.10774,5.30316,-0.4268,0.4268,-1.2195,0.00,0.00,0.00,0,S01
23780,-7.71412,0.09337,5.31513,-0.1220,0.3049,-1.1585,0.00,0.00,0.00,0,S01
23800,-7.70933,0.10295,5.30076,-0.2439,0.0000,-1.1585,0.00,0.00,0.00,0,S01
23820,-7.71172,0.11492,5.29597,-0.6098,-0.1220,-1.2805,0.00,0.00,0.00,0,S01
23840,-7.72130,0.11253,5.29597,-0.7927,-0.1220,-1.2805,0.00,0.00,0.00,0,S01
23860,-7.73088,0.11013,5.30076,-0.5488,-0.0610,-1.2195,0.00,0.00,0.00,0,S01
23880,-7.71172,0.10056,5.29837,-0.3659,0.0000,-1.1585,0.00,0.00,0.00,0,S01
23900,-7.69975,0.11732,5.30316,-0.4878,-0.0610,-1.1585,0.00,0.00,0.00,0,S01
23920,-7.70215,0.12210,5.32710,-0.6707,-0.0610,-1.2195,0.00,0.00,0.00,0,S01
23940,-7.69496,0.10534,5.32710,-0.6707,-0.1220,-1.2805,0.00,0.00,0.00,0,S01
23960,-7.69496,0.08619,5.31273,-0.3659,-0.1220,-1.2805,0.00,0.00,0.00,0,S01
23980,-7.69496,0.07901,5.29119,-0.3049,0.0000,-1.2195,0.00,0.00,0.00,0,S01
24000,-7.70215,0.09577,5.29358,-0.5488,0.1220,-1.2805,0.00,0.00,0.00,0,S01
24020,-7.70454,0.11253,5.30555,-0.6707,0.1220,-1.2805,0.00,0.00,0.00,0,S01
24040,-7.70215,0.11013,5.30316,-0.4878,0.0000,-1.3415,0.00,0.00,0.00,0,S01
24060,-7.69736,0.11013,5.30555,-0.1829,0.0000,-1.4024,0.00,0.00,0.00,0,S01
24080,-7.69496,0.11013,5.29597,-0.1220,0.0000,-1.4024,0.00,0.00,0.00,0,S01
24100,-7.69496,0.11492,5.30316,-0.3659,0.0610,-1.3415,0.00,0.00,0.00,0,S01
24120,-7.71172,0.11971,5.32231,-0.5488,0.1220,-1.2805,0.00,0.00,0.00,0,S01
24140,-7.71172,0.11732,5.32231,-0.6098,0.0610,-1.2805,0.00,0.00,0.00,0,S01
24160,-7.69975,0.11253,5.31752,-0.4878,-0.1220,-1.2805,0.00,0.00,0.00,0,S01
24180,-7.69257,0.10534,5.31992,-0.4878,0.0000,-1.2195,0.00,0.00,0.00,0,S01
24200,-7.69975,0.11013,5.32231,-0.6098,0.1220,-1.2195,0.00,0.00,0.00,0,S01
24220,-7.71172,0.10774,5.32470,-0.6098,-0.0610,-1.2805,0.00,0.00,0.00,0,S01
24240,-7.70694,0.09337,5.31992,-0.4878,-0.1220,-1.2805,0.00,0.00,0.00,0,S01
24260,-7.68778,0.08619,5.32231,-0.3659,-0.1220,-1.2195,0.00,0.00,0.00,0,S01
24280,-7.69018,0.09098,5.33428,-0.3659,-0.1829,-1.2805,0.00,0.00,0.00,0,S01
24300,-7.72130,0.10774,5.31992,-0.4878,-0.2439,-1.3415,0.00,0.00,0.00,0,S01
24320,-7.69257,0.12450,5.35583,-0.4878,-0.2439,-1.3415,0.00,0.00,0.00,0,S01
24340,-7.68778,0.11492,5.34386,-0.1220,-0.1829,-1.3415,0.00,0.00,0.00,0,S01
24360,-7.70933,0.10534,5.31513,0.0610,-0.3049,-1.3415,0.00,0.00,0.00,0,S01
24380,-7.68778,0.11013,5.31752,0.0000,-0.4268,-1.3415,0.00,0.00,0.00,0,S01
24400,-7.68060,0.10774,5.32231,-0.3659,-0.3659,-1.3415,0.00,0.00,0.00,0,S01
24420,-7.69257,0.09098,5.35583,-0.5488,-0.4878,-1.2805,0.00,0.00,0.00,0,S01
24440,-7.69975,0.09577,5.34146,-0.4268,-0.6098,-1.2805,0.00,0.00,0.00,0,S01
24460,-7.70215,0.10534,5.32470,-0.4268,-0.6707,-1.2805,0.00,0.00,0.00,0,S01
24480,-7.70215,0.11971,5.31034,-0.6098,-0.5488,-1.2195,0.00,0.00,0.00,0,S01
24500,-7.70454,0.12210,5.31752,-0.7927,-0.4878,-1.1585,0.00,0.00,0.00,0,S01
24520,-7.69496,0.13408,5.32710,-0.7317,-0.4878,-1.2195,0.00,0.00,0.00,0,S01
24540,-7.67821,0.13168,5.34146,-0.7317,-0.4878,-1.2805,0.00,0.00,0.00,0,S01
24560,-7.67102,0.09337,5.38456,-0.8537,-0.2439,-1.1585,0.00,0.00,0.00,0,S01
24580,-7.69018,0.10056,5.36301,-0.8537,-0.1220,-1.2195,0.00,0.00,0.00,0,S01
24600,-7.70694,0.08859,5.35104,-0.6098,-0.3049,-1.2195,0.00,0.00,0.00,0,S01
24620,-7.68778,0.05507,5.41329,-0.4268,-0.6707,-1.1585,0.00,0.00,0.00,0,S01
24640,-7.63511,0.10295,5.38456,-0.3049,-1.4634,-1.1585,0.00,0.00,0.00,0,S01
24660,-7.65426,0.11013,5.35104,-0.6707,-1.8293,-1.1585,0.00,0.00,0.00,0,S01
24680,-7.71172,0.12929,5.35104,-0.9756,-1.5244,-1.0976,0.00,0.00,0.00,0,S01
24700,-7.70933,0.15802,5.28879,-0.9146,-1.3415,-0.9146,0.00,0.00,0.00,0,S01
24720,-7.67102,0.13886,5.31034,-0.8537,-1.1585,-0.6707,0.00,0.00,0.00,0,S01
24740,-7.64708,0.07661,5.36062,-0.9756,-0.6098,-0.4878,0.00,0.00,0.00,0,S01
24760,-7.64947,0.06225,5.40132,-1.1585,-0.2439,-0.4268,0.00,0.00,0.00,0,S01
24780,-7.64708,0.11732,5.41808,-1.2195,-0.2439,-0.7317,0.00,0.00,0.00,0,S01
24800,-7.63511,0.14844,5.41329,-1.1585,-0.0610,-0.8537,0.00,0.00,0.00,0,S01
24820,-7.67581,0.12450,5.40132,-0.8537,0.3049,-0.7927,0.00,0.00,0.00,0,S01
24840,-7.71172,0.11253,5.37498,-0.4878,0.1829,-0.9146,0.00,0.00,0.00,0,S01
24860,-7.66145,0.09337,5.36062,-0.0610,-0.1829,-1.0366,0.00,0.00,0.00,0,S01
24880,-7.63511,0.11971,5.35822,0.0000,0.1220,-1.0976,0.00,0.00,0.00,0,S01
24900,-7.66863,0.12689,5.35104,-0.3049,0.5488,-1.2805,0.00,0.00,0.00,0,S01
24920,-7.71412,0.13408,5.39892,-0.4268,0.3659,-1.4634,0.00,0.00,0.00,0,S01
24940,-7.67342,0.15323,5.39414,0.1829,-0.4268,-1.8293,0.00,0.00,0.00,0,S01
24960,-7.63272,0.15802,5.38217,0.5488,-0.4878,-1.8902,0.00,0.00,0.00,0,S01
24980,-7.60398,0.15083,5.39174,0.4268,0.2439,-1.8902,0.00,0.00,0.00,0,S01
25000,-7.62793,0.12210,5.42287,0.1220,0.9756,-1.8902,0.00,0.00,0.00,0,S01
25020,-7.69496,0.09337,5.42047,0.0000,0.9146,-1.8902,0.00,0.00,0.00,0,S01
25040,-7.68539,0.05507,5.41329,0.1829,0.4268,-1.5854,0.00,0.00,0.00,0,S01
25060,-7.63990,0.06704,5.35822,0.1829,0.1220,-1.2805,0.00,0.00,0.00,0,S01
25080,-7.67581,0.06943,5.33907,-0.3049,0.4878,-0.9756,0.00,0.00,0.00,0,S01
25100,-7.70215,0.05746,5.36541,-0.9756,0.3659,-0.8537,0.00,0.00,0.00,0,S01
25120,-7.65905,0.06225,5.35822,-1.3415,-0.0610,-0.7317,0.00,0.00,0.00,0,S01
25140,-7.66145,0.06704,5.36541,-1.2195,0.1220,-0.7317,0.00,0.00,0.00,0,S01
25160,-7.64708,0.10056,5.40850,-0.8537,0.5488,-0.6098,0.00,0.00,0.00,0,S01
25180,-7.64947,0.14605,5.38935,-0.7927,0.7317,-0.5488,0.00,0.00,0.00,0,S01
25200,-7.65905,0.15083,5.40132,-1.3415,0.6707,-0.5488,0.00,0.00,0.00,0,S01
25220,-7.63511,0.16281,5.44202,-1.4634,0.4878,-0.6707,0.00,0.00,0.00,0,S01
25240,-7.62314,0.15083,5.43723,-0.7927,0.5488,-0.6707,0.00,0.00,0.00,0,S01
25260,-7.63511,0.14126,5.41090,-0.2439,0.9146,-0.7317,0.00,0.00,0.00,0,S01
25280,-7.64708,0.14365,5.40611,-0.1220,1.2195,-0.9756,0.00,0.00,0.00,0,S01
25300,-7.66145,0.13647,5.39174,-0.1829,1.2195,-1.2195,0.00,0.00,0.00,0,S01
25320,-7.67821,0.12210,5.36062,-0.1220,1.0366,-1.2805,0.00,0.00,0.00,0,S01
25340,-7.70454,0.12210,5.34625,0.0610,1.0976,-1.3415,0.00,0.00,0.00,0,S01
25360,-7.68539,0.11732,5.33189,0.2439,1.0976,-1.3415,0.00,0.00,0.00,0,S01
25380,-7.65666,0.12689,5.35822,-0.0610,1.4024,-1.3415,0.00,0.00,0.00,0,S01
25400,-7.68778,0.13886,5.38695,-0.1220,1.4634,-1.4634,0.00,0.00,0.00,0,S01
25420,-7.68778,0.13886,5.39414,0.0610,1.2805,-1.4634,0.00,0.00,0.00,0,S01
25440,-7.65666,0.13647,5.36062,0.2439,1.2805,-1.3415,0.00,0.00,0.00,0,S01
25460,-7.67102,0.11971,5.33668,0.1220,1.4634,-1.3415,0.00,0.00,0.00,0,S01
25480,-7.70694,0.12210,5.36062,-0.0610,1.4634,-1.4634,0.00,0.00,0.00,0,S01
25500,-7.70215,0.12450,5.34865,-0.0610,1.0366,-1.4024,0.00,0.00,0.00,0,S01
25520,-7.68060,0.12210,5.31752,0.1220,0.7317,-1.2805,0.00,0.00,0.00,0,S01
25540,-7.67581,0.11971,5.30795,-0.0610,0.9146,-1.2805,0.00,0.00,0.00,0,S01
25560,-7.69736,0.13408,5.31273,-0.3049,1.2805,-1.4024,0.00,0.00,0.00,0,S01
25580,-7.71172,0.14605,5.31034,-0.4878,1.5854,-1.4634,0.00,0.00,0.00,0,S01
25600,-7.73327,0.14605,5.31273,-0.4268,1.6463,-1.4634,0.00,0.00,0.00,0,S01
25620,-7.72609,0.14365,5.31992,-0.2439,1.5244,-1.4634,0.00,0.00,0.00,0,S01
25640,-7.69736,0.14844,5.33428,0.0000,1.4634,-1.4024,0.00,0.00,0.00,0,S01
25660,-7.67581,0.15083,5.31273,-0.0610,1.5244,-1.3415,0.00,0.00,0.00,0,S01
25680,-7.66863,0.13168,5.32470,-0.3049,1.7683,-1.4024,0.00,0.00,0.00,0,S01
25700,-7.70215,0.11732,5.34386,-0.3049,2.0122,-1.4024,0.00,0.00,0.00,0,S01
25720,-7.73806,0.12929,5.33668,-0.1829,1.7683,-1.3415,0.00,0.00,0.00,0,S01
25740,-7.72369,0.12929,5.29597,-0.3659,1.0976,-1.2805,0.00,0.00,0.00,0,S01
25760,-7.71651,0.12210,5.27443,-0.4878,0.6707,-1.3415,0.00,0.00,0.00,0,S01
25780,-7.74524,0.10056,5.27203,-0.3049,0.5488,-1.3415,0.00,0.00,0.00,0,S01
25800,-7.76440,0.09098,5.26246,-0.0610,0.4268,-1.2805,0.00,0.00,0.00,0,S01
25820,-7.75721,0.11492,5.22894,-0.0610,0.3049,-1.2195,0.00,0.00,0.00,0,S01
25840,-7.74764,0.14605,5.22175,-0.3049,0.3659,-1.2195,0.00,0.00,0.00,0,S01
25860,-7.73567,0.14844,5.27443,-0.6707,0.4268,-1.1585,0.00,0.00,0.00,0,S01
25880,-7.73806,0.14365,5.29119,-0.6098,0.3659,-1.1585,0.00,0.00,0.00,0,S01
25900,-7.71651,0.15323,5.29358,-0.3049,0.3659,-1.1585,0.00,0.00,0.00,0,S01
25920,-7.69018,0.16520,5.31992,-0.1829,0.4878,-1.0976,0.00,0.00,0.00,0,S01
25940,-7.67102,0.17238,5.34146,-0.1829,0.5488,-1.0976,0.00,0.00,0.00,0,S01
25960,-7.69018,0.17957,5.31992,-0.1829,0.4268,-1.2195,0.00,0.00,0.00,0,S01
25980,-7.70933,0.14365,5.32710,-0.1220,0.3049,-1.2805,0.00,0.00,0.00,0,S01
26000,-7.72848,0.11732,5.31034,0.1220,0.1220,-1.3415,0.00,0.00,0.00,0,S01
26020,-7.71172,0.11732,5.27921,-0.0610,-0.1220,-1.2805,0.00,0.00,0.00,0,S01
26040,-7.70454,0.13168,5.25288,-0.4878,0.0000,-1.2805,0.00,0.00,0.00,0,S01
26060,-7.71412,0.13168,5.25767,-0.4878,0.4268,-1.4024,0.00,0.00,0.00,0,S01
26080,-7.73327,0.12689,5.28400,-0.1220,0.7927,-1.4634,0.00,0.00,0.00,0,S01
26100,-7.72130,0.13168,5.27443,-0.1220,0.7927,-1.4024,0.00,0.00,0.00,0,S01
26120,-7.70454,0.15083,5.29119,-0.4878,0.6707,-1.3415,0.00,0.00,0.00,0,S01
26140,-7.71412,0.15083,5.31273,-0.6098,0.7317,-1.4634,0.00,0.00,0.00,0,S01
26160,-7.72609,0.11492,5.31752,-0.3049,0.7317,-1.4634,0.00,0.00,0.00,0,S01
26180,-7.71891,0.10774,5.28879,0.0610,0.6707,-1.4024,0.00,0.00,0.00,0,S01
26200,-7.74045,0.11732,5.28400,-0.0610,0.5488,-1.4024,0.00,0.00,0.00,0,S01
26220,-7.75482,0.14605,5.28640,-0.3659,0.3049,-1.4024,0.00,0.00,0.00,0,S01
26240,-7.74045,0.15323,5.25288,-0.5488,-0.0610,-1.3415,0.00,0.00,0.00,0,S01
26260,-7.73088,0.15083,5.25048,-0.5488,-0.1220,-1.3415,0.00,0.00,0.00,0,S01
26280,-7.76200,0.14844,5.26246,-0.3049,0.0000,-1.2805,0.00,0.00,0.00,0,S01
26300,-7.77397,0.14126,5.26964,-0.1829,-0.1220,-1.2195,0.00,0.00,0.00,0,S01
26320,-7.73567,0.15323,5.24330,-0.2439,-0.5488,-1.0976,0.00,0.00,0.00,0,S01
26340,-7.69736,0.14365,5.26246,-0.6098,-0.5488,-1.0976,0.00,0.00,0.00,0,S01
26360,-7.72609,0.13886,5.29837,-0.7317,-0.2439,-1.1585,0.00,0.00,0.00,0,S01
26380,-7.72848,0.14365,5.31992,-0.4878,-0.3049,-1.0976,0.00,0.00,0.00,0,S01
26400,-7.69018,0.14605,5.31034,-0.4878,-0.5488,-1.0366,0.00,0.00,0.00,0,S01
26420,-7.68060,0.16041,5.29837,-0.8537,-0.3049,-1.0976,0.00,0.00,0.00,0,S01
26440,-7.70215,0.14844,5.31273,-1.0366,0.0610,-1.2195,0.00,0.00,0.00,0,S01
26460,-7.71651,0.14844,5.33907,-0.6707,0.1220,-1.2805,0.00,0.00,0.00,0,S01
26480,-7.71172,0.13647,5.31513,-0.3659,-0.0610,-1.2195,0.00,0.00,0.00,0,S01
26500,-7.69018,0.13647,5.29597,-0.4878,-0.0610,-1.2805,0.00,0.00,0.00,0,S01
26520,-7.70454,0.12689,5.31034,-0.7317,0.1829,-1.3415,0.00,0.00,0.00,0,S01
26540,-7.72369,0.11971,5.33428,-0.4878,0.3049,-1.3415,0.00,0.00,0.00,0,S01
26560,-7.72848,0.11732,5.29358,-0.2439,0.2439,-1.2805,0.00,0.00,0.00,0,S01
26580,-7.74285,0.15562,5.29358,-0.9146,0.1829,-1.3415,0.00,0.00,0.00,0,S01
26600,-7.73806,0.15802,5.29119,-0.7927,0.0000,-1.4024,0.00,0.00,0.00,0,S01
26620,-7.70694,0.16041,5.29358,-0.3659,0.0000,-1.3415,0.00,0.00,0.00,0,S01
26640,-7.71651,0.14844,5.29119,0.0000,0.1829,-1.3415,0.00,0.00,0.00,0,S01
26660,-7.75482,0.15323,5.29358,-0.1220,0.0000,-1.2805,0.00,0.00,0.00,0,S01
26680,-7.71651,0.14365,5.29597,-0.3659,-0.6707,-1.2805,0.00,0.00,0.00,0,S01
26700,-7.68539,0.12929,5.31034,-0.3659,-0.8537,-1.2805,0.00,0.00,0.00,0,S01
26720,-7.70454,0.12450,5.32470,-0.4268,-0.5488,-1.2195,0.00,0.00,0.00,0,S01
26740,-7.69496,0.12450,5.32231,-0.4878,-0.4268,-1.1585,0.00,0.00,0.00,0,S01
26760,-7.69257,0.14605,5.31034,-0.6707,-0.3659,-1.1585,0.00,0.00,0.00,0,S01
26780,-7.70454,0.14844,5.31992,-0.9146,-0.1829,-1.1585,0.00,0.00,0.00,0,S01
26800,-7.69257,0.13886,5.32710,-0.8537,-0.0610,-1.1585,0.00,0.00,0.00,0,S01
26820,-7.69257,0.14365,5.32710,-0.5488,0.0610,-1.2195,0.00,0.00,0.00,0,S01
26840,-7.69257,0.15323,5.31992,-0.3659,0.1829,-1.2805,0.00,0.00,0.00,0,S01
26860,-7.70694,0.15802,5.32949,-0.4268,0.3659,-1.4024,0.00,0.00,0.00,0,S01
26880,-7.69975,0.13168,5.34386,-0.5488,0.5488,-1.4024,0.00,0.00,0.00,0,S01
26900,-7.71412,0.11971,5.35344,-0.3659,0.4878,-1.4024,0.00,0.00,0.00,0,S01
26920,-7.72848,0.13886,5.33668,-0.1829,0.1220,-1.4024,0.00,0.00,0.00,0,S01
26940,-7.70933,0.15083,5.28640,-0.3659,-0.3049,-1.3415,0.00,0.00,0.00,0,S01
26960,-7.70694,0.14844,5.28640,-0.6098,-0.2439,-1.2805,0.00,0.00,0.00,0,S01
26980,-7.71651,0.15323,5.32231,-0.6707,-0.0610,-1.2805,0.00,0.00,0.00,0,S01
27000,-7.71412,0.15802,5.31513,-0.5488,-0.0610,-1.2805,0.00,0.00,0.00,0,S01
27020,-7.70215,0.13408,5.30795,-0.4268,0.0000,-1.2805,0.00,0.00,0.00,0,S01
27040,-7.71651,0.12210,5.31513,-0.3659,-0.0610,-1.2805,0.00,0.00,0.00,0,S01
27060,-7.71651,0.13168,5.31513,-0.4878,-0.3049,-1.2195,0.00,0.00,0.00,0,S01
27080,-7.68299,0.13647,5.32710,-0.6707,-0.6098,-1.1585,0.00,0.00,0.00,0,S01
27100,-7.68060,0.14126,5.33189,-0.7317,-0.6098,-1.2195,0.00,0.00,0.00,0,S01
27120,-7.68539,0.12450,5.34386,-0.5488,-0.3049,-1.2805,0.00,0.00,0.00,0,S01
27140,-7.69496,0.12210,5.34625,-0.4878,-0.1829,-1.2195,0.00,0.00,0.00,0,S01
27160,-7.68539,0.11732,5.33668,-0.6098,-0.2439,-1.1585,0.00,0.00,0.00,0,S01
27180,-7.66863,0.13647,5.34625,-0.6707,-0.3049,-1.2195,0.00,0.00,0.00,0,S01
27200,-7.67821,0.14844,5.34625,-0.6707,-0.1829,-1.3415,0.00,0.00,0.00,0,S01
27220,-7.68299,0.14605,5.33907,-0.6098,0.1220,-1.3415,0.00,0.00,0.00,0,S01
27240,-7.69018,0.14844,5.35822,-0.5488,0.3049,-1.3415,0.00,0.00,0.00,0,S01
27260,-7.70215,0.12450,5.34146,-0.4268,0.2439,-1.2805,0.00,0.00,0.00,0,S01
27280,-7.69975,0.13408,5.34146,-0.3659,0.0610,-1.2805,0.00,0.00,0.00,0,S01
27300,-7.69975,0.14126,5.34625,-0.6098,0.0000,-1.2805,0.00,0.00,0.00,0,S01
27320,-7.69975,0.15083,5.34865,-0.7927,-0.0610,-1.2805,0.00,0.00,0.00,0,S01
27340,-7.69257,0.16281,5.35583,-0.6707,0.0000,-1.2805,0.00,0.00,0.00,0,S01
27360,-7.67821,0.15083,5.37019,-0.3659,0.1220,-1.2805,0.00,0.00,0.00,0,S01
27380,-7.70215,0.13168,5.33428,-0.1220,-0.1220,-1.2805,0.00,0.00,0.00,0,S01
27400,-7.67581,0.12210,5.31992,-0.2439,-0.5488,-1.2805,0.00,0.00,0.00,0,S01
27420,-7.66384,0.13408,5.32710,-0.4268,-0.6707,-1.2805,0.00,0.00,0.00,0,S01
27440,-7.67581,0.13886,5.36301,-0.6098,-0.6098,-1.2805,0.00,0.00,0.00,0,S01
27460,-7.68539,0.12450,5.36301,-0.7317,-0.6098,-1.2195,0.00,0.00,0.00,0,S01
27480,-7.68778,0.12450,5.34865,-0.6098,-0.7317,-1.1585,0.00,0.00,0.00,0,S01
27500,-7.68060,0.13886,5.33668,-0.4878,-0.7317,-1.2195,0.00,0.00,0.00,0,S01
27520,-7.66145,0.14365,5.32470,-0.7927,-0.6098,-1.2195,0.00,0.00,0.00,0,S01
27540,-7.67102,0.14844,5.35583,-0.9756,-0.3049,-1.2195,0.00,0.00,0.00,0,S01
27560,-7.69496,0.14844,5.38935,-0.6707,-0.1220,-1.2805,0.00,0.00,0.00,0,S01
27580,-7.67342,0.13886,5.38217,-0.3659,-0.4268,-1.2805,0.00,0.00,0.00,0,S01
27600,-7.65187,0.12689,5.36301,-0.3659,-0.5488,-1.2805,0.00,0.00,0.00,0,S01
27620,-7.63750,0.12450,5.37977,-0.6098,-0.4268,-1.2805,0.00,0.00,0.00,0,S01
27640,-7.66863,0.12929,5.38935,-0.7317,-0.3049,-1.3415,0.00,0.00,0.00,0,S01
27660,-7.67821,0.13647,5.37019,-0.4268,-0.2439,-1.4024,0.00,0.00,0.00,0,S01
27680,-7.66623,0.11971,5.35583,-0.2439,-0.2439,-1.3415,0.00,0.00,0.00,0,S01
27700,-7.65905,0.11732,5.36541,-0.2439,-0.2439,-1.2805,0.00,0.00,0.00,0,S01
27720,-7.65905,0.11732,5.39653,-0.4268,-0.2439,-1.2805,0.00,0.00,0.00,0,S01
27740,-7.66623,0.11492,5.38217,-0.5488,-0.3659,-1.2805,0.00,0.00,0.00,0,S01
27760,-7.65187,0.12210,5.37019,-0.5488,-0.4268,-1.2195,0.00,0.00,0.00,0,S01
27780,-7.64469,0.15562,5.39653,-0.6098,-0.0610,-1.2195,0.00,0.00,0.00,0,S01
27800,-7.66145,0.15323,5.42047,-0.6707,0.0610,-1.3415,0.00,0.00,0.00,0,S01
27820,-7.66145,0.14605,5.40371,-0.6707,-0.1220,-1.4024,0.00,0.00,0.00,0,S01
27840,-7.64947,0.12210,5.39414,-0.4878,-0.0610,-1.4024,0.00,0.00,0.00,0,S01
27860,-7.67102,0.11732,5.37977,-0.3049,0.1829,-1.3415,0.00,0.00,0.00,0,S01
27880,-7.68539,0.11971,5.37259,-0.3049,0.0610,-1.4024,0.00,0.00,0.00,0,S01
27900,-7.67581,0.11971,5.37019,-0.4268,-0.1829,-1.4024,0.00,0.00,0.00,0,S01
27920,-7.66145,0.12689,5.35583,-0.4878,-0.2439,-1.4634,0.00,0.00,0.00,0,S01
27940,-7.69018,0.12689,5.37019,-0.4268,-0.1829,-1.4634,0.00,0.00,0.00,0,S01
27960,-7.69736,0.13408,5.37977,-0.3049,-0.3659,-1.3415,0.00,0.00,0.00,0,S01
27980,-7.64708,0.13647,5.37738,-0.4268,-0.5488,-1.2195,0.00,0.00,0.00,0,S01
28000,-7.62793,0.14126,5.37259,-0.4878,-0.3659,-1.2805,0.00,0.00,0.00,0,S01
28020,-7.67102,0.14605,5.40850,-0.3659,0.0000,-1.3415,0.00,0.00,0.00,0,S01
28040,-7.66384,0.15562,5.43963,-0.2439,-0.0610,-1.3415,0.00,0.00,0.00,0,S01
28060,-7.61835,0.14605,5.45160,-0.2439,-0.4268,-1.2805,0.00,0.00,0.00,0,S01
28080,-7.61835,0.13168,5.43484,-0.3049,-0.5488,-1.2805,0.00,0.00,0.00,0,S01
28100,-7.61835,0.15323,5.45639,-0.3049,-0.4268,-1.4024,0.00,0.00,0.00,0,S01
28120,-7.60159,0.15083,5.44202,-0.3049,-0.1829,-1.4024,0.00,0.00,0.00,0,S01
28140,-7.65905,0.14126,5.42526,-0.1829,-0.0610,-1.4634,0.00,0.00,0.00,0,S01
28160,-7.64708,0.11492,5.42766,-0.0610,-0.2439,-1.3415,0.00,0.00,0.00,0,S01
28180,-7.63032,0.09098,5.39892,-0.1220,-0.4268,-1.1585,0.00,0.00,0.00,0,S01
28200,-7.62074,0.05507,5.38456,-0.5488,-0.4268,-1.0366,0.00,0.00,0.00,0,S01
28220,-7.64469,0.07183,5.39174,-0.9146,-0.2439,-1.0366,0.00,0.00,0.00,0,S01
28240,-7.66623,0.11013,5.40611,-0.7927,-0.1829,-1.0976,0.00,0.00,0.00,0,S01
28260,-7.64469,0.14365,5.39414,-0.6098,-0.1220,-1.0976,0.00,0.00,0.00,0,S01
28280,-7.63990,0.14605,5.38695,-0.6098,0.0610,-1.0976,0.00,0.00,0.00,0,S01
28300,-7.61596,0.16041,5.39653,-0.6707,0.2439,-1.1585,0.00,0.00,0.00,0,S01
28320,-7.61596,0.17478,5.43005,-0.7317,0.4268,-1.2195,0.00,0.00,0.00,0,S01
28340,-7.62793,0.18196,5.45399,-0.5488,0.4878,-1.3415,0.00,0.00,0.00,0,S01
28360,-7.62314,0.14126,5.44441,-0.3049,0.3659,-1.4024,0.00,0.00,0.00,0,S01
28380,-7.64229,0.12210,5.42047,-0.1829,0.1829,-1.3415,0.00,0.00,0.00,0,S01
28400,-7.65666,0.12210,5.41568,-0.4268,0.0610,-1.2805,0.00,0.00,0.00,0,S01
28420,-7.61835,0.12450,5.38935,-0.7317,0.0000,-1.2195,0.00,0.00,0.00,0,S01
28440,-7.61835,0.11253,5.38935,-0.9756,0.3659,-1.2195,0.00,0.00,0.00,0,S01
28460,-7.65426,0.11253,5.42526,-0.7927,0.9146,-1.2195,0.00,0.00,0.00,0,S01
28480,-7.66623,0.11253,5.42766,-0.4268,0.9146,-1.2805,0.00,0.00,0.00,0,S01
28500,-7.61356,0.13168,5.41808,-0.3659,0.8537,-1.2805,0.00,0.00,0.00,0,S01
28520,-7.64229,0.14605,5.41090,-0.4268,1.0976,-1.4634,0.00,0.00,0.00,0,S01
28540,-7.71891,0.14605,5.39653,-0.3049,1.0366,-1.5244,0.00,0.00,0.00,0,S01
28560,-7.72369,0.10534,5.38695,-0.2439,0.3049,-1.2805,0.00,0.00,0.00,0,S01
28580,-7.64229,0.07422,5.37019,-0.4268,-0.5488,-1.0366,0.00,0.00,0.00,0,S01
28600,-7.59680,0.09816,5.37259,-0.9146,-0.6098,-1.0976,0.00,0.00,0.00,0,S01
28620,-7.62074,0.16041,5.41090,-0.9756,0.2439,-1.2805,0.00,0.00,0.00,0,S01
28640,-7.63511,0.18435,5.42526,-0.9146,1.1585,-1.2195,0.00,0.00,0.00,0,S01
28660,-7.57047,0.15083,5.42766,-0.8537,1.7683,-1.0366,0.00,0.00,0.00,0,S01
28680,-7.59441,0.12450,5.43723,-0.7927,2.3780,-1.0976,0.00,0.00,0.00,0,S01
28700,-7.69018,0.15562,5.45878,-0.4268,2.4390,-1.4634,0.00,0.00,0.00,0,S01
28720,-7.72130,0.15562,5.43244,0.1220,1.5854,-1.6463,0.00,0.00,0.00,0,S01
28740,-7.65426,0.07661,5.37259,0.3659,0.7317,-1.4024,0.00,0.00,0.00,0,S01
28760,-7.64229,0.01676,5.32710,0.2439,0.8537,-1.2195,0.00,0.00,0.00,0,S01
28780,-7.70215,0.02155,5.36301,-0.3659,1.4024,-1.0366,0.00,0.00,0.00,0,S01
28800,-7.71651,0.11732,5.37498,-1.2195,1.2805,-0.8537,0.00,0.00,0.00,0,S01
28820,-7.69018,0.18435,5.35344,-1.9512,0.7927,-0.5488,0.00,0.00,0.00,0,S01
28840,-7.68060,0.16999,5.34146,-1.9512,0.6098,-0.3659,0.00,0.00,0.00,0,S01
28860,-7.68778,0.13886,5.38217,-1.2805,0.6098,-0.3049,0.00,0.00,0.00,0,S01
28880,-7.66145,0.13408,5.38695,-0.8537,0.3659,-0.3049,0.00,0.00,0.00,0,S01
28900,-7.64229,0.15802,5.35104,-1.0976,0.2439,-0.6098,0.00,0.00,0.00,0,S01
28920,-7.63511,0.18435,5.37977,-1.0366,0.7317,-1.0976,0.00,0.00,0.00,0,S01
28940,-7.64708,0.16759,5.44441,-0.1220,1.2195,-1.4634,0.00,0.00,0.00,0,S01
28960,-7.66145,0.14844,5.43484,1.0366,0.9146,-1.6463,0.00,0.00,0.00,0,S01
28980,-7.60877,0.11492,5.38935,1.2805,0.4878,-2.1341,0.00,0.00,0.00,0,S01
29000,-7.64708,0.11013,5.39174,1.2805,0.7927,-2.3780,0.00,0.00,0.00,0,S01
29020,-7.69018,0.13886,5.35104,1.4024,0.7317,-2.2561,0.00,0.00,0.00,0,S01
29040,-7.67102,0.06464,5.34146,1.0366,0.7927,-1.9512,0.00,0.00,0.00,0,S01
29060,-7.68060,0.07422,5.35583,0.7927,1.2195,-1.9512,0.00,0.00,0.00,0,S01
29080,-7.68299,0.15323,5.35583,0.9756,1.1585,-2.1951,0.00,0.00,0.00,0,S01
29100,-7.69496,0.21548,5.31034,1.0366,0.9146,-2.2561,0.00,0.00,0.00,0,S01
29120,-7.70933,0.20590,5.27203,0.9756,1.1585,-2.1341,0.00,0.00,0.00,0,S01
29140,-7.70454,0.17717,5.27443,0.7317,1.7073,-1.8902,0.00,0.00,0.00,0,S01
29160,-7.68299,0.17717,5.35822,0.3049,1.8902,-1.6463,0.00,0.00,0.00,0,S01
29180,-7.66863,0.16041,5.38695,-0.2439,1.5854,-1.4024,0.00,0.00,0.00,0,S01
29200,-7.65666,0.14844,5.40132,-0.5488,1.2195,-1.2195,0.00,0.00,0.00,0,S01
29220,-7.63750,0.13886,5.38935,-0.6098,1.2195,-1.0976,0.00,0.00,0.00,0,S01
29240,-7.61596,0.14365,5.36780,-0.7317,1.7073,-0.9756,0.00,0.00,0.00,0,S01
29260,-7.68539,0.15323,5.35344,-0.9756,2.3171,-1.0976,0.00,0.00,0.00,0,S01
29280,-7.77876,0.13647,5.36062,-0.9756,2.0122,-1.1585,0.00,0.00,0.00,0,S01
29300,-7.75003,0.11971,5.29837,-0.7927,0.9146,-1.1585,0.00,0.00,0.00,0,S01
29320,-7.69975,0.10056,5.25288,-0.5488,0.5488,-1.1585,0.00,0.00,0.00,0,S01
29340,-7.72369,0.09098,5.27682,-0.3659,0.9756,-1.2805,0.00,0.00,0.00,0,S01
29360,-7.76679,0.11013,5.29358,-0.4268,1.0366,-1.3415,0.00,0.00,0.00,0,S01
29380,-7.75243,0.12689,5.28400,-0.3049,0.3049,-1.3415,0.00,0.00,0.00,0,S01
29400,-7.71651,0.11971,5.28640,-0.2439,-0.3049,-1.2805,0.00,0.00,0.00,0,S01
29420,-7.70215,0.12689,5.30316,-0.1829,-0.4268,-1.0976,0.00,0.00,0.00,0,S01
29440,-7.70454,0.14126,5.32949,-0.4268,-0.3049,-1.0366,0.00,0.00,0.00,0,S01
29460,-7.69496,0.15562,5.33189,-0.7927,-0.5488,-1.0366,0.00,0.00,0.00,0,S01
29480,-7.68299,0.16041,5.34865,-0.8537,-0.8537,-1.0976,0.00,0.00,0.00,0,S01
29500,-7.68299,0.14365,5.36541,-0.5488,-0.8537,-1.0366,0.00,0.00,0.00,0,S01
29520,-7.67581,0.13168,5.34146,-0.3049,-0.7927,-0.9756,0.00,0.00,0.00,0,S01
29540,-7.67102,0.13168,5.34865,-0.3659,-0.7927,-1.0366,0.00,0.00,0.00,0,S01
29560,-7.68539,0.13647,5.33907,-0.7317,-0.7927,-1.0366,0.00,0.00,0.00,0,S01
29580,-7.70215,0.11971,5.34386,-0.9146,-0.8537,-0.9756,0.00,0.00,0.00,0,S01
29600,-7.72369,0.09577,5.36301,-0.7317,-1.2195,-0.9756,0.00,0.00,0.00,0,S01
29620,-7.72848,0.09098,5.39653,-0.4878,-1.6463,-0.9756,0.00,0.00,0.00,0,S01
29640,-7.66384,0.13168,5.37977,-0.3659,-2.1341,-0.9756,0.00,0.00,0.00,0,S01
29660,-7.61835,0.17478,5.38456,-0.7317,-1.7073,-1.0366,0.00,0.00,0.00,0,S01
29680,-7.66145,0.23703,5.37019,-0.6098,-0.9146,-1.2195,0.00,0.00,0.00,0,S01
29700,-7.69496,0.21787,5.35104,-0.3049,-0.6707,-1.2805,0.00,0.00,0.00,0,S01
29720,-7.65666,0.18196,5.33907,0.1220,-0.8537,-1.2805,0.00,0.00,0.00,0,S01
29740,-7.65187,0.17957,5.33189,0.4268,-0.7317,-1.4634,0.00,0.00,0.00,0,S01
29760,-7.65426,0.13647,5.33668,0.4268,-0.4878,-1.5854,0.00,0.00,0.00,0,S01
29780,-7.66384,0.09337,5.38456,0.3049,-0.3659,-1.4024,0.00,0.00,0.00,0,S01
29800,-7.64708,0.05267,5.40850,-0.1220,-0.4268,-1.0366,0.00,0.00,0.00,0,S01
29820,-7.65666,0.08140,5.38456,-1.1585,-0.3049,-0.6098,0.00,0.00,0.00,0,S01
29840,-7.67102,0.12689,5.37259,-2.3780,-0.1220,-0.4268,0.00,0.00,0.00,0,S01
29860,-7.68060,0.16281,5.39174,-2.6829,-0.1829,-0.3659,0.00,0.00,0.00,0,S01
29880,-7.69257,0.18196,5.37977,-1.8293,-0.4878,-0.3659,0.00,0.00,0.00,0,S01
29900,-7.67102,0.18914,5.39653,-1.0366,-0.7927,-0.4268,0.00,0.00,0.00,0,S01
29920,-7.64708,0.18914,5.38217,-0.7927,-0.8537,-0.6098,0.00,0.00,0.00,0,S01
29940,-7.67102,0.18675,5.39414,-0.7927,-0.8537,-0.8537,0.00,0.00,0.00,0,S01
29960,-7.66384,0.16520,5.39414,-0.3659,-1.0366,-1.0976,0.00,0.00,0.00,0,S01
29980,-7.66863,0.13168,5.41568,0.2439,-1.3415,-1.2195,0.00,0.00,0.00,0,S01
# DONE 1500 samples in 30.0s
