timestamp,ax,ay,az,gx,gy,gz,mx,my,mz,label,subject_id
0,-8.03015,-1.09894,-0.52912,2.4390,3.9634,-19.7561,0.00,0.00,0.00,3,S01
20,-8.18817,-1.15401,-0.17238,4.8171,5.2439,-17.0732,0.00,0.00,0.00,3,S01
40,-8.56645,-1.00317,0.00479,7.5610,5.2439,-15.6098,0.00,0.00,0.00,3,S01
60,-8.74841,-0.91937,0.45250,8.0488,5.3659,-12.6829,0.00,0.00,0.00,3,S01
80,-8.35576,-0.91698,0.68474,7.7439,4.7561,-8.7805,0.00,0.00,0.00,3,S01
100,-8.03494,-0.70629,1.00796,6.2805,6.6463,-4.8171,0.00,0.00,0.00,3,S01
120,-8.35576,-0.37350,1.70228,1.0976,9.5732,-0.4268,0.00,0.00,0.00,3,S01
140,-9.04051,0.08619,2.07577,-6.0366,7.3780,4.0244,0.00,0.00,0.00,3,S01
160,-9.26556,-0.15802,1.98958,-14.5732,0.8537,8.1098,0.00,0.00,0.00,3,S01
180,-9.15303,-1.11091,1.53468,-17.5000,-3.9634,7.7439,0.00,0.00,0.00,3,S01
200,-9.29190,-2.07577,0.61531,-12.9268,-4.1463,2.0732,0.00,0.00,0.00,3,S01
220,-9.85453,-2.39420,1.31921,-8.9634,-1.4024,-4.3902,0.00,0.00,0.00,3,S01
240,-10.38605,-1.27850,3.08373,-9.8171,-3.9634,-10.7927,0.00,0.00,0.00,3,S01
260,-10.35492,0.58658,2.77967,-17.9268,-14.6951,-14.7561,0.00,0.00,0.00,3,S01
280,-10.42196,0.43574,1.34315,-30.9146,-17.8659,-14.5732,0.00,0.00,0.00,3,S01
300,-11.16416,-1.56102,-0.93374,-32.9878,-12.6220,-18.7195,0.00,0.00,0.00,3,S01
320,-11.21684,-2.84431,-2.02549,-24.4512,-6.4024,-27.7439,0.00,0.00,0.00,3,S01
340,-10.72124,-1.17555,-1.98240,-22.5610,-12.6829,-33.1098,0.00,0.00,0.00,3,S01
360,-11.05163,0.45490,-2.52349,-28.4146,-22.2561,-28.6585,0.00,0.00,0.00,3,S01
380,-11.66455,-0.47166,-2.90656,-25.7317,-14.3902,-13.1707,0.00,0.00,0.00,3,S01
400,-11.61188,-1.71425,-0.63686,-17.8049,-0.1220,1.2195,0.00,0.00,0.00,3,S01
420,-10.69969,-1.58736,-0.13408,-6.8293,-5.5488,12.0732,0.00,0.00,0.00,3,S01
440,-9.71088,-0.50996,-0.84036,4.2683,-9.6951,21.4634,0.00,0.00,0.00,3,S01
460,-8.94953,-0.05267,-1.03908,6.7073,-6.7683,29.3293,0.00,0.00,0.00,3,S01
480,-8.33182,-0.20111,-0.89543,7.3780,-4.0244,32.6829,0.00,0.00,0.00,3,S01
500,-8.19296,-0.10534,-0.56503,8.4146,-0.6707,30.0000,0.00,0.00,0.00,3,S01
520,-8.19056,0.33519,-0.70868,10.0000,1.8293,25.8537,0.00,0.00,0.00,3,S01
540,-8.06128,0.52194,-0.98162,9.1463,5.1220,22.8049,0.00,0.00,0.00,3,S01
560,-7.97987,0.43574,-0.75896,3.7195,8.9024,19.6341,0.00,0.00,0.00,3,S01
580,-8.04691,0.34477,-0.45490,-2.3171,10.7927,15.2439,0.00,0.00,0.00,3,S01
600,-8.04691,0.33998,-0.48602,-6.3415,11.0366,12.0732,0.00,0.00,0.00,3,S01
620,-8.06367,0.32322,-0.28491,-10.4878,12.4390,9.6951,0.00,0.00,0.00,3,S01
640,-8.27197,0.06225,0.23463,-12.9268,13.1098,6.7073,0.00,0.00,0.00,3,S01
660,-8.41562,-0.11732,0.42377,-10.3049,11.8293,3.6585,0.00,0.00,0.00,3,S01
680,-8.18099,-0.34477,0.51715,-5.9756,11.3415,1.8902,0.00,0.00,0.00,3,S01
700,-7.90326,-0.41659,0.57700,-3.1098,12.6829,-0.5488,0.00,0.00,0.00,3,S01
720,-8.02536,-0.28730,0.73502,-1.0976,18.0488,-4.1463,0.00,0.00,0.00,3,S01
740,-8.51857,-0.18435,1.07260,2.0732,23.4756,-7.5000,0.00,0.00,0.00,3,S01
760,-9.21049,-0.31125,1.19710,6.7683,23.7805,-9.2683,0.00,0.00,0.00,3,S01
780,-9.80426,-0.41899,1.33357,13.4146,19.5732,-9.6341,0.00,0.00,0.00,3,S01
800,-10.17057,-0.09816,1.39582,19.7561,12.1951,-7.9878,0.00,0.00,0.00,3,S01
820,-9.97185,-0.06225,1.01275,22.5000,4.5122,-4.2683,0.00,0.00,0.00,3,S01
840,-9.78750,0.02394,1.23301,26.7683,3.1098,-1.7073,0.00,0.00,0.00,3,S01
860,-9.77313,0.33279,1.74537,30.2439,5.0000,0.9756,0.00,0.00,0.00,3,S01
880,-9.84975,0.31843,2.58574,31.0366,6.0976,5.6098,0.00,0.00,0.00,3,S01
900,-10.28310,0.41659,2.94966,33.3537,5.3659,8.2927,0.00,0.00,0.00,3,S01
920,-11.19529,1.01035,1.80762,38.5366,3.9024,10.3049,0.00,0.00,0.00,3,S01
940,-11.78905,1.87705,0.17478,36.9512,7.2561,17.1951,0.00,0.00,0.00,3,S01
960,-11.28387,0.87867,0.63925,28.3537,11.8902,26.7683,0.00,0.00,0.00,3,S01
980,-10.70448,-0.12450,-0.73741,28.8415,1.9512,25.7317,0.00,0.00,0.00,3,S01
1000,-9.89524,-0.72065,-2.22182,36.3415,-6.2805,18.2317,0.00,0.00,0.00,3,S01
1020,-9.81383,-0.24421,-2.71263,36.8293,-2.9268,11.8293,0.00,0.00,0.00,3,S01
1040,-10.24479,0.06464,-1.75495,31.4634,6.2805,5.0000,0.00,0.00,0.00,3,S01
1060,-9.61990,-0.09098,-0.81403,15.7317,3.5366,-9.3902,0.00,0.00,0.00,3,S01
1080,-8.96629,-0.09577,-0.93853,12.8659,-0.5488,-17.6220,0.00,0.00,0.00,3,S01
1100,-8.38928,-0.25139,-1.02472,11.7073,0.4268,-24.2073,0.00,0.00,0.00,3,S01
1120,-8.09719,-0.45011,-0.76854,10.0610,6.7683,-28.4146,0.00,0.00,0.00,3,S01
1140,-8.14747,-0.43096,-0.47884,5.3049,10.6707,-31.7073,0.00,0.00,0.00,3,S01
1160,-8.20014,-0.72305,-0.63446,1.6463,7.3780,-32.5610,0.00,0.00,0.00,3,S01
1180,-8.36055,-0.83079,-0.54588,2.3171,4.9390,-32.4390,0.00,0.00,0.00,3,S01
1200,-8.38928,-0.84994,-0.34955,4.4512,3.6585,-31.5244,0.00,0.00,0.00,3,S01
1220,-8.24802,-0.90022,-0.41659,6.5244,1.0976,-29.5732,0.00,0.00,0.00,3,S01
1240,-8.20972,-1.02951,-0.04549,8.1098,-0.5488,-27.7439,0.00,0.00,0.00,3,S01
1260,-8.37252,-1.16119,0.47884,10.9146,-2.5000,-25.1220,0.00,0.00,0.00,3,S01
1280,-8.55448,-1.08457,0.45729,12.2561,-4.8171,-20.3659,0.00,0.00,0.00,3,S01
1300,-8.58561,-0.62728,0.62489,9.6951,-3.4756,-15.2439,0.00,0.00,0.00,3,S01
1320,-8.71729,-0.49321,1.20428,4.0244,-0.9756,-11.6463,0.00,0.00,0.00,3,S01
1340,-9.19373,-0.50996,1.65918,-2.0122,0.3049,-10.5488,0.00,0.00,0.00,3,S01
1360,-9.57441,-0.51715,2.09253,-9.3902,-0.0610,-12.3780,0.00,0.00,0.00,3,S01
1380,-9.45949,-0.98162,2.44687,-15.9146,-3.0488,-16.0976,0.00,0.00,0.00,3,S01
1400,-9.20092,-1.47962,2.51152,-19.2683,-6.8902,-18.5366,0.00,0.00,0.00,3,S01
1420,-9.09078,-1.53947,2.29604,-21.9512,-6.7073,-15.8537,0.00,0.00,0.00,3,S01
1440,-9.27274,-1.13006,0.97205,-25.9146,-4.8780,-11.0366,0.00,0.00,0.00,3,S01
1460,-9.43316,-0.33519,-0.26576,-33.4756,0.6098,-8.4146,0.00,0.00,0.00,3,S01
1480,-9.60554,-0.71826,-1.70946,-35.2439,0.9146,-7.4390,0.00,0.00,0.00,3,S01
1500,-10.00297,-0.42856,-2.57137,-38.0488,-6.7073,-8.5366,0.00,0.00,0.00,3,S01
1520,-10.57519,-1.10373,-1.70707,-50.5488,-7.6829,-6.9512,0.00,0.00,0.00,3,S01
1540,-11.33415,-1.36948,-1.26893,-47.0122,-3.4146,-7.5000,0.00,0.00,0.00,3,S01
1560,-12.01410,-0.80924,-1.50116,-36.2195,1.4634,-4.0854,0.00,0.00,0.00,3,S01
1580,-12.23676,-0.26336,-1.15640,-33.7195,6.3415,6.7073,0.00,0.00,0.00,3,S01
1600,-11.98059,0.08140,-1.15161,-34.3293,8.2927,16.4024,0.00,0.00,0.00,3,S01
1620,-11.55921,0.02873,-0.93374,-34.2073,10.0610,23.2317,0.00,0.00,0.00,3,S01
1640,-11.53048,0.27533,-0.54109,-33.0488,11.5854,28.5366,0.00,0.00,0.00,3,S01
1660,-11.82257,0.76136,0.13408,-34.3902,12.3171,33.1098,0.00,0.00,0.00,3,S01
1680,-11.41555,0.83797,0.33758,-35.0000,9.9390,36.3415,0.00,0.00,0.00,3,S01
1700,-10.31662,0.84515,0.36631,-35.0610,5.4878,34.6341,0.00,0.00,0.00,3,S01
1720,-8.91840,0.37110,0.53391,-37.3171,1.5854,31.5244,0.00,0.00,0.00,3,S01
1740,-7.76440,-0.49081,0.94092,-36.6463,0.9146,29.3293,0.00,0.00,0.00,3,S01
1760,-6.63433,-1.43173,1.66876,-28.7195,0.3659,26.1585,0.00,0.00,0.00,3,S01
1780,-5.97832,-1.44131,2.16675,-18.7195,-5.9756,20.9756,0.00,0.00,0.00,3,S01
1800,-5.01346,-0.82839,2.27210,-11.2195,-15.6707,17.1951,0.00,0.00,0.00,3,S01
1820,-3.87861,-0.48363,1.66876,-4.3293,-26.0366,13.5366,0.00,0.00,0.00,3,S01
1840,-3.19387,-0.40941,0.93853,3.2317,-32.6220,6.3415,0.00,0.00,0.00,3,S01
1860,-3.93128,1.03908,0.06225,10.9756,-33.5976,-1.5244,0.00,0.00,0.00,3,S01
1880,-7.44357,1.80283,-3.04303,15.9146,-35.8537,-4.7561,0.00,0.00,0.00,3,S01
1900,-11.74595,-1.06781,-6.35900,20.3659,-19.5732,-2.8049,0.00,0.00,0.00,3,S01
1920,-12.54801,-3.51708,3.23696,17.5000,27.8659,0.1220,0.00,0.00,0.00,3,S01
1940,-13.13938,-1.57538,0.46926,20.4268,-5.7927,-7.0732,0.00,0.00,0.00,3,S01
1960,-14.31014,1.65200,-3.67510,33.4756,-19.0244,-8.8415,0.00,0.00,0.00,3,S01
1980,-14.76744,0.88346,-1.39343,14.1463,12.7439,-3.7805,0.00,0.00,0.00,3,S01
2000,-14.67885,-0.83797,0.52672,-2.1341,22.3171,-9.0854,0.00,0.00,0.00,3,S01
2020,-13.96538,-2.08774,-0.36871,7.0122,16.0976,-18.8415,0.00,0.00,0.00,3,S01
2040,-12.89756,-2.78685,0.16520,18.9634,17.1951,-27.5610,0.00,0.00,0.00,3,S01
2060,-11.31500,-2.09732,0.02155,29.7561,11.1585,-33.1098,0.00,0.00,0.00,3,S01
2080,-9.73722,-0.90501,0.34237,31.6463,5.7317,-29.0244,0.00,0.00,0.00,3,S01
2100,-8.47069,-0.16999,0.60334,25.7927,4.3293,-17.3780,0.00,0.00,0.00,3,S01
2120,-7.17542,0.06225,1.24977,21.5244,7.8659,-8.2927,0.00,0.00,0.00,3,S01
2140,-6.06691,0.39504,2.04465,19.8171,4.8171,-7.1341,0.00,0.00,0.00,3,S01
2160,-5.04219,0.18435,2.26731,19.2683,-10.1829,-7.1951,0.00,0.00,0.00,3,S01
2180,-3.71341,0.21548,1.77171,20.7927,-25.9146,-3.4146,0.00,0.00,0.00,3,S01
2200,-3.06697,-0.08140,0.82121,20.7317,-40.4878,2.7439,0.00,0.00,0.00,3,S01
2220,-2.94726,-1.17316,-0.66319,19.8171,-62.3171,5.5488,0.00,0.00,0.00,3,S01
2240,-3.07655,-1.02472,-2.19788,17.7439,-78.4146,-1.8902,0.00,0.00,0.00,3,S01
2260,-5.69341,-4.26407,-4.73813,6.6463,-74.9390,-18.5366,0.00,0.00,0.00,3,S01
2280,-11.72441,-3.30160,-8.44674,2.1341,-36.0366,-61.8293,0.00,0.00,0.00,3,S01
2300,-17.43218,4.73334,-3.11007,-19.6341,61.1585,-101.8293,0.00,0.00,0.00,3,S01
2320,-16.27339,-1.71904,-0.36392,-43.4756,12.9878,-5.1829,0.00,0.00,0.00,3,S01
2340,-15.72272,-1.95606,-0.97205,-37.6829,7.8659,6.7073,0.00,0.00,0.00,3,S01
2360,-15.48091,0.23703,0.49081,-33.7805,23.4756,16.2195,0.00,0.00,0.00,3,S01
2380,-13.81454,1.31681,-0.36152,-32.2561,17.0732,33.9024,0.00,0.00,0.00,3,S01
2400,-11.20008,0.62489,-0.50518,-35.6707,12.1951,48.7195,0.00,0.00,0.00,3,S01
2420,-9.36851,-0.40701,-0.08380,-40.1220,11.5854,50.7927,0.00,0.00,0.00,3,S01
2440,-8.53772,-0.39744,0.67277,-38.5976,15.9146,41.0976,0.00,0.00,0.00,3,S01
2460,-7.62553,-0.00718,1.35751,-30.7927,17.8049,32.0732,0.00,0.00,0.00,3,S01
2480,-6.27041,-0.36871,1.87227,-22.1341,10.0000,30.7317,0.00,0.00,0.00,3,S01
2500,-4.85305,-0.76854,2.07338,-17.0732,-4.3902,32.8659,0.00,0.00,0.00,3,S01
2520,-3.93846,-0.34716,1.81959,-15.6707,-22.0732,28.9634,0.00,0.00,0.00,3,S01
2540,-2.99275,-0.75657,1.14443,-7.8049,-38.0488,21.1585,0.00,0.00,0.00,3,S01
2560,-2.49476,-0.28252,-0.01915,9.6341,-51.5244,9.6341,0.00,0.00,0.00,3,S01
2580,-3.71580,1.95846,-1.64960,17.5610,-62.0732,-2.0732,0.00,0.00,0.00,3,S01
2600,-6.82108,2.27928,-4.44603,12.5000,-59.3902,2.3171,0.00,0.00,0.00,3,S01
2620,-11.03248,-1.18752,-7.03416,6.8902,-22.1341,14.2073,0.00,0.00,0.00,3,S01
2640,-12.58392,-5.07571,3.63679,0.7317,49.6341,12.5610,0.00,0.00,0.00,3,S01
2660,-14.47056,-3.70622,4.26647,6.3415,24.7561,-11.5244,0.00,0.00,0.00,3,S01
2680,-15.34923,0.47166,-0.93613,47.1951,-2.9268,-17.3780,0.00,0.00,0.00,3,S01
2700,-15.99806,0.77093,-0.92895,35.9756,18.7195,-6.7683,0.00,0.00,0.00,3,S01
2720,-16.14410,-0.71826,1.58257,12.9878,31.4634,-10.0000,0.00,0.00,0.00,3,S01
2740,-14.95179,-1.12767,0.84994,11.8902,19.5732,-21.2195,0.00,0.00,0.00,3,S01
2760,-13.03882,-1.46046,-0.28252,18.1707,7.9268,-26.7073,0.00,0.00,0.00,3,S01
2780,-10.96305,-2.07338,0.49560,18.2317,9.2683,-26.5854,0.00,0.00,0.00,3,S01
2800,-9.29908,-1.67355,0.98641,18.1707,13.8415,-23.5366,0.00,0.00,0.00,3,S01
2820,-8.24563,-0.97923,1.58017,10.9146,16.7073,-16.1585,0.00,0.00,0.00,3,S01
2840,-6.82347,-0.06225,1.99437,13.7805,12.6220,-7.9268,0.00,0.00,0.00,3,S01
2860,-5.20978,1.04866,2.18112,18.9634,-3.7805,-0.9756,0.00,0.00,0.00,3,S01
2880,-3.67989,0.21308,1.52750,21.8293,-26.2195,9.3293,0.00,0.00,0.00,3,S01
2900,-2.14520,-0.39983,1.17076,20.9756,-38.8415,12.8659,0.00,0.00,0.00,3,S01
2920,-1.33118,-1.70946,0.74939,24.9390,-48.4146,9.3293,0.00,0.00,0.00,3,S01
2940,-1.28090,-2.09493,-0.56024,40.8537,-67.7439,-1.4024,0.00,0.00,0.00,3,S01
2960,-2.67911,-2.49236,-2.39899,46.5854,-86.8902,-19.5732,0.00,0.00,0.00,3,S01
2980,-7.94396,-6.20817,-7.34781,40.1829,-87.1951,-45.7927,0.00,0.00,0.00,3,S01
3000,-16.14410,1.41258,-9.35893,11.7073,-15.6098,-110.6098,0.00,0.00,0.00,3,S01
3020,-20.40339,8.59279,2.99036,-36.8293,116.4634,-109.3902,0.00,0.00,0.00,3,S01
3040,-18.68914,1.62327,5.94959,-78.6585,96.8293,-28.0488,0.00,0.00,0.00,3,S01
3060,-18.08580,-1.70467,-0.18435,-76.0976,10.6098,4.8780,0.00,0.00,0.00,3,S01
3080,-16.36197,-3.08852,-1.47243,-63.7805,9.9390,18.2317,0.00,0.00,0.00,3,S01
3100,-14.73871,-0.89304,1.48919,-53.7805,32.8659,20.9756,0.00,0.00,0.00,3,S01
3120,-12.74434,0.36871,0.50518,-48.9634,19.2683,34.7561,0.00,0.00,0.00,3,S01
3140,-10.40281,0.20111,-0.62968,-45.7927,8.6585,52.0732,0.00,0.00,0.00,3,S01
3160,-8.89446,0.03591,-0.51715,-44.7561,12.5610,57.1951,0.00,0.00,0.00,3,S01
3180,-7.84101,0.21548,0.51475,-45.3049,19.4512,50.1220,0.00,0.00,0.00,3,S01
3200,-6.68940,0.05267,1.58736,-41.0976,17.8659,41.0976,0.00,0.00,0.00,3,S01
3220,-5.43963,-0.48842,2.07577,-36.3415,3.5976,36.1585,0.00,0.00,0.00,3,S01
3240,-4.52025,-0.61052,1.74537,-35.9756,-15.0610,30.7317,0.00,0.00,0.00,3,S01
3260,-3.72538,-0.93613,1.33357,-32.5000,-29.2073,20.7927,0.00,0.00,0.00,3,S01
3280,-2.74376,-1.53229,0.66080,-14.6341,-38.7805,10.3049,0.00,0.00,0.00,3,S01
3300,-2.85389,-0.33758,-0.54348,5.6098,-49.3902,-3.2317,0.00,0.00,0.00,3,S01
3320,-4.82910,1.67594,-2.56419,12.6829,-58.9634,-10.1829,0.00,0.00,0.00,3,S01
3340,-8.43477,-0.17478,-5.51145,10.2439,-51.4024,-0.5488,0.00,0.00,0.00,3,S01
3360,-10.79067,-4.68545,-5.15232,10.3659,2.8049,8.7805,0.00,0.00,0.00,3,S01
3380,-12.50252,-3.97198,7.03177,10.3659,59.4512,-2.0122,0.00,0.00,0.00,3,S01
3400,-14.23353,-0.69192,0.62968,42.4390,18.7805,-12.3171,0.00,0.00,0.00,3,S01
3420,-16.56548,1.62566,-1.98958,52.0732,23.2317,-11.2805,0.00,0.00,0.00,3,S01
3440,-17.72906,-0.61052,1.99437,21.1585,42.1951,-10.1829,0.00,0.00,0.00,3,S01
3460,-16.87673,-1.47004,1.44131,13.2927,29.5732,-23.4146,0.00,0.00,0.00,3,S01
3480,-14.86081,-1.04148,0.28252,19.2683,18.9024,-36.7683,0.00,0.00,0.00,3,S01
3500,-12.90235,-1.32878,-0.28730,21.1585,15.4878,-40.1829,0.00,0.00,0.00,3,S01
3520,-10.86728,-1.76692,0.74699,20.9146,21.7073,-34.9390,0.00,0.00,0.00,3,S01
3540,-8.82263,-1.54665,1.80044,15.3049,21.9512,-25.7317,0.00,0.00,0.00,3,S01
3560,-6.77799,-0.44772,2.12366,18.5366,11.2195,-16.2805,0.00,0.00,0.00,3,S01
3580,-4.86023,0.58658,2.16436,23.4146,-2.5000,-6.5244,0.00,0.00,0.00,3,S01
3600,-3.33752,-0.04070,1.77889,26.5854,-16.8902,2.6220,0.00,0.00,0.00,3,S01
3620,-1.30245,-0.14126,1.26174,29.3902,-31.7073,9.5122,0.00,0.00,0.00,3,S01
3640,-1.78847,-1.21625,-0.22745,32.5000,-50.2439,14.8780,0.00,0.00,0.00,3,S01
3660,-2.43730,-1.36948,-2.19788,35.9146,-70.1829,8.9024,0.00,0.00,0.00,3,S01
3680,-5.10444,-3.61046,-5.03740,29.2683,-72.9878,-11.3415,0.00,0.00,0.00,3,S01
3700,-11.24078,-2.68629,-8.99502,17.0732,-42.0122,-61.2805,0.00,0.00,0.00,3,S01
3720,-16.45056,5.50188,-6.78038,-11.7073,53.1707,-112.6220,0.00,0.00,0.00,3,S01
3740,-17.19755,3.15077,6.88094,-39.8780,112.1951,-63.1098,0.00,0.00,0.00,3,S01
3760,-16.30691,-3.01430,1.66636,-69.2073,25.6707,-6.0366,0.00,0.00,0.00,3,S01
3780,-17.05629,-3.58891,1.16598,-64.0244,5.3659,1.9512,0.00,0.00,0.00,3,S01
3800,-17.85117,-0.62010,1.98958,-43.5976,30.7927,7.8659,0.00,0.00,0.00,3,S01
3820,-16.01721,0.63925,0.60573,-32.1951,32.3171,30.1220,0.00,0.00,0.00,3,S01
3840,-13.45302,0.79727,-0.27533,-38.4756,24.5122,54.3293,0.00,0.00,0.00,3,S01
3860,-11.20965,0.69192,-0.49799,-43.7195,23.7805,67.6829,0.00,0.00,0.00,3,S01
3880,-9.59596,0.78769,-0.33279,-42.0732,30.7317,63.5366,0.00,0.00,0.00,3,S01
3900,-8.10437,0.54827,0.26336,-39.9390,33.4756,53.4756,0.00,0.00,0.00,3,S01
3920,-6.29196,-0.58179,1.52032,-37.6220,24.6951,46.4634,0.00,0.00,0.00,3,S01
3940,-4.56814,-0.92895,2.47800,-37.6829,2.3171,39.5122,0.00,0.00,0.00,3,S01
3960,-3.58412,-0.52672,2.30322,-41.5244,-27.2561,27.8659,0.00,0.00,0.00,3,S01
3980,-2.48518,-0.90501,1.59454,-30.4878,-50.6098,18.2927,0.00,0.00,0.00,3,S01
4000,-1.58496,-0.94571,0.61052,-6.8293,-70.1220,12.3171,0.00,0.00,0.00,3,S01
4020,-1.47004,-0.69432,-0.74699,10.5488,-90.5488,5.3049,0.00,0.00,0.00,3,S01
4040,-4.05817,-0.20351,-3.73735,19.8171,-101.2195,-1.7073,0.00,0.00,0.00,3,S01
4060,-9.47386,-1.30963,-8.06846,24.2073,-72.1341,-9.6951,0.00,0.00,0.00,3,S01
4080,-13.29500,-2.26491,-7.62553,14.0854,25.4878,-16.0976,0.00,0.00,0.00,3,S01
4100,-15.98369,-2.28646,6.59603,4.3293,100.6098,-24.5732,0.00,0.00,0.00,3,S01
4120,-17.15924,-0.39025,1.39103,31.4024,47.4390,-27.5610,0.00,0.00,0.00,3,S01
4140,-17.33641,0.09577,0.31843,38.1707,29.7561,-24.8171,0.00,0.00,0.00,3,S01
4160,-17.25262,-0.60813,1.96085,19.0854,27.8049,-29.7561,0.00,0.00,0.00,3,S01
4180,-15.60301,-0.88825,1.27850,15.7317,22.0732,-37.3780,0.00,0.00,0.00,3,S01
4200,-13.67568,-0.80206,0.49560,19.6951,20.4268,-40.7927,0.00,0.00,0.00,3,S01
4220,-11.57596,-1.91776,-0.39265,25.1829,19.8780,-32.1951,0.00,0.00,0.00,3,S01
4240,-9.25838,-2.41096,0.54109,24.9390,25.6707,-18.3537,0.00,0.00,0.00,3,S01
4260,-5.38217,-1.08457,1.47962,23.1707,10.9146,-3.5976,0.00,0.00,0.00,3,S01
4280,-5.38217,-1.08457,1.47962,23.1707,10.9146,-3.5976,0.00,0.00,0.00,3,S01
4300,-4.34069,-0.68714,1.42934,29.0244,-0.7927,-4.0854,0.00,0.00,0.00,3,S01
4320,-3.07894,-0.42617,2.07098,30.1220,-10.5488,-6.0976,0.00,0.00,0.00,3,S01
4340,-1.90818,0.51475,2.25294,29.8171,-21.9512,-6.3415,0.00,0.00,0.00,3,S01
4360,-1.79086,0.21308,1.15640,33.2927,-46.3415,-0.3659,0.00,0.00,0.00,3,S01
4380,-2.04704,-0.00239,-0.88585,38.6585,-81.9512,2.7439,0.00,0.00,0.00,3,S01
4400,-3.40216,-1.06542,-3.07416,25.9756,-106.5244,-3.5366,0.00,0.00,0.00,3,S01
4420,-9.08839,-6.89291,-9.06205,12.0732,-102.0732,-23.5366,0.00,0.00,0.00,3,S01
4440,-16.86715,-0.33998,-9.82580,-11.0976,-5.6098,-100.3049,0.00,0.00,0.00,3,S01
4460,-19.73301,5.94959,5.63595,-23.4146,118.2927,-111.7073,0.00,0.00,0.00,3,S01
4480,-17.39866,-0.43814,3.58891,-45.6707,50.5488,-30.7927,0.00,0.00,0.00,3,S01
4500,-15.09544,-5.27203,-1.11570,-52.1341,-13.1707,12.1341,0.00,0.00,0.00,3,S01
4520,-16.61337,-1.88184,2.69348,-41.1585,29.8171,15.4878,0.00,0.00,0.00,3,S01
4540,-15.87835,1.33357,1.33836,-26.4634,39.2683,24.8171,0.00,0.00,0.00,3,S01
4560,-13.67807,2.32238,-0.44293,-29.1463,28.9634,45.3659,0.00,0.00,0.00,3,S01
4580,-11.23599,2.13802,-0.43335,-42.8049,27.1341,63.6585,0.00,0.00,0.00,3,S01
4600,-9.00699,1.35033,-0.11013,-54.0244,27.5000,67.5610,0.00,0.00,0.00,3,S01
4620,-7.53695,-0.01197,0.36871,-55.1829,25.0000,55.7927,0.00,0.00,0.00,3,S01
4640,-6.42125,-1.00317,1.57299,-47.9878,17.7439,39.7561,0.00,0.00,0.00,3,S01
4660,-4.99191,-1.35991,2.23618,-35.1829,1.4024,32.6220,0.00,0.00,0.00,3,S01
4680,-4.05338,-0.89064,1.69031,-24.8780,-24.9390,30.8537,0.00,0.00,0.00,3,S01
4700,-3.04782,-1.47004,0.68953,-9.6951,-52.6829,35.0000,0.00,0.00,0.00,3,S01
4720,-1.81959,-1.86508,-0.22505,12.1951,-79.0854,36.3415,0.00,0.00,0.00,3,S01
4740,-1.59933,-0.29928,-1.50116,27.2561,-101.5854,27.3171,0.00,0.00,0.00,3,S01
4760,-4.87938,0.21308,-4.87699,30.4878,-112.9268,14.3293,0.00,0.00,0.00,3,S01
4780,-10.65659,-1.82438,-8.86812,26.0366,-82.5610,-5.9146,0.00,0.00,0.00,3,S01
4800,-13.46738,-3.18668,-3.95043,17.0732,32.9878,-27.7439,0.00,0.00,0.00,3,S01
4820,-16.64210,-3.11246,8.40604,21.2195,99.3293,-36.8293,0.00,0.00,0.00,3,S01
4840,-17.30290,-0.51475,0.98881,59.4512,35.9146,-29.5732,0.00,0.00,0.00,3,S01
4860,-17.10657,0.16281,-0.16520,50.6098,22.3780,-24.2073,0.00,0.00,0.00,3,S01
4880,-14.86320,-0.66319,1.36469,29.5732,22.0122,-43.7805,0.00,0.00,0.00,3,S01
4900,-12.94305,-1.27372,0.22266,31.5244,21.7683,-46.8902,0.00,0.00,0.00,3,S01
4920,-11.09952,-1.81002,1.22104,29.4512,31.3415,-42.0732,0.00,0.00,0.00,3,S01
4940,-8.52336,-2.16196,2.17154,27.1951,33.4146,-29.3293,0.00,0.00,0.00,3,S01
4960,-6.12916,-1.79326,2.25294,28.8415,20.1220,-17.6220,0.00,0.00,0.00,3,S01
4980,-4.95121,-0.51236,1.75495,31.3415,3.4756,-13.3537,0.00,0.00,0.00,3,S01
5000,-4.63517,0.26815,1.12288,31.7073,-6.2195,-10.1829,0.00,0.00,0.00,3,S01
5020,-3.05979,0.96965,1.42216,28.9634,-7.5610,1.5854,0.00,0.00,0.00,3,S01
5040,-2.08056,0.47884,1.34794,22.0122,-21.2805,16.6463,0.00,0.00,0.00,3,S01
5060,-2.09732,-2.00155,-0.30406,26.2195,-54.0244,25.6098,0.00,0.00,0.00,3,S01
5080,-2.65278,-1.58257,-2.52349,33.6585,-86.2805,14.3293,0.00,0.00,0.00,3,S01
5100,-5.72214,-4.47955,-5.78679,20.2439,-95.7927,-7.6829,0.00,0.00,0.00,3,S01
5120,-13.62540,-3.99353,-10.32859,-2.3780,-59.7561,-58.8415,0.00,0.00,0.00,3,S01
5140,-18.07622,5.31752,-4.45800,-22.0732,63.2927,-110.2439,0.00,0.00,0.00,3,S01
5160,-16.73786,3.69904,7.33105,-30.2439,95.8537,-48.4756,0.00,0.00,0.00,3,S01
5180,-14.58787,-1.35272,0.14126,-62.0732,-10.1829,17.3171,0.00,0.00,0.00,3,S01
5200,-15.50246,-2.93290,0.70390,-71.9512,3.4146,30.0000,0.00,0.00,0.00,3,S01
5220,-16.67562,-0.04070,3.20344,-50.6098,51.8902,26.8293,0.00,0.00,0.00,3,S01
5240,-15.21276,0.92656,0.72544,-42.0122,45.6707,38.2927,0.00,0.00,0.00,3,S01
5260,-12.86644,0.36152,0.52433,-49.5122,36.7683,52.1951,0.00,0.00,0.00,3,S01
5280,-11.08037,0.78769,1.00317,-54.9390,27.5610,54.8171,0.00,0.00,0.00,3,S01
5300,-9.56962,1.33836,1.01514,-52.6829,21.2195,50.1220,0.00,0.00,0.00,3,S01
5320,-7.56328,0.33998,1.56820,-50.6707,14.6951,46.3415,0.00,0.00,0.00,3,S01
5340,-5.28879,-1.31921,1.70707,-46.8902,-0.3049,44.9390,0.00,0.00,0.00,3,S01
5360,-3.71341,-1.00078,1.33596,-40.3049,-20.7317,41.2195,0.00,0.00,0.00,3,S01
5380,-2.49236,-0.88346,0.57221,-29.5122,-41.1585,40.9756,0.00,0.00,0.00,3,S01
5400,-1.72383,-1.09176,-0.46448,-12.8049,-59.9390,39.1463,0.00,0.00,0.00,3,S01
5420,-1.86269,0.05267,-2.20745,5.1220,-76.6463,27.8049,0.00,0.00,0.00,3,S01
5440,-3.86185,0.67756,-4.69264,6.1585,-83.0488,13.5976,0.00,0.00,0.00,3,S01
5460,-9.08600,-1.50595,-8.88009,-4.7561,-59.3902,1.0976,0.00,0.00,0.00,3,S01
5480,-14.19283,-3.92649,-3.44526,-14.6341,46.4024,-8.4756,0.00,0.00,0.00,3,S01
5500,-15.82328,-4.58250,7.54174,-8.4756,84.5122,-15.8537,0.00,0.00,0.00,3,S01
5520,-14.29338,-0.85234,-0.01437,42.9878,-7.3780,-21.8293,0.00,0.00,0.00,3,S01
5540,-13.98693,1.49398,-2.53546,47.6829,-12.4390,-14.0244,0.00,0.00,0.00,3,S01
5560,-15.74188,0.80685,1.29287,14.8780,26.2805,-16.0366,0.00,0.00,0.00,3,S01
5580,-16.13213,-0.75417,2.19309,-5.7317,34.6951,-30.7317,0.00,0.00,0.00,3,S01
5600,-14.12818,-1.64242,1.32639,-2.0732,25.8537,-39.5122,0.00,0.00,0.00,3,S01
5620,-12.10030,-2.84910,0.48363,8.6585,23.7195,-37.7439,0.00,0.00,0.00,3,S01
5640,-10.43393,-2.89938,0.19393,18.3537,29.6951,-29.2683,0.00,0.00,0.00,3,S01
5660,-8.63110,-2.30322,0.95289,18.7195,32.6829,-14.5732,0.00,0.00,0.00,3,S01
5680,-6.75644,-2.03507,1.35272,18.4756,22.6220,-2.1951,0.00,0.00,0.00,3,S01
5700,-5.33907,-1.76453,1.44370,26.4634,12.1341,0.4268,0.00,0.00,0.00,3,S01
5720,-4.84826,-1.10852,1.77171,34.4512,6.8902,-6.4634,0.00,0.00,0.00,3,S01
5740,-3.94804,-0.22984,2.28407,41.0976,0.9756,-10.5488,0.00,0.00,0.00,3,S01
5760,-2.83952,1.25217,2.16915,41.9512,-18.0488,-7.1951,0.00,0.00,0.00,3,S01
5780,-2.46124,0.03831,0.81403,42.8049,-53.7805,5.4878,0.00,0.00,0.00,3,S01
5800,-2.20267,-1.17316,-1.45089,49.0854,-93.4146,9.5122,0.00,0.00,0.00,3,S01
5820,-3.84748,-3.04064,-4.31435,38.1707,-114.0244,-5.0610,0.00,0.00,0.00,3,S01
5840,-10.07480,-4.84347,-9.85693,20.4268,-90.1220,-45.8537,0.00,0.00,0.00,3,S01
5860,-16.49605,3.69665,-7.85777,-14.0244,27.6829,-113.1098,0.00,0.00,0.00,3,S01
5880,-17.14967,3.75890,8.68856,-24.9390,122.3781,-83.5976,0.00,0.00,0.00,3,S01
5900,-15.55513,-1.10373,2.22182,-41.5854,28.2317,-17.6829,0.00,0.00,0.00,3,S01
5920,-15.72512,-4.35026,-0.84276,-45.1829,0.8537,5.7927,0.00,0.00,0.00,3,S01
5940,-18.73702,-1.03430,3.23217,-29.9390,49.1463,3.9634,0.00,0.00,0.00,3,S01
5960,-17.18797,1.36469,1.30963,-16.3415,42.0732,20.2439,0.00,0.00,0.00,3,S01
5980,-14.06354,2.16436,-0.08380,-22.8049,21.3415,45.6707,0.00,0.00,0.00,3,S01
6000,-10.93911,1.69509,-0.35674,-33.6585,17.7439,70.4878,0.00,0.00,0.00,3,S01
6020,-8.80348,0.72305,-0.57940,-41.4024,23.4756,76.9512,0.00,0.00,0.00,3,S01
6040,-7.82425,-0.09098,0.27054,-45.4878,33.1707,59.3902,0.00,0.00,0.00,3,S01
6060,-6.91206,-0.66080,1.90818,-37.5000,33.3537,35.5488,0.00,0.00,0.00,3,S01
6080,-5.42526,-0.96486,2.06141,-25.6098,13.1098,25.3049,0.00,0.00,0.00,3,S01
6100,-4.07972,-1.27850,1.14443,-17.3780,-16.4634,27.0732,0.00,0.00,0.00,3,S01
6120,-2.94726,-1.76453,0.31843,-10.4878,-43.0488,27.5000,0.00,0.00,0.00,3,S01
6140,-2.03507,-1.43413,-0.40462,4.0244,-63.7805,20.8537,0.00,0.00,0.00,3,S01
6160,-3.77326,0.15802,-3.47399,24.6341,-80.1829,-4.0244,0.00,0.00,0.00,3,S01
6180,-9.57202,-1.59693,-8.02058,29.7561,-58.7195,-18.9634,0.00,0.00,0.00,3,S01
6200,-14.28141,-2.55701,-5.29358,19.6951,28.5366,-32.5610,0.00,0.00,0.00,3,S01
6220,-14.82250,-3.44765,7.55131,8.1098,71.6463,-31.1585,0.00,0.00,0.00,3,S01
6240,-14.01805,0.22266,0.09816,50.3659,-8.0488,-30.0000,0.00,0.00,0.00,3,S01
6260,-14.66688,1.98000,-1.73819,50.8537,-7.6829,-24.6951,0.00,0.00,0.00,3,S01
6280,-16.25424,0.07901,2.85868,14.5122,26.1585,-21.2195,0.00,0.00,0.00,3,S01
6300,-15.48809,-1.22583,2.31280,0.3659,21.7073,-27.7439,0.00,0.00,0.00,3,S01
6320,-13.32852,-1.48441,1.61609,4.9390,15.7317,-36.1585,0.00,0.00,0.00,3,S01
6340,-11.19050,-1.88184,0.73741,15.6707,14.8171,-40.4878,0.00,0.00,0.00,3,S01
6360,-9.69173,-2.79164,0.60094,24.1463,22.0122,-36.6463,0.00,0.00,0.00,3,S01
6380,-8.48984,-2.42054,1.61848,23.7195,34.0244,-27.0122,0.00,0.00,0.00,3,S01
6400,-7.26401,-1.16358,2.13802,22.8659,35.0610,-17.6829,0.00,0.00,0.00,3,S01
6420,-6.40210,-0.61531,2.00874,24.8780,24.7561,-9.6951,0.00,0.00,0.00,3,S01
6440,-5.60722,-0.62728,1.66876,29.7561,8.0488,-3.4756,0.00,0.00,0.00,3,S01
6460,-4.52265,0.48363,1.54187,29.0244,-13.7195,1.2195,0.00,0.00,0.00,3,S01
6480,-3.61285,-0.50039,0.79487,27.1951,-43.7805,11.5244,0.00,0.00,0.00,3,S01
6500,-2.99515,-2.18830,-0.69671,40.8537,-79.3902,16.7073,0.00,0.00,0.00,3,S01
6520,-2.54504,-1.80523,-2.52349,54.2073,-110.3659,8.3537,0.00,0.00,0.00,3,S01
6540,-4.44603,-2.32477,-5.23851,35.8537,-120.3659,-11.2805,0.00,0.00,0.00,3,S01
6560,-10.30943,-1.36948,-8.93277,-0.7317,-86.5244,-51.0366,0.00,0.00,0.00,3,S01
6580,-14.86081,3.52666,-6.67982,-26.8902,35.6098,-85.4268,0.00,0.00,0.00,3,S01
6600,-15.03798,0.38307,8.68616,-38.5976,130.5488,-40.9146,0.00,0.00,0.00,3,S01
6620,-14.50168,-3.42610,2.84671,-55.1829,46.4634,-2.5610,0.00,0.00,0.00,3,S01
6640,-16.11298,-2.72221,0.71108,-38.6585,26.3415,-2.6220,0.00,0.00,0.00,3,S01
6660,-18.23185,-0.24181,2.59292,-21.1585,55.5488,1.3415,0.00,0.00,0.00,3,S01
6680,-17.01799,1.05584,1.09894,-16.2805,46.0366,24.6951,0.00,0.00,0.00,3,S01
6700,-14.35085,1.46046,0.76614,-27.5610,33.9024,49.8781,0.00,0.00,0.00,3,S01
6720,-11.90876,0.66080,0.07422,-39.0854,28.7805,70.1220,0.00,0.00,0.00,3,S01
6740,-10.27831,-0.05746,0.31843,-44.2073,34.6951,69.0854,0.00,0.00,0.00,3,S01
6760,-9.16500,0.42617,1.16358,-41.7073,36.6463,47.0732,0.00,0.00,0.00,3,S01
6780,-7.76679,0.43574,1.72622,-32.9268,25.7927,31.9512,0.00,0.00,0.00,3,S01
6800,-5.65032,-0.62010,1.81959,-25.1220,8.3537,32.6220,0.00,0.00,0.00,3,S01
6820,-3.90015,-1.54905,1.15640,-19.4512,-11.5854,36.1585,0.00,0.00,0.00,3,S01
6840,-2.42054,-1.51792,1.15401,-17.2561,-29.1463,31.2195,0.00,0.00,0.00,3,S01
6860,-1.37667,-0.89543,0.94332,-10.3659,-43.4146,17.7439,0.00,0.00,0.00,3,S01
6880,-1.08218,0.08619,0.08619,6.9512,-54.4512,4.8780,0.00,0.00,0.00,3,S01
6900,-2.09014,1.27372,-1.74298,20.1220,-66.7073,-3.6585,0.00,0.00,0.00,3,S01
6920,-6.68940,0.22027,-6.39252,23.1098,-71.5854,-13.2927,0.00,0.00,0.00,3,S01
6940,-13.00051,-2.59053,-9.92397,9.2683,-25.4878,-27.5000,0.00,0.00,0.00,3,S01
6960,-15.74188,-3.97198,5.24330,-12.8049,76.2805,-37.5000,0.00,0.00,0.00,3,S01
6980,-16.13931,-1.66876,4.07254,3.1707,40.6098,-37.9268,0.00,0.00,0.00,3,S01
7000,-15.64371,1.55623,-0.74220,39.3902,-4.3902,-26.3415,0.00,0.00,0.00,3,S01
7020,-16.25663,0.02873,1.77410,19.2073,17.6829,-16.5244,0.00,0.00,0.00,3,S01
7040,-15.86877,-1.23301,1.69988,8.3537,23.5366,-22.0122,0.00,0.00,0.00,3,S01
7060,-14.32930,-1.97282,1.20907,14.6951,17.8659,-31.4024,0.00,0.00,0.00,3,S01
7080,-12.38760,-2.13323,0.85473,25.6707,13.8415,-36.1585,0.00,0.00,0.00,3,S01
7100,-10.04368,-2.47082,0.38547,33.0488,12.4390,-27.9878,0.00,0.00,0.00,3,S01
7120,-8.00621,-1.82438,0.68714,29.0244,17.7439,-13.4146,0.00,0.00,0.00,3,S01
7140,-6.56011,-0.56503,1.30723,17.0732,22.1341,-3.8415,0.00,0.00,0.00,3,S01
7160,-5.78200,0.05507,1.53708,8.9634,15.0610,-0.7927,0.00,0.00,0.00,3,S01
7180,-4.93445,0.03831,1.09415,11.5854,-2.9878,1.7073,0.00,0.00,0.00,3,S01
7200,-3.49553,0.21069,0.98162,10.5488,-22.7439,4.5732,0.00,0.00,0.00,3,S01
7220,-2.58334,-0.88346,0.43574,10.7317,-48.2927,8.6585,0.00,0.00,0.00,3,S01
7240,-2.16196,-2.43011,-1.21147,22.8659,-85.0000,8.1707,0.00,0.00,0.00,3,S01
7260,-2.60729,-2.21224,-3.19626,26.0976,-114.5122,-2.5610,0.00,0.00,0.00,3,S01
7280,-6.37097,-4.94403,-7.62553,13.1707,-116.0976,-22.0732,0.00,0.00,0.00,3,S01
7300,-12.74912,-0.49321,-10.47224,-8.4146,-44.3902,-76.0976,0.00,0.00,0.00,3,S01
7320,-16.92940,6.01902,3.14119,-38.2317,104.6341,-100.1829,0.00,0.00,0.00,3,S01
7340,-16.31648,1.45807,5.87777,-56.0366,88.3537,-36.4024,0.00,0.00,0.00,3,S01
7360,-15.21036,-3.95522,-0.67277,-54.5732,11.8293,6.6463,0.00,0.00,0.00,3,S01
7380,-17.67639,-1.89860,3.14119,-55.1220,41.8902,12.6829,0.00,0.00,0.00,3,S01
7400,-17.89187,0.59137,2.00634,-43.4146,50.4268,24.1463,0.00,0.00,0.00,3,S01
7420,-10.59913,0.65362,-0.42617,-48.7195,25.2439,72.3781,0.00,0.00,0.00,3,S01
7440,-10.59913,0.65362,-0.42617,-48.7195,25.2439,72.3781,0.00,0.00,0.00,3,S01
7460,-8.56645,-0.52194,-0.07183,-47.7439,25.1829,67.8049,0.00,0.00,0.00,3,S01
7480,-7.37175,-1.20907,1.75734,-43.4146,20.3659,46.4024,0.00,0.00,0.00,3,S01
7500,-5.79876,-0.98162,2.57137,-32.1951,2.5000,28.7805,0.00,0.00,0.00,3,S01
7520,-4.22577,0.36631,2.09014,-28.9634,-27.0732,23.2317,0.00,0.00,0.00,3,S01
7540,-2.85868,0.56264,1.23780,-30.1220,-54.5732,26.2805,0.00,0.00,0.00,3,S01
7560,-1.62087,0.15802,0.42138,-21.7073,-70.9756,30.1220,0.00,0.00,0.00,3,S01
7580,-0.95768,0.18914,-0.65601,-7.1951,-82.5000,29.3293,0.00,0.00,0.00,3,S01
7600,-1.75016,-0.31125,-2.81558,3.0488,-94.6951,21.9512,0.00,0.00,0.00,3,S01
7620,-6.52420,-1.98479,-8.16183,3.5976,-88.2317,0.2439,0.00,0.00,0.00,3,S01
7640,-14.17607,-2.60729,-10.39323,-12.5000,5.0000,-28.4756,0.00,0.00,0.00,3,S01
7660,-17.82483,-3.84748,8.33422,-19.7561,132.8049,-29.7561,0.00,0.00,0.00,3,S01
7680,-17.27417,-1.63285,3.33752,3.2927,59.8171,-27.1341,0.00,0.00,0.00,3,S01
7700,-15.47851,1.98479,-2.05901,30.5488,-2.3171,-24.9390,0.00,0.00,0.00,3,S01
7720,-15.57907,0.51475,0.26576,5.1829,15.3049,-21.3415,0.00,0.00,0.00,3,S01
7740,-15.09544,-2.20267,2.47321,-8.3537,27.6220,-27.5610,0.00,0.00,0.00,3,S01
7760,-13.04840,-3.19387,1.64960,4.8780,13.9024,-35.1829,0.00,0.00,0.00,3,S01
7780,-10.59913,-3.01430,0.97444,20.6707,2.2561,-32.9878,0.00,0.00,0.00,3,S01
7800,-8.62152,-2.28646,-0.11492,32.1341,-5.4268,-21.4024,0.00,0.00,0.00,3,S01
7820,-7.27119,-1.92494,-0.13647,27.9268,3.4756,-8.0488,0.00,0.00,0.00,3,S01
7840,-6.84023,-0.74460,1.18034,16.7073,19.5122,-6.5244,0.00,0.00,0.00,3,S01
7860,-6.08845,-0.31364,2.24816,15.6707,24.2073,-7.6829,0.00,0.00,0.00,3,S01
7880,-5.04698,-0.56743,2.54743,19.3902,9.2073,-6.9512,0.00,0.00,0.00,3,S01
7900,-3.96001,-0.21069,2.16196,21.2195,-14.5122,-5.5488,0.00,0.00,0.00,3,S01
7920,-3.50272,-0.89064,0.96965,25.9146,-40.3659,-1.0366,0.00,0.00,0.00,3,S01
7940,-3.26809,-1.54905,-1.02711,41.0976,-69.8781,1.5854,0.00,0.00,0.00,3,S01
7960,-3.91931,-1.29287,-3.04782,38.1707,-88.8415,-6.4634,0.00,0.00,0.00,3,S01
7980,-8.00861,-3.33752,-7.05571,18.5366,-80.5488,-26.7683,0.00,0.00,0.00,3,S01
8000,-13.84806,2.14760,-7.87453,-11.2195,-10.2439,-76.9512,0.00,0.00,0.00,3,S01
8020,-16.44817,3.80199,6.07648,-29.7561,90.3659,-81.4024,0.00,0.00,0.00,3,S01
8040,-15.14811,-0.38307,2.84431,-34.8780,35.7927,-28.7805,0.00,0.00,0.00,3,S01
8060,-13.59907,-4.57532,-0.98881,-33.5976,-11.1585,-2.0732,0.00,0.00,0.00,3,S01
8080,-15.66766,-2.63362,2.28167,-19.9390,25.2439,-0.4268,0.00,0.00,0.00,3,S01
8100,-15.61738,-0.28012,1.22823,-2.4390,40.9756,15.4878,0.00,0.00,0.00,3,S01
8120,-13.68526,1.24259,0.69192,-6.6463,35.6098,38.8415,0.00,0.00,0.00,3,S01
8140,-11.61906,2.05422,0.23224,-15.3659,31.0366,59.7561,0.00,0.00,0.00,3,S01
8160,-10.08917,1.25935,-0.59376,-19.1463,32.9878,72.5610,0.00,0.00,0.00,3,S01
8180,-9.41161,0.31125,0.03112,-24.8171,42.1341,62.9268,0.00,0.00,0.00,3,S01
8200,-9.22725,0.46687,2.00634,-24.0854,41.7683,34.9390,0.00,0.00,0.00,3,S01
8220,-7.80989,0.46448,2.65038,-18.7195,20.2439,19.6341,0.00,0.00,0.00,3,S01
8240,-5.71496,0.40701,1.92733,-17.2561,-11.3415,22.6829,0.00,0.00,0.00,3,S01
8260,-4.22098,-0.21787,0.84755,-19.3902,-40.9756,32.3171,0.00,0.00,0.00,3,S01
8280,-2.85149,-1.45567,-0.00958,-15.8537,-59.8171,38.7805,0.00,0.00,0.00,3,S01
8300,-1.77889,-1.28090,-0.82839,-3.5366,-69.3293,33.5976,0.00,0.00,0.00,3,S01
8320,-1.74777,-0.08380,-1.72383,3.2927,-73.5366,19.8780,0.00,0.00,0.00,3,S01
8340,-3.97916,0.29928,-3.91452,8.5366,-67.5000,11.2805,0.00,0.00,0.00,3,S01
8360,-9.31344,-1.60412,-7.69975,13.2317,-32.9878,1.0976,0.00,0.00,0.00,3,S01
8380,-14.49689,-2.67193,-2.92811,2.8659,59.4512,-10.6098,0.00,0.00,0.00,3,S01
8400,-16.12734,-3.22260,7.72609,-7.2561,78.1098,-17.8049,0.00,0.00,0.00,3,S01
8420,-15.04995,0.67038,0.39744,23.1707,-11.2805,-27.1951,0.00,0.00,0.00,3,S01
8440,-15.16248,2.15718,-1.25935,24.0854,-11.5244,-25.7317,0.00,0.00,0.00,3,S01
8460,-16.10579,-0.65601,2.73178,0.0000,12.9878,-22.9268,0.00,0.00,0.00,3,S01
8480,-10.90319,-2.82516,0.61292,29.0854,9.0854,-40.5488,0.00,0.00,0.00,3,S01
8500,-10.90319,-2.82516,0.61292,29.0854,9.0854,-40.5488,0.00,0.00,0.00,3,S01
8520,-9.11233,-2.79643,0.15802,42.9878,16.7683,-35.9756,0.00,0.00,0.00,3,S01
8540,-9.11233,-2.79643,0.15802,42.9878,16.7683,-35.9756,0.00,0.00,0.00,3,S01
8560,-7.90565,-2.36787,0.29928,49.7561,29.2073,-25.4878,0.00,0.00,0.00,3,S01
8580,-7.22331,-0.97444,1.27132,44.4512,40.0610,-17.3780,0.00,0.00,0.00,3,S01
8600,-6.54335,0.73741,2.36547,32.5000,34.8780,-11.5854,0.00,0.00,0.00,3,S01
8620,-5.68623,1.50835,2.27689,25.9756,9.0854,-2.3171,0.00,0.00,0.00,3,S01
8640,-4.24253,1.35991,1.81480,21.1585,-25.2439,10.3049,0.00,0.00,0.00,3,S01
8660,-3.06458,-0.47405,0.83079,21.8293,-59.5732,23.1098,0.00,0.00,0.00,3,S01
8680,-2.08535,-2.26970,-0.93613,29.8780,-94.8171,29.2073,0.00,0.00,0.00,3,S01
8700,-7.63272,-6.64870,-9.25119,18.7195,-81.5244,-20.3659,0.00,0.00,0.00,3,S01
8720,-15.05953,-0.16520,-9.23922,0.6707,35.1829,-106.5854,0.00,0.00,0.00,3,S01
8740,-19.20629,6.64391,7.94396,-14.1463,132.2561,-125.2439,0.00,0.00,0.00,3,S01
8760,-16.57506,2.97599,3.37104,-35.3049,39.3902,-42.1341,0.00,0.00,0.00,3,S01
8780,-13.55358,-3.31836,-1.28569,-50.9146,-18.7195,15.5488,0.00,0.00,0.00,3,S01
8800,-15.56470,-1.79805,3.36625,-53.1098,20.3049,14.3902,0.00,0.00,0.00,3,S01
8820,-15.14333,0.44053,1.68552,-32.4390,28.9024,15.1829,0.00,0.00,0.00,3,S01
8840,-12.84489,1.09894,0.03112,-30.1220,18.1098,29.5732,0.00,0.00,0.00,3,S01
8860,-10.59195,1.23062,-0.13647,-34.6341,16.8902,45.1220,0.00,0.00,0.00,3,S01
8880,-9.30387,0.00958,-0.38547,-32.3171,23.9024,58.2317,0.00,0.00,0.00,3,S01
8900,-8.51139,-0.90980,0.97205,-30.0000,32.2561,54.1463,0.00,0.00,0.00,3,S01
8920,-8.41801,-0.30646,1.95846,-23.9634,24.5122,32.0122,0.00,0.00,0.00,3,S01
8940,-7.58722,-0.26097,1.83156,-12.5610,7.0732,19.6341,0.00,0.00,0.00,3,S01
8960,-6.30872,0.08140,1.42694,-5.6098,-12.5610,19.7561,0.00,0.00,0.00,3,S01
8980,-4.85784,0.38307,1.27132,-8.2927,-34.5122,27.3780,0.00,0.00,0.00,3,S01
9000,-3.31597,-0.25618,0.53630,-6.7683,-53.0488,36.2805,0.00,0.00,0.00,3,S01
9020,-2.33195,-0.03831,-0.69432,2.1951,-67.0732,35.4268,0.00,0.00,0.00,3,S01
9040,-2.98796,0.91937,-2.47321,4.2073,-75.6707,23.1098,0.00,0.00,0.00,3,S01
9060,-6.45716,0.59137,-5.78679,4.8780,-65.9146,11.0366,0.00,0.00,0.00,3,S01
9080,-12.22719,-1.20668,-8.80587,0.5488,-13.1098,3.9024,0.00,0.00,0.00,3,S01
9100,-14.78420,-4.05338,7.71651,-18.4146,74.6341,5.1829,0.00,0.00,0.00,3,S01
9120,-14.64773,-3.03824,3.39258,-4.0854,17.6220,-3.4146,0.00,0.00,0.00,3,S01
9140,-13.69483,1.16358,-1.64482,34.5122,-21.7683,-12.3171,0.00,0.00,0.00,3,S01
9160,-14.73631,1.51074,0.18675,15.4268,-0.4878,-9.7561,0.00,0.00,0.00,3,S01
9180,-15.92862,-0.64643,2.08535,-2.3171,16.6463,-11.8902,0.00,0.00,0.00,3,S01
9200,-14.59266,-2.09971,2.03028,0.4878,10.3659,-21.8293,0.00,0.00,0.00,3,S01
9220,-11.61667,-2.52828,1.45328,13.6585,2.5610,-33.1098,0.00,0.00,0.00,3,S01
9240,-9.61272,-2.67911,0.94332,25.0000,2.3171,-40.9756,0.00,0.00,0.00,3,S01
9260,-8.50660,-2.92332,0.54109,36.0976,11.7073,-38.1098,0.00,0.00,0.00,3,S01
9280,-8.08761,-2.57137,0.48123,42.8659,24.4512,-29.3902,0.00,0.00,0.00,3,S01
9300,-7.64469,-1.00078,1.23541,39.6341,34.0244,-20.1829,0.00,0.00,0.00,3,S01
9320,-6.70855,-0.01676,2.08296,33.1098,28.9024,-7.8659,0.00,0.00,0.00,3,S01
9340,-5.61919,0.16041,2.31519,30.3049,8.2927,2.7439,0.00,0.00,0.00,3,S01
9360,-4.42927,0.10534,1.97043,32.0122,-15.4878,10.8537,0.00,0.00,0.00,3,S01
9380,-3.66073,-0.47884,1.01514,34.0854,-38.4146,16.8293,0.00,0.00,0.00,3,S01
9400,-3.41413,-1.33357,-0.62968,33.5976,-62.2561,17.8049,0.00,0.00,0.00,3,S01
9420,-3.54342,-0.99120,-2.21942,30.6707,-75.7317,9.0854,0.00,0.00,0.00,3,S01
9440,-6.29436,-3.58173,-5.22654,23.2317,-67.5000,-7.6220,0.00,0.00,0.00,3,S01
9460,-11.21684,-1.08697,-7.35978,14.0244,-15.3659,-53.7805,0.00,0.00,0.00,3,S01
9480,-14.35324,3.69186,2.05901,-5.5488,81.2805,-85.2439,0.00,0.00,0.00,3,S01
9500,-13.78821,-0.33998,4.52983,-11.2195,71.7683,-50.0000,0.00,0.00,0.00,3,S01
9520,-12.62223,-4.17549,0.27054,-4.8780,8.7195,-24.0244,0.00,0.00,0.00,3,S01
9540,-16.47929,-0.17957,1.99916,8.3537,40.6098,-5.0000,0.00,0.00,0.00,3,S01
9560,-15.10262,1.26174,1.20907,13.1707,37.2561,16.0976,0.00,0.00,0.00,3,S01
9580,-15.10262,1.26174,1.20907,13.1707,37.2561,16.0976,0.00,0.00,0.00,3,S01
9600,-12.70842,1.51792,0.63207,3.4146,23.7195,39.0244,0.00,0.00,0.00,3,S01
9620,-10.54167,1.68312,0.06464,-1.3415,23.9024,54.7561,0.00,0.00,0.00,3,S01
9640,-9.05487,0.56743,-0.33279,-8.4146,34.7561,61.6463,0.00,0.00,0.00,3,S01
9660,-9.17219,0.31603,0.65601,-20.7927,45.3049,47.9268,0.00,0.00,0.00,3,S01
9680,-9.64384,0.42377,2.69587,-21.4024,43.2317,24.5122,0.00,0.00,0.00,3,S01
9700,-8.51378,0.04310,2.73178,-14.9390,20.6707,13.7805,0.00,0.00,0.00,3,S01
9720,-6.72292,-0.13886,2.25055,-6.4024,-5.3049,12.4390,0.00,0.00,0.00,3,S01
9740,-4.95121,-0.49081,1.70467,3.1098,-26.0366,17.3171,0.00,0.00,0.00,3,S01
9760,-3.62961,-0.73263,0.69192,14.9390,-41.4634,21.4024,0.00,0.00,0.00,3,S01
9780,-2.68629,-0.91219,-0.71587,32.0122,-54.3902,20.3659,0.00,0.00,0.00,3,S01
9800,-2.87065,-0.32082,-2.20745,38.4756,-62.5610,10.1829,0.00,0.00,0.00,3,S01
9820,-5.92325,0.62968,-4.68785,38.9634,-55.0610,-1.5854,0.00,0.00,0.00,3,S01
9840,-11.20965,1.07500,-7.80031,35.1829,-15.8537,-4.0244,0.00,0.00,0.00,3,S01
9860,-14.20959,-2.11647,-0.49321,18.2927,60.1220,9.0854,0.00,0.00,0.00,3,S01
9880,-14.79138,-4.16591,5.07810,7.5610,42.0122,2.3780,0.00,0.00,0.00,3,S01
9900,-13.70202,-1.23301,-0.90980,45.7317,-20.5488,-17.8659,0.00,0.00,0.00,3,S01
9920,-14.42267,0.54109,-2.35111,45.8537,-11.3415,-21.9512,0.00,0.00,0.00,3,S01
9940,-15.27022,-1.06303,2.05422,28.2927,22.7439,-20.1829,0.00,0.00,0.00,3,S01
9960,-14.27184,-1.99916,1.32160,33.2317,20.2439,-24.2683,0.00,0.00,0.00,3,S01
9980,-10.68293,-2.56419,0.24181,50.4268,9.1463,-31.2805,0.00,0.00,0.00,3,S01
10000,-9.29669,-2.02310,0.37589,52.1341,11.3415,-31.4024,0.00,0.00,0.00,3,S01
10020,-7.91284,-1.10612,0.46448,49.5732,9.2683,-27.6220,0.00,0.00,0.00,3,S01
10040,-6.94079,-0.11013,0.56743,43.8415,9.2683,-19.0244,0.00,0.00,0.00,3,S01
10060,-6.11000,0.52672,1.48201,33.5976,13.2317,-9.7561,0.00,0.00,0.00,3,S01
10080,-5.24809,0.66080,2.19069,29.5122,4.2073,-0.9146,0.00,0.00,0.00,3,S01
10100,-4.32872,-0.10056,1.93930,32.4390,-16.8293,10.5488,0.00,0.00,0.00,3,S01
10120,-3.35428,-0.05746,1.25935,33.7805,-37.5610,21.5244,0.00,0.00,0.00,3,S01
10140,-3.08134,-0.72544,0.16520,29.0244,-57.3781,29.5122,0.00,0.00,0.00,3,S01
10160,-3.04064,-1.46046,-1.41258,29.8780,-78.6585,29.4512,0.00,0.00,0.00,3,S01
10180,-3.79960,-2.60489,-3.39498,30.6707,-90.7317,18.0488,0.00,0.00,0.00,3,S01
10200,-8.92319,-6.66306,-8.94234,36.4024,-70.4268,-15.6098,0.00,0.00,0.00,3,S01
10220,-16.14410,0.17238,-8.11156,22.3171,38.9024,-101.9512,0.00,0.00,0.00,3,S01
10240,-19.88624,5.49469,7.99424,3.6585,111.8293,-114.0854,0.00,0.00,0.00,3,S01
10260,-16.30691,1.03430,1.25456,1.2195,12.8659,-35.4268,0.00,0.00,0.00,3,S01
10280,-12.90235,-4.89375,-1.61130,-15.9146,-23.8415,10.7927,0.00,0.00,0.00,3,S01
10300,-15.03798,-2.73418,2.82276,-20.2439,17.9878,9.0854,0.00,0.00,0.00,3,S01
10320,-15.40429,0.43574,1.19231,10.4268,35.4878,9.0244,0.00,0.00,0.00,3,S01
10340,-13.72117,1.65439,0.32082,14.2683,26.2195,17.5610,0.00,0.00,0.00,3,S01
10360,-11.47062,2.23379,0.04549,3.9634,15.1220,29.6951,0.00,0.00,0.00,3,S01
10380,-9.01896,1.65918,-0.22984,-3.7195,10.0610,44.5122,0.00,0.00,0.00,3,S01
10400,-7.05092,0.47884,-0.05507,-12.5610,6.5854,51.8293,0.00,0.00,0.00,3,S01
10420,-6.14113,-1.02711,1.08936,-15.5488,4.6951,43.1098,0.00,0.00,0.00,3,S01
10440,-5.72693,-1.73819,2.68869,-0.7317,6.3415,25.7927,0.00,0.00,0.00,3,S01
10460,-5.14514,-1.30723,1.74777,17.3780,-5.6707,12.3780,0.00,0.00,0.00,3,S01
10480,-4.40533,-0.23942,1.07260,26.1585,-23.8415,4.4512,0.00,0.00,0.00,3,S01
10500,-3.30879,-0.23463,0.90501,30.3049,-43.0488,4.3902,0.00,0.00,0.00,3,S01
10520,-1.93930,-0.52194,0.28970,47.5610,-60.7317,8.4756,0.00,0.00,0.00,3,S01
10540,-3.23935,-1.66876,-2.25773,68.5366,-78.1098,9.0244,0.00,0.00,0.00,3,S01
10560,-9.18655,-2.25055,-8.46111,80.6707,-76.8902,0.3049,0.00,0.00,0.00,3,S01
10580,-15.53597,-1.75495,-7.34302,50.6098,7.8049,-8.4146,0.00,0.00,0.00,3,S01
10600,-15.05953,-4.22098,2.17872,76.0366,-18.6585,-15.3659,0.00,0.00,0.00,3,S01
10620,-14.58069,-2.63841,-1.11091,109.4512,-32.0122,-15.7317,0.00,0.00,0.00,3,S01
10640,-15.59822,-3.56018,1.89381,101.7073,3.9634,-9.7561,0.00,0.00,0.00,3,S01
10660,-15.59822,-3.56018,1.89381,101.7073,3.9634,-9.7561,0.00,0.00,0.00,3,S01
10680,-15.11220,-2.59053,1.01754,98.7195,9.3902,-15.2439,0.00,0.00,0.00,3,S01
10700,-13.21360,-1.24020,0.39025,95.7927,3.8415,-23.0488,0.00,0.00,0.00,3,S01
10720,-11.26472,-0.86910,0.16999,93.2927,4.2073,-26.3415,0.00,0.00,0.00,3,S01
10740,-9.62948,-1.55623,0.51236,90.3659,11.6463,-24.3902,0.00,0.00,0.00,3,S01
10760,-8.21211,-2.40617,1.00796,88.5976,15.7317,-17.9878,0.00,0.00,0.00,3,S01
10780,-7.09163,-2.99515,0.87388,90.9756,13.9024,-11.2195,0.00,0.00,0.00,3,S01
10800,-6.49786,-2.46603,0.84994,93.1707,15.3659,-8.4146,0.00,0.00,0.00,3,S01
10820,-6.40688,-1.40779,1.13246,95.4878,15.6098,-6.0366,0.00,0.00,0.00,3,S01
10840,-6.05254,-1.24977,0.88825,99.6951,8.4756,0.3659,0.00,0.00,0.00,3,S01
10860,-5.25288,-1.26174,-0.04070,105.7927,-1.2805,7.1951,0.00,0.00,0.00,3,S01
10880,-5.04937,-0.17717,-0.95529,106.8293,-7.1341,13.1707,0.00,0.00,0.00,3,S01
10900,-5.38695,0.50278,-1.47722,96.7683,-9.0244,20.4878,0.00,0.00,0.00,3,S01
10920,-7.12514,-1.69270,-2.99993,88.6585,-5.6098,22.8049,0.00,0.00,0.00,3,S01
10940,-11.04206,-1.95606,-3.64398,88.1707,19.0854,-0.7927,0.00,0.00,0.00,3,S01
10960,-12.39957,-0.52912,1.72622,88.5976,46.5854,-30.2439,0.00,0.00,0.00,3,S01
10980,-11.03248,-2.24337,0.61292,98.0488,10.9146,-27.8049,0.00,0.00,0.00,3,S01
11000,-10.62786,-4.71179,-0.74460,101.9512,-1.5854,-16.5854,0.00,0.00,0.00,3,S01
11020,-12.48337,-3.23217,0.95529,109.2683,26.9512,-15.2439,0.00,0.00,0.00,3,S01
11040,-13.32134,-0.30646,0.41420,123.1707,34.5732,-11.5854,0.00,0.00,0.00,3,S01
11060,-12.84968,1.69509,-0.30406,126.4024,28.2317,0.3049,0.00,0.00,0.00,3,S01
11080,-11.68849,0.74699,-0.39025,115.9756,20.7927,15.9756,0.00,0.00,0.00,3,S01
11100,-10.54167,-0.45490,-0.11732,113.2317,16.5854,21.5244,0.00,0.00,0.00,3,S01
11120,-9.85214,-0.17957,-0.23463,120.0000,15.5488,16.9512,0.00,0.00,0.00,3,S01
11140,-9.16261,0.82361,-0.03591,119.0244,15.1220,15.6707,0.00,0.00,0.00,3,S01
11160,-8.48026,1.69988,0.19872,108.7805,9.3293,17.6829,0.00,0.00,0.00,3,S01
11180,-7.56089,1.52750,-0.01437,94.8781,1.5244,18.5366,0.00,0.00,0.00,3,S01
11200,-6.83784,0.86670,-0.21308,83.2927,-1.0976,10.9756,0.00,0.00,0.00,3,S01
11220,-6.55054,0.11253,-0.02155,78.0488,-0.9146,-2.3780,0.00,0.00,0.00,3,S01
11240,-6.81150,-0.28970,0.53870,74.7561,-1.7073,-12.6829,0.00,0.00,0.00,3,S01
11260,-6.69898,0.93853,0.45729,69.5732,-24.4512,-20.4878,0.00,0.00,0.00,3,S01
11280,-5.86819,1.31442,-0.79487,66.5854,-41.4024,-17.5000,0.00,0.00,0.00,3,S01
11300,-6.77320,0.52433,-2.99515,68.9024,-49.6951,-11.0366,0.00,0.00,0.00,3,S01
11320,-8.78433,-2.06620,-1.97043,71.6463,-35.0000,-2.1951,0.00,0.00,0.00,3,S01
11340,-10.84095,-3.48356,2.35829,67.5000,-12.1341,-1.5244,0.00,0.00,0.00,3,S01
11360,-11.96143,-1.79086,0.58419,71.5244,-18.1098,-12.6220,0.00,0.00,0.00,3,S01
11380,-12.58632,0.07183,-0.85234,73.2927,-18.4146,-23.1707,0.00,0.00,0.00,3,S01
11400,-14.19283,-0.64883,1.24977,72.5610,0.0610,-24.0854,0.00,0.00,0.00,3,S01
11420,-14.96376,-2.30562,1.66397,72.0122,7.3780,-28.0488,0.00,0.00,0.00,3,S01
11440,-14.05396,-3.08373,1.42455,74.4512,7.4390,-36.4024,0.00,0.00,0.00,3,S01
11460,-11.93749,-3.08852,1.29287,75.6707,10.0610,-45.3049,0.00,0.00,0.00,3,S01
11480,-10.29267,-2.51391,0.68235,76.4634,16.8293,-54.7561,0.00,0.00,0.00,3,S01
11500,-9.62469,-1.86269,0.23703,77.1951,28.0488,-59.1463,0.00,0.00,0.00,3,S01
11520,-10.01255,-1.26893,1.30005,70.2439,38.8415,-55.4268,0.00,0.00,0.00,3,S01
11540,-9.85453,-0.88825,2.14281,60.4878,36.8293,-44.3902,0.00,0.00,0.00,3,S01
11560,-8.38928,-0.56503,2.18830,49.5732,21.1585,-30.6098,0.00,0.00,0.00,3,S01
11580,-6.35661,-0.48842,1.75495,39.9390,2.8659,-20.4268,0.00,0.00,0.00,3,S01
11600,-4.81713,-0.42377,1.26414,38.5976,-8.7195,-14.3293,0.00,0.00,0.00,3,S01
11620,-3.80918,-0.45729,0.55067,36.2195,-16.2195,-8.7805,0.00,0.00,0.00,3,S01
11640,-3.63440,0.02155,-0.52672,20.8537,-18.2927,1.8902,0.00,0.00,0.00,3,S01
11660,-3.63440,0.02155,-0.52672,20.8537,-18.2927,1.8902,0.00,0.00,0.00,3,S01
11680,-5.46836,-2.29843,-2.36547,19.2073,-15.6707,3.0488,0.00,0.00,0.00,3,S01
11700,-9.77313,-2.17633,-6.60321,33.2317,-9.7561,-16.1585,0.00,0.00,0.00,3,S01
11720,-13.91749,5.20499,-0.49081,15.1829,24.2683,-51.3415,0.00,0.00,0.00,3,S01
11740,-13.83130,2.75094,2.04465,-8.7195,-1.3415,-33.0488,0.00,0.00,0.00,3,S01
11760,-12.24395,-2.24337,-1.18274,-2.8659,-37.3780,-9.2073,0.00,0.00,0.00,3,S01
11780,-13.37640,-3.39019,0.37350,-11.6463,-13.8415,-6.6463,0.00,0.00,0.00,3,S01
11800,-15.78258,0.00718,0.03831,-11.0366,12.9878,-4.2073,0.00,0.00,0.00,3,S01
11820,-16.19678,1.51314,-0.32801,-11.1585,28.2927,16.8293,0.00,0.00,0.00,3,S01
11840,-15.15769,1.67594,0.11253,-24.6951,27.9268,38.4146,0.00,0.00,0.00,3,S01
11860,-13.51287,1.28090,-0.23942,-38.5366,20.0610,51.3415,0.00,0.00,0.00,3,S01
11880,-11.86566,0.58179,-0.27054,-47.9878,16.8293,55.0610,0.00,0.00,0.00,3,S01
11900,-10.33577,0.08380,0.39983,-48.8415,16.5854,50.0000,0.00,0.00,0.00,3,S01
11920,-8.63828,-0.37828,0.86431,-42.6220,12.0122,43.0488,0.00,0.00,0.00,3,S01
11940,-6.58884,-1.16358,1.58017,-34.0854,3.1707,38.8415,0.00,0.00,0.00,3,S01
11960,-4.57053,-1.76932,2.34153,-27.2561,-11.4634,35.6707,0.00,0.00,0.00,3,S01
11980,-2.94966,-1.87705,2.89459,-22.8049,-26.8293,29.2683,0.00,0.00,0.00,3,S01
12000,-2.26731,-1.11330,2.65517,-13.5366,-36.5854,18.9634,0.00,0.00,0.00,3,S01
12020,-1.58736,-1.39103,1.66397,2.8659,-50.6098,14.3902,0.00,0.00,0.00,3,S01
12040,-0.79966,-1.86029,0.66559,21.2195,-74.1463,11.0976,0.00,0.00,0.00,3,S01
12060,-1.93930,-1.02232,-1.61848,38.5366,-99.8171,3.4146,0.00,0.00,0.00,3,S01
12080,-7.19936,-0.12689,-7.50103,47.8659,-107.7439,-9.7561,0.00,0.00,0.00,3,S01
12100,-14.20959,0.89783,-10.34774,19.8171,-39.2073,-29.3902,0.00,0.00,0.00,3,S01
12120,-18.29649,-0.44532,4.11563,-12.9268,96.4634,-33.1098,0.00,0.00,0.00,3,S01
12140,-18.13129,-2.96163,6.48350,-6.4634,91.7073,-21.4634,0.00,0.00,0.00,3,S01
12160,-16.14650,-1.70946,0.09337,32.4390,15.4268,-15.0000,0.00,0.00,0.00,3,S01
12180,-15.89271,-0.91219,-0.22745,29.4512,11.3415,-16.5854,0.00,0.00,0.00,3,S01
12200,-15.44260,-0.93853,1.72383,25.2439,29.3902,-22.8659,0.00,0.00,0.00,3,S01
12220,-13.54879,-0.34716,0.80924,22.6220,21.0366,-29.6341,0.00,0.00,0.00,3,S01
12240,-11.39879,-0.70150,0.59137,20.6707,15.0000,-30.9146,0.00,0.00,0.00,3,S01
12260,-9.05727,-1.65918,0.00000,23.9024,12.1341,-28.8415,0.00,0.00,0.00,3,S01
12280,-7.55849,-2.42054,0.11492,24.9390,12.7439,-23.8415,0.00,0.00,0.00,3,S01
12300,-7.06050,-2.10211,1.27372,15.2439,16.2195,-16.4634,0.00,0.00,0.00,3,S01
12320,-6.05254,-1.43173,2.09014,13.8415,17.8659,-7.1341,0.00,0.00,0.00,3,S01
12340,-4.96318,-0.87628,1.94888,20.9146,5.7927,1.9512,0.00,0.00,0.00,3,S01
12360,-3.93128,-1.60412,1.40061,31.0976,-12.0732,11.2805,0.00,0.00,0.00,3,S01
12380,-3.20105,-1.13964,1.12527,38.5366,-23.9634,14.6341,0.00,0.00,0.00,3,S01
12400,-2.79164,-0.30167,0.59616,39.0854,-32.7439,17.1951,0.00,0.00,0.00,3,S01
12420,-2.96402,-0.50278,-0.54348,32.8659,-47.1341,20.9146,0.00,0.00,0.00,3,S01
12440,-5.47315,-3.18908,-3.59130,31.8293,-60.8537,14.9390,0.00,0.00,0.00,3,S01
12460,-10.38844,-2.42293,-6.99346,31.7073,-40.7927,-22.0122,0.00,0.00,0.00,3,S01
12480,-15.00925,4.51068,0.84994,5.7317,33.1098,-62.3171,0.00,0.00,0.00,3,S01
12500,-14.50647,0.25139,3.96480,-4.5122,36.5244,-34.8171,0.00,0.00,0.00,3,S01
12520,-13.52963,-4.74531,-0.05507,2.3780,-4.4512,-12.4390,0.00,0.00,0.00,3,S01
12540,-17.62132,0.76136,0.55306,6.0366,31.0366,-7.5000,0.00,0.00,0.00,3,S01
12560,-16.01003,1.83156,-0.00718,6.7073,31.7073,16.7073,0.00,0.00,0.00,3,S01
12580,-13.71878,0.90022,0.16759,-4.0854,20.7317,35.9756,0.00,0.00,0.00,3,S01
12600,-11.68370,-0.04310,-0.01197,-6.7683,11.4024,42.5000,0.00,0.00,0.00,3,S01
12620,-10.31901,0.48363,0.45729,-5.3049,14.0244,38.1707,0.00,0.00,0.00,3,S01
12640,-9.21768,1.91536,0.67277,-3.8415,15.0610,34.4512,0.00,0.00,0.00,3,S01
12660,-6.94797,1.75256,0.72784,-2.6829,10.8537,42.0122,0.00,0.00,0.00,3,S01
12680,-4.63757,0.39265,0.69432,-5.8537,-0.7317,52.1341,0.00,0.00,0.00,3,S01
12700,-2.34392,-1.77171,2.14760,-21.2195,-19.2683,38.0488,0.00,0.00,0.00,3,S01
12720,-2.40138,-1.16119,2.47082,-12.5610,-23.1098,14.0244,0.00,0.00,0.00,3,S01
12740,-2.40138,-1.16119,2.47082,-12.5610,-23.1098,14.0244,0.00,0.00,0.00,3,S01
12760,-1.61369,-1.02472,1.61848,9.0854,-37.6220,-4.8171,0.00,0.00,0.00,3,S01
12780,-1.09176,-0.47645,0.53151,29.5732,-56.0366,-17.0732,0.00,0.00,0.00,3,S01
12800,-2.27210,0.53630,-1.38864,40.3659,-77.5000,-22.6220,0.00,0.00,0.00,3,S01
12820,-7.94875,1.91057,-6.71095,42.2561,-87.5610,-30.3659,0.00,0.00,0.00,3,S01
12840,-16.98686,1.39821,-11.02769,19.5122,-31.7073,-37.6829,0.00,0.00,0.00,3,S01
12860,-19.25178,-5.95677,10.25437,-7.6220,95.8537,-23.1707,0.00,0.00,0.00,3,S01
12880,-18.65083,-3.69665,4.42209,20.8537,36.2805,-33.4146,0.00,0.00,0.00,3,S01
12900,-16.58224,2.20985,-1.92494,61.2195,-26.7073,-31.3415,0.00,0.00,0.00,3,S01
12920,-16.37395,2.07577,-0.71587,20.9146,-6.8902,-14.6341,0.00,0.00,0.00,3,S01
12940,-16.16326,-1.01275,2.42772,-14.0244,21.2805,-16.3415,0.00,0.00,0.00,3,S01
12960,-14.59505,-1.95606,1.97282,-11.6463,15.8537,-30.7927,0.00,0.00,0.00,3,S01
12980,-11.59751,-2.41814,1.29526,-1.0976,4.1463,-40.2439,0.00,0.00,0.00,3,S01
13000,-9.05487,-2.04225,1.52032,1.1585,-1.9512,-41.0366,0.00,0.00,0.00,3,S01
13020,-7.26401,-1.46046,1.33596,7.8659,-8.9024,-27.9268,0.00,0.00,0.00,3,S01
13040,-5.72932,-1.68073,1.06063,13.4756,-19.3293,-10.0000,0.00,0.00,0.00,3,S01
13060,-4.49152,-1.92973,0.64883,13.6585,-26.0976,-2.9268,0.00,0.00,0.00,3,S01
13080,-4.06296,-1.55863,0.21069,13.4756,-22.8659,-7.0732,0.00,0.00,0.00,3,S01
13100,-3.62243,-0.21787,0.21548,13.7805,-20.1220,-13.1098,0.00,0.00,0.00,3,S01
13120,-2.71742,0.78769,0.32322,9.0244,-30.3659,-11.8902,0.00,0.00,0.00,3,S01
13140,-1.89860,0.18196,0.01197,-3.2927,-48.4756,-4.5732,0.00,0.00,0.00,3,S01
13160,-2.21703,-1.35512,-1.56341,-12.0732,-67.3171,-0.8537,0.00,0.00,0.00,3,S01
13180,-7.25204,-5.57131,-6.70855,-15.0610,-70.9756,-16.0366,0.00,0.00,0.00,3,S01
13200,-15.65090,-2.95684,-10.05086,-18.2927,5.7317,-82.0732,0.00,0.00,0.00,3,S01
13220,-22.65394,8.88967,7.10599,-40.3659,131.2195,-122.0732,0.00,0.00,0.00,3,S01
13240,-20.34593,6.79235,5.15472,-69.4512,66.4634,-53.3537,0.00,0.00,0.00,3,S01
13260,-16.71632,2.15478,-2.12366,-76.2805,-29.5732,5.9756,0.00,0.00,0.00,3,S01
13280,-14.65251,-2.55461,-3.92170,-93.8415,-23.2317,26.5854,0.00,0.00,0.00,3,S01
13300,-14.64533,-1.70228,2.13563,-92.3171,28.7805,24.2683,0.00,0.00,0.00,3,S01
13320,-13.39556,-0.42377,0.95768,-82.5610,24.7561,27.0732,0.00,0.00,0.00,3,S01
13340,-10.97981,0.95289,-0.71826,-80.5488,12.2561,32.5000,0.00,0.00,0.00,3,S01
13360,-8.71011,2.12366,-0.65122,-86.7073,12.3780,37.8049,0.00,0.00,0.00,3,S01
13380,-7.46512,2.20267,-0.66559,-96.2195,8.5976,40.9756,0.00,0.00,0.00,3,S01
13400,-6.32788,0.63686,-0.43335,-99.2073,7.5000,39.6951,0.00,0.00,0.00,3,S01
13420,-5.50188,-0.38547,0.31125,-95.1829,7.8659,31.7073,0.00,0.00,0.00,3,S01
13440,-4.58490,-1.08218,0.63446,-86.5854,2.5610,24.0854,0.00,0.00,0.00,3,S01
13460,-4.19464,-1.13964,0.70390,-83.1098,-7.3780,16.2805,0.00,0.00,0.00,3,S01
13480,-4.45800,0.64165,1.17795,-86.4024,-18.2927,4.5122,0.00,0.00,0.00,3,S01
13500,-4.08690,0.97923,0.66080,-86.7683,-34.3902,0.2439,0.00,0.00,0.00,3,S01
13520,-3.54342,-0.06225,-0.67995,-80.9146,-52.9268,0.0610,0.00,0.00,0.00,3,S01
13540,-4.46040,-0.67756,-2.04225,-74.2683,-61.9512,-8.0488,0.00,0.00,0.00,3,S01
13560,-9.19852,-2.39181,-5.35583,-62.4390,-55.0000,-19.9390,0.00,0.00,0.00,3,S01
13580,-14.67646,-3.24893,1.14443,-53.4146,3.9024,-26.9512,0.00,0.00,0.00,3,S01
13600,-15.74667,-2.18351,6.05733,-47.4390,20.5488,-12.3171,0.00,0.00,0.00,3,S01
13620,-14.19043,2.92332,-0.82839,-30.6098,-41.5244,-1.4634,0.00,0.00,0.00,3,S01
13640,-14.74589,5.68862,-3.91691,-44.1463,-39.8171,6.1585,0.00,0.00,0.00,3,S01
13660,-15.64371,1.47722,-0.25139,-89.6951,6.0366,12.5000,0.00,0.00,0.00,3,S01
13680,-15.42584,-1.65918,0.78769,-112.1341,14.4512,5.9146,0.00,0.00,0.00,3,S01
13700,-13.26388,-1.92494,-0.14605,-107.7439,2.9878,-4.5122,0.00,0.00,0.00,3,S01
13720,-8.20972,-0.03831,-0.28730,-117.5610,2.0732,-8.3537,0.00,0.00,0.00,3,S01
13740,-8.20972,-0.03831,-0.28730,-117.5610,2.0732,-8.3537,0.00,0.00,0.00,3,S01
13760,-7.44118,-0.68953,-0.68953,-119.8781,-8.7805,-0.2439,0.00,0.00,0.00,3,S01
13780,-7.44118,-0.68953,-0.68953,-119.8781,-8.7805,-0.2439,0.00,0.00,0.00,3,S01
13800,-6.89291,-0.94332,-1.01035,-122.7439,-12.0732,6.4024,0.00,0.00,0.00,3,S01
13820,-5.47554,-1.78129,-0.77572,-112.3171,1.0976,10.4268,0.00,0.00,0.00,3,S01
13840,-4.85305,-1.73819,-0.79009,-107.6220,-3.2317,5.7317,0.00,0.00,0.00,3,S01
13860,-4.90572,-1.71904,-1.00556,-105.6098,-10.6707,-1.3415,0.00,0.00,0.00,3,S01
13880,-5.09247,-0.68953,-1.32878,-103.4146,-15.6707,-6.5244,0.00,0.00,0.00,3,S01
13900,-4.63039,0.34477,-1.30723,-114.0244,-19.7561,-2.8659,0.00,0.00,0.00,3,S01
13920,-5.17626,0.78290,-1.58736,-142.0122,-23.2927,4.0854,0.00,0.00,0.00,3,S01
13940,-10.19691,-4.52265,-4.75249,-149.7561,-13.3537,-4.6341,0.00,0.00,0.00,3,S01
13960,-17.64048,-1.48441,0.30167,-127.5000,50.3659,-65.4268,0.00,0.00,0.00,3,S01
13980,-19.61569,4.46758,2.19548,-106.7073,50.7317,-75.9146,0.00,0.00,0.00,3,S01
14000,-15.74667,3.31118,-1.42694,-108.2317,-9.6951,-16.5244,0.00,0.00,0.00,3,S01
14020,-12.45703,-0.95768,-3.98156,-140.1829,-43.4146,25.5488,0.00,0.00,0.00,3,S01
14040,-12.23437,-1.72622,-0.26336,-159.7561,-16.7073,25.8537,0.00,0.00,0.00,3,S01
14060,-12.34929,-0.36871,0.87867,-145.6098,8.0488,21.4634,0.00,0.00,0.00,3,S01
14080,-11.00136,0.00958,-0.62010,-131.3415,6.0366,28.1707,0.00,0.00,0.00,3,S01
14100,-9.53371,0.37350,-1.21625,-126.1585,5.3659,34.0854,0.00,0.00,0.00,3,S01
14120,-8.52096,0.75896,-1.13964,-126.7073,5.9756,33.1098,0.00,0.00,0.00,3,S01
14140,-8.39407,0.79727,-0.78290,-127.8659,7.0122,27.3171,0.00,0.00,0.00,3,S01
14160,-8.43956,0.69671,-0.52672,-125.6707,6.1585,19.3293,0.00,0.00,0.00,3,S01
14180,-7.98227,0.85712,-0.18675,-123.5976,-0.3659,12.5000,0.00,0.00,0.00,3,S01
14200,-7.43160,1.11809,-0.19872,-123.9024,-9.6951,10.4878,0.00,0.00,0.00,3,S01
14220,-7.41245,1.14203,0.15083,-127.0122,-13.2927,10.9756,0.00,0.00,0.00,3,S01
14240,-7.35978,0.95768,0.87149,-129.3293,-13.6585,9.5122,0.00,0.00,0.00,3,S01
14260,-6.98867,1.13964,0.82361,-128.5366,-17.1341,7.7439,0.00,0.00,0.00,3,S01
14280,-6.26323,0.83558,0.36392,-126.0366,-21.4634,8.6585,0.00,0.00,0.00,3,S01
14300,-5.65271,-0.09816,-0.20111,-120.7317,-24.4512,7.8659,0.00,0.00,0.00,3,S01
14320,-6.41646,0.01197,-1.45567,-114.2683,-26.2195,1.2195,0.00,0.00,0.00,3,S01
14340,-8.62870,0.60573,-3.79002,-111.2805,-27.2561,-3.1098,0.00,0.00,0.00,3,S01
14360,-10.53449,-0.40701,-4.66869,-118.0488,-19.0244,1.9512,0.00,0.00,0.00,3,S01
14380,-10.34774,-1.82438,1.48680,-127.4390,-5.9756,9.1463,0.00,0.00,0.00,3,S01
14400,-10.83376,-0.04310,-0.41420,-124.5122,-31.0366,4.9390,0.00,0.00,0.00,3,S01
14420,-12.47858,1.52271,-2.65278,-122.8659,-33.3537,4.5122,0.00,0.00,0.00,3,S01
14440,-13.42429,0.40941,-0.51954,-126.4024,-10.6707,5.7927,0.00,0.00,0.00,3,S01
14460,-13.73075,-1.10852,-0.90980,-120.7927,-5.7927,1.0366,0.00,0.00,0.00,3,S01
14480,-13.38838,-2.09732,-0.85473,-108.7195,1.4024,-5.8537,0.00,0.00,0.00,3,S01
14500,-12.79940,-2.55940,0.07422,-97.6829,7.9268,-16.1585,0.00,0.00,0.00,3,S01
14520,-12.21761,-2.31040,0.49799,-83.9024,10.6707,-26.8293,0.00,0.00,0.00,3,S01
14540,-11.63343,-1.63285,0.17717,-72.8659,14.0854,-33.4756,0.00,0.00,0.00,3,S01
14560,-11.33894,-1.03190,0.11492,-70.4268,18.5366,-33.9024,0.00,0.00,0.00,3,S01
14580,-10.76912,-0.73263,0.24421,-66.1585,20.9756,-30.0000,0.00,0.00,0.00,3,S01
14600,-9.59357,-0.64883,0.52433,-58.2317,16.2195,-23.9024,0.00,0.00,0.00,3,S01
14620,-8.23127,-0.74220,0.59616,-53.1098,1.2805,-17.3171,0.00,0.00,0.00,3,S01
14640,-7.07965,-0.65601,0.28730,-50.0000,-18.5976,-11.9512,0.00,0.00,0.00,3,S01
14660,-5.79876,-0.61292,0.30406,-50.6098,-36.1585,-8.2317,0.00,0.00,0.00,3,S01
14680,-4.37660,-0.91937,0.42377,-50.8537,-48.7805,-7.5000,0.00,0.00,0.00,3,S01
14700,-3.46920,-1.04866,0.10295,-48.1098,-57.0732,-13.3537,0.00,0.00,0.00,3,S01
14720,-3.35907,0.03352,-0.51715,-45.6098,-59.1463,-20.0610,0.00,0.00,0.00,3,S01
14740,-3.25372,0.81403,-1.19231,-52.4390,-61.4024,-14.4512,0.00,0.00,0.00,3,S01
14760,-15.94059,2.21942,-1.58257,-71.2195,17.3171,-57.6829,0.00,0.00,0.00,3,S01
14780,-15.94059,2.21942,-1.58257,-71.2195,17.3171,-57.6829,0.00,0.00,0.00,3,S01
14800,-15.94059,2.21942,-1.58257,-71.2195,17.3171,-57.6829,0.00,0.00,0.00,3,S01
14820,-18.26058,5.90410,1.51553,-93.4756,14.2683,-59.5732,0.00,0.00,0.00,3,S01
14840,-14.81532,1.92254,-1.71664,-104.3293,-42.5000,-7.8049,0.00,0.00,0.00,3,S01
14860,-12.90954,-2.18830,-0.19632,-117.9268,-39.5122,19.6951,0.00,0.00,0.00,3,S01
14880,-13.62301,-1.27850,0.63925,-113.6585,-16.7683,22.7439,0.00,0.00,0.00,3,S01
14900,-13.22078,0.21548,-0.47405,-95.6098,-7.6829,26.2195,0.00,0.00,0.00,3,S01
14920,-11.98777,0.65362,-0.72544,-89.8781,0.6707,31.8293,0.00,0.00,0.00,3,S01
14940,-10.55364,0.53391,-0.76375,-90.6707,3.8415,36.7073,0.00,0.00,0.00,3,S01
14960,-9.47146,0.69192,-0.91219,-92.6220,3.5366,38.3537,0.00,0.00,0.00,3,S01
14980,-8.99262,1.13006,-0.64404,-96.1585,4.6951,34.9390,0.00,0.00,0.00,3,S01
15000,-8.57124,1.47722,-0.21069,-98.5366,4.8780,28.8415,0.00,0.00,0.00,3,S01
15020,-8.06846,1.34315,-0.15083,-101.2805,1.0976,23.8415,0.00,0.00,0.00,3,S01
15040,-7.58004,0.42377,0.06704,-104.3902,-3.1098,21.5244,0.00,0.00,0.00,3,S01
15060,-7.33105,-0.14365,1.08218,-106.0976,-5.8537,17.4390,0.00,0.00,0.00,3,S01
15080,-7.18021,0.46687,2.67911,-106.8902,-13.4146,12.3171,0.00,0.00,0.00,3,S01
15100,-4.66869,0.21548,1.31681,-96.3415,-36.4634,19.7561,0.00,0.00,0.00,3,S01
15120,-4.39097,-0.58658,-0.15802,-87.9268,-33.8415,12.3780,0.00,0.00,0.00,3,S01
15140,-6.06212,-0.09577,-1.91536,-79.6341,-23.6585,-3.7805,0.00,0.00,0.00,3,S01
15160,-9.54329,-0.70150,-4.78362,-71.6463,-11.6463,-10.6707,0.00,0.00,0.00,3,S01
15180,-10.62786,-3.20584,-1.10373,-73.1707,12.6829,-3.4756,0.00,0.00,0.00,3,S01
15200,-10.46984,-2.98078,2.60250,-73.5976,1.4024,3.1098,0.00,0.00,0.00,3,S01
15220,-11.46104,0.28012,-1.06781,-56.3415,-30.1829,2.4390,0.00,0.00,0.00,3,S01
15240,-13.69483,1.78607,-1.64482,-53.7195,-9.6341,5.4878,0.00,0.00,0.00,3,S01
15260,-14.62139,0.07901,1.01514,-64.0244,12.3171,3.9634,0.00,0.00,0.00,3,S01
15280,-14.59027,-1.80523,0.69192,-66.2195,4.5122,-6.7073,0.00,0.00,0.00,3,S01
15300,-13.87679,-2.44209,0.98402,-54.3902,7.1951,-20.5488,0.00,0.00,0.00,3,S01
15320,-12.65575,-2.19069,1.11570,-40.9756,11.0366,-32.6829,0.00,0.00,0.00,3,S01
15340,-11.34133,-1.80523,0.86670,-29.0854,11.2805,-39.2073,0.00,0.00,0.00,3,S01
15360,-9.89045,-1.37427,0.73741,-15.9146,16.4024,-38.7805,0.00,0.00,0.00,3,S01
15380,-8.62391,-0.56982,0.73981,-13.2927,21.0976,-33.9024,0.00,0.00,0.00,3,S01
15400,-7.40048,-0.15562,0.76136,-15.0000,22.4390,-24.0244,0.00,0.00,0.00,3,S01
15420,-6.38773,0.22266,1.04627,-13.9634,21.4024,-16.4634,0.00,0.00,0.00,3,S01
15440,-5.69581,0.42138,1.22823,-15.6098,11.0366,-13.1098,0.00,0.00,0.00,3,S01
15460,-5.24091,-0.90022,1.47722,-19.2683,-2.0122,-9.2683,0.00,0.00,0.00,3,S01
15480,-4.45082,-2.51391,2.03986,-14.3902,-9.7561,-9.6951,0.00,0.00,0.00,3,S01
15500,-3.98635,-1.72861,1.25935,-1.9512,-21.8902,-14.1463,0.00,0.00,0.00,3,S01
15520,-3.60327,-0.73741,-0.10534,-2.3171,-40.3659,-9.9390,0.00,0.00,0.00,3,S01
15540,-3.84509,0.29209,-1.36948,-17.7439,-52.7439,-0.5488,0.00,0.00,0.00,3,S01
15560,-7.91044,-2.82037,-5.51863,-27.9268,-50.9756,0.7317,0.00,0.00,0.00,3,S01
15580,-13.63258,1.34554,-6.01423,-27.9878,-5.7927,-36.7073,0.00,0.00,0.00,3,S01
15600,-15.90229,4.67588,4.18985,-50.8537,29.9390,-46.8902,0.00,0.00,0.00,3,S01
15620,-14.17607,0.52433,-0.48123,-58.2317,-32.6829,-1.4634,0.00,0.00,0.00,3,S01
15640,-14.20959,-2.98078,-0.10774,-60.4268,-26.7073,18.9634,0.00,0.00,0.00,3,S01
15660,-17.21431,-0.98641,1.83635,-58.0488,14.8780,17.6220,0.00,0.00,0.00,3,S01
15680,-17.54232,1.74058,-0.22745,-44.6951,24.3902,26.0976,0.00,0.00,0.00,3,S01
15700,-15.44260,2.15239,0.27054,-58.6585,20.9146,41.0366,0.00,0.00,0.00,3,S01
15720,-13.12741,2.09493,-0.47884,-74.0854,5.3049,53.9024,0.00,0.00,0.00,3,S01
15740,-11.13543,1.26174,-0.96965,-79.5732,5.3659,60.8537,0.00,0.00,0.00,3,S01
15760,-9.37809,0.38547,0.02873,-81.7073,11.2195,57.0732,0.00,0.00,0.00,3,S01
15780,-7.88650,0.16999,0.68235,-74.2683,6.2195,45.4878,0.00,0.00,0.00,3,S01
15800,-4.10127,-1.40540,1.28569,-60.9146,-12.0122,44.0854,0.00,0.00,0.00,3,S01
15820,-2.78446,-1.21625,1.80044,-60.1220,-25.0000,38.7195,0.00,0.00,0.00,3,S01
15840,-2.78446,-1.21625,1.80044,-60.1220,-25.0000,38.7195,0.00,0.00,0.00,3,S01
15860,-1.73819,-0.92656,1.79086,-53.2927,-41.4634,25.9756,0.00,0.00,0.00,3,S01
15880,-1.22583,-0.75417,0.87149,-37.9268,-58.6585,14.5122,0.00,0.00,0.00,3,S01
15900,-2.90896,0.34237,-1.54187,-20.3659,-72.5610,5.9146,0.00,0.00,0.00,3,S01
15920,-7.12036,0.00718,-5.68623,-13.4146,-74.2683,-4.1463,0.00,0.00,0.00,3,S01
15940,-12.32535,-1.82917,-7.92960,-21.1585,-30.4268,-15.6098,0.00,0.00,0.00,3,S01
15960,-13.86003,-3.47159,6.23929,-38.9634,40.0610,-14.8780,0.00,0.00,0.00,3,S01
15980,-13.59907,-1.69270,0.24660,-11.7073,-6.2805,-12.5000,0.00,0.00,0.00,3,S01
16000,-14.70519,0.78530,-2.93769,6.1585,-16.4634,-9.2683,0.00,0.00,0.00,3,S01
16020,-16.46732,0.69192,1.71904,-20.9146,17.4390,-10.3659,0.00,0.00,0.00,3,S01
16040,-16.46253,-0.55306,1.51792,-28.7805,20.6707,-19.2683,0.00,0.00,0.00,3,S01
16060,-14.80335,-1.78368,0.95050,-22.2561,14.7561,-29.4512,0.00,0.00,0.00,3,S01
16080,-12.41633,-2.75573,0.82121,-12.9878,10.3049,-36.7683,0.00,0.00,0.00,3,S01
16100,-9.83059,-3.47878,0.41899,1.7073,6.3415,-39.6341,0.00,0.00,0.00,3,S01
16120,-7.78834,-3.14838,0.05028,16.7073,5.9756,-38.3537,0.00,0.00,0.00,3,S01
16140,-7.01262,-1.57060,0.25857,22.6220,15.9146,-33.4756,0.00,0.00,0.00,3,S01
16160,-6.26563,-0.38786,0.93853,25.5488,30.1220,-24.4512,0.00,0.00,0.00,3,S01
16180,-5.56173,0.45729,2.00874,25.4878,28.7805,-15.9146,0.00,0.00,0.00,3,S01
16200,-4.95360,0.53151,2.72700,23.0488,8.4756,-9.8780,0.00,0.00,0.00,3,S01
16220,-3.82593,0.35913,3.07894,20.5488,-16.5244,-2.3780,0.00,0.00,0.00,3,S01
16240,-2.86107,-0.61770,2.16436,21.7073,-40.0000,7.8049,0.00,0.00,0.00,3,S01
16260,-2.16675,-2.22661,0.51475,31.5854,-62.8049,15.6707,0.00,0.00,0.00,3,S01
16280,-2.01113,-2.21703,-1.48680,36.2195,-82.8049,12.2561,0.00,0.00,0.00,3,S01
16300,-5.49709,-4.93206,-5.60004,25.9146,-85.7317,-6.0976,0.00,0.00,0.00,3,S01
16320,-13.93425,-2.95684,-10.22564,8.6585,-37.7439,-65.6707,0.00,0.00,0.00,3,S01
16340,-21.48796,8.36534,-0.16999,-10.7927,91.1585,-117.6220,0.00,0.00,0.00,3,S01
16360,-20.70266,7.43160,4.40533,-42.1341,87.8659,-57.8659,0.00,0.00,0.00,3,S01
16380,-14.04678,-3.90494,-5.15950,-102.5610,-39.7561,33.4146,0.00,0.00,0.00,3,S01
16400,-13.74032,-2.28407,-2.29365,-97.9268,7.4390,24.9390,0.00,0.00,0.00,3,S01
16420,-12.89996,-1.26653,1.06781,-88.2317,42.0732,30.1220,0.00,0.00,0.00,3,S01
16440,-11.29584,-0.61770,-0.21787,-83.0488,27.3171,40.6707,0.00,0.00,0.00,3,S01
16460,-9.62469,-0.07661,-1.41497,-75.3659,19.4512,46.9512,0.00,0.00,0.00,3,S01
16480,-8.00142,0.37589,-0.68235,-72.1341,25.9756,49.3902,0.00,0.00,0.00,3,S01
16500,-7.03177,0.71347,-0.04310,-73.3537,26.0976,48.4756,0.00,0.00,0.00,3,S01
16520,-6.15549,0.54348,0.19632,-75.3659,23.4756,47.8659,0.00,0.00,0.00,3,S01
16540,-5.44920,-0.52672,0.19632,-73.7195,23.7805,44.1463,0.00,0.00,0.00,3,S01
16560,-5.85143,-1.57299,0.61770,-70.9146,27.5610,29.9390,0.00,0.00,0.00,3,S01
16580,-7.53934,-0.86910,3.47399,-73.1707,32.1951,5.9756,0.00,0.00,0.00,3,S01
16600,-8.09001,0.31125,5.61440,-75.9756,10.2439,-9.8171,0.00,0.00,0.00,3,S01
16620,-6.37336,0.55545,3.01669,-72.6829,-31.0976,-10.3049,0.00,0.00,0.00,3,S01
16640,-4.78601,-0.63925,0.26576,-64.3293,-46.9512,-6.8902,0.00,0.00,0.00,3,S01
16660,-4.78122,-0.94332,-1.74537,-56.2195,-34.8171,-13.8415,0.00,0.00,0.00,3,S01
16680,-5.92086,-0.07901,-1.73819,-50.0610,-2.1341,-22.7439,0.00,0.00,0.00,3,S01
16700,-9.55287,1.19471,-2.31280,-43.4146,25.3659,-22.3171,0.00,0.00,0.00,3,S01
16720,-14.28860,1.08218,-5.31273,-39.4512,36.1585,-13.1707,0.00,0.00,0.00,3,S01
16740,-14.93264,-2.32956,0.61052,-43.9024,50.9756,1.0976,0.00,0.00,0.00,3,S01
16760,-12.93108,-2.03268,2.58095,-35.1220,-11.5854,-10.2439,0.00,0.00,0.00,3,S01
16780,-11.75074,2.16436,-1.73580,-7.9878,-78.2927,-25.7317,0.00,0.00,0.00,3,S01
16800,-12.96221,4.27844,-4.26407,-19.0854,-54.5122,-15.7927,0.00,0.00,0.00,3,S01
16820,-12.20085,-2.22661,0.36152,-78.8415,43.2317,-8.4756,0.00,0.00,0.00,3,S01
16840,-11.40358,-1.64003,-0.20111,-67.4390,25.2439,-32.2561,0.00,0.00,0.00,3,S01
16860,-11.40358,-1.64003,-0.20111,-67.4390,25.2439,-32.2561,0.00,0.00,0.00,3,S01
16880,-9.83299,-1.29287,-0.58179,-64.3902,3.0488,-41.2195,0.00,0.00,0.00,3,S01
16900,-8.37013,-1.68312,-0.15323,-70.3659,-1.0366,-35.1220,0.00,0.00,0.00,3,S01
16920,-8.15465,-2.13563,0.17238,-70.5488,6.4024,-26.7073,0.00,0.00,0.00,3,S01
16940,-8.42520,-2.14760,0.60094,-64.6951,13.8415,-21.3415,0.00,0.00,0.00,3,S01
16960,-8.20014,-2.10450,1.31681,-54.4512,13.1098,-16.8902,0.00,0.00,0.00,3,S01
16980,-7.72609,-1.79565,1.62327,-43.7195,5.3659,-14.2683,0.00,0.00,0.00,3,S01
17000,-7.27837,-1.66158,2.13084,-37.5610,-5.7927,-14.2683,0.00,0.00,0.00,3,S01
17020,-6.78517,-2.01831,2.29604,-32.4390,-18.1707,-17.1951,0.00,0.00,0.00,3,S01
17040,-6.53378,-1.90339,1.65439,-23.2927,-25.9146,-23.0488,0.00,0.00,0.00,3,S01
17060,-6.11240,-1.78129,1.14443,-10.3659,-26.3415,-24.3293,0.00,0.00,0.00,3,S01
17080,-5.44920,-0.35434,0.94332,-8.1098,-29.6951,-17.6220,0.00,0.00,0.00,3,S01
17100,-6.61518,-1.22823,-1.00317,-20.9756,-38.6585,-7.2561,0.00,0.00,0.00,3,S01
17120,-11.34133,-3.92170,-6.32548,-22.5000,-48.4756,-14.9390,0.00,0.00,0.00,3,S01
17140,-15.84243,3.60806,-3.79242,-33.2927,-15.4268,-54.1463,0.00,0.00,0.00,3,S01
17160,-16.17044,5.28161,1.71185,-53.0488,-5.3659,-39.0244,0.00,0.00,0.00,3,S01
17180,-13.72117,0.08140,-2.53067,-68.6585,-51.2195,6.6463,0.00,0.00,0.00,3,S01
17200,-12.50970,-4.48913,-4.25928,-74.2683,-39.5122,23.1707,0.00,0.00,0.00,3,S01
17220,-14.19762,-2.06141,0.01437,-68.2927,15.6098,20.9146,0.00,0.00,0.00,3,S01
17240,-13.96298,0.09098,0.70390,-57.0732,34.4512,33.2927,0.00,0.00,0.00,3,S01
17260,-12.54562,1.22583,-0.81163,-52.7439,24.4512,48.8415,0.00,0.00,0.00,3,S01
17280,-10.95587,1.30963,-0.91219,-53.8415,20.1829,60.2439,0.00,0.00,0.00,3,S01
17300,-9.87848,1.10852,-0.48602,-60.6098,14.3293,61.5244,0.00,0.00,0.00,3,S01
17320,-8.88249,0.59855,-0.22984,-61.5244,10.4878,53.4146,0.00,0.00,0.00,3,S01
17340,-7.77397,0.22505,0.12929,-58.9634,10.0000,41.9512,0.00,0.00,0.00,3,S01
17360,-6.64870,-0.15323,0.64404,-58.7805,6.2195,33.4756,0.00,0.00,0.00,3,S01
17380,-5.45878,-1.06542,1.17076,-60.5488,-1.8902,29.9390,0.00,0.00,0.00,3,S01
17400,-4.74291,-1.81720,1.62327,-58.2927,-12.8049,25.3659,0.00,0.00,0.00,3,S01
17420,-4.48913,-1.47722,2.29604,-52.1951,-25.3049,14.7561,0.00,0.00,0.00,3,S01
17440,-3.62722,-1.39821,1.47004,-37.0732,-40.6098,6.5244,0.00,0.00,0.00,3,S01
17460,-2.93769,-1.06063,0.23703,-18.9024,-51.1585,-0.1829,0.00,0.00,0.00,3,S01
17480,-3.07416,0.22984,-0.95768,-7.2561,-59.3293,-8.4756,0.00,0.00,0.00,3,S01
17500,-5.63356,2.06859,-3.66073,1.4634,-66.0366,-12.6829,0.00,0.00,0.00,3,S01
17520,-11.69328,0.66798,-8.59279,-0.3659,-59.5122,-12.5000,0.00,0.00,0.00,3,S01
17540,-16.62534,-3.04064,-6.18901,-20.2439,13.7195,-7.9268,0.00,0.00,0.00,3,S01
17560,-17.32923,-2.26252,7.61117,-36.5244,59.9390,-12.3780,0.00,0.00,0.00,3,S01
17580,-15.62217,2.90417,0.30406,-5.6707,-18.3537,-16.0366,0.00,0.00,0.00,3,S01
17600,-14.40591,3.69904,-2.76770,-9.2683,-26.2805,-3.9634,0.00,0.00,0.00,3,S01
17620,-13.73075,-0.55785,0.06943,-49.2683,12.6829,2.7439,0.00,0.00,0.00,3,S01
17640,-11.62146,-2.87544,1.21625,-30.1829,22.8659,-28.2927,0.00,0.00,0.00,3,S01
17660,-9.64384,-2.14042,0.63207,-11.2805,8.7805,-33.5976,0.00,0.00,0.00,3,S01
17680,-7.83622,-1.18513,0.64643,-6.0366,-1.5854,-27.6220,0.00,0.00,0.00,3,S01
17700,-6.85939,-0.62968,0.45729,-11.0366,-13.0488,-15.7317,0.00,0.00,0.00,3,S01
17720,-6.64630,-0.69911,-0.12689,-9.8780,-16.7683,-5.4268,0.00,0.00,0.00,3,S01
17740,-6.31590,-0.59137,-0.02634,-8.7195,-4.2683,1.4634,0.00,0.00,0.00,3,S01
17760,-6.00226,-0.79727,0.55306,-11.0976,7.9268,7.3171,0.00,0.00,0.00,3,S01
17780,-5.87537,-2.05662,2.75812,-15.1220,11.5244,9.9390,0.00,0.00,0.00,3,S01
17800,-5.85143,-3.09331,3.60327,-8.7195,-3.4756,3.2317,0.00,0.00,0.00,3,S01
17820,-6.03099,-2.48518,1.43892,7.3780,-29.2683,-12.0732,0.00,0.00,0.00,3,S01
17840,-5.94241,-2.33195,-0.90261,26.1585,-45.5488,-20.6098,0.00,0.00,0.00,3,S01
17860,-9.29190,-2.59292,-3.90255,12.3171,-18.5976,-17.3780,0.00,0.00,0.00,3,S01
17880,-9.29190,-2.59292,-3.90255,12.3171,-18.5976,-17.3780,0.00,0.00,0.00,3,S01
17900,-15.23909,2.98557,-1.10373,-6.0976,28.3537,-46.8902,0.00,0.00,0.00,3,S01
17920,-17.84638,5.57131,0.91219,-21.3415,28.9634,-51.1585,0.00,0.00,0.00,3,S01
17940,-16.99404,2.22182,-2.64320,-41.3415,-20.6707,-19.9390,0.00,0.00,0.00,3,S01
17960,-14.74349,-1.91536,-1.52511,-60.5488,-29.5122,1.2195,0.00,0.00,0.00,3,S01
17980,-12.84010,-3.17232,0.16999,-53.9024,-19.5122,12.6829,0.00,0.00,0.00,3,S01
18000,-11.82496,-1.95367,-1.03908,-30.4268,-6.5854,23.1707,0.00,0.00,0.00,3,S01
18020,-10.60631,-0.68953,-1.03430,-17.1951,7.6220,35.7317,0.00,0.00,0.00,3,S01
18040,-8.77236,0.40941,-0.18196,-11.5244,12.3780,47.6220,0.00,0.00,0.00,3,S01
18060,-6.72052,0.12210,-0.25139,-7.8659,4.8780,56.6463,0.00,0.00,0.00,3,S01
18080,-5.17866,-1.17076,-0.71108,0.3659,-0.6707,56.6463,0.00,0.00,0.00,3,S01
18100,-4.86502,-1.49638,-1.52032,10.1220,1.0366,43.8415,0.00,0.00,0.00,3,S01
18120,-5.47793,-0.44532,-2.05183,13.4756,11.1585,25.6098,0.00,0.00,0.00,3,S01
18140,-6.11719,0.47884,-1.64960,8.2927,26.0366,12.3171,0.00,0.00,0.00,3,S01
18160,-6.45477,1.11809,-0.03112,-0.8537,36.3415,4.3902,0.00,0.00,0.00,3,S01
18180,-6.66067,1.25935,1.53229,-8.6585,31.5244,-0.5488,0.00,0.00,0.00,3,S01
18200,-7.21612,0.78290,1.29766,-12.8659,16.7073,-5.9146,0.00,0.00,0.00,3,S01
18220,-8.28394,0.30885,1.01035,-10.7317,13.5976,-12.7439,0.00,0.00,0.00,3,S01
18240,-9.70609,0.41420,2.40617,-5.7317,23.8415,-15.1829,0.00,0.00,0.00,3,S01
18260,-11.07318,1.02232,4.14676,-4.3293,27.9878,-7.6829,0.00,0.00,0.00,3,S01
18280,-10.90798,1.35033,3.33512,-2.8049,19.9390,3.8415,0.00,0.00,0.00,3,S01
18300,-10.43393,1.69270,2.78446,-2.3780,17.1951,8.8415,0.00,0.00,0.00,3,S01
18320,-10.57519,2.17633,1.28090,-2.6220,15.9756,9.8780,0.00,0.00,0.00,3,S01
18340,-11.47541,1.86748,-1.71425,-1.2195,15.2439,12.3780,0.00,0.00,0.00,3,S01
18360,-11.29345,0.25379,-1.27132,0.6707,21.2805,18.4756,0.00,0.00,0.00,3,S01
18380,-9.82341,-1.57538,0.56743,-1.8902,12.7439,22.5000,0.00,0.00,0.00,3,S01
18400,-8.73405,-1.24020,-1.31442,1.1585,-11.4024,11.7683,0.00,0.00,0.00,3,S01
18420,-9.74679,0.92416,-3.22499,-0.1829,-9.0854,-3.5366,0.00,0.00,0.00,3,S01
18440,-11.65976,1.29287,-2.34871,-16.7073,14.0854,-7.4390,0.00,0.00,0.00,3,S01
18460,-12.65575,-0.07183,-1.12527,-33.7805,24.0244,-6.4634,0.00,0.00,0.00,3,S01
18480,-12.80180,-1.23062,-1.39821,-36.9512,15.7927,-11.0366,0.00,0.00,0.00,3,S01
18500,-12.26071,-1.99676,-0.79487,-35.8537,12.4390,-18.1707,0.00,0.00,0.00,3,S01
18520,-11.42513,-2.24576,-0.44053,-28.8415,8.5366,-27.5610,0.00,0.00,0.00,3,S01
18540,-10.73799,-1.73101,-0.37589,-19.9390,3.2927,-37.0732,0.00,0.00,0.00,3,S01
18560,-10.38365,-1.24259,-0.34237,-15.4878,3.8415,-38.6585,0.00,0.00,0.00,3,S01
18580,-9.97903,-1.39582,0.38307,-15.5488,9.9390,-32.8659,0.00,0.00,0.00,3,S01
18600,-9.15543,-1.40300,1.16598,-12.0122,12.6220,-27.3171,0.00,0.00,0.00,3,S01
18620,-7.98227,-0.72544,1.47004,-9.1463,8.2317,-23.1707,0.00,0.00,0.00,3,S01
18640,-7.01262,0.29688,1.73580,-10.8537,-0.1220,-15.7927,0.00,0.00,0.00,3,S01
18660,-6.36858,0.38307,2.30801,-18.1707,-11.5244,-5.1829,0.00,0.00,0.00,3,S01
18680,-5.22654,-0.64883,2.92571,-17.8659,-24.2073,2.4390,0.00,0.00,0.00,3,S01
18700,-4.17788,-0.69671,1.81241,-5.9756,-40.2439,2.5000,0.00,0.00,0.00,3,S01
18720,-3.65834,-1.50356,0.11732,5.8537,-58.7195,5.2439,0.00,0.00,0.00,3,S01
18740,-4.12282,-2.65038,-2.26731,13.5366,-77.1341,6.4634,0.00,0.00,0.00,3,S01
18760,-6.43083,-3.98395,-5.63834,16.4024,-80.6707,-8.6585,0.00,0.00,0.00,3,S01
18780,-9.70131,1.83156,-7.06529,-3.4756,-47.0122,-46.7683,0.00,0.00,0.00,3,S01
18800,-13.06516,6.45477,0.16041,-62.5000,14.6951,-50.8537,0.00,0.00,0.00,3,S01
18820,-13.26867,-0.87628,-0.09337,-79.1463,9.8171,-5.4268,0.00,0.00,0.00,3,S01
18840,-14.17367,-5.76284,-2.12126,-70.3049,-5.7927,1.4634,0.00,0.00,0.00,3,S01
18860,-17.58780,-3.34470,-0.60334,-52.7439,26.4634,-10.9146,0.00,0.00,0.00,3,S01
18880,-18.70111,-0.42377,0.13168,-28.7195,46.4024,1.3415,0.00,0.00,0.00,3,S01
18900,-11.93270,1.87466,-0.51715,-33.7195,-3.7195,50.8537,0.00,0.00,0.00,3,S01
18920,-11.93270,1.87466,-0.51715,-33.7195,-3.7195,50.8537,0.00,0.00,0.00,3,S01
18940,-10.26634,2.14760,-0.56264,-45.4268,-5.8537,57.1341,0.00,0.00,0.00,3,S01
18960,-7.83143,1.09415,0.46208,-53.1098,0.1829,59.9390,0.00,0.00,0.00,3,S01
18980,-5.28879,-0.26815,1.26893,-54.6341,-3.3537,57.9268,0.00,0.00,0.00,3,S01
19000,-3.33273,-1.83156,1.71185,-53.4146,-14.2683,53.6585,0.00,0.00,0.00,3,S01
19020,-1.90100,-2.22182,2.34632,-49.8171,-19.4512,43.5976,0.00,0.00,0.00,3,S01
19040,-1.40540,-1.86748,2.48997,-39.9390,-24.5732,23.8415,0.00,0.00,0.00,3,S01
19060,-1.24977,-1.72861,1.52750,-18.9634,-34.1463,5.5488,0.00,0.00,0.00,3,S01
19080,-1.56820,-0.46208,0.55067,-0.4268,-46.5244,-8.1098,0.00,0.00,0.00,3,S01
19100,-2.72939,1.30484,-0.67995,8.7195,-60.0610,-13.5366,0.00,0.00,0.00,3,S01
19120,-7.18261,1.49638,-4.84586,16.7073,-72.1951,-14.7561,0.00,0.00,0.00,3,S01
19140,-14.22874,-1.01035,-9.91678,10.2439,-49.2683,-24.0854,0.00,0.00,0.00,3,S01
19160,-16.69956,-3.08373,-0.12210,-17.6829,53.6585,-32.5000,0.00,0.00,0.00,3,S01
19180,-16.97968,-2.15718,5.53061,-13.2317,72.9878,-33.2317,0.00,0.00,0.00,3,S01
19200,-16.73308,1.17076,-1.37427,24.5732,14.0854,-27.2561,0.00,0.00,0.00,3,S01
19220,-17.26219,0.31125,-0.80206,7.1951,22.9878,-18.0488,0.00,0.00,0.00,3,S01
19240,-16.45056,-1.54905,2.11647,-7.4390,35.1220,-19.0854,0.00,0.00,0.00,3,S01
19260,-13.68047,-1.79805,0.41180,-2.8049,15.1220,-27.8659,0.00,0.00,0.00,3,S01
19280,-10.55125,-1.13725,-0.28491,1.5854,2.8049,-36.6463,0.00,0.00,0.00,3,S01
19300,-8.21690,-1.65439,-1.06542,7.8659,-0.6707,-34.3902,0.00,0.00,0.00,3,S01
19320,-6.71574,-2.88022,-0.61531,12.6220,17.7439,-26.0976,0.00,0.00,0.00,3,S01
19340,-6.21295,-2.64080,1.44849,16.7683,45.3049,-23.2927,0.00,0.00,0.00,3,S01
19360,-6.17225,-1.63763,2.45885,22.3780,49.6341,-21.4634,0.00,0.00,0.00,3,S01
19380,-6.58405,-0.62728,2.21224,27.4390,32.3780,-19.9390,0.00,0.00,0.00,3,S01
19400,-5.81312,0.65841,2.83713,28.9634,9.3902,-15.6098,0.00,0.00,0.00,3,S01
19420,-4.22816,0.35195,2.41814,20.9146,-17.8659,-4.2683,0.00,0.00,0.00,3,S01
19440,-2.95923,-1.24977,1.36230,15.9756,-39.2683,5.2439,0.00,0.00,0.00,3,S01
19460,-1.92973,-1.21386,0.41899,18.4756,-52.1951,4.3293,0.00,0.00,0.00,3,S01
19480,-2.45166,0.66798,-0.07183,10.4268,-55.4268,-0.6707,0.00,0.00,0.00,3,S01
19500,-7.49385,-5.27921,-5.35104,11.8293,-62.5000,3.1707,0.00,0.00,0.00,3,S01
19520,-14.85602,-1.95367,-9.99100,14.6341,-28.4146,-36.9512,0.00,0.00,0.00,3,S01
19540,-19.12009,6.81869,4.25689,-27.5610,57.5610,-65.7317,0.00,0.00,0.00,3,S01
19560,-17.63808,2.10211,2.57377,-57.0122,15.7927,-8.7805,0.00,0.00,0.00,3,S01
19580,-16.36197,-3.88818,-2.98557,-55.4878,-18.2317,24.0854,0.00,0.00,0.00,3,S01
19600,-17.42739,-2.44448,-0.73502,-51.8293,24.3902,22.1951,0.00,0.00,0.00,3,S01
19620,-16.22072,-0.56982,0.78290,-34.3902,41.0366,26.5244,0.00,0.00,0.00,3,S01
19640,-13.86482,-0.44532,-1.04148,-27.8659,18.9024,42.4390,0.00,0.00,0.00,3,S01
19660,-11.61906,0.59137,-0.62728,-28.6585,14.0854,52.9878,0.00,0.00,0.00,3,S01
19680,-9.67018,2.11887,0.02155,-31.2195,13.3537,57.3781,0.00,0.00,0.00,3,S01
19700,-7.83862,2.23140,0.28012,-33.4146,11.9512,59.5122,0.00,0.00,0.00,3,S01
19720,-5.99508,0.30885,0.99838,-36.3415,11.8293,57.2561,0.00,0.00,0.00,3,S01
19740,-3.98874,-1.60172,2.29365,-38.4756,7.1951,51.2195,0.00,0.00,0.00,3,S01
19760,-3.04303,-1.48441,2.43730,-37.5610,-5.3049,38.9024,0.00,0.00,0.00,3,S01
19780,-2.64799,-1.45328,1.86748,-33.5976,-22.3780,25.1829,0.00,0.00,0.00,3,S01
19800,-2.20506,-1.03190,0.93134,-21.2195,-44.3902,13.4756,0.00,0.00,0.00,3,S01
19820,-2.15718,-0.25857,-0.14844,-7.2561,-66.2805,5.0000,0.00,0.00,0.00,3,S01
19840,-3.05979,0.75657,-1.90339,3.5366,-80.0610,5.8537,0.00,0.00,0.00,3,S01
19860,-7.58244,0.25857,-6.40449,10.5488,-75.7927,6.3415,0.00,0.00,0.00,3,S01
19880,-13.58470,-3.05261,-9.67736,6.3415,-20.0000,-1.8902,0.00,0.00,0.00,3,S01
19900,-17.02756,-4.42448,4.34787,-5.9756,73.1098,-23.7805,0.00,0.00,0.00,3,S01
19920,-17.58062,-2.13323,3.28484,10.6098,43.2317,-38.4146,0.00,0.00,0.00,3,S01
19940,-17.19037,1.29766,-1.78129,46.2195,4.4512,-34.5122,0.00,0.00,0.00,3,S01
19960,-12.23916,-2.63123,0.26336,36.0366,2.7439,-42.5000,0.00,0.00,0.00,3,S01
19980,-9.83059,-2.80840,-0.63207,46.8293,2.3171,-47.3781,0.00,0.00,0.00,3,S01
20000,-9.83059,-2.80840,-0.63207,46.8293,2.3171,-47.3781,0.00,0.00,0.00,3,S01
20020,-9.83059,-2.80840,-0.63207,46.8293,2.3171,-47.3781,0.00,0.00,0.00,3,S01
20040,-8.28633,-2.31998,-0.47884,52.1341,17.5610,-43.4146,0.00,0.00,0.00,3,S01
20060,-7.66145,-1.36709,1.00317,50.4878,36.8293,-32.5610,0.00,0.00,0.00,3,S01
20080,-7.09881,-0.03831,2.50912,44.2073,36.5854,-22.0122,0.00,0.00,0.00,3,S01
20100,-6.11000,0.41899,2.22900,37.9878,8.9634,-13.9634,0.00,0.00,0.00,3,S01
20120,-4.44124,0.23463,1.82917,34.0244,-21.0366,-8.7805,0.00,0.00,0.00,3,S01
20140,-3.09810,0.84755,1.50356,27.5000,-39.5732,-6.3415,0.00,0.00,0.00,3,S01
20160,-2.46124,0.44053,0.62010,20.4268,-53.2317,2.1341,0.00,0.00,0.00,3,S01
20180,-2.22182,-0.79009,-1.27850,-4.5732,-75.3659,13.1707,0.00,0.00,0.00,3,S01
20200,-7.40527,-6.06212,-5.80594,-4.1463,-69.1463,0.5488,0.00,0.00,0.00,3,S01
20220,-14.74589,-1.68552,-8.20493,3.7195,-5.5488,-61.2195,0.00,0.00,0.00,3,S01
20240,-19.99637,7.07726,5.95199,-24.8780,75.1829,-87.6220,0.00,0.00,0.00,3,S01
20260,-17.43697,2.25294,1.95606,-44.5122,17.1951,-19.0244,0.00,0.00,0.00,3,S01
20280,-15.48330,-3.50990,-1.96325,-60.9146,-17.9268,17.2561,0.00,0.00,0.00,3,S01
20300,-16.78814,-1.92254,1.55384,-61.8293,21.1585,13.5366,0.00,0.00,0.00,3,S01
20320,-15.55992,0.05028,1.03669,-42.8659,30.0000,19.1463,0.00,0.00,0.00,3,S01
20340,-12.88559,0.75896,-0.34955,-39.6341,14.9390,37.5000,0.00,0.00,0.00,3,S01
20360,-10.21127,0.20111,-0.68235,-38.6585,14.2073,56.7683,0.00,0.00,0.00,3,S01
20380,-8.58082,-0.56503,-0.49799,-37.4390,22.8659,61.8293,0.00,0.00,0.00,3,S01
20400,-7.90565,-0.80206,0.90740,-33.5366,32.5610,49.6341,0.00,0.00,0.00,3,S01
20420,-7.17542,-0.54827,2.59771,-23.7805,32.3171,31.7073,0.00,0.00,0.00,3,S01
20440,-5.92565,-0.26576,2.92332,-13.5366,15.2439,22.1341,0.00,0.00,0.00,3,S01
20460,-4.43885,0.28252,2.55461,-11.7683,-10.6707,21.7073,0.00,0.00,0.00,3,S01
20480,-3.50751,0.10056,1.94409,-14.1463,-32.0122,23.5366,0.00,0.00,0.00,3,S01
20500,-2.55222,-0.79966,0.68235,-1.7683,-41.2195,23.9024,0.00,0.00,0.00,3,S01
20520,-2.25773,0.20351,-0.54827,12.5610,-48.1707,16.5854,0.00,0.00,0.00,3,S01
20540,-4.66151,1.89621,-3.43329,16.5244,-59.8781,6.2195,0.00,0.00,0.00,3,S01
20560,-10.54885,0.85473,-8.34379,8.5976,-59.0244,-3.2317,0.00,0.00,0.00,3,S01
20580,-14.21916,-3.49793,-6.73010,-11.4634,6.0366,-5.1829,0.00,0.00,0.00,3,S01
20600,-14.57111,-5.53539,8.30788,-25.2439,65.4878,-12.8659,0.00,0.00,0.00,3,S01
20620,-14.51365,-1.62806,0.38547,25.3049,3.7195,-25.9756,0.00,0.00,0.00,3,S01
20640,-15.20797,1.36469,-2.65517,37.1951,-0.6707,-24.8780,0.00,0.00,0.00,3,S01
20660,-15.86637,-0.62728,1.81241,9.6341,31.2805,-17.5000,0.00,0.00,0.00,3,S01
20680,-14.68124,-1.99676,1.77410,9.2073,28.1098,-22.0122,0.00,0.00,0.00,3,S01
20700,-12.06917,-2.25294,0.45011,23.7805,10.3049,-29.5732,0.00,0.00,0.00,3,S01
20720,-9.40203,-2.53546,0.05746,30.7317,5.3659,-32.3780,0.00,0.00,0.00,3,S01
20740,-7.66384,-2.61686,-0.45729,32.3171,6.7683,-31.4634,0.00,0.00,0.00,3,S01
20760,-7.47230,-1.74298,0.00718,34.6951,22.8659,-27.4390,0.00,0.00,0.00,3,S01
20780,-7.73806,-0.79009,2.30562,34.8171,40.3049,-20.3049,0.00,0.00,0.00,3,S01
20800,-7.36456,-0.06704,3.26569,29.8780,29.3293,-12.5000,0.00,0.00,0.00,3,S01
20820,-6.16028,0.32801,2.78924,22.9268,1.2195,-7.0122,0.00,0.00,0.00,3,S01
20840,-4.76207,1.64482,2.19548,14.8171,-21.4024,-4.1463,0.00,0.00,0.00,3,S01
20860,-4.11084,0.97923,0.70390,10.4268,-38.5976,3.2317,0.00,0.00,0.00,3,S01
20880,-3.82593,-1.73101,-1.42694,9.3293,-53.7805,9.4512,0.00,0.00,0.00,3,S01
20900,-3.76847,-1.62806,-2.46124,2.6220,-51.4024,2.7439,0.00,0.00,0.00,3,S01
20920,-6.39970,-3.13162,-3.49075,-13.7805,-28.5366,-10.6098,0.00,0.00,0.00,3,S01
20940,-12.57674,-3.63200,-5.11162,-9.3293,10.0610,-42.0122,0.00,0.00,0.00,3,S01
20960,-17.19037,3.22738,3.27527,-6.0366,51.0976,-72.8659,0.00,0.00,0.00,3,S01
20980,-15.63414,1.92973,1.35751,-20.0000,-5.6707,-33.5976,0.00,0.00,0.00,3,S01
21000,-13.86003,-2.93529,0.38547,-34.6341,0.6098,10.7927,0.00,0.00,0.00,3,S01
21020,-14.67406,-0.40462,0.73023,-22.6829,32.6220,15.9146,0.00,0.00,0.00,3,S01
21040,-14.67406,-0.40462,0.73023,-22.6829,32.6220,15.9146,0.00,0.00,0.00,3,S01
21060,-13.05558,1.18034,-0.28730,-13.4146,34.5732,32.6220,0.00,0.00,0.00,3,S01
21080,-10.99178,1.39103,-0.55545,-18.5976,27.0122,52.8659,0.00,0.00,0.00,3,S01
21100,-9.10275,0.08380,-0.75896,-25.6098,20.0610,67.8659,0.00,0.00,0.00,3,S01
21120,-8.25760,-0.93374,-0.09098,-25.2439,23.4756,63.2927,0.00,0.00,0.00,3,S01
21140,-8.70292,0.24900,1.38385,-19.5122,32.3171,41.6463,0.00,0.00,0.00,3,S01
21160,-8.37731,0.57461,2.10211,-13.2927,29.2073,27.9268,0.00,0.00,0.00,3,S01
21180,-7.16824,0.32082,2.01352,-11.8293,13.0488,24.2683,0.00,0.00,0.00,3,S01
21200,-6.10521,-0.26576,1.36948,-12.6829,-7.1341,24.9390,0.00,0.00,0.00,3,S01
21220,-5.09486,-0.90022,1.34554,-12.3780,-22.8659,23.3537,0.00,0.00,0.00,3,S01
21240,-3.79720,-1.59454,1.21147,-6.6463,-35.6707,19.1463,0.00,0.00,0.00,3,S01
21260,-2.63123,-1.06303,0.61052,6.7683,-45.4268,11.0976,0.00,0.00,0.00,3,S01
21280,-2.85868,0.85952,-0.54348,15.7927,-51.6463,3.9634,0.00,0.00,0.00,3,S01
21300,-6.14592,1.69270,-3.93128,18.5366,-56.0366,4.2683,0.00,0.00,0.00,3,S01
21320,-11.60470,-0.54348,-8.43238,14.6951,-37.7439,5.1829,0.00,0.00,0.00,3,S01
21340,-14.15452,-3.70383,-0.56743,0.5488,34.5122,-0.6098,0.00,0.00,0.00,3,S01
21360,-15.02362,-3.34470,6.12676,-6.2805,36.4634,-17.1341,0.00,0.00,0.00,3,S01
21380,-15.29895,0.43814,-0.94332,32.5000,-11.4634,-20.7317,0.00,0.00,0.00,3,S01
21400,-16.35000,0.25139,-0.58419,27.1951,11.4634,-14.2683,0.00,0.00,0.00,3,S01
21420,-16.20156,-1.76692,2.43251,15.0000,31.7683,-20.8537,0.00,0.00,0.00,3,S01
21440,-14.47295,-2.17394,1.50595,25.0610,17.3780,-38.9024,0.00,0.00,0.00,3,S01
21460,-9.90481,-1.92015,-0.01676,40.7317,-2.3171,-51.5854,0.00,0.00,0.00,3,S01
21480,-8.14747,-1.89860,0.06464,42.6829,8.8415,-43.6585,0.00,0.00,0.00,3,S01
21500,-7.13472,-1.39103,1.26174,37.2561,26.2195,-32.3780,0.00,0.00,0.00,3,S01
21520,-6.56251,-0.30646,2.45166,29.1463,30.0610,-23.7195,0.00,0.00,0.00,3,S01
21540,-5.86101,0.10534,2.76530,22.8659,12.4390,-16.2805,0.00,0.00,0.00,3,S01
21560,-4.47955,0.87388,2.85628,20.3049,-15.1829,-10.0000,0.00,0.00,0.00,3,S01
21580,-3.09331,0.97683,2.15957,24.8171,-43.8415,1.0366,0.00,0.00,0.00,3,S01
21600,-2.37984,-0.57940,0.67756,31.0366,-74.2073,15.6707,0.00,0.00,0.00,3,S01
21620,-1.91776,-1.69988,-1.38145,35.6098,-101.8293,19.6341,0.00,0.00,0.00,3,S01
21640,-3.60088,-2.69827,-4.03902,26.5854,-108.8415,6.0366,0.00,0.00,0.00,3,S01
21660,-9.72046,-5.59046,-9.36612,18.9634,-77.9268,-32.8659,0.00,0.00,0.00,3,S01
21680,-15.87356,2.71024,-9.03093,4.3293,27.6829,-105.3049,0.00,0.00,0.00,3,S01
21700,-18.14087,5.08528,8.20014,-21.6463,124.3902,-92.1341,0.00,0.00,0.00,3,S01
21720,-16.48408,-1.50116,3.81636,-41.2805,59.3902,-22.8659,0.00,0.00,0.00,3,S01
21740,-16.92461,-3.86424,0.94332,-42.6829,28.2317,3.8415,0.00,0.00,0.00,3,S01
21760,-18.46648,-1.47004,2.57137,-31.5854,49.6341,14.4512,0.00,0.00,0.00,3,S01
21780,-16.56787,0.48602,0.99599,-17.1951,44.1463,33.1098,0.00,0.00,0.00,3,S01
21800,-13.37640,1.53229,0.36631,-20.2439,33.6585,53.9634,0.00,0.00,0.00,3,S01
21820,-10.34774,0.80685,-0.43574,-25.3659,30.2439,72.7439,0.00,0.00,0.00,3,S01
21840,-8.63589,0.11253,-0.79966,-31.5244,35.1829,73.0488,0.00,0.00,0.00,3,S01
21860,-7.89129,0.24900,0.24660,-35.9146,41.5244,52.1951,0.00,0.00,0.00,3,S01
21880,-6.67503,0.07422,1.65439,-29.2683,33.4146,29.6341,0.00,0.00,0.00,3,S01
21900,-4.89375,-0.38547,2.20985,-24.2073,9.8171,20.5488,0.00,0.00,0.00,3,S01
21920,-3.66073,0.10295,2.14760,-29.6951,-16.5244,20.5488,0.00,0.00,0.00,3,S01
21940,-2.65996,-0.22505,1.59214,-35.0610,-36.8902,21.6463,0.00,0.00,0.00,3,S01
21960,-1.51792,-1.47243,0.66559,-23.3537,-47.9878,20.7927,0.00,0.00,0.00,3,S01
21980,-0.78769,-1.37906,-0.28252,-1.9512,-53.5976,10.6707,0.00,0.00,0.00,3,S01
22000,-2.39660,-0.35434,-2.12845,12.6220,-58.5976,-3.5366,0.00,0.00,0.00,3,S01
22020,-8.77475,0.21787,-7.39090,21.2805,-56.4024,-22.5000,0.00,0.00,0.00,3,S01
22040,-19.82160,-4.88896,8.02297,-29.1463,92.2561,-29.5732,0.00,0.00,0.00,3,S01
22060,-19.82160,-4.88896,8.02297,-29.1463,92.2561,-29.5732,0.00,0.00,0.00,3,S01
22080,-17.88947,-2.13563,1.86508,0.4878,32.7439,-29.6951,0.00,0.00,0.00,3,S01
22100,-16.16326,1.26653,-2.87783,22.6829,-5.9146,-24.1463,0.00,0.00,0.00,3,S01
22120,-15.14572,0.55067,-1.73819,-8.9634,9.1463,-16.8902,0.00,0.00,0.00,3,S01
22140,-12.45224,-1.81720,1.47722,-26.8902,21.5854,-20.2439,0.00,0.00,0.00,3,S01
22160,-9.87129,-1.97761,0.84515,-14.2073,-1.8293,-32.2561,0.00,0.00,0.00,3,S01
22180,-7.00304,-2.41096,0.45011,7.6829,-20.4268,-34.5732,0.00,0.00,0.00,3,S01
22200,-5.32470,-3.15077,-0.28491,13.1098,-32.9878,-26.6463,0.00,0.00,0.00,3,S01
22220,-6.05733,-2.05422,-1.44610,11.5244,-25.4268,-25.0000,0.00,0.00,0.00,3,S01
22240,-7.05811,-0.91459,-1.31921,11.8293,10.8537,-23.6585,0.00,0.00,0.00,3,S01
22260,-7.25922,-0.75178,0.99838,5.4878,52.3171,-17.5610,0.00,0.00,0.00,3,S01
22280,-7.21852,-0.27533,7.77637,-1.1585,60.9756,-13.5366,0.00,0.00,0.00,3,S01
22300,-6.16746,0.61292,4.58968,6.9512,3.9634,-10.6098,0.00,0.00,0.00,3,S01
22320,-5.85382,0.48363,1.31921,12.6829,-32.0732,-6.4634,0.00,0.00,0.00,3,S01
22340,-5.26724,-1.12527,-0.68714,11.3415,-37.6220,0.5488,0.00,0.00,0.00,3,S01
22360,-4.59926,-0.96007,-0.67516,7.3171,-25.2439,0.7317,0.00,0.00,0.00,3,S01
22380,-5.59525,-2.15478,-0.85234,-4.4512,-16.5854,-0.9146,0.00,0.00,0.00,3,S01
22400,-9.96946,-5.55934,-5.29358,5.7927,-16.7073,-15.3049,0.00,0.00,0.00,3,S01
22420,-14.32930,2.87304,-0.03112,7.0732,20.8537,-51.8902,0.00,0.00,0.00,3,S01
22440,-14.54238,2.72700,3.56975,-13.4756,15.3659,-27.4390,0.00,0.00,0.00,3,S01
22460,-14.07791,-1.98719,-1.12767,-25.0610,-20.1220,6.5244,0.00,0.00,0.00,3,S01
22480,-16.58224,-2.55940,0.73263,-37.4390,5.3659,2.8659,0.00,0.00,0.00,3,S01
22500,-17.92299,-0.49799,0.51236,-25.8537,26.3415,1.0976,0.00,0.00,0.00,3,S01
22520,-16.38113,0.39744,-0.43574,-20.1829,21.3415,16.0366,0.00,0.00,0.00,3,S01
22540,-13.62780,0.33758,-0.27773,-27.6220,7.0122,37.1341,0.00,0.00,0.00,3,S01
22560,-11.07079,0.88346,-0.73741,-28.1707,-2.9878,53.7805,0.00,0.00,0.00,3,S01
22580,-9.26795,0.91459,-1.12527,-27.2561,0.9756,61.4024,0.00,0.00,0.00,3,S01
22600,-7.77876,0.89783,-0.52672,-30.2439,13.9634,56.4024,0.00,0.00,0.00,3,S01
22620,-6.70376,0.14126,0.38068,-29.4512,22.9878,44.0244,0.00,0.00,0.00,3,S01
22640,-5.38695,-1.32160,1.55144,-23.6585,23.2927,38.1098,0.00,0.00,0.00,3,S01
22660,-3.77326,-2.21224,2.70545,-22.8659,9.0854,37.3171,0.00,0.00,0.00,3,S01
22680,-2.73897,-1.13006,2.87783,-26.4024,-16.4024,29.6951,0.00,0.00,0.00,3,S01
22700,-1.71185,-1.01514,1.94888,-16.2195,-35.2439,20.4268,0.00,0.00,0.00,3,S01
22720,-0.97683,-1.24259,0.67756,2.6829,-47.3781,10.2439,0.00,0.00,0.00,3,S01
22740,-5.60483,1.47243,-4.98233,29.2073,-64.0854,-12.5000,0.00,0.00,0.00,3,S01
22760,-12.81616,-0.50996,-10.39084,20.7317,-44.2073,-22.2561,0.00,0.00,0.00,3,S01
22780,-16.95095,-3.00712,1.61848,-15.6707,56.5854,-30.8537,0.00,0.00,0.00,3,S01
22800,-17.80568,-3.08373,5.37498,-16.9512,69.2683,-27.0732,0.00,0.00,0.00,3,S01
22820,-17.22389,0.28970,-1.88903,29.2073,15.7927,-16.2195,0.00,0.00,0.00,3,S01
22840,-18.01158,0.56264,0.16041,5.6098,25.7317,-10.3659,0.00,0.00,0.00,3,S01
22860,-17.25980,-0.76854,1.79086,-12.8659,26.5244,-18.8415,0.00,0.00,0.00,3,S01
22880,-14.31972,-1.62566,0.51954,-7.5610,8.1098,-32.3171,0.00,0.00,0.00,3,S01
22900,-11.18332,-2.28646,0.00000,3.4756,1.1585,-40.6707,0.00,0.00,0.00,3,S01
22920,-8.49463,-3.00712,0.02394,13.4146,3.1098,-38.1707,0.00,0.00,0.00,3,S01
22940,-6.57208,-3.19865,0.11971,18.1707,10.0000,-28.4756,0.00,0.00,0.00,3,S01
22960,-5.66947,-2.54025,0.45011,20.9146,22.0732,-19.2683,0.00,0.00,0.00,3,S01
22980,-5.28400,-1.05584,1.23301,20.6098,31.5854,-15.6098,0.00,0.00,0.00,3,S01
23000,-4.67588,-0.61052,2.19788,21.9512,30.7927,-9.6951,0.00,0.00,0.00,3,S01
23020,-4.04381,-0.70150,3.96240,26.2195,24.5122,0.1220,0.00,0.00,0.00,3,S01
23040,-3.20105,0.29688,4.75728,24.8780,5.7927,11.4634,0.00,0.00,0.00,3,S01
23060,-2.68390,-0.31364,2.86107,21.8902,-31.2195,26.4634,0.00,0.00,0.00,3,S01
23080,-2.34871,-1.68552,0.28252,29.8780,-69.3902,36.3415,0.00,0.00,0.00,3,S01
23100,-5.13556,-5.09726,-3.67271,37.8659,-92.5610,25.8537,0.00,0.00,0.00,3,S01
23120,-12.02129,-7.10838,-10.45787,51.5244,-74.6951,-27.7439,0.00,0.00,0.00,3,S01
23140,-16.85757,6.63194,-7.50582,21.1585,24.0244,-111.0366,0.00,0.00,0.00,3,S01
23160,-15.81849,7.28077,6.69179,-19.9390,84.1463,-70.7317,0.00,0.00,0.00,3,S01
23180,-13.92947,-2.32238,0.07422,-48.0488,3.4146,2.8049,0.00,0.00,0.00,3,S01
23200,-16.19199,-6.71095,-1.78368,-61.7073,-4.6341,6.2805,0.00,0.00,0.00,3,S01
23220,-19.11291,-1.49159,1.47722,-26.3415,46.4634,-5.5488,0.00,0.00,0.00,3,S01
23240,-16.81927,-0.10056,0.27773,-2.5000,41.8293,16.7683,0.00,0.00,0.00,3,S01
23260,-13.52963,-0.08380,-0.67995,-9.2073,9.3293,38.1707,0.00,0.00,0.00,3,S01
23280,-11.63821,1.81480,-0.58419,-12.8659,2.6220,44.5122,0.00,0.00,0.00,3,S01
23300,-10.21366,3.14598,-0.88825,-15.6707,12.2561,51.8293,0.00,0.00,0.00,3,S01
23320,-7.85777,1.99676,-0.50039,-27.0122,19.5122,59.5122,0.00,0.00,0.00,3,S01
23340,-5.71257,0.25618,0.00718,-36.2195,17.7439,56.6463,0.00,0.00,0.00,3,S01
23360,-3.91931,-1.38864,1.00556,-36.6463,14.8780,50.9146,0.00,0.00,0.00,3,S01
23380,-2.78924,-1.51074,2.77967,-38.7805,10.5488,44.3902,0.00,0.00,0.00,3,S01
23400,-2.52349,-1.14443,2.85149,-43.0488,-7.8659,33.1707,0.00,0.00,0.00,3,S01
23420,-1.93930,-1.56581,1.90339,-35.0000,-28.0488,19.3902,0.00,0.00,0.00,3,S01
23440,-1.56102,-1.15640,0.93374,-20.7927,-41.5244,4.2683,0.00,0.00,0.00,3,S01
23460,-3.01430,0.95768,-0.74939,-8.3537,-51.4634,-6.0976,0.00,0.00,0.00,3,S01
23480,-7.91523,1.12767,-5.64313,4.6951,-56.5854,-8.4146,0.00,0.00,0.00,3,S01
23500,-13.63977,-2.50673,-9.20571,5.0610,-22.5000,-14.5732,0.00,0.00,0.00,3,S01
23520,-16.55112,-5.30795,6.80911,-6.3415,46.0976,-27.2561,0.00,0.00,0.00,3,S01
23540,-17.35078,-2.80361,-0.46448,29.0244,4.4512,-27.8049,0.00,0.00,0.00,3,S01
23560,-17.41063,1.40779,-3.76129,50.1829,-4.1463,-17.8659,0.00,0.00,0.00,3,S01
23580,-17.40585,0.60094,0.92656,16.2805,11.0366,-14.6951,0.00,0.00,0.00,3,S01
23600,-16.47690,-1.06063,0.86670,6.7073,3.8415,-26.5244,0.00,0.00,0.00,3,S01
23620,-14.21677,-2.07338,0.17957,13.4146,-4.0854,-36.4634,0.00,0.00,0.00,3,S01
23640,-11.51372,-2.52828,0.36392,19.6341,-5.9756,-41.2805,0.00,0.00,0.00,3,S01
23660,-9.21289,-2.60729,0.12689,23.7195,-5.3049,-39.5122,0.00,0.00,0.00,3,S01
23680,-7.26880,-2.47082,0.35913,25.7317,-1.8293,-33.4146,0.00,0.00,0.00,3,S01
23700,-6.21535,-1.68552,0.59137,24.1463,0.9146,-26.7073,0.00,0.00,0.00,3,S01
23720,-5.39174,-0.49081,0.90261,24.1463,4.5122,-20.6098,0.00,0.00,0.00,3,S01
23740,-4.48434,-0.11971,1.22344,26.0366,2.3780,-12.9268,0.00,0.00,0.00,3,S01
23760,-3.43807,-0.78051,2.92093,24.1463,-1.1585,-5.0610,0.00,0.00,0.00,3,S01
23780,-2.48039,0.30406,4.00311,24.9390,-9.6951,0.9146,0.00,0.00,0.00,3,S01
23800,-2.14760,0.16999,2.34632,23.4756,-38.6585,14.4512,0.00,0.00,0.00,3,S01
23820,-1.94888,-0.81882,0.05507,23.2317,-73.0488,25.1220,0.00,0.00,0.00,3,S01
23840,-4.08211,-3.36146,-3.21062,23.8415,-91.5244,18.4756,0.00,0.00,0.00,3,S01
23860,-11.13543,-7.75243,-9.94791,31.0976,-69.3293,-24.4512,0.00,0.00,0.00,3,S01
23880,-18.10974,3.54821,-7.67821,7.6220,39.1463,-110.3049,0.00,0.00,0.00,3,S01
23900,-19.46965,5.44681,7.76918,-21.2805,101.3415,-90.0610,0.00,0.00,0.00,3,S01
23920,-16.50563,-1.32639,0.15323,-29.2683,0.9756,-20.0000,0.00,0.00,0.00,3,S01
23940,-15.53837,-5.23133,-2.51631,-33.7195,-16.5244,4.8780,0.00,0.00,0.00,3,S01
23960,-16.94855,-1.67355,1.83396,-13.2927,35.1829,11.3415,0.00,0.00,0.00,3,S01
23980,-15.12178,1.09176,0.50278,3.4146,31.7683,33.3537,0.00,0.00,0.00,3,S01
24000,-12.11945,2.08296,-0.65841,-3.6585,11.7683,57.3171,0.00,0.00,0.00,3,S01
24020,-8.13310,1.92973,-0.54348,-32.9878,19.1463,67.3781,0.00,0.00,0.00,3,S01
24040,-7.75721,1.54426,0.15083,-44.6341,31.5854,49.4512,0.00,0.00,0.00,3,S01
24060,-6.89530,0.30885,1.58736,-46.6463,37.7439,32.3171,0.00,0.00,0.00,3,S01
24080,-5.71975,-0.86670,2.82276,-43.2317,27.6829,26.0366,0.00,0.00,0.00,3,S01
24100,-4.78362,-1.15161,2.96402,-42.5000,2.5610,25.6707,0.00,0.00,0.00,3,S01
24120,-3.64637,-0.92895,2.64559,-41.7073,-23.1098,22.5610,0.00,0.00,0.00,3,S01
24140,-1.48680,-0.58658,0.23224,-11.2195,-52.8049,7.7439,0.00,0.00,0.00,3,S01
24160,-1.48680,-0.58658,0.23224,-11.2195,-52.8049,7.7439,0.00,0.00,0.00,3,S01
24180,-2.54025,0.73981,-1.29766,-2.9878,-53.1707,-0.4878,0.00,0.00,0.00,3,S01
24200,-7.18739,1.35272,-5.30076,3.5366,-37.5000,-0.1829,0.00,0.00,0.00,3,S01
24220,-13.86482,-0.43335,-8.60237,-6.2805,6.7683,-0.1829,0.00,0.00,0.00,3,S01
24240,-17.42261,-4.62799,6.16268,-25.0000,57.7439,-4.6951,0.00,0.00,0.00,3,S01
24260,-16.63252,-3.10289,1.17316,-3.8415,-11.4634,-22.6220,0.00,0.00,0.00,3,S01
24280,-15.64132,0.84994,-2.68151,21.8293,-35.9756,-22.1341,0.00,0.00,0.00,3,S01
24300,-16.21353,-0.53630,1.30245,-1.8293,0.5488,-10.6098,0.00,0.00,0.00,3,S01
24320,-15.84722,-1.98958,2.06620,-10.1829,13.9024,-17.8049,0.00,0.00,0.00,3,S01
24340,-13.46978,-2.35350,1.36709,0.7927,5.9756,-31.2805,0.00,0.00,0.00,3,S01
24360,-10.99178,-1.49877,0.92416,10.6098,-2.9268,-42.7439,0.00,0.00,0.00,3,S01
24380,-8.88009,-1.21865,0.39744,15.2439,-10.5488,-42.4390,0.00,0.00,0.00,3,S01
24400,-7.77876,-1.30484,-0.10295,11.8293,-12.8659,-36.1585,0.00,0.00,0.00,3,S01
24420,-7.26640,-0.56264,-0.02873,7.0732,3.3537,-27.3780,0.00,0.00,0.00,3,S01
24440,-6.27281,-0.15083,1.03430,-0.4268,26.8902,-13.6585,0.00,0.00,0.00,3,S01
24460,-5.13556,-0.78769,3.01191,-6.2195,32.0732,-1.1585,0.00,0.00,0.00,3,S01
24480,-4.04381,-0.70868,4.63996,-4.3293,10.3049,3.2317,0.00,0.00,0.00,3,S01
24500,-3.24175,0.35674,3.48596,6.7073,-24.6951,8.1707,0.00,0.00,0.00,3,S01
24520,-2.71024,-0.77572,1.47722,16.9512,-62.5000,22.7439,0.00,0.00,0.00,3,S01
24540,-2.22900,-2.09014,-0.91937,24.8171,-97.2561,28.4146,0.00,0.00,0.00,3,S01
24560,-4.14676,-3.77087,-3.98395,22.5000,-109.3293,13.2317,0.00,0.00,0.00,3,S01
24580,-10.82658,-6.44280,-9.82102,18.9634,-73.9634,-33.9024,0.00,0.00,0.00,3,S01
24600,-17.31008,3.46920,-8.15465,-2.6829,57.9268,-113.8415,0.00,0.00,0.00,3,S01
24620,-17.76019,4.22337,10.12029,-27.5610,148.4146,-87.9878,0.00,0.00,0.00,3,S01
24640,-15.64611,-1.74537,2.74615,-38.1707,38.7195,-20.7927,0.00,0.00,0.00,3,S01
24660,-15.95017,-4.14197,0.39265,-38.1707,-3.0488,1.2805,0.00,0.00,0.00,3,S01
24680,-17.45852,-1.26414,2.69827,-19.4512,28.4146,5.3659,0.00,0.00,0.00,3,S01
24700,-15.72991,1.24977,0.67516,-0.6098,25.7317,26.0976,0.00,0.00,0.00,3,S01
24720,-12.65575,1.61848,-0.21069,-4.8171,15.1220,56.3415,0.00,0.00,0.00,3,S01
24740,-9.58638,1.03908,-0.53870,-11.0366,12.7439,81.5854,0.00,0.00,0.00,3,S01
24760,-8.04931,0.27773,-0.98402,-21.2805,18.5366,84.6951,0.00,0.00,0.00,3,S01
24780,-8.24563,0.71108,0.03352,-31.0976,35.1829,60.9756,0.00,0.00,0.00,3,S01
24800,-7.82904,0.50278,2.01592,-27.8659,45.7317,36.5244,0.00,0.00,0.00,3,S01
24820,-6.40210,0.27773,2.15718,-23.8415,30.3049,27.7439,0.00,0.00,0.00,3,S01
24840,-4.82671,0.10534,1.64960,-25.3659,7.5610,30.0000,0.00,0.00,0.00,3,S01
24860,-3.25611,-0.51954,1.75256,-30.6098,-13.5366,30.4878,0.00,0.00,0.00,3,S01
24880,-2.03986,-1.41737,1.24020,-26.2805,-30.6707,22.3780,0.00,0.00,0.00,3,S01
24900,-1.74058,-0.76854,0.10774,-8.7195,-37.0122,7.6829,0.00,0.00,0.00,3,S01
24920,-3.04542,0.51954,-1.54426,1.5854,-35.6098,-1.5244,0.00,0.00,0.00,3,S01
24940,-8.47308,1.01754,-6.06930,6.2805,-23.9634,-3.8415,0.00,0.00,0.00,3,S01
24960,-15.79455,-0.02873,-8.12592,0.7317,28.6585,-3.2317,0.00,0.00,0.00,3,S01
24980,-18.89743,-5.14035,6.72052,-20.7927,68.2317,-1.0976,0.00,0.00,0.00,3,S01
25000,-17.54471,-3.86185,0.15802,7.9878,-2.6829,-15.8537,0.00,0.00,0.00,3,S01
25020,-15.99806,0.47884,-2.85149,38.5366,-8.5976,-16.4634,0.00,0.00,0.00,3,S01
25040,-14.79617,1.31442,-1.25935,16.8902,9.3293,-9.2683,0.00,0.00,0.00,3,S01
25060,-12.60787,-0.13647,-0.46926,-1.9512,13.5976,-17.6829,0.00,0.00,0.00,3,S01
25080,-10.45069,-1.13964,-0.26815,-3.1707,6.7073,-38.1707,0.00,0.00,0.00,3,S01
25100,-8.58561,-1.66876,-0.42617,9.8171,0.0000,-50.1829,0.00,0.00,0.00,3,S01
25120,-6.87136,-2.68151,-0.27773,16.4634,1.3415,-45.0610,0.00,0.00,0.00,3,S01
25140,-6.30393,-2.65517,0.73981,11.5854,16.7683,-35.6707,0.00,0.00,0.00,3,S01
25160,-6.54096,-1.70228,2.47082,12.1341,34.3293,-28.8415,0.00,0.00,0.00,3,S01
25180,-5.44681,-0.55785,4.91769,43.1707,1.7073,-8.1707,0.00,0.00,0.00,3,S01
25200,-5.44681,-0.55785,4.91769,43.1707,1.7073,-8.1707,0.00,0.00,0.00,3,S01
25220,-4.36463,0.25857,2.35350,45.0610,-28.8415,1.0366,0.00,0.00,0.00,3,S01
25240,-4.36463,0.25857,2.35350,45.0610,-28.8415,1.0366,0.00,0.00,0.00,3,S01
25260,-3.74932,-0.38068,-0.08859,36.7073,-45.1829,7.5610,0.00,0.00,0.00,3,S01
25280,-3.78763,-0.57940,-1.69031,29.3902,-41.5854,2.1341,0.00,0.00,0.00,3,S01
25300,-10.90798,-3.60806,-7.26401,15.4268,-10.4268,-29.5732,0.00,0.00,0.00,3,S01
25320,-15.44260,2.65278,1.85311,-0.9146,40.4878,-55.0000,0.00,0.00,0.00,3,S01
25340,-14.74349,0.68235,1.88424,-17.5610,12.1951,-25.6098,0.00,0.00,0.00,3,S01
25360,-13.25430,-4.30238,-1.57778,-15.1829,-19.4512,0.2439,0.00,0.00,0.00,3,S01
25380,-15.96933,-3.82593,-0.17478,-17.5610,7.5000,-5.6707,0.00,0.00,0.00,3,S01
25400,-18.06186,-1.18513,-0.12210,-0.1220,37.9878,-2.7439,0.00,0.00,0.00,3,S01
25420,-16.65407,0.21069,-0.34237,6.1585,40.3049,19.0854,0.00,0.00,0.00,3,S01
25440,-13.84806,1.13485,-0.19154,-4.0854,26.0366,43.1707,0.00,0.00,0.00,3,S01
25460,-10.75475,1.40300,-0.88585,-6.2195,15.1829,58.7195,0.00,0.00,0.00,3,S01
25480,-9.00938,2.40378,-1.47722,-12.8049,13.2927,58.5366,0.00,0.00,0.00,3,S01
25500,-7.99424,2.17394,-1.29526,-18.2927,22.8049,50.4268,0.00,0.00,0.00,3,S01
25520,-6.66067,0.72544,-0.26576,-19.3293,30.9756,43.5366,0.00,0.00,0.00,3,S01
25540,-5.27443,-0.78530,1.62806,-22.4390,28.1707,38.1707,0.00,0.00,0.00,3,S01
25560,-4.18267,-1.45567,2.91374,-27.0732,13.1707,36.7683,0.00,0.00,0.00,3,S01
25580,-3.35188,-0.67756,3.04542,-30.3049,-10.8537,31.5244,0.00,0.00,0.00,3,S01
25600,-1.93930,-0.64165,2.56419,-26.7073,-32.5610,22.9878,0.00,0.00,0.00,3,S01
25620,-1.60412,-0.29688,1.26893,-12.9878,-50.1220,9.8780,0.00,0.00,0.00,3,S01
25640,-1.67115,-0.43096,-0.23463,6.0366,-59.9390,-0.1220,0.00,0.00,0.00,3,S01
25660,-4.60884,0.44053,-3.39498,21.2805,-65.7927,-6.0366,0.00,0.00,0.00,3,S01
25680,-11.35091,-0.17717,-9.40921,28.2317,-54.8781,-13.4146,0.00,0.00,0.00,3,S01
25700,-16.74026,-3.90255,-5.95438,7.3171,25.8537,-17.3171,0.00,0.00,0.00,3,S01
25720,-17.77216,-6.25126,8.13071,-5.9146,73.8415,-23.2317,0.00,0.00,0.00,3,S01
25740,-17.74582,-0.18914,-1.11570,49.0244,1.5244,-28.4756,0.00,0.00,0.00,3,S01
25760,-18.49521,1.35033,-2.08535,42.0122,5.1829,-14.6951,0.00,0.00,0.00,3,S01
25780,-18.08340,-1.01993,1.86508,11.0366,28.5976,-13.3537,0.00,0.00,0.00,3,S01
25800,-15.67723,-1.80044,1.23301,15.4878,18.5976,-29.6341,0.00,0.00,0.00,3,S01
25820,-12.33014,-2.06380,0.91219,28.7805,1.5244,-43.9634,0.00,0.00,0.00,3,S01
25840,-9.55047,-2.53307,0.18196,41.4634,-12.5000,-44.7561,0.00,0.00,0.00,3,S01
25860,-7.70454,-3.22499,-0.34237,43.2927,-12.3780,-36.4634,0.00,0.00,0.00,3,S01
25880,-7.07247,-2.08535,0.11253,37.4390,3.5976,-32.3780,0.00,0.00,0.00,3,S01
25900,-6.12916,-0.93134,1.18274,37.2561,17.9268,-26.0976,0.00,0.00,0.00,3,S01
25920,-4.96318,-0.76136,2.07098,40.3659,14.3902,-17.1341,0.00,0.00,0.00,3,S01
25940,-3.54342,-0.24181,4.22816,42.4390,2.0732,-9.6951,0.00,0.00,0.00,3,S01
25960,-2.34153,1.29526,4.37660,39.8171,-24.2683,0.1829,0.00,0.00,0.00,3,S01
25980,-1.66158,1.04627,2.90896,36.1585,-58.2317,19.1463,0.00,0.00,0.00,3,S01
26000,-1.40540,-0.74699,0.60334,41.3415,-96.0366,36.7683,0.00,0.00,0.00,3,S01
26020,-1.64960,-1.33596,-2.04225,45.4878,-125.5488,34.7561,0.00,0.00,0.00,3,S01
26040,-5.42287,-4.98473,-6.14831,38.2317,-128.5366,12.5610,0.00,0.00,0.00,3,S01
26060,-13.25909,-7.11557,-12.53125,31.7073,-78.8415,-52.9268,0.00,0.00,0.00,3,S01
26080,-21.34191,4.50110,-10.95108,1.2805,78.3537,-147.6829,0.00,0.00,0.00,3,S01
26100,-22.36663,5.05655,10.69729,-21.4024,200.0000,-107.7439,0.00,0.00,0.00,3,S01
26120,-18.63886,-2.53307,4.10845,-43.1098,77.1951,-23.2317,0.00,0.00,0.00,3,S01
26140,-17.17840,-4.29999,1.36709,-42.4390,13.3537,4.5732,0.00,0.00,0.00,3,S01
26160,-16.47450,-0.51475,1.75734,-16.8293,38.8415,17.0732,0.00,0.00,0.00,3,S01
26180,-14.64294,2.18830,0.73741,-10.0000,44.3902,41.2195,0.00,0.00,0.00,3,S01
26200,-11.97340,2.16436,-0.34716,-21.5854,35.0610,72.8049,0.00,0.00,0.00,3,S01
26220,-9.23204,0.63686,-0.30167,-32.8049,30.3049,91.8902,0.00,0.00,0.00,3,S01
26240,-7.66384,-0.72305,0.28012,-38.9024,24.5122,80.4268,0.00,0.00,0.00,3,S01
26260,-6.92164,-0.53870,2.05422,-33.1707,19.1463,49.9390,0.00,0.00,0.00,3,S01
26280,-5.75087,-0.02873,2.95923,-20.7927,6.4634,28.7805,0.00,0.00,0.00,3,S01
26300,-4.71658,0.77093,2.55461,-17.4390,-18.5366,22.3780,0.00,0.00,0.00,3,S01
26320,-3.67271,0.94810,1.86269,-23.4146,-43.7195,26.4024,0.00,0.00,0.00,3,S01
26340,-2.24816,0.24900,0.78769,-21.5854,-61.0976,32.5610,0.00,0.00,0.00,3,S01
26360,-1.23780,0.58658,-0.32801,-12.3171,-76.3415,32.0732,0.00,0.00,0.00,3,S01
26380,-1.63045,0.73981,-2.09014,-4.6951,-92.9268,25.6098,0.00,0.00,0.00,3,S01
26400,-5.78200,0.10774,-6.60560,1.3415,-102.9268,11.7683,0.00,0.00,0.00,3,S01
26420,-13.00291,-1.06063,-11.03966,-13.4146,-67.1341,-12.1951,0.00,0.00,0.00,3,S01
26440,-17.76498,-3.83072,0.50996,-37.9268,73.1707,-17.1951,0.00,0.00,0.00,3,S01
26460,-18.88067,-3.33273,7.79552,-28.7195,112.3171,-19.1463,0.00,0.00,0.00,3,S01
26480,-17.61893,1.98958,0.39744,16.5244,27.2561,-21.5244,0.00,0.00,0.00,3,S01
26500,-17.00601,1.79805,-0.87867,-4.0244,7.7439,-17.6829,0.00,0.00,0.00,3,S01
26520,-15.57668,-0.86191,1.70707,-28.9024,24.8780,-27.4390,0.00,0.00,0.00,3,S01
26540,-13.04361,-2.04465,1.76453,-28.2927,21.1585,-48.8415,0.00,0.00,0.00,3,S01
26560,-7.65905,-3.03345,1.31442,-0.0610,-8.7805,-63.4146,0.00,0.00,0.00,3,S01
26580,-7.53455,-3.32076,-0.00479,8.1707,-13.4146,-52.3171,0.00,0.00,0.00,3,S01
26600,-8.12113,-1.82199,0.10295,12.1341,17.7439,-38.5976,0.00,0.00,0.00,3,S01
26620,-7.10838,-0.71826,2.77727,9.2073,51.2195,-20.3049,0.00,0.00,0.00,3,S01
26640,-5.54258,-0.29449,3.91452,11.8902,38.2927,-4.6951,0.00,0.00,0.00,3,S01
26660,-4.71897,0.33040,2.96163,10.7927,-3.7195,4.7561,0.00,0.00,0.00,3,S01
26680,-3.93607,0.60573,2.09493,8.8415,-40.2439,13.7195,0.00,0.00,0.00,3,S01
26700,-2.89938,-0.37828,1.15879,17.3171,-72.8659,24.8171,0.00,0.00,0.00,3,S01
26720,-1.97043,-1.96325,-0.63686,32.3780,-107.0122,31.7073,0.00,0.00,0.00,3,S01
26740,-2.83473,-2.86107,-3.33752,33.9024,-129.8781,21.8902,0.00,0.00,0.00,3,S01
26760,-8.61194,-7.31429,-9.57920,33.6585,-109.6951,-12.5610,0.00,0.00,0.00,3,S01
26780,-15.55992,0.72065,-10.40759,20.3049,11.8902,-96.8902,0.00,0.00,0.00,3,S01
26800,-20.29804,7.73327,5.87298,-13.9024,150.3049,-111.5244,0.00,0.00,0.00,3,S01
26820,-17.87032,-0.00239,5.30076,-39.4512,99.5732,-35.1220,0.00,0.00,0.00,3,S01
26840,-16.90546,-3.49075,0.85234,-41.5854,20.0000,-1.5854,0.00,0.00,0.00,3,S01
26860,-17.81286,-2.12366,2.60968,-34.8171,36.5854,12.5610,0.00,0.00,0.00,3,S01
26880,-16.43859,0.21308,1.49638,-16.6463,38.3537,28.4756,0.00,0.00,0.00,3,S01
26900,-13.62061,1.44131,0.65362,-14.8780,22.2561,50.1220,0.00,0.00,0.00,3,S01
26920,-11.05163,1.94409,-0.61052,-13.6585,15.5488,74.2683,0.00,0.00,0.00,3,S01
26940,-8.26957,0.33998,-0.80924,-19.1463,23.4146,88.7805,0.00,0.00,0.00,3,S01
26960,-6.76601,-0.34716,0.70390,-28.8415,30.7317,71.2195,0.00,0.00,0.00,3,S01
26980,-5.66468,-0.46448,2.04704,-24.8171,24.1463,41.4024,0.00,0.00,0.00,3,S01
27000,-4.33829,-0.02155,2.20267,-19.0854,7.0122,25.6098,0.00,0.00,0.00,3,S01
27020,-3.54581,0.22505,1.61609,-26.0976,-13.9024,23.9024,0.00,0.00,0.00,3,S01
27040,-2.74136,-0.42377,1.37906,-33.7805,-32.8049,22.4390,0.00,0.00,0.00,3,S01
27060,-1.95606,-0.47645,0.67516,-24.7561,-48.7805,14.3293,0.00,0.00,0.00,3,S01
27080,-1.73340,-0.02155,-0.34955,-13.1098,-63.5366,4.7561,0.00,0.00,0.00,3,S01
27100,-2.94966,0.14844,-1.76213,-1.7073,-74.5732,3.0488,0.00,0.00,0.00,3,S01
27120,-8.48744,-1.29287,-7.18021,18.9634,-71.3415,2.6220,0.00,0.00,0.00,3,S01
27140,-16.56309,-2.34871,-8.82024,8.4756,5.1829,-0.1829,0.00,0.00,0.00,3,S01
27160,-20.31959,-5.73172,9.14585,-5.9146,90.9756,4.1463,0.00,0.00,0.00,3,S01
27180,-18.96926,-1.92015,1.80044,29.2683,14.5732,-7.5000,0.00,0.00,0.00,3,S01
27200,-16.76181,1.40300,-1.88663,48.1098,-12.5610,-10.1220,0.00,0.00,0.00,3,S01
27220,-15.59822,1.06063,0.05267,22.1341,13.4756,-13.8415,0.00,0.00,0.00,3,S01
27240,-13.76905,-0.48602,1.01993,0.1220,22.6220,-26.7683,0.00,0.00,0.00,3,S01
27260,-10.83855,-1.75974,0.67277,1.6463,5.7927,-42.4390,0.00,0.00,0.00,3,S01
27280,-7.88889,-1.40540,0.88346,16.4024,-13.0488,-51.3415,0.00,0.00,0.00,3,S01
27300,-4.97036,-2.72700,0.78530,29.8780,-35.1829,-39.8780,0.00,0.00,0.00,3,S01
27320,-4.33590,-3.07655,-0.66080,31.2195,-46.8293,-28.3537,0.00,0.00,0.00,3,S01
27340,-6.29436,-2.14760,-1.60651,34.5732,-9.4512,-29.1463,0.00,0.00,0.00,3,S01
27360,-8.15465,-0.36871,-0.87867,33.1098,49.5122,-31.9512,0.00,0.00,0.00,3,S01
27380,-7.73567,0.16999,5.32470,21.8293,85.6098,-25.3049,0.00,0.00,0.00,3,S01
27400,-6.66306,-0.33279,6.75883,18.4146,47.0122,-15.9146,0.00,0.00,0.00,3,S01
27420,-6.13394,-0.10774,2.94008,30.6098,-14.5732,-10.3659,0.00,0.00,0.00,3,S01
27440,-5.47793,-0.59137,0.48363,26.5244,-37.9878,-3.4146,0.00,0.00,0.00,3,S01
27460,-4.56335,-1.50595,-0.56024,18.1707,-32.1951,0.7317,0.00,0.00,0.00,3,S01
27480,-4.91051,-1.10612,-0.87388,11.8293,-13.1707,-4.4512,0.00,0.00,0.00,3,S01
27500,-7.28316,-2.54025,-2.96402,11.4634,-3.1707,-14.8780,0.00,0.00,0.00,3,S01
27520,-10.06044,-0.09577,-4.15873,11.8293,12.6829,-38.2317,0.00,0.00,0.00,3,S01
27540,-13.16811,3.47878,1.00317,-4.6341,37.5610,-41.8902,0.00,0.00,0.00,3,S01
27560,-14.61660,0.17238,1.01993,-24.5122,22.0732,-15.3049,0.00,0.00,0.00,3,S01
27580,-16.12255,-1.40061,0.04310,-28.1707,14.3293,-7.5000,0.00,0.00,0.00,3,S01
27600,-17.82004,-0.11971,1.35512,-37.3171,26.5854,-4.6341,0.00,0.00,0.00,3,S01
27620,-17.58541,0.50757,0.69911,-37.9878,27.3780,13.1707,0.00,0.00,0.00,3,S01
27640,-15.49288,0.15323,0.52194,-41.8293,20.0610,32.9878,0.00,0.00,0.00,3,S01
27660,-12.95263,-0.27533,0.04549,-41.2195,9.3293,48.2317,0.00,0.00,0.00,3,S01
27680,-10.84813,-0.37110,-0.37350,-34.5122,6.3415,57.6220,0.00,0.00,0.00,3,S01
27700,-8.93995,-0.45490,-0.05986,-29.8780,11.5854,57.0732,0.00,0.00,0.00,3,S01
27720,-7.34302,0.12210,0.34716,-23.0488,15.0000,48.6585,0.00,0.00,0.00,3,S01
27740,-5.80354,-0.09098,0.57221,-15.0610,11.0976,44.5732,0.00,0.00,0.00,3,S01
27760,-4.40054,-0.89783,1.01514,-17.1951,1.7683,43.7805,0.00,0.00,0.00,3,S01
27780,-3.43089,-0.83797,1.44131,-24.9390,-10.4878,37.9878,0.00,0.00,0.00,3,S01
27800,-2.62883,-0.44053,1.62327,-26.8902,-28.7195,24.6341,0.00,0.00,0.00,3,S01
27820,-1.87227,-0.88585,1.23541,-12.0732,-51.8902,11.8293,0.00,0.00,0.00,3,S01
27840,-1.74777,-0.47884,-0.95529,29.2683,-90.8537,-10.1220,0.00,0.00,0.00,3,S01
27860,-5.80833,-0.42138,-4.58250,42.0732,-97.2561,-22.9268,0.00,0.00,0.00,3,S01
27880,-12.80180,-1.44849,-8.83460,38.9634,-55.3659,-38.1098,0.00,0.00,0.00,3,S01
27900,-17.78174,-3.06937,0.73023,20.7317,82.9878,-41.7683,0.00,0.00,0.00,3,S01
27920,-19.63964,-2.18351,8.01339,22.3780,125.6098,-36.7073,0.00,0.00,0.00,3,S01
27940,-18.57182,1.53708,0.65122,57.2561,43.5366,-26.3415,0.00,0.00,0.00,3,S01
27960,-17.31008,0.24900,-0.56982,34.7561,24.0854,-18.4756,0.00,0.00,0.00,3,S01
27980,-16.01003,-1.95127,2.34153,14.7561,36.7683,-27.0732,0.00,0.00,0.00,3,S01
28000,-13.76427,-1.94649,1.40061,23.9634,28.7805,-41.2195,0.00,0.00,0.00,3,S01
28020,-11.27190,-1.18513,0.42138,33.8415,8.4756,-45.4878,0.00,0.00,0.00,3,S01
28040,-8.70771,-1.73340,-0.21548,34.5732,-8.8415,-34.1463,0.00,0.00,0.00,3,S01
28060,-6.65109,-2.31040,-0.50278,33.1707,-10.6098,-22.6220,0.00,0.00,0.00,3,S01
28080,-5.47554,-2.40857,-0.23224,33.9024,3.3537,-17.7439,0.00,0.00,0.00,3,S01
28100,-5.29837,-1.66397,0.51954,33.8415,23.0488,-20.5488,0.00,0.00,0.00,3,S01
28120,-5.64792,-0.50996,1.58496,39.9390,32.5610,-24.8171,0.00,0.00,0.00,3,S01
28140,-4.84586,1.11570,3.00712,38.5976,18.5366,-22.2561,0.00,0.00,0.00,3,S01
28160,-3.28245,1.98000,2.69587,36.4024,-18.9634,-7.3780,0.00,0.00,0.00,3,S01
28180,-2.27689,1.21147,1.30963,37.6220,-64.6951,16.7073,0.00,0.00,0.00,3,S01
28200,-1.58975,0.01437,-0.56743,31.5244,-102.7439,32.5000,0.00,0.00,0.00,3,S01
28220,-1.44131,0.34716,-1.63763,12.6220,-116.7073,27.4390,0.00,0.00,0.00,3,S01
28240,-4.66869,-5.10923,-4.89614,11.9512,-113.3537,13.9024,0.00,0.00,0.00,3,S01
28260,-11.18092,-6.62236,-11.12586,19.2683,-68.3537,-38.8415,0.00,0.00,0.00,3,S01
28280,-21.32516,4.39575,-3.22020,-34.5122,106.4634,-106.7683,0.00,0.00,0.00,3,S01
28300,-22.90772,0.90022,10.59913,-31.4634,208.3537,-66.7683,0.00,0.00,0.00,3,S01
28320,-20.93490,-1.91057,2.35589,-20.0610,80.3659,-21.5854,0.00,0.00,0.00,3,S01
28340,-20.40099,-0.90740,0.74939,-30.6707,18.7805,1.3415,0.00,0.00,0.00,3,S01
28360,-19.13446,0.87867,2.06620,-31.2195,32.8659,27.1341,0.00,0.00,0.00,3,S01
28380,-16.32845,1.72143,0.62249,-33.4756,35.0000,52.8659,0.00,0.00,0.00,3,S01
28400,-13.24951,2.20745,0.01676,-43.4146,31.0976,72.0732,0.00,0.00,0.00,3,S01
28420,-10.18493,2.13323,-0.09816,-52.2561,26.0366,81.5854,0.00,0.00,0.00,3,S01
28440,-7.80031,0.89783,0.07422,-57.6220,18.7805,76.6463,0.00,0.00,0.00,3,S01
28460,-5.86819,-0.27054,0.49560,-54.2683,9.6341,59.5122,0.00,0.00,0.00,3,S01
28480,-3.68228,-1.28569,1.43652,-47.1951,2.3780,46.8293,0.00,0.00,0.00,3,S01
28500,-2.06380,-1.51314,1.97761,-47.4390,-3.4756,40.4268,0.00,0.00,0.00,3,S01
28520,-1.50356,-0.80924,1.74777,-49.2073,-15.8537,27.7439,0.00,0.00,0.00,3,S01
28540,-1.15640,-0.54827,1.01754,-40.4268,-38.9024,12.2561,0.00,0.00,0.00,3,S01
28560,-0.99359,-0.40941,0.15083,-25.1829,-65.7927,1.4024,0.00,0.00,0.00,3,S01
28580,-1.22823,-0.05028,-1.02232,-8.7195,-89.6341,-7.3780,0.00,0.00,0.00,3,S01
28600,-4.71418,0.60094,-4.94642,8.8415,-105.4878,-16.7683,0.00,0.00,0.00,3,S01
28620,-11.60709,-0.31603,-10.21366,3.2927,-80.9146,-29.8780,0.00,0.00,0.00,3,S01
28640,-16.35000,-4.93684,-9.66060,-22.1951,32.3780,-31.2195,0.00,0.00,0.00,3,S01
28660,-17.99003,-4.40294,9.40442,-24.5122,127.1341,-44.8780,0.00,0.00,0.00,3,S01
28680,-17.14009,0.57940,2.03268,27.8659,39.2683,-47.9878,0.00,0.00,0.00,3,S01
28700,-16.91264,1.18274,-0.65841,29.2683,5.3049,-29.3902,0.00,0.00,0.00,3,S01
28720,-17.31008,-0.96486,2.65517,2.0122,29.5732,-19.7561,0.00,0.00,0.00,3,S01
28740,-16.00045,-1.90578,1.91297,2.0122,28.2317,-28.9634,0.00,0.00,0.00,3,S01
28760,-13.41711,-1.77410,1.07500,9.6951,17.0122,-41.8902,0.00,0.00,0.00,3,S01
28780,-10.51055,-1.69509,0.34237,13.5366,7.5610,-46.9512,0.00,0.00,0.00,3,S01
28800,-8.61434,-1.98000,0.39504,17.0122,9.6341,-39.2073,0.00,0.00,0.00,3,S01
28820,-7.21373,-1.62806,0.75657,12.0732,10.4878,-23.8415,0.00,0.00,0.00,3,S01
28840,-6.01902,-1.14922,1.14203,5.4268,6.4634,-7.1951,0.00,0.00,0.00,3,S01
28860,-4.85784,-0.54348,1.62087,3.1707,-1.6463,2.9878,0.00,0.00,0.00,3,S01
28880,-4.13479,-0.79966,1.58736,8.5976,-17.6220,6.0366,0.00,0.00,0.00,3,S01
28900,-3.35428,-0.45250,1.73819,15.4878,-29.8171,4.6951,0.00,0.00,0.00,3,S01
28920,-2.97120,-0.12929,2.02549,22.5000,-35.4268,9.4512,0.00,0.00,0.00,3,S01
28940,-3.09570,-1.52750,0.75657,30.8537,-60.1220,23.5366,0.00,0.00,0.00,3,S01
28960,-3.35428,-2.29365,-1.20189,34.5732,-92.9878,25.3659,0.00,0.00,0.00,3,S01
28980,-6.73489,-6.05733,-5.52103,39.6951,-109.8781,2.8659,0.00,0.00,0.00,3,S01
29000,-12.09790,-2.25055,-9.17458,32.4390,-68.0488,-68.5366,0.00,0.00,0.00,3,S01
29020,-17.33881,7.51300,-6.62954,-14.5122,47.7439,-123.1707,0.00,0.00,0.00,3,S01
29040,-17.77455,1.65918,7.36217,-52.7439,130.5488,-61.7073,0.00,0.00,0.00,3,S01
29060,-17.03953,-4.58490,2.19069,-67.7439,61.8902,-20.4268,0.00,0.00,0.00,3,S01
29080,-17.71949,-4.20422,0.31125,-49.2073,23.5976,-12.8659,0.00,0.00,0.00,3,S01
29100,-16.82405,-0.89064,1.57778,-26.4024,35.1829,8.7195,0.00,0.00,0.00,3,S01
29120,-12.13381,2.90896,-0.54109,-25.7927,11.8902,62.3781,0.00,0.00,0.00,3,S01
29140,-9.22965,1.95846,-0.90980,-32.0122,8.7195,89.3902,0.00,0.00,0.00,3,S01
29160,-7.26161,0.38307,-1.01035,-39.8780,15.7317,97.2561,0.00,0.00,0.00,3,S01
29180,-6.71813,-0.22984,-0.08859,-43.5976,29.1463,75.1220,0.00,0.00,0.00,3,S01
29200,-6.35182,0.36631,1.49877,-40.0000,32.2561,46.8902,0.00,0.00,0.00,3,S01
29220,-5.15950,0.11732,2.20745,-40.4878,13.7195,37.2561,0.00,0.00,0.00,3,S01
29240,-4.14676,-0.20111,1.56581,-43.8415,-14.7561,36.0976,0.00,0.00,0.00,3,S01
29260,-3.45483,-0.81403,1.24259,-46.8902,-35.7927,30.3049,0.00,0.00,0.00,3,S01
29280,-3.11486,-1.10373,1.38145,-39.9390,-46.0976,18.2317,0.00,0.00,0.00,3,S01
29300,-2.79882,-0.32801,0.52433,-20.7927,-52.7439,7.5610,0.00,0.00,0.00,3,S01
29320,-3.34709,0.50278,-1.08457,-5.8537,-62.8049,3.1707,0.00,0.00,0.00,3,S01
29340,-8.05170,1.52271,-5.57131,7.3171,-69.8171,-0.5488,0.00,0.00,0.00,3,S01
29360,-15.96933,-0.02873,-10.90319,7.0122,-33.4756,-5.0610,0.00,0.00,0.00,3,S01
29380,-20.24537,-4.67827,4.44124,-9.5732,76.8293,-0.6707,0.00,0.00,0.00,3,S01
29400,-19.42416,-3.24175,3.28724,-1.8293,50.0610,-5.1829,0.00,0.00,0.00,3,S01
29420,-16.17762,2.71742,-2.48758,34.8780,-8.5976,-7.6220,0.00,0.00,0.00,3,S01
29440,-14.28860,5.03261,-3.22978,-5.1829,-4.6951,-6.0976,0.00,0.00,0.00,3,S01
29460,-11.92312,0.95768,-1.03908,-58.7195,24.4512,-14.0854,0.00,0.00,0.00,3,S01
29480,-9.99340,-2.37984,1.24977,-71.2195,38.0488,-42.0122,0.00,0.00,0.00,3,S01
29500,-8.11156,-3.41413,1.33357,-47.0732,19.8780,-65.9756,0.00,0.00,0.00,3,S01
29520,-5.68623,-3.62961,1.12527,-16.2805,-9.6341,-64.6951,0.00,0.00,0.00,3,S01
29540,-4.23055,-2.85868,0.78051,1.0366,-37.2561,-51.2195,0.00,0.00,0.00,3,S01
29560,-4.51307,-1.22583,-0.11971,11.7073,-55.7317,-39.0244,0.00,0.00,0.00,3,S01
29580,-5.64792,-0.63925,-1.11809,21.4024,-53.9634,-28.1707,0.00,0.00,0.00,3,S01
29600,-6.74207,-0.82361,-1.29047,21.2805,-29.5732,-20.4268,0.00,0.00,0.00,3,S01
29620,-6.94079,-1.29047,-0.81163,17.9878,0.9756,-14.3902,0.00,0.00,0.00,3,S01
29640,-6.06930,-1.43173,0.70150,13.2927,32.5610,-7.9878,0.00,0.00,0.00,3,S01
29660,-6.54814,-1.98240,6.80672,5.0000,58.3537,-2.0122,0.00,0.00,0.00,3,S01
29680,-8.18817,-2.03507,5.13556,9.1463,37.6829,-5.3659,0.00,0.00,0.00,3,S01
29700,-9.50737,-0.70150,3.50751,16.1585,16.2805,-15.5488,0.00,0.00,0.00,3,S01
29720,-9.05487,-0.10534,3.88818,10.7927,11.8902,-18.1098,0.00,0.00,0.00,3,S01
29740,-8.80109,-0.78769,1.83875,-1.8293,7.3780,-17.6829,0.00,0.00,0.00,3,S01
29760,-10.01016,-3.53863,-1.40779,0.7317,9.2073,-23.7805,0.00,0.00,0.00,3,S01
29780,-11.21205,-3.34949,-2.89459,4.7561,12.6220,-43.9634,0.00,0.00,0.00,3,S01
29800,-12.86405,1.63763,-1.18752,3.4756,14.6341,-52.0122,0.00,0.00,0.00,3,S01
29820,-13.19205,1.17795,-1.23301,-9.6341,3.7195,-23.4146,0.00,0.00,0.00,3,S01
29840,-13.55118,-1.99198,-1.78607,-16.7073,0.3659,-0.4878,0.00,0.00,0.00,3,S01
29860,-14.43225,-2.32477,0.36631,-13.5976,14.2683,-1.4024,0.00,0.00,0.00,3,S01
29880,-14.66209,-1.02472,-0.43574,-5.6098,20.6098,3.3537,0.00,0.00,0.00,3,S01
29900,-14.72913,0.50278,-0.42377,-13.1098,25.1220,21.7073,0.00,0.00,0.00,3,S01
29920,-14.05396,1.59454,0.10534,-20.9146,27.4390,44.5732,0.00,0.00,0.00,3,S01
29940,-12.57674,1.56820,-0.18914,-20.7927,26.5244,62.9878,0.00,0.00,0.00,3,S01
29960,-11.25035,1.29287,-0.08859,-26.8902,26.1585,68.5366,0.00,0.00,0.00,3,S01
29980,-9.51935,0.82361,0.46448,-35.3049,21.0366,61.8902,0.00,0.00,0.00,3,S01
# DONE 1500 samples in 30.0s
