timestamp,ax,ay,az,gx,gy,gz,mx,my,mz,label,subject_id
0,-8.96389,0.04310,-0.49321,-4.0244,6.7073,3.2927,0.00,0.00,0.00,5,S01
20,-9.06684,-0.05986,-0.37828,0.5488,8.1098,1.4024,0.00,0.00,0.00,5,S01
40,-9.55765,-0.01197,-0.12929,6.5854,4.1463,-2.0732,0.00,0.00,0.00,5,S01
60,-9.55765,-0.01197,-0.12929,6.5854,4.1463,-2.0732,0.00,0.00,0.00,5,S01
80,-9.44752,0.03112,-0.37828,10.3659,3.5366,-3.7195,0.00,0.00,0.00,5,S01
100,-9.39006,-0.06704,-0.62968,15.3049,3.9024,-4.0854,0.00,0.00,0.00,5,S01
120,-9.40442,-0.03352,-0.75657,20.4268,4.8780,-3.4756,0.00,0.00,0.00,5,S01
140,-9.56005,0.23703,-0.77093,23.0488,4.2683,-2.1341,0.00,0.00,0.00,5,S01
160,-9.71328,0.55067,-0.71108,21.8293,2.4390,-0.5488,0.00,0.00,0.00,5,S01
180,-9.56962,0.79727,-0.72065,17.0732,0.4268,0.4268,0.00,0.00,0.00,5,S01
200,-9.18176,0.63446,-0.71347,11.0366,-0.4878,0.3049,0.00,0.00,0.00,5,S01
220,-8.83221,0.18914,-0.99599,9.0244,0.5488,-1.5244,0.00,0.00,0.00,5,S01
240,-8.85855,-0.28491,-0.98641,9.8780,4.6951,-4.0244,0.00,0.00,0.00,5,S01
260,-9.15782,-0.38547,-0.91219,12.8049,6.1585,-5.4268,0.00,0.00,0.00,5,S01
280,-9.36612,-0.05746,-0.96247,14.6951,4.0244,-5.7927,0.00,0.00,0.00,5,S01
300,-9.67018,0.46926,-0.88346,12.3780,-0.6707,-5.4268,0.00,0.00,0.00,5,S01
320,-9.98622,0.82839,-0.75178,5.8537,-5.9756,-4.2683,0.00,0.00,0.00,5,S01
340,-9.74201,0.85952,-0.76614,1.1585,-9.0854,-3.8415,0.00,0.00,0.00,5,S01
360,-9.46667,0.60094,-0.62728,-2.6220,-10.6098,-3.6585,0.00,0.00,0.00,5,S01
380,-9.39485,0.25857,-0.53870,-4.3293,-11.3415,-2.8049,0.00,0.00,0.00,5,S01
400,-9.39964,0.09577,-0.51715,-3.2927,-10.7317,-1.7683,0.00,0.00,0.00,5,S01
420,-9.53371,0.30646,-0.30406,-2.0732,-10.9756,-0.7927,0.00,0.00,0.00,5,S01
440,-9.58878,0.67277,-0.01915,-3.3537,-12.6829,-0.3049,0.00,0.00,0.00,5,S01
460,-9.42118,0.98641,-0.02634,-5.3659,-13.4756,-1.1585,0.00,0.00,0.00,5,S01
480,-9.45949,0.88107,-0.20111,-7.9878,-10.0610,-1.7073,0.00,0.00,0.00,5,S01
500,-9.39485,0.60094,-0.37350,-11.1585,-5.9756,-0.0610,0.00,0.00,0.00,5,S01
520,-9.24880,0.26576,-0.35434,-14.4512,-3.1098,2.6220,0.00,0.00,0.00,5,S01
540,-9.27753,0.34716,-0.32561,-15.3049,-1.7073,4.2683,0.00,0.00,0.00,5,S01
560,-9.43555,0.66798,-0.17478,-17.6829,-3.2927,4.7561,0.00,0.00,0.00,5,S01
580,-9.33739,0.93374,-0.14844,-21.1585,-7.5000,4.0244,0.00,0.00,0.00,5,S01
600,-9.03811,0.97923,-0.14844,-25.3049,-9.2683,2.0122,0.00,0.00,0.00,5,S01
620,-9.02614,0.58419,-0.05746,-28.4756,-7.3780,0.5488,0.00,0.00,0.00,5,S01
640,-9.24641,0.14126,-0.01915,-27.8049,-6.0976,-0.2439,0.00,0.00,0.00,5,S01
660,-9.22007,-0.00958,0.00718,-24.8780,-5.6098,0.0000,0.00,0.00,0.00,5,S01
680,-9.22725,0.20590,-0.00718,-22.6829,-5.3049,0.7927,0.00,0.00,0.00,5,S01
700,-9.40442,0.38786,0.14605,-21.7073,-5.9146,0.7927,0.00,0.00,0.00,5,S01
720,-9.49540,0.38547,0.31843,-21.0366,-8.6585,0.5488,0.00,0.00,0.00,5,S01
740,-9.36612,0.05267,0.56264,-20.0610,-10.0000,1.4024,0.00,0.00,0.00,5,S01
760,-8.64786,-0.28730,0.74220,-16.7683,-8.4146,3.4146,0.00,0.00,0.00,5,S01
780,-8.42041,-0.13647,0.71347,-11.8902,-1.5244,4.6951,0.00,0.00,0.00,5,S01
800,-9.05727,0.34716,1.00556,-9.5122,6.7073,6.1585,0.00,0.00,0.00,5,S01
820,-9.46667,0.78051,1.51074,-10.1829,7.9268,7.3780,0.00,0.00,0.00,5,S01
840,-9.23683,0.74460,1.41976,-10.0610,4.8780,7.2561,0.00,0.00,0.00,5,S01
860,-8.62152,0.60813,0.90980,-6.2195,6.6463,2.6829,0.00,0.00,0.00,5,S01
880,-8.97586,0.99120,1.16598,-5.7317,6.5854,1.7073,0.00,0.00,0.00,5,S01
900,-9.17219,1.60651,1.47243,-8.6585,2.3171,0.6098,0.00,0.00,0.00,5,S01
920,-9.06445,1.87945,1.28329,-14.0244,-2.5000,-1.4024,0.00,0.00,0.00,5,S01
940,-8.81545,1.68791,1.05105,-17.7439,-2.6829,-5.9756,0.00,0.00,0.00,5,S01
960,-8.29591,1.35033,0.70868,-19.8780,-0.1829,-10.6098,0.00,0.00,0.00,5,S01
980,-7.59680,0.98402,0.62010,-20.4268,5.7927,-11.8902,0.00,0.00,0.00,5,S01
1000,-6.96473,0.40462,0.59616,-18.0488,11.8293,-9.8780,0.00,0.00,0.00,5,S01
1020,-6.68940,0.00239,0.60334,-10.9146,16.0976,-7.3780,0.00,0.00,0.00,5,S01
1040,-6.46434,-0.08859,0.56982,-2.7439,19.1463,-6.4024,0.00,0.00,0.00,5,S01
1060,-6.37815,0.37350,0.76854,4.3902,22.6220,-6.8902,0.00,0.00,0.00,5,S01
1080,-6.67743,1.06542,1.50356,5.1829,22.3780,-6.3415,0.00,0.00,0.00,5,S01
1100,-7.09881,1.23541,1.80523,1.1585,16.7073,-5.9756,0.00,0.00,0.00,5,S01
1120,-6.70137,1.22823,0.92177,2.8049,14.0244,-10.0000,0.00,0.00,0.00,5,S01
1140,-6.07648,1.67594,0.38307,7.3780,19.2683,-14.6951,0.00,0.00,0.00,5,S01
1160,-6.73250,2.94247,1.89621,-0.4878,20.7927,-13.9024,0.00,0.00,0.00,5,S01
1180,-7.97748,3.66552,2.60250,-20.6098,5.4268,-11.8293,0.00,0.00,0.00,5,S01
1200,-7.41724,3.14359,0.94810,-31.5854,-0.9756,-16.7683,0.00,0.00,0.00,5,S01
1220,-5.94001,1.39582,0.37589,-25.1220,15.7927,-24.2073,0.00,0.00,0.00,5,S01
1240,-5.49709,-0.35434,-1.00078,-4.5122,28.4756,-23.9024,0.00,0.00,0.00,5,S01
1260,-16.40746,0.83558,-7.96311,47.0122,37.0122,-6.7683,0.00,0.00,0.00,5,S01
1280,-25.10081,-2.17154,-5.87537,35.7927,52.7439,57.9268,0.00,0.00,0.00,5,S01
1300,-21.89737,-12.51928,1.25935,-89.5122,-13.1098,114.8171,0.00,0.00,0.00,5,S01
1320,-15.79215,-7.82904,-3.11964,-29.6341,-118.7805,58.9634,0.00,0.00,0.00,5,S01
1340,-12.97178,-1.17795,-3.13880,57.6220,-126.3415,-8.9024,0.00,0.00,0.00,5,S01
1360,-12.74194,1.01993,-2.93290,48.5976,-89.8781,-19.5122,0.00,0.00,0.00,5,S01
1380,-12.06199,0.12929,-1.49398,25.6098,-23.5976,-7.1341,0.00,0.00,0.00,5,S01
1400,-10.86489,-1.25935,-1.24738,20.0610,8.7195,-8.6585,0.00,0.00,0.00,5,S01
1420,-10.08677,-1.29526,-0.82121,13.2317,9.7561,-19.8780,0.00,0.00,0.00,5,S01
1440,-9.12191,-0.97444,-1.08218,17.3171,6.9512,-20.3659,0.00,0.00,0.00,5,S01
1460,-8.43238,-1.00317,-1.08936,22.5610,13.2927,-13.1707,0.00,0.00,0.00,5,S01
1480,-8.18099,-1.13485,-0.98881,25.7317,19.0854,-10.0000,0.00,0.00,0.00,5,S01
1500,-8.64307,-1.14203,-0.55785,35.4268,21.7073,-12.5610,0.00,0.00,0.00,5,S01
1520,-8.97107,-0.95050,-0.31843,44.5732,19.1463,-15.3049,0.00,0.00,0.00,5,S01
1540,-8.69335,-0.79487,-0.40462,48.7805,16.8902,-12.6829,0.00,0.00,0.00,5,S01
1560,-8.49223,-0.77093,-0.09337,50.9146,19.2683,-6.6463,0.00,0.00,0.00,5,S01
1580,-8.68138,-0.56503,0.00479,52.1951,20.3049,-1.5244,0.00,0.00,0.00,5,S01
1600,-9.01417,-0.32561,0.20351,49.2073,17.3780,-1.4024,0.00,0.00,0.00,5,S01
1620,-9.10275,-0.30167,0.65601,45.0000,11.2195,-4.4512,0.00,0.00,0.00,5,S01
1640,-9.20092,-0.11971,0.87388,41.2195,5.6707,-7.3171,0.00,0.00,0.00,5,S01
1660,-9.09078,0.00958,0.72065,35.1220,2.5610,-7.6220,0.00,0.00,0.00,5,S01
1680,-8.73884,-0.05507,0.44772,27.7439,3.5976,-5.7927,0.00,0.00,0.00,5,S01
1700,-8.57603,0.14844,0.23942,20.3049,4.3902,-4.0244,0.00,0.00,0.00,5,S01
1720,-7.90565,0.11732,-0.00958,12.5610,2.8659,-1.6463,0.00,0.00,0.00,5,S01
1740,-7.97509,-0.11492,0.19393,7.1341,5.7317,1.2805,0.00,0.00,0.00,5,S01
1760,-8.58800,-0.46208,0.40701,6.0366,6.7073,4.0854,0.00,0.00,0.00,5,S01
1780,-8.57364,-0.59137,0.17478,8.3537,4.5122,6.0366,0.00,0.00,0.00,5,S01
1800,-7.80031,-0.92416,-0.57940,9.5122,4.0854,6.1585,0.00,0.00,0.00,5,S01
1820,-6.53856,-1.12049,-1.53708,10.0610,9.2073,3.8415,0.00,0.00,0.00,5,S01
1840,-5.26485,-1.08218,-1.68073,8.7195,20.4878,0.7317,0.00,0.00,0.00,5,S01
1860,-5.46596,-0.60334,-0.94571,5.7927,26.4634,-3.9634,0.00,0.00,0.00,5,S01
1880,-6.23211,0.17478,-0.66080,-0.3659,18.2927,-8.5366,0.00,0.00,0.00,5,S01
1900,-6.02142,0.20351,0.16281,-8.1707,9.3902,-7.4390,0.00,0.00,0.00,5,S01
1920,-5.87537,-0.10534,0.97923,-10.7927,2.9268,-6.6463,0.00,0.00,0.00,5,S01
1940,-6.79474,-0.45969,1.07021,-11.3415,-1.9512,-6.0366,0.00,0.00,0.00,5,S01
1960,-7.97269,-0.90980,1.03190,-10.6098,-5.9756,0.0610,0.00,0.00,0.00,5,S01
1980,-7.86016,-1.33357,0.89783,-11.5854,-8.5366,9.5732,0.00,0.00,0.00,5,S01
2000,-6.65349,-1.40540,-0.05028,-15.4268,-7.3171,13.5366,0.00,0.00,0.00,5,S01
2020,-6.66067,-2.13323,-1.47004,-15.7927,-1.7073,8.8415,0.00,0.00,0.00,5,S01
2040,-14.03002,-0.28491,0.05028,4.2073,-7.1341,-17.7439,0.00,0.00,0.00,5,S01
2060,-19.39303,0.45490,-3.24893,15.4268,-35.9146,-23.1707,0.00,0.00,0.00,5,S01
2080,-18.61492,3.57215,-0.50039,24.2683,-20.9756,-26.9512,0.00,0.00,0.00,5,S01
2100,-13.34289,3.98874,-1.51792,2.0732,-46.5244,-4.5732,0.00,0.00,0.00,5,S01
2120,-9.95988,-0.04549,-0.92895,-19.2683,-45.1220,22.6829,0.00,0.00,0.00,5,S01
2140,-13.22078,-0.83558,0.32561,-33.7805,-9.3293,14.6341,0.00,0.00,0.00,5,S01
2160,-15.05713,-0.07183,0.84036,-27.1951,23.6585,8.5366,0.00,0.00,0.00,5,S01
2180,-13.61343,1.13006,0.69671,-17.0732,20.9756,13.5366,0.00,0.00,0.00,5,S01
2200,-11.36288,1.58736,-0.01676,-15.2439,-0.5488,17.2561,0.00,0.00,0.00,5,S01
2220,-9.94312,1.00078,-0.42377,-9.6341,1.7683,12.0122,0.00,0.00,0.00,5,S01
2240,-9.36612,0.56982,-0.50996,-5.6098,15.9756,1.7683,0.00,0.00,0.00,5,S01
2260,-8.85376,0.33998,-0.37350,-5.9146,21.4024,-3.2317,0.00,0.00,0.00,5,S01
2280,-8.15226,0.23703,-0.64643,-4.8171,21.2805,-3.4146,0.00,0.00,0.00,5,S01
2300,-7.90326,0.44293,-0.22745,-2.2561,25.5488,-1.7683,0.00,0.00,0.00,5,S01
2320,-8.14747,0.98162,0.01676,2.8049,23.7195,-1.2805,0.00,0.00,0.00,5,S01
2340,-7.83383,1.25456,0.15802,3.1707,11.7683,-1.2805,0.00,0.00,0.00,5,S01
2360,-6.92882,1.02711,0.09816,2.4390,-2.5000,-2.9268,0.00,0.00,0.00,5,S01
2380,-6.10043,0.57221,-0.25379,6.2195,-6.7683,-8.1098,0.00,0.00,0.00,5,S01
2400,-5.50188,0.72065,-0.62249,11.8293,-1.7683,-13.1098,0.00,0.00,0.00,5,S01
2420,-4.78840,0.93134,-0.60094,9.5122,3.5976,-11.0366,0.00,0.00,0.00,5,S01
2440,-4.46519,0.78769,-0.71108,4.0854,4.7561,-4.5122,0.00,0.00,0.00,5,S01
2460,-5.05895,1.09894,-1.16119,0.7927,3.2927,-0.0610,0.00,0.00,0.00,5,S01
2480,-5.65989,1.77889,-0.72305,-8.4756,0.7927,0.2439,0.00,0.00,0.00,5,S01
2500,-6.52181,1.97043,0.55067,-23.5976,-7.0732,0.9146,0.00,0.00,0.00,5,S01
2520,-7.47470,1.43173,1.53468,-28.5976,-19.0854,0.7317,0.00,0.00,0.00,5,S01
2540,-7.67581,0.60573,1.83156,-28.4756,-29.8780,-4.4512,0.00,0.00,0.00,5,S01
2560,-8.54012,0.72544,0.13408,-20.2439,-30.8537,-10.1829,0.00,0.00,0.00,5,S01
2580,-10.12029,0.05267,-2.08296,-2.8659,-18.1707,-1.5854,0.00,0.00,0.00,5,S01
2600,-11.90876,-1.58975,-1.25696,14.7561,-16.6463,18.1707,0.00,0.00,0.00,5,S01
2620,-18.98841,-2.33435,-3.00712,37.8049,-51.9512,33.6585,0.00,0.00,0.00,5,S01
2640,-19.56542,-2.80840,-1.65679,34.5732,-55.1829,49.1463,0.00,0.00,0.00,5,S01
2660,-14.67646,-0.72544,-0.05986,7.3780,-35.6098,41.6463,0.00,0.00,0.00,5,S01
2680,-12.70124,2.00395,-0.13647,2.9268,-40.3049,2.9268,0.00,0.00,0.00,5,S01
2700,-14.94700,1.84593,0.33040,16.0366,-26.2805,-21.8293,0.00,0.00,0.00,5,S01
2720,-15.14333,-0.05986,1.08218,8.2317,-14.5732,-24.5122,0.00,0.00,0.00,5,S01
2740,-12.66772,-1.32160,0.60334,5.7927,-15.3049,-24.6951,0.00,0.00,0.00,5,S01
2760,-9.90481,-1.89621,-0.05507,8.0488,-9.1463,-29.2073,0.00,0.00,0.00,5,S01
2780,-8.37013,-1.39343,-0.54109,10.0610,7.6220,-34.0854,0.00,0.00,0.00,5,S01
2800,-7.86495,-0.54827,-0.65122,13.4756,25.0610,-32.1951,0.00,0.00,0.00,5,S01
2820,-7.51300,-0.55785,-0.39744,15.4878,31.7683,-22.3780,0.00,0.00,0.00,5,S01
2840,-6.95755,-0.51954,-0.29928,15.9146,26.8902,-11.9512,0.00,0.00,0.00,5,S01
2860,-6.56969,-0.55785,-0.29688,17.2561,23.2317,-4.2073,0.00,0.00,0.00,5,S01
2880,-6.69658,-0.71347,-0.36631,21.2195,24.1463,0.0610,0.00,0.00,0.00,5,S01
2900,-7.31429,-0.82600,-0.28012,26.2805,23.6585,3.5976,0.00,0.00,0.00,5,S01
2920,-7.39329,-0.84515,-0.46687,28.1707,17.5000,7.0732,0.00,0.00,0.00,5,S01
2940,-7.47230,-0.81163,-0.20590,26.2805,9.8780,8.8415,0.00,0.00,0.00,5,S01
2960,-9.06205,-0.50757,0.39265,26.1585,-0.4878,10.9756,0.00,0.00,0.00,5,S01
2980,-8.95910,-0.38068,-0.22266,23.6585,-8.9024,18.9024,0.00,0.00,0.00,5,S01
3000,-7.36456,-0.21787,-0.99120,15.4878,-1.2805,23.8415,0.00,0.00,0.00,5,S01
3020,-6.09085,-0.30406,-1.12527,5.3659,11.4024,18.7195,0.00,0.00,0.00,5,S01
3040,-6.17225,-1.58736,0.79727,4.1463,12.1951,8.6585,0.00,0.00,0.00,5,S01
3060,-6.46674,-2.41096,1.33118,21.5854,0.4878,-2.2561,0.00,0.00,0.00,5,S01
3080,-5.51385,-2.39420,0.11253,40.2439,-2.1951,-8.4146,0.00,0.00,0.00,5,S01
3100,-4.77883,-1.32160,-0.34237,53.5976,8.5366,-13.1707,0.00,0.00,0.00,5,S01
3120,-5.52103,-0.42377,1.62566,55.7317,9.5732,-16.8902,0.00,0.00,0.00,5,S01
3140,-6.34942,0.31603,2.68869,54.9390,-9.0244,-14.7561,0.00,0.00,0.00,5,S01
3160,-7.14430,1.24738,1.01035,50.6098,-19.1463,-7.2561,0.00,0.00,0.00,5,S01
3180,-8.37731,0.65362,-1.90818,34.7561,-4.0244,4.8780,0.00,0.00,0.00,5,S01
3200,-10.46984,-0.90022,-2.60250,19.8171,23.0488,9.0244,0.00,0.00,0.00,5,S01
3220,-13.13938,-0.54588,-0.69911,6.8902,15.6098,-3.6585,0.00,0.00,0.00,5,S01
3240,-17.56147,0.92656,-1.46765,25.7317,-82.0122,-13.1707,0.00,0.00,0.00,5,S01
3260,-16.86715,2.48997,0.03112,45.6707,-47.4390,-25.1220,0.00,0.00,0.00,5,S01
3280,-14.01805,2.85149,-0.23703,42.4390,-31.1585,-16.8902,0.00,0.00,0.00,5,S01
3300,-13.81933,2.20506,1.00556,17.2561,-27.3780,3.9024,0.00,0.00,0.00,5,S01
3320,-14.90630,2.10450,0.88585,-5.6707,-12.1951,11.6463,0.00,0.00,0.00,5,S01
3340,-13.92707,2.32716,0.21069,-8.4756,4.0854,7.3171,0.00,0.00,0.00,5,S01
3360,-11.78187,2.51391,-0.49321,-7.1951,6.3415,3.6585,0.00,0.00,0.00,5,S01
3380,-9.26077,2.03986,-1.18034,-9.0244,6.7073,7.3780,0.00,0.00,0.00,5,S01
3400,-7.13951,0.76854,-1.43892,-7.0122,14.6341,12.2561,0.00,0.00,0.00,5,S01
3420,-5.89213,-0.16759,-0.99599,0.7317,28.4756,11.3415,0.00,0.00,0.00,5,S01
3440,-6.04057,-0.24660,-0.54588,7.1341,41.0976,6.4024,0.00,0.00,0.00,5,S01
3460,-7.46751,0.31125,-0.27533,9.0854,49.0244,-1.7683,0.00,0.00,0.00,5,S01
3480,-8.86573,0.57940,-0.27054,6.4024,47.0122,-9.2073,0.00,0.00,0.00,5,S01
3500,-9.64145,0.47166,-0.51475,6.3415,36.7683,-12.7439,0.00,0.00,0.00,5,S01
3520,-9.35415,0.23942,-0.65841,7.8659,24.8780,-14.4512,0.00,0.00,0.00,5,S01
3540,-8.95192,0.11253,-0.51954,4.8171,10.4268,-16.5854,0.00,0.00,0.00,5,S01
3560,-8.92558,0.12689,-0.21787,-0.0610,-0.3659,-16.4634,0.00,0.00,0.00,5,S01
3580,-8.86333,0.06943,0.06225,-0.8537,-2.3780,-12.9268,0.00,0.00,0.00,5,S01
3600,-8.66701,0.00958,-0.00239,0.7317,-3.7195,-8.7805,0.00,0.00,0.00,5,S01
3620,-8.11634,0.14605,-0.53391,1.7073,-3.4146,-6.4634,0.00,0.00,0.00,5,S01
3640,-7.27119,0.45011,-0.92177,3.7195,4.2073,-4.3902,0.00,0.00,0.00,5,S01
3660,-6.67982,0.84036,-0.98881,3.9634,12.3780,-0.8537,0.00,0.00,0.00,5,S01
3680,-6.89051,1.34075,-0.73981,0.2439,15.9146,2.0122,0.00,0.00,0.00,5,S01
3700,-6.79474,1.17076,-0.39983,-5.9756,14.7561,5.1829,0.00,0.00,0.00,5,S01
3720,-6.42125,0.79248,-0.09577,-8.9634,10.5488,8.1707,0.00,0.00,0.00,5,S01
3740,-6.60560,0.79966,0.78051,-13.1707,3.7805,8.7195,0.00,0.00,0.00,5,S01
3760,-7.40287,1.24020,1.44131,-19.1463,-5.1220,7.5610,0.00,0.00,0.00,5,S01
3780,-8.27915,1.50835,0.84515,-23.1098,-10.2439,2.9268,0.00,0.00,0.00,5,S01
3800,-8.50181,1.90339,0.49321,-22.1341,-6.9512,-6.2805,0.00,0.00,0.00,5,S01
3820,-8.47069,2.55461,1.73819,-29.0854,-12.5000,-12.3171,0.00,0.00,0.00,5,S01
3840,-8.53294,2.03268,2.37265,-43.0488,-27.1341,-9.4512,0.00,0.00,0.00,5,S01
3860,-8.07085,0.77812,1.24977,-46.0976,-24.8171,-5.4878,0.00,0.00,0.00,5,S01
3880,-8.20493,0.61292,-0.43335,-40.7927,-8.1707,-5.2439,0.00,0.00,0.00,5,S01
3900,-9.48343,1.49398,-2.54504,-35.3659,3.3537,1.5854,0.00,0.00,0.00,5,S01
3920,-11.48499,1.13485,-2.48518,-39.8780,0.4268,18.3537,0.00,0.00,0.00,5,S01
3940,-14.02284,-0.16999,-0.87149,-46.6463,-24.6341,28.1098,0.00,0.00,0.00,5,S01
3960,-17.69794,-1.17555,-2.00874,-38.2317,-51.9512,26.8293,0.00,0.00,0.00,5,S01
3980,-16.31888,-0.86431,0.38068,-41.5244,-50.5488,28.6585,0.00,0.00,0.00,5,S01
4000,-12.43548,-0.58179,1.13964,-45.1829,-60.0000,20.5488,0.00,0.00,0.00,5,S01
4020,-10.83616,-0.19632,0.73981,-24.3293,-44.0854,-0.2439,0.00,0.00,0.00,5,S01
4040,-11.63343,-1.16358,0.99838,-9.6951,-12.6220,-10.9756,0.00,0.00,0.00,5,S01
4060,-12.45464,-2.09253,0.90261,-1.2195,10.8537,-10.3659,0.00,0.00,0.00,5,S01
4080,-11.76032,-1.86508,0.45490,8.9634,25.2439,-11.4024,0.00,0.00,0.00,5,S01
4100,-10.30704,-0.60573,-0.52912,17.2561,27.8659,-16.9512,0.00,0.00,0.00,5,S01
4120,-8.83700,0.45729,-1.19950,17.8049,28.3537,-19.6341,0.00,0.00,0.00,5,S01
4140,-7.90565,0.31603,-0.99120,12.9268,29.2683,-17.7439,0.00,0.00,0.00,5,S01
4160,-7.74764,-0.21787,-0.57940,7.6829,25.5488,-14.3902,0.00,0.00,0.00,5,S01
4180,-7.74524,-0.40462,-0.31843,2.7439,21.6463,-9.6951,0.00,0.00,0.00,5,S01
4200,-7.86974,-0.34955,-0.37589,3.4756,20.9756,-5.5488,0.00,0.00,0.00,5,S01
4220,-8.03015,-0.38307,-0.68474,5.9756,18.4756,-1.8293,0.00,0.00,0.00,5,S01
4240,-8.14986,-0.47405,-0.36152,3.7805,13.0488,2.2561,0.00,0.00,0.00,5,S01
4260,-7.95354,-0.48363,-0.19393,0.4268,4.6341,6.2195,0.00,0.00,0.00,5,S01
4280,-7.54174,-0.46208,-0.07661,-3.1098,-0.1829,10.0610,0.00,0.00,0.00,5,S01
4300,-6.25365,-0.87628,-0.15323,-13.7805,2.9268,8.3537,0.00,0.00,0.00,5,S01
4320,-6.25365,-0.87628,-0.15323,-13.7805,2.9268,8.3537,0.00,0.00,0.00,5,S01
4340,-5.32949,-0.90261,0.07183,-14.1463,10.9756,-2.3171,0.00,0.00,0.00,5,S01
4360,-5.55694,-0.77812,0.41180,-14.3902,16.6463,-11.5244,0.00,0.00,0.00,5,S01
4380,-7.27598,-1.24259,1.82438,-11.0366,18.7805,-11.2805,0.00,0.00,0.00,5,S01
4400,-8.50660,-2.50673,2.29365,-0.1220,10.6098,-2.2561,0.00,0.00,0.00,5,S01
4420,-8.45393,-2.93290,1.14682,16.8293,8.5976,4.8780,0.00,0.00,0.00,5,S01
4440,-7.59441,-2.27689,0.35434,27.5610,16.3415,7.5610,0.00,0.00,0.00,5,S01
4460,-7.95114,-0.62728,0.92177,39.2073,6.0976,6.4024,0.00,0.00,0.00,5,S01
4480,-8.42280,-0.68235,1.00317,46.2195,3.7805,8.0488,0.00,0.00,0.00,5,S01
4500,-9.10994,-1.44610,-0.47405,54.6951,5.5488,7.7439,0.00,0.00,0.00,5,S01
4520,-10.67335,-0.08380,-3.23217,61.0366,14.5732,-2.0122,0.00,0.00,0.00,5,S01
4540,-11.96143,1.99198,-3.47399,48.9634,24.2683,-14.8780,0.00,0.00,0.00,5,S01
4560,-13.38838,2.71263,-2.93290,35.0610,4.3293,-16.8902,0.00,0.00,0.00,5,S01
4580,-15.64371,1.83635,-2.08774,19.0854,-35.3049,-10.7317,0.00,0.00,0.00,5,S01
4600,-15.52161,0.54348,-2.55222,19.0854,-49.9390,-9.8171,0.00,0.00,0.00,5,S01
4620,-13.95580,1.30245,-0.95050,25.1829,-37.0122,-12.8659,0.00,0.00,0.00,5,S01
4640,-12.69406,1.55144,-0.18675,15.6707,-38.9024,-5.6098,0.00,0.00,0.00,5,S01
4660,-12.82334,1.13964,-0.38307,13.8415,-25.8537,2.3171,0.00,0.00,0.00,5,S01
4680,-12.53604,1.13006,-0.61770,15.3659,-8.3537,-0.3049,0.00,0.00,0.00,5,S01
4700,-11.14261,1.61130,-1.09654,15.4878,-2.3780,-2.9878,0.00,0.00,0.00,5,S01
4720,-9.66060,1.82917,-1.52989,13.7805,3.5366,1.5244,0.00,0.00,0.00,5,S01
4740,-8.99502,1.50595,-1.31921,10.9146,12.1341,5.4878,0.00,0.00,0.00,5,S01
4760,-8.46350,0.83797,-0.98402,10.7927,17.8659,5.6098,0.00,0.00,0.00,5,S01
4780,-8.09480,0.46926,-0.69432,10.8537,18.8415,4.1463,0.00,0.00,0.00,5,S01
4800,-7.86974,0.35195,-0.41899,9.5732,18.2317,2.0732,0.00,0.00,0.00,5,S01
4820,-7.77637,0.31364,-0.39025,9.3902,17.8659,1.0976,0.00,0.00,0.00,5,S01
4840,-8.03494,0.33998,-0.28730,8.4756,17.9878,-0.9146,0.00,0.00,0.00,5,S01
4860,-8.30309,0.13647,-0.26576,8.5976,15.1829,-4.8171,0.00,0.00,0.00,5,S01
4880,-8.59279,-0.17238,-0.33758,12.8659,10.2439,-9.9390,0.00,0.00,0.00,5,S01
4900,-8.99741,-0.40462,-0.24181,20.0610,5.6707,-14.5732,0.00,0.00,0.00,5,S01
4920,-9.30147,-0.37350,-0.25379,27.1341,2.3780,-17.1341,0.00,0.00,0.00,5,S01
4940,-9.26317,-0.11253,-0.40223,30.6707,1.0366,-16.2805,0.00,0.00,0.00,5,S01
4960,-9.01656,0.10534,-0.54588,29.8780,0.6098,-12.1951,0.00,0.00,0.00,5,S01
4980,-8.80348,0.17238,-0.52912,28.2927,1.9512,-7.6220,0.00,0.00,0.00,5,S01
5000,-8.68856,0.28012,-0.71108,28.4756,4.8171,-5.6707,0.00,0.00,0.00,5,S01
5020,-8.41562,0.51715,-1.01035,29.6341,10.1220,-7.9268,0.00,0.00,0.00,5,S01
5040,-9.00459,1.35991,-1.02951,26.7073,15.1829,-11.0976,0.00,0.00,0.00,5,S01
5060,-9.28232,1.58736,-1.18752,19.1463,10.9146,-7.8049,0.00,0.00,0.00,5,S01
5080,-7.90805,1.11091,-1.34794,12.9878,2.0732,2.0122,0.00,0.00,0.00,5,S01
5100,-6.82108,0.57940,-1.05824,7.0732,-1.7073,11.0976,0.00,0.00,0.00,5,S01
5120,-7.59920,0.41180,-0.29209,0.8537,-3.1098,13.3537,0.00,0.00,0.00,5,S01
5140,-8.82024,1.15640,0.54827,-5.6707,-9.1463,8.1707,0.00,0.00,0.00,5,S01
5160,-8.53294,1.61848,0.62010,-13.5366,-19.1463,2.6829,0.00,0.00,0.00,5,S01
5180,-6.97192,1.38145,-0.01915,-14.0244,-19.6951,1.4024,0.00,0.00,0.00,5,S01
5200,-5.79636,0.94571,0.63686,-14.0854,-11.5854,3.9634,0.00,0.00,0.00,5,S01
5220,-6.59124,0.05028,1.84354,-22.1951,-7.8049,6.1585,0.00,0.00,0.00,5,S01
5240,-8.78911,-0.21548,1.06063,-20.4268,0.7927,-0.9146,0.00,0.00,0.00,5,S01
5260,-10.61589,0.86191,-0.73981,-14.3293,21.5244,-15.5488,0.00,0.00,0.00,5,S01
5280,-10.92714,2.59292,-1.14922,-19.6341,37.0122,-21.6463,0.00,0.00,0.00,5,S01
5300,-10.79306,3.37343,0.65841,-40.1220,22.6829,-10.3049,0.00,0.00,0.00,5,S01
5320,-10.42435,2.09014,1.97043,-66.0976,-12.1341,4.2073,0.00,0.00,0.00,5,S01
5340,-9.75158,-0.21308,0.80206,-70.3659,-15.7927,6.9512,0.00,0.00,0.00,5,S01
5360,-9.55287,-0.67516,-0.71108,-58.7195,11.2805,-2.0122,0.00,0.00,0.00,5,S01
5380,-9.53371,-0.81642,-2.01352,-27.9268,16.0366,17.0122,0.00,0.00,0.00,5,S01
5400,-9.53371,-0.81642,-2.01352,-27.9268,16.0366,17.0122,0.00,0.00,0.00,5,S01
5420,-9.15303,-1.23541,-2.78685,-17.5000,1.7073,15.6098,0.00,0.00,0.00,5,S01
5440,-9.15303,-1.23541,-2.78685,-17.5000,1.7073,15.6098,0.00,0.00,0.00,5,S01
5460,-8.90404,-0.71108,-3.02867,-15.0000,-8.1707,6.2195,0.00,0.00,0.00,5,S01
5480,-11.24078,0.15083,-1.32878,-21.2195,-19.4512,-3.9024,0.00,0.00,0.00,5,S01
5500,-16.39789,-0.43335,-0.04070,-16.8902,-56.5244,-2.6829,0.00,0.00,0.00,5,S01
5520,-15.64132,-1.66876,-0.72065,-4.5122,-74.2073,14.8780,0.00,0.00,0.00,5,S01
5540,-12.22958,-1.58975,-0.83797,-5.6707,-56.6463,18.2317,0.00,0.00,0.00,5,S01
5560,-9.61272,-0.71108,-0.56982,-6.9512,-61.0976,0.5488,0.00,0.00,0.00,5,S01
5580,-9.03811,-0.29688,0.11253,-5.9756,-50.0610,-17.8659,0.00,0.00,0.00,5,S01
5600,-9.10275,-0.04788,0.51236,0.4268,-17.0122,-24.8780,0.00,0.00,0.00,5,S01
5620,-8.80109,-0.04549,0.18675,5.4268,6.4024,-23.7195,0.00,0.00,0.00,5,S01
5640,-8.33422,0.06464,-0.44053,3.1098,19.0244,-21.0976,0.00,0.00,0.00,5,S01
5660,-8.11634,0.21308,-0.03591,-13.5366,36.7073,-15.0000,0.00,0.00,0.00,5,S01
5680,-8.43238,-0.16759,0.58897,-18.7805,29.5732,-8.4146,0.00,0.00,0.00,5,S01
5700,-8.31746,-0.48123,0.86910,-18.7805,19.5732,-2.8049,0.00,0.00,0.00,5,S01
5720,-7.90326,-0.45011,0.68714,-14.6341,15.7927,-1.0976,0.00,0.00,0.00,5,S01
5740,-7.73567,-0.14365,0.46687,-13.3537,15.4268,-0.9146,0.00,0.00,0.00,5,S01
5760,-8.09958,0.08619,0.57700,-18.7195,10.4878,0.6707,0.00,0.00,0.00,5,S01
5780,-8.01818,-0.21787,0.62249,-25.6098,0.3659,4.8171,0.00,0.00,0.00,5,S01
5800,-7.08684,-0.83797,0.38068,-29.7561,-4.1463,10.1220,0.00,0.00,0.00,5,S01
5820,-6.34703,-1.29287,-0.07422,-33.7195,1.2805,13.2927,0.00,0.00,0.00,5,S01
5840,-5.87058,-1.46765,0.01197,-37.1951,7.5610,12.9878,0.00,0.00,0.00,5,S01
5860,-5.64792,-1.96325,0.87867,-35.1220,7.6220,9.4512,0.00,0.00,0.00,5,S01
5880,-6.46195,-1.80283,1.62806,-26.6463,6.8902,1.6463,0.00,0.00,0.00,5,S01
5900,-6.70137,-0.92895,-0.11253,-11.6463,10.6098,-3.7195,0.00,0.00,0.00,5,S01
5920,-7.38372,-1.32639,-0.31364,-2.7439,19.2073,-4.8780,0.00,0.00,0.00,5,S01
5940,-8.26000,-2.72939,1.13485,1.7073,11.8902,-5.2439,0.00,0.00,0.00,5,S01
5960,-8.40604,-3.09091,0.86191,12.2561,0.0610,-4.2683,0.00,0.00,0.00,5,S01
5980,-8.45632,-2.45645,0.42617,18.9634,2.3171,-3.4146,0.00,0.00,0.00,5,S01
6000,-8.91122,-1.69031,-1.97043,24.9390,1.6463,-8.4756,0.00,0.00,0.00,5,S01
6020,-11.47062,-0.17478,-2.03747,34.4512,8.8415,-20.9146,0.00,0.00,0.00,5,S01
6040,-14.10185,1.22104,-0.59855,38.1098,-9.2683,-28.3537,0.00,0.00,0.00,5,S01
6060,-18.16481,0.68953,-2.36068,31.2805,-55.0000,-24.0854,0.00,0.00,0.00,5,S01
6080,-19.01236,1.80523,-1.84593,36.4634,-49.0244,-41.3415,0.00,0.00,0.00,5,S01
6100,-16.25424,4.17549,-1.72622,41.9512,-47.8049,-47.1341,0.00,0.00,0.00,5,S01
6120,-11.85848,3.01909,-1.45807,20.3659,-64.3293,-9.2073,0.00,0.00,0.00,5,S01
6140,-11.52569,1.96564,0.40223,-4.5122,-47.1951,19.8171,0.00,0.00,0.00,5,S01
6160,-11.93749,1.44131,0.64165,-13.8415,-16.4024,19.3293,0.00,0.00,0.00,5,S01
6180,-11.25275,1.27372,0.09337,-14.5732,-1.0366,7.3171,0.00,0.00,0.00,5,S01
6200,-9.94791,1.46765,-0.38786,-10.7927,4.1463,5.7927,0.00,0.00,0.00,5,S01
6220,-8.67659,1.46046,-0.92895,-9.2683,11.9512,13.9634,0.00,0.00,0.00,5,S01
6240,-7.98466,1.35272,-0.75178,-16.3415,23.9024,18.9634,0.00,0.00,0.00,5,S01
6260,-7.83622,1.24259,-0.43335,-27.4390,29.2683,15.7317,0.00,0.00,0.00,5,S01
6280,-7.68299,0.71347,-0.37110,-34.3902,26.9512,9.7561,0.00,0.00,0.00,5,S01
6300,-7.44357,0.22266,-0.29928,-37.2561,23.1707,4.2683,0.00,0.00,0.00,5,S01
6320,-7.20176,0.02155,-0.40462,-37.6220,22.3171,-0.4268,0.00,0.00,0.00,5,S01
6340,-7.23528,0.14365,-0.48602,-35.4878,24.3293,-4.8780,0.00,0.00,0.00,5,S01
6360,-7.79791,0.22266,0.01437,-31.9512,23.5976,-7.9878,0.00,0.00,0.00,5,S01
6380,-8.43956,-0.06704,0.67038,-26.4024,12.3780,-8.1707,0.00,0.00,0.00,5,S01
6400,-8.45153,-0.57940,0.79727,-20.3049,-2.7439,-8.8415,0.00,0.00,0.00,5,S01
6420,-7.72369,0.10056,0.47405,-12.5000,-7.9268,-12.3171,0.00,0.00,0.00,5,S01
6440,-6.01184,1.22104,0.11253,-11.7683,3.7195,-10.3049,0.00,0.00,0.00,5,S01
6460,-5.39414,0.94092,-0.71108,-8.1098,19.2073,-5.6098,0.00,0.00,0.00,5,S01
6480,-5.39414,0.94092,-0.71108,-8.1098,19.2073,-5.6098,0.00,0.00,0.00,5,S01
6500,-5.47075,0.81642,-0.89064,-5.1829,35.3659,-1.4634,0.00,0.00,0.00,5,S01
6520,-6.53138,1.61369,-0.30646,-8.6585,34.5122,4.0244,0.00,0.00,0.00,5,S01
6540,-8.12831,2.48997,1.20668,-28.4756,10.6098,11.2805,0.00,0.00,0.00,5,S01
6560,-9.11233,2.27210,1.62327,-47.9878,-19.4512,13.3537,0.00,0.00,0.00,5,S01
6580,-8.89685,1.99198,0.28730,-45.1829,-20.6098,4.8780,0.00,0.00,0.00,5,S01
6600,-9.22725,2.61686,2.11408,-51.0976,-13.2927,-2.6829,0.00,0.00,0.00,5,S01
6620,-10.12029,2.83473,2.64559,-67.8659,-35.3049,-1.1585,0.00,0.00,0.00,5,S01
6640,-10.52970,1.53708,-0.60573,-66.5854,-36.7073,4.5122,0.00,0.00,0.00,5,S01
6660,-10.24718,-1.06781,-1.95606,-52.9268,-9.8780,8.3537,0.00,0.00,0.00,5,S01
6680,-11.55681,-2.87783,-1.70467,-37.5610,-5.9756,11.6463,0.00,0.00,0.00,5,S01
6700,-16.01003,-3.76129,-1.53468,-16.8293,-26.7683,24.8780,0.00,0.00,0.00,5,S01
6720,-17.88708,-3.64398,-0.73263,-6.7073,-35.5488,44.3293,0.00,0.00,0.00,5,S01
6740,-14.95897,-0.89304,-0.77812,-30.6098,-47.9878,43.6585,0.00,0.00,0.00,5,S01
6760,-12.21761,1.74298,0.63446,-51.5244,-69.3902,21.4024,0.00,0.00,0.00,5,S01
6780,-12.21282,1.36469,0.45490,-50.8537,-67.5610,-1.2195,0.00,0.00,0.00,5,S01
6800,-11.95904,-1.45567,1.08457,-50.7927,-36.2195,-4.0244,0.00,0.00,0.00,5,S01
6820,-10.09874,-3.24175,0.82361,-46.7683,-11.1585,-0.7927,0.00,0.00,0.00,5,S01
6840,-8.84897,-2.60729,0.66080,-38.6585,7.3780,-7.5000,0.00,0.00,0.00,5,S01
6860,-8.22408,-0.85234,0.80445,-12.7439,26.5244,-14.7561,0.00,0.00,0.00,5,S01
6880,-7.43878,-1.25696,0.83797,-2.3780,25.3659,-9.4512,0.00,0.00,0.00,5,S01
6900,-6.87136,-1.45807,0.84994,4.5732,26.6463,-3.2927,0.00,0.00,0.00,5,S01
6920,-6.99586,-1.24259,0.80206,10.9146,32.3780,1.5854,0.00,0.00,0.00,5,S01
6940,-7.56807,-0.87628,0.61052,15.5488,35.6098,6.2195,0.00,0.00,0.00,5,S01
6960,-8.18817,-0.55545,0.62968,16.6463,34.5122,12.0732,0.00,0.00,0.00,5,S01
6980,-8.41083,-0.79966,1.15401,14.0854,27.1341,18.0488,0.00,0.00,0.00,5,S01
7000,-7.95833,-1.21865,0.95768,14.2683,16.8902,20.0000,0.00,0.00,0.00,5,S01
7020,-6.87136,-1.44370,0.42138,14.3902,12.8049,16.2195,0.00,0.00,0.00,5,S01
7040,-5.98550,-1.32399,0.16520,12.7439,13.7805,8.5366,0.00,0.00,0.00,5,S01
7060,-7.01980,-1.49159,1.26414,18.4756,13.1098,0.3049,0.00,0.00,0.00,5,S01
7080,-8.07325,-1.80283,1.77171,28.5366,3.7195,-1.6463,0.00,0.00,0.00,5,S01
7100,-7.63750,-2.28646,0.97683,35.6098,-1.5244,-0.0610,0.00,0.00,0.00,5,S01
7120,-6.73250,-2.94966,0.95529,41.7073,0.7927,-4.7561,0.00,0.00,0.00,5,S01
7140,-7.00304,-3.05740,1.96803,52.0122,0.0000,-12.4390,0.00,0.00,0.00,5,S01
7160,-8.32464,-2.36547,2.70545,64.8171,-4.0244,-13.5976,0.00,0.00,0.00,5,S01
7180,-9.34696,-0.91698,2.26731,72.8659,-2.8049,-5.1220,0.00,0.00,0.00,5,S01
7200,-9.01896,-0.07183,1.54426,67.3171,5.5488,5.9756,0.00,0.00,0.00,5,S01
7220,-9.03811,-1.44610,1.78847,55.7317,7.9268,7.6220,0.00,0.00,0.00,5,S01
7240,-10.40281,-2.41814,-0.12689,58.2317,7.7439,-8.9024,0.00,0.00,0.00,5,S01
7260,-12.77307,-0.20830,-0.95050,57.0732,21.0366,-30.2439,0.00,0.00,0.00,5,S01
7280,-14.44901,2.51631,-1.06063,47.6829,18.1098,-33.4756,0.00,0.00,0.00,5,S01
7300,-14.43704,3.03106,-1.83635,35.6098,-10.0610,-25.4878,0.00,0.00,0.00,5,S01
7320,-15.48570,1.09894,-2.66953,17.8049,-33.2317,-22.5000,0.00,0.00,0.00,5,S01
7340,-16.68998,-0.00718,-2.04225,18.7805,-33.2927,-29.2073,0.00,0.00,0.00,5,S01
7360,-14.83687,-0.53391,-1.82199,31.8293,-42.4390,-24.6341,0.00,0.00,0.00,5,S01
7380,-11.96383,-0.47645,-2.05183,45.6098,-46.7683,-6.9512,0.00,0.00,0.00,5,S01
7400,-10.12747,-0.09816,-1.72383,50.6707,-29.2683,9.0244,0.00,0.00,0.00,5,S01
7420,-9.07402,0.60813,-1.41497,52.0732,-7.7439,14.8171,0.00,0.00,0.00,5,S01
7440,-8.02058,0.97444,-1.47243,53.3537,5.9756,13.4146,0.00,0.00,0.00,5,S01
7460,-6.97431,0.73741,-1.64242,59.9390,16.6463,11.5244,0.00,0.00,0.00,5,S01
7480,-6.63912,0.77093,-1.60412,68.1707,29.2683,10.1829,0.00,0.00,0.00,5,S01
7500,-8.02776,1.41497,-0.57221,65.4268,40.7317,6.8293,0.00,0.00,0.00,5,S01
7520,-8.60715,1.27850,-0.11732,60.8537,37.7439,3.4146,0.00,0.00,0.00,5,S01
7540,-8.60715,1.27850,-0.11732,60.8537,37.7439,3.4146,0.00,0.00,0.00,5,S01
7560,-8.76996,0.98881,0.10295,55.9146,32.1341,-0.1220,0.00,0.00,0.00,5,S01
7580,-8.61434,0.71587,0.08140,53.2317,26.4634,-2.9878,0.00,0.00,0.00,5,S01
7600,-8.70532,0.57940,0.18675,53.0488,23.0488,-3.5366,0.00,0.00,0.00,5,S01
7620,-9.13627,0.55306,0.59376,52.0732,20.9756,-3.1098,0.00,0.00,0.00,5,S01
7640,-9.30626,0.55306,0.95529,53.1707,17.6829,-4.5122,0.00,0.00,0.00,5,S01
7660,-9.03332,0.48123,0.94571,57.5610,15.1829,-7.8659,0.00,0.00,0.00,5,S01
7680,-8.96629,0.37350,0.96007,61.8293,15.5488,-12.3780,0.00,0.00,0.00,5,S01
7700,-9.41161,0.35674,1.12767,65.7317,14.4512,-15.9756,0.00,0.00,0.00,5,S01
7720,-9.84256,0.84994,0.85234,67.5610,9.3293,-16.3415,0.00,0.00,0.00,5,S01
7740,-10.05325,1.57060,0.37110,63.7195,7.1951,-12.7439,0.00,0.00,0.00,5,S01
7760,-10.01255,2.34153,0.17478,54.8781,7.9878,-5.7927,0.00,0.00,0.00,5,S01
7780,-9.90002,2.46603,0.57700,45.4268,5.7317,2.3780,0.00,0.00,0.00,5,S01
7800,-9.52174,1.52750,1.25696,41.4024,-1.1585,10.0610,0.00,0.00,0.00,5,S01
7820,-9.33978,0.53391,1.49398,47.2561,-4.0244,15.3659,0.00,0.00,0.00,5,S01
7840,-11.03248,0.38307,-0.02155,57.2561,-3.2927,18.4756,0.00,0.00,0.00,5,S01
7860,-12.83771,0.85473,-2.31040,62.5000,8.4146,27.8659,0.00,0.00,0.00,5,S01
7880,-12.76349,-0.21308,-1.80523,48.6585,11.5854,43.1098,0.00,0.00,0.00,5,S01
7900,-10.92714,-3.00233,-1.25456,47.1951,-13.9024,47.6829,0.00,0.00,0.00,5,S01
7920,-8.71489,-5.10204,-2.89938,79.8171,-23.2317,37.8049,0.00,0.00,0.00,5,S01
7940,-8.90882,-3.72777,-3.88579,113.8415,-10.4878,24.5122,0.00,0.00,0.00,5,S01
7960,-10.19930,-1.12288,-3.74214,117.8659,-2.9268,20.0000,0.00,0.00,0.00,5,S01
7980,-10.49379,0.53151,-3.11007,100.4878,-4.3293,14.1463,0.00,0.00,0.00,5,S01
8000,-9.69652,0.53151,-2.54982,82.1951,-11.7073,2.1341,0.00,0.00,0.00,5,S01
8020,-8.83221,-0.12210,-2.23379,68.8415,-18.3537,-12.0122,0.00,0.00,0.00,5,S01
8040,-8.68616,-0.50757,-1.87227,60.4878,-13.0488,-22.0732,0.00,0.00,0.00,5,S01
8060,-8.78672,-0.48123,-1.32639,55.6707,-4.6951,-25.8537,0.00,0.00,0.00,5,S01
8080,-8.44674,-0.57700,-1.45567,49.2073,1.4024,-21.3415,0.00,0.00,0.00,5,S01
8100,-8.48505,-0.35434,-1.73101,47.7439,10.5488,-19.8780,0.00,0.00,0.00,5,S01
8120,-8.81545,-0.22266,-1.49398,43.1098,13.7805,-19.1463,0.00,0.00,0.00,5,S01
8140,-8.87291,-0.22027,-1.52271,40.0000,8.8415,-17.0732,0.00,0.00,0.00,5,S01
8160,-8.76278,-0.23463,-1.31202,35.6098,5.5488,-14.5732,0.00,0.00,0.00,5,S01
8180,-8.75799,-0.31125,-1.15879,31.3415,3.7805,-11.8902,0.00,0.00,0.00,5,S01
8200,-8.85376,-0.42138,-0.99120,26.7683,3.9024,-10.0610,0.00,0.00,0.00,5,S01
8220,-8.98783,-0.49560,-0.91459,23.9024,5.4878,-9.8780,0.00,0.00,0.00,5,S01
8240,-9.35175,-0.53870,-0.66080,23.2927,5.9756,-10.7317,0.00,0.00,0.00,5,S01
8260,-9.51695,-0.57700,-0.32322,23.5366,4.3293,-9.8780,0.00,0.00,0.00,5,S01
8280,-9.21528,-0.50518,-0.06225,23.9634,1.2805,-7.0732,0.00,0.00,0.00,5,S01
8300,-8.78193,-0.33998,0.14844,24.3902,-0.9146,-4.3902,0.00,0.00,0.00,5,S01
8320,-8.73884,-0.18435,0.38786,24.8171,-1.5244,-2.2561,0.00,0.00,0.00,5,S01
8340,-8.91361,-0.16041,0.70629,25.4878,-2.1341,0.6098,0.00,0.00,0.00,5,S01
8360,-9.20810,-0.15083,1.04387,25.4268,-5.1829,3.9634,0.00,0.00,0.00,5,S01
8380,-9.05966,-0.08380,0.79966,23.9634,-11.5244,5.2439,0.00,0.00,0.00,5,S01
8400,-8.67419,0.22505,0.09337,20.7317,-13.1707,4.6341,0.00,0.00,0.00,5,S01
8420,-8.84179,0.65601,-0.40223,12.3780,-7.1341,5.9146,0.00,0.00,0.00,5,S01
8440,-9.81623,0.90022,-0.12450,0.7927,-3.1707,8.2317,0.00,0.00,0.00,5,S01
8460,-10.42675,0.72305,0.74460,-8.4756,-9.4512,9.2073,0.00,0.00,0.00,5,S01
8480,-10.71405,-0.28252,1.07978,-15.1220,-19.4512,6.2805,0.00,0.00,0.00,5,S01
8500,-11.78905,-0.89543,-0.63446,-13.1098,-16.7073,-2.0122,0.00,0.00,0.00,5,S01
8520,-12.26789,-1.33596,-1.40540,-14.6341,-4.6951,-10.1829,0.00,0.00,0.00,5,S01
8540,-11.18092,-1.57778,-2.00395,-17.0732,-5.9756,-16.2195,0.00,0.00,0.00,5,S01
8560,-9.05008,-1.63285,-2.28167,-16.2195,-11.7683,-20.2439,0.00,0.00,0.00,5,S01
8580,-7.20894,-1.48919,-1.66876,-0.6098,-13.9634,-23.1098,0.00,0.00,0.00,5,S01
8600,-8.96868,-1.55144,-0.78530,13.5976,-11.6463,-23.1098,0.00,0.00,0.00,5,S01
8620,-8.96868,-1.55144,-0.78530,13.5976,-11.6463,-23.1098,0.00,0.00,0.00,5,S01
8640,-10.44351,-1.67834,-0.97444,32.2561,-10.8537,-19.8171,0.00,0.00,0.00,5,S01
8660,-10.54646,-1.79326,-1.22104,47.6220,-11.5854,-14.8780,0.00,0.00,0.00,5,S01
8680,-9.73243,-1.55623,-1.50835,58.8415,-15.6098,-9.7561,0.00,0.00,0.00,5,S01
8700,-9.03093,-1.16119,-1.66397,66.7683,-12.3780,-4.1463,0.00,0.00,0.00,5,S01
8720,-8.98065,-0.86670,-1.45328,70.2439,-1.8902,1.5244,0.00,0.00,0.00,5,S01
8740,-9.21049,-0.53630,-1.09654,72.8659,7.2561,6.2195,0.00,0.00,0.00,5,S01
8760,-9.13867,-0.24181,-0.84515,74.3902,11.2805,9.8171,0.00,0.00,0.00,5,S01
8780,-8.91361,-0.21548,-0.54348,73.9634,13.5366,12.8049,0.00,0.00,0.00,5,S01
8800,-8.88488,-0.36152,-0.31364,75.6098,15.0610,13.5366,0.00,0.00,0.00,5,S01
8820,-8.83939,-0.37110,-0.26815,79.3902,15.1220,11.7073,0.00,0.00,0.00,5,S01
8840,-8.72447,-0.17957,-0.17957,82.0122,14.8780,9.2683,0.00,0.00,0.00,5,S01
8860,-8.67659,0.03831,-0.14126,83.3537,15.2439,6.7073,0.00,0.00,0.00,5,S01
8880,-8.70292,0.23463,-0.13168,83.0488,17.1341,3.7805,0.00,0.00,0.00,5,S01
8900,-8.82503,0.41420,-0.01915,80.4878,20.0000,0.2439,0.00,0.00,0.00,5,S01
8920,-8.86573,0.46448,-0.00479,77.4390,20.9146,-2.6829,0.00,0.00,0.00,5,S01
8940,-8.74362,0.38307,0.03831,75.0610,21.4634,-4.3293,0.00,0.00,0.00,5,S01
8960,-8.66462,0.25379,0.11971,74.7561,24.3293,-5.4878,0.00,0.00,0.00,5,S01
8980,-9.26317,0.33758,0.26576,76.8902,28.0488,-6.5854,0.00,0.00,0.00,5,S01
9000,-10.20169,0.39744,0.45490,80.4878,22.5610,-6.5244,0.00,0.00,0.00,5,S01
9020,-10.52730,0.38547,0.35434,85.3659,10.0610,-3.2317,0.00,0.00,0.00,5,S01
9040,-9.94791,0.44053,0.14844,91.2195,1.5854,1.6463,0.00,0.00,0.00,5,S01
9060,-9.23444,1.15879,-0.46448,93.4146,-2.1951,5.0610,0.00,0.00,0.00,5,S01
9080,-9.22965,2.13802,-0.93374,86.9512,-0.2439,7.7439,0.00,0.00,0.00,5,S01
9100,-9.90242,2.18351,-0.84276,71.9512,1.8902,14.1463,0.00,0.00,0.00,5,S01
9120,-11.31260,1.67594,-2.05901,64.2683,0.8537,21.6463,0.00,0.00,0.00,5,S01
9140,-12.16254,0.84755,-3.68946,61.1585,6.0976,30.8537,0.00,0.00,0.00,5,S01
9160,-11.34612,-1.07500,-2.08774,42.6829,6.2195,39.0244,0.00,0.00,0.00,5,S01
9180,-10.63504,-2.82276,-0.76136,37.8659,-11.8902,35.2439,0.00,0.00,0.00,5,S01
9200,-9.86890,-3.23457,-1.79086,61.4634,-14.2683,21.7683,0.00,0.00,0.00,5,S01
9220,-8.82503,-2.34632,-2.61686,87.1341,0.4878,11.0976,0.00,0.00,0.00,5,S01
9240,-7.97987,-1.41497,-3.15556,92.6829,5.1829,9.6341,0.00,0.00,0.00,5,S01
9260,-8.08282,-0.63207,-3.02148,85.0000,4.6341,9.8780,0.00,0.00,0.00,5,S01
9280,-9.01178,-0.70150,-2.18830,68.1707,6.4634,4.6341,0.00,0.00,0.00,5,S01
9300,-9.54568,-1.08457,-1.69270,58.9634,5.9756,0.5488,0.00,0.00,0.00,5,S01
9320,-9.78750,-1.15401,-1.60412,52.2561,2.3780,-4.4512,0.00,0.00,0.00,5,S01
9340,-9.35175,-1.29047,-1.48680,47.5000,-2.8659,-9.3293,0.00,0.00,0.00,5,S01
9360,-8.69335,-1.55623,-1.35751,46.7073,-4.2683,-13.0488,0.00,0.00,0.00,5,S01
9380,-8.53772,-1.66876,-1.47962,49.8171,0.2439,-16.7073,0.00,0.00,0.00,5,S01
9400,-8.89207,-1.31681,-1.65200,49.9390,6.2805,-18.5976,0.00,0.00,0.00,5,S01
9420,-9.28471,-0.78051,-1.60890,42.6829,10.0000,-18.1707,0.00,0.00,0.00,5,S01
9440,-9.23444,-0.55785,-1.37667,35.3049,10.9756,-16.8902,0.00,0.00,0.00,5,S01
9460,-9.13627,-0.70150,-1.07739,33.7805,9.8171,-16.5244,0.00,0.00,0.00,5,S01
9480,-9.19373,-0.92416,-0.99359,36.5244,8.4146,-15.9146,0.00,0.00,0.00,5,S01
9500,-9.33739,-1.07021,-0.90501,37.3780,7.1341,-13.8415,0.00,0.00,0.00,5,S01
9520,-9.37809,-1.07739,-0.85473,36.4024,4.8171,-10.8537,0.00,0.00,0.00,5,S01
9540,-9.13627,-1.07500,-0.84036,35.4878,2.1341,-8.1707,0.00,0.00,0.00,5,S01
9560,-9.01656,-1.12767,-0.79727,36.7073,1.9512,-6.2195,0.00,0.00,0.00,5,S01
9580,-9.10275,-1.25696,-0.70150,38.4146,2.7439,-3.9634,0.00,0.00,0.00,5,S01
9600,-9.12909,-1.15640,-0.55785,40.0000,2.6220,-0.7927,0.00,0.00,0.00,5,S01
9620,-8.95910,-1.02472,-0.25857,40.3049,1.6463,2.9268,0.00,0.00,0.00,5,S01
9640,-8.97826,-1.04866,-0.09816,43.7195,1.4024,9.2073,0.00,0.00,0.00,5,S01
9660,-8.97826,-1.04866,-0.09816,43.7195,1.4024,9.2073,0.00,0.00,0.00,5,S01
9680,-9.22965,-1.34315,-0.05267,44.7561,0.1220,12.3780,0.00,0.00,0.00,5,S01
9700,-9.27274,-1.57299,-0.12450,47.1341,-1.6463,14.7561,0.00,0.00,0.00,5,S01
9720,-9.19613,-1.46765,-0.04549,48.3537,-2.5000,15.8537,0.00,0.00,0.00,5,S01
9740,-9.31344,-1.05345,-0.08859,48.5976,-2.9878,15.7317,0.00,0.00,0.00,5,S01
9760,-9.50259,-0.58419,-0.13647,46.9512,-4.0244,14.7561,0.00,0.00,0.00,5,S01
9780,-9.79228,-0.07661,-0.02394,42.7439,-7.7439,13.7805,0.00,0.00,0.00,5,S01
9800,-9.96706,0.17717,0.07661,34.6951,-14.0244,12.4390,0.00,0.00,0.00,5,S01
9820,-10.05804,-0.00239,-0.07422,25.4268,-18.3537,9.3293,0.00,0.00,0.00,5,S01
9840,-10.56561,-0.40223,-0.71108,16.8293,-19.8780,3.4756,0.00,0.00,0.00,5,S01
9860,-10.76672,-1.16837,-0.98402,10.2439,-19.8171,-4.1463,0.00,0.00,0.00,5,S01
9880,-10.48660,-1.87227,-1.03430,11.1585,-23.5976,-11.0366,0.00,0.00,0.00,5,S01
9900,-9.72525,-1.71185,-1.14203,15.3049,-28.4146,-15.2439,0.00,0.00,0.00,5,S01
9920,-8.78911,-1.31921,-1.37188,17.1341,-28.7805,-15.6707,0.00,0.00,0.00,5,S01
9940,-8.20493,-0.93374,-1.52271,17.7439,-23.7805,-13.1707,0.00,0.00,0.00,5,S01
9960,-8.07804,-0.67277,-1.72622,17.5610,-17.8659,-10.3659,0.00,0.00,0.00,5,S01
9980,-8.56406,-0.61052,-1.71904,19.6951,-12.1951,-8.4146,0.00,0.00,0.00,5,S01
10000,-9.67257,-0.57940,-1.27372,25.8537,-10.0610,-8.2927,0.00,0.00,0.00,5,S01
10020,-10.34535,-0.44532,-1.28090,33.7195,-15.4878,-9.1463,0.00,0.00,0.00,5,S01
10040,-10.24239,-0.22027,-1.49877,40.0610,-21.9512,-8.3537,0.00,0.00,0.00,5,S01
10060,-9.85932,-0.64165,-1.32160,46.6463,-21.4024,-4.4512,0.00,0.00,0.00,5,S01
10080,-9.52174,-0.90740,-1.61130,57.6220,-16.0976,-1.7683,0.00,0.00,0.00,5,S01
10100,-9.22725,-1.06063,-1.69031,63.5976,-9.1463,2.8049,0.00,0.00,0.00,5,S01
10120,-9.35654,-0.72544,-1.59454,66.7683,0.1220,9.2073,0.00,0.00,0.00,5,S01
10140,-9.35893,-0.41659,-1.31442,65.7317,4.6951,16.5854,0.00,0.00,0.00,5,S01
10160,-9.20092,0.12929,-1.15879,65.0610,3.4146,18.6585,0.00,0.00,0.00,5,S01
10180,-8.84658,0.42377,-0.82600,62.3171,3.7805,17.4390,0.00,0.00,0.00,5,S01
10200,-8.70532,0.56982,-0.57940,59.5732,5.0000,14.2073,0.00,0.00,0.00,5,S01
10220,-8.74602,0.43814,-0.43814,56.2195,6.3415,10.5488,0.00,0.00,0.00,5,S01
10240,-8.79151,0.33279,-0.30406,54.3902,10.4268,7.3780,0.00,0.00,0.00,5,S01
10260,-8.82503,0.28012,-0.35434,53.6585,14.0244,4.8171,0.00,0.00,0.00,5,S01
10280,-8.89925,0.27294,-0.42377,52.8659,16.7683,2.7439,0.00,0.00,0.00,5,S01
10300,-9.26317,0.25139,-0.35434,52.0732,18.9634,1.1585,0.00,0.00,0.00,5,S01
10320,-9.60075,0.29688,-0.26097,51.5854,19.0854,1.0976,0.00,0.00,0.00,5,S01
10340,-9.80186,0.55306,-0.11492,50.8537,16.4634,1.7073,0.00,0.00,0.00,5,S01
10360,-9.76595,0.74939,0.07183,49.0244,11.4634,2.0122,0.00,0.00,0.00,5,S01
10380,-9.56723,0.82839,0.20830,46.8902,6.5854,1.7683,0.00,0.00,0.00,5,S01
10400,-9.28950,0.86431,0.33758,44.2683,3.7195,1.2805,0.00,0.00,0.00,5,S01
10420,-9.06445,0.88585,0.41420,41.3415,2.7439,0.4878,0.00,0.00,0.00,5,S01
10440,-8.88728,0.95289,0.52433,38.5366,4.1463,-0.3049,0.00,0.00,0.00,5,S01
10460,-8.89925,0.95050,0.67277,36.7683,6.2805,-1.7073,0.00,0.00,0.00,5,S01
10480,-9.22965,1.05345,1.03669,35.3049,4.6951,-5.4878,0.00,0.00,0.00,5,S01
10500,-9.19613,1.33836,0.73502,34.6341,2.7439,-5.6707,0.00,0.00,0.00,5,S01
10520,-9.30387,1.90818,0.12689,30.4268,3.5366,-4.1463,0.00,0.00,0.00,5,S01
10540,-9.67736,1.90100,0.24181,22.4390,3.5366,-1.5854,0.00,0.00,0.00,5,S01
10560,-10.01495,1.08697,1.09894,19.0854,-0.4878,1.8293,0.00,0.00,0.00,5,S01
10580,-9.94551,0.03591,1.51792,25.7927,-6.1585,6.0366,0.00,0.00,0.00,5,S01
10600,-9.92157,-0.98641,1.00796,38.1098,-8.9024,10.0000,0.00,0.00,0.00,5,S01
10620,-10.19691,-0.71826,-0.56503,54.0244,-4.0854,14.5122,0.00,0.00,0.00,5,S01
10640,-11.13543,0.38307,-1.52989,56.9512,2.0122,24.2073,0.00,0.00,0.00,5,S01
10660,-10.52252,0.40462,-1.18513,44.5732,0.8537,41.0366,0.00,0.00,0.00,5,S01
10680,-9.32542,-0.46448,-0.78530,39.5122,-2.3171,47.4390,0.00,0.00,0.00,5,S01
10700,-9.24880,-0.30167,-2.32477,59.6951,2.1951,21.7683,0.00,0.00,0.00,5,S01
10720,-9.24880,-0.30167,-2.32477,59.6951,2.1951,21.7683,0.00,0.00,0.00,5,S01
10740,-9.08839,0.43814,-3.08134,60.2439,4.3902,9.8780,0.00,0.00,0.00,5,S01
10760,-8.83939,1.08457,-3.34231,51.2195,4.6341,4.3293,0.00,0.00,0.00,5,S01
10780,-8.71250,1.12049,-2.84910,35.1220,4.2073,4.3293,0.00,0.00,0.00,5,S01
10800,-8.98544,0.28970,-1.95606,22.6220,2.9268,4.4512,0.00,0.00,0.00,5,S01
10820,-9.55765,-0.46208,-1.29047,20.7927,1.5244,1.7683,0.00,0.00,0.00,5,S01
10840,-9.87129,-0.79248,-1.21386,22.0732,-1.7073,-1.7683,0.00,0.00,0.00,5,S01
10860,-9.87848,-0.52672,-1.36469,21.7683,-5.9756,-4.7561,0.00,0.00,0.00,5,S01
10880,-9.59117,-0.22027,-1.47722,20.6707,-9.8171,-7.8049,0.00,0.00,0.00,5,S01
10900,-9.13627,-0.26576,-1.46765,21.2805,-10.2439,-11.5854,0.00,0.00,0.00,5,S01
10920,-9.09318,-0.41420,-1.11091,22.0732,-7.1951,-15.6707,0.00,0.00,0.00,5,S01
10940,-9.28232,-0.54109,-0.88346,21.4634,-4.5732,-19.5122,0.00,0.00,0.00,5,S01
10960,-9.23444,-0.30646,-0.90980,20.8537,-1.7073,-22.9878,0.00,0.00,0.00,5,S01
10980,-9.13148,-0.06464,-0.98402,19.3293,0.4268,-24.4512,0.00,0.00,0.00,5,S01
11000,-9.09318,-0.01197,-0.78290,16.8293,2.0122,-24.0854,0.00,0.00,0.00,5,S01
11020,-9.00459,-0.13886,-0.72065,15.7927,2.3171,-23.1707,0.00,0.00,0.00,5,S01
11040,-9.04051,-0.26336,-0.64643,14.8171,2.3780,-22.4390,0.00,0.00,0.00,5,S01
11060,-9.17458,-0.40941,-0.53391,13.1707,2.9878,-21.0366,0.00,0.00,0.00,5,S01
11080,-9.30626,-0.50039,-0.36152,11.6463,3.5976,-18.8415,0.00,0.00,0.00,5,S01
11100,-9.27753,-0.58658,-0.12929,11.0366,2.4390,-16.2805,0.00,0.00,0.00,5,S01
11120,-9.16261,-0.68235,0.02873,11.9512,0.7317,-13.7195,0.00,0.00,0.00,5,S01
11140,-9.04051,-0.79487,0.16281,13.7195,0.0000,-10.7927,0.00,0.00,0.00,5,S01
11160,-8.98304,-0.85473,0.28012,15.5488,-0.1829,-7.7439,0.00,0.00,0.00,5,S01
11180,-9.00938,-0.87149,0.41180,17.1341,0.0000,-4.8171,0.00,0.00,0.00,5,S01
11200,-9.06684,-0.82121,0.53630,18.4146,0.6707,-1.8293,0.00,0.00,0.00,5,S01
11220,-9.01896,-0.99120,0.69671,19.8171,1.0366,0.9756,0.00,0.00,0.00,5,S01
11240,-8.96150,-1.16119,0.49321,23.5976,1.5854,2.8659,0.00,0.00,0.00,5,S01
11260,-9.05487,-0.89543,0.35434,25.9146,3.2317,4.0244,0.00,0.00,0.00,5,S01
11280,-9.15064,-0.51715,0.19872,23.6585,3.5366,5.5488,0.00,0.00,0.00,5,S01
11300,-9.23444,-0.42617,-0.02634,22.2561,3.5366,5.7317,0.00,0.00,0.00,5,S01
11320,-9.76355,-0.09098,0.25139,22.3171,1.0976,3.7195,0.00,0.00,0.00,5,S01
11340,-9.99579,0.57461,0.69432,16.2805,-6.2195,0.9756,0.00,0.00,0.00,5,S01
11360,-9.68455,1.20907,1.04148,3.4146,-12.6829,-1.5244,0.00,0.00,0.00,5,S01
11380,-9.61751,0.88346,0.97923,-12.3780,-15.5488,-4.2073,0.00,0.00,0.00,5,S01
11400,-10.28788,-0.20351,-0.39025,-22.1341,-13.4146,-10.0000,0.00,0.00,0.00,5,S01
11420,-11.22641,-1.41737,-1.52750,-25.6098,-3.7805,-21.3415,0.00,0.00,0.00,5,S01
11440,-11.54484,-1.58257,-1.97282,-22.3171,-0.4878,-35.8537,0.00,0.00,0.00,5,S01
11460,-10.77870,-1.10373,-2.03747,-16.0976,-12.0122,-41.6463,0.00,0.00,0.00,5,S01
11480,-9.64624,-0.70629,-2.22182,-15.5488,-28.5366,-34.4512,0.00,0.00,0.00,5,S01
11500,-8.62152,-0.69671,-2.33195,-17.5610,-29.8780,-21.7683,0.00,0.00,0.00,5,S01
11520,-8.26000,-0.78530,-2.20267,-18.9024,-17.9878,-12.9268,0.00,0.00,0.00,5,S01
11540,-8.34619,-1.06542,-2.05183,-15.7927,-10.3049,-7.9268,0.00,0.00,0.00,5,S01
11560,-8.82024,-1.37427,-1.63763,-6.2805,-12.0732,-5.8537,0.00,0.00,0.00,5,S01
11580,-9.39485,-1.26414,-1.26653,8.1707,-17.1341,-4.6951,0.00,0.00,0.00,5,S01
11600,-9.74919,-0.83318,-1.19710,24.1463,-17.8659,-2.8659,0.00,0.00,0.00,5,S01
11620,-9.96706,-0.51715,-1.12049,34.8780,-15.4268,-0.4268,0.00,0.00,0.00,5,S01
11640,-9.85932,-0.33758,-1.20907,42.4390,-12.1951,3.1098,0.00,0.00,0.00,5,S01
11660,-9.50259,-0.03831,-1.30005,46.7683,-6.8902,7.5610,0.00,0.00,0.00,5,S01
11680,-9.23922,0.65601,-0.95050,39.8171,2.8049,14.8171,0.00,0.00,0.00,5,S01
11700,-9.16261,0.81163,-0.72784,33.5976,2.9268,16.5244,0.00,0.00,0.00,5,S01
11720,-9.03332,0.74460,-0.50518,28.2927,1.8293,16.6463,0.00,0.00,0.00,5,S01
11740,-9.01178,0.54109,-0.37110,25.4878,1.4024,15.1829,0.00,0.00,0.00,5,S01
11760,-9.13388,0.37589,-0.33998,20.3049,0.6707,11.2805,0.00,0.00,0.00,5,S01
11780,-9.13388,0.37589,-0.33998,20.3049,0.6707,11.2805,0.00,0.00,0.00,5,S01
11800,-9.21289,0.43335,-0.34237,17.8049,-0.1220,9.3293,0.00,0.00,0.00,5,S01
11820,-9.17698,0.51715,-0.40223,15.8537,-0.4268,7.9268,0.00,0.00,0.00,5,S01
11840,-9.20571,0.56024,-0.27294,13.4146,0.9146,7.0732,0.00,0.00,0.00,5,S01
11860,-9.29429,0.60573,-0.11253,11.1585,2.1951,6.2805,0.00,0.00,0.00,5,S01
11880,-9.23922,0.66080,0.01197,8.9634,3.7805,5.9756,0.00,0.00,0.00,5,S01
11900,-9.19852,0.63207,0.28730,6.8902,6.3415,6.3415,0.00,0.00,0.00,5,S01
11920,-8.99741,0.60813,0.15562,5.7927,9.8780,6.6463,0.00,0.00,0.00,5,S01
11940,-8.54969,0.91698,-0.45969,3.6585,17.2561,6.5854,0.00,0.00,0.00,5,S01
11960,-8.80348,1.52750,-0.29688,-5.1220,26.5244,6.4024,0.00,0.00,0.00,5,S01
11980,-9.33978,1.44131,0.01197,-15.4878,27.6220,6.7683,0.00,0.00,0.00,5,S01
12000,-9.44752,0.87867,-0.19154,-18.1707,26.3415,5.9756,0.00,0.00,0.00,5,S01
12020,-9.46907,0.27533,-0.11253,-17.2561,25.7317,4.2683,0.00,0.00,0.00,5,S01
12040,-9.71328,0.04788,0.16759,-14.6341,20.3049,2.8659,0.00,0.00,0.00,5,S01
12060,-9.71328,0.19393,0.27294,-10.2439,12.0122,3.1707,0.00,0.00,0.00,5,S01
12080,-9.45949,0.51954,0.52912,-5.6098,6.4024,3.5366,0.00,0.00,0.00,5,S01
12100,-9.16500,0.79727,0.67516,-1.4634,4.0244,3.1098,0.00,0.00,0.00,5,S01
12120,-9.05727,0.77572,0.83318,0.0610,3.5366,2.3780,0.00,0.00,0.00,5,S01
12140,-9.05727,0.66080,1.00556,0.6707,2.0732,1.0366,0.00,0.00,0.00,5,S01
12160,-8.94474,0.65362,1.17316,1.1585,0.4268,-0.2439,0.00,0.00,0.00,5,S01
12180,-8.80109,0.68235,1.31681,1.8293,-0.1220,-0.9146,0.00,0.00,0.00,5,S01
12200,-8.76517,0.67995,1.39582,3.5976,0.7317,-1.6463,0.00,0.00,0.00,5,S01
12220,-8.74362,0.78769,1.27132,6.5244,1.2195,-2.8049,0.00,0.00,0.00,5,S01
12240,-8.76757,0.83797,1.37427,8.8415,1.1585,-3.9024,0.00,0.00,0.00,5,S01
12260,-9.17458,0.69911,1.71664,11.4024,-0.6707,-4.6341,0.00,0.00,0.00,5,S01
12280,-9.56962,0.80445,1.55623,15.3049,-4.2073,-4.3293,0.00,0.00,0.00,5,S01
12300,-10.63983,1.41497,0.39983,17.5610,-6.2195,-1.5854,0.00,0.00,0.00,5,S01
12320,-11.91115,2.04944,-1.78607,15.5488,-0.5488,7.8049,0.00,0.00,0.00,5,S01
12340,-12.07396,2.62165,-2.91853,2.0732,7.1951,25.4268,0.00,0.00,0.00,5,S01
12360,-11.05882,1.84593,-2.37984,-19.6951,3.3537,41.8293,0.00,0.00,0.00,5,S01
12380,-9.88566,0.13408,-1.69270,-28.9024,-3.6585,44.6951,0.00,0.00,0.00,5,S01
12400,-9.10275,-1.14443,-1.78847,-14.6951,-4.0244,30.7927,0.00,0.00,0.00,5,S01
12420,-8.83460,-0.65601,-2.29843,5.7927,-0.1829,10.3049,0.00,0.00,0.00,5,S01
12440,-8.84897,0.84515,-2.52349,10.4878,2.5610,-3.4146,0.00,0.00,0.00,5,S01
12460,-9.00938,1.92494,-2.32477,-4.8171,3.2317,-5.9756,0.00,0.00,0.00,5,S01
12480,-9.16500,1.82678,-1.90578,-24.6951,4.2683,-3.5976,0.00,0.00,0.00,5,S01
12500,-9.48104,1.29287,-1.66158,-37.9268,3.5366,-5.7927,0.00,0.00,0.00,5,S01
12520,-9.66300,0.65601,-1.62566,-43.7195,0.5488,-12.8659,0.00,0.00,0.00,5,S01
12540,-9.56723,0.16759,-1.62087,-46.2805,-3.4146,-19.9390,0.00,0.00,0.00,5,S01
12560,-9.37330,-0.11732,-1.50835,-49.1463,-7.6829,-23.3537,0.00,0.00,0.00,5,S01
12580,-9.16261,-0.26815,-1.32639,-50.7317,-8.0488,-22.3171,0.00,0.00,0.00,5,S01
12600,-8.89685,-0.19872,-1.00796,-50.1829,-5.9756,-19.8171,0.00,0.00,0.00,5,S01
12620,-8.86573,-0.00718,-0.77093,-49.7561,-6.0366,-16.4024,0.00,0.00,0.00,5,S01
12640,-9.01178,0.19154,-0.62010,-50.8537,-5.0610,-11.8293,0.00,0.00,0.00,5,S01
12660,-9.07163,0.32561,-0.63207,-51.8902,-4.5732,-8.7195,0.00,0.00,0.00,5,S01
12680,-8.93756,0.25139,-0.65362,-51.7073,-4.2683,-7.8659,0.00,0.00,0.00,5,S01
12700,-8.89685,0.33519,-0.78530,-50.5488,-1.8293,-8.2927,0.00,0.00,0.00,5,S01
12720,-9.04290,0.39983,-0.79487,-51.4634,1.4634,-9.5122,0.00,0.00,0.00,5,S01
12740,-9.23444,0.24900,-0.58658,-52.4390,4.4512,-9.8171,0.00,0.00,0.00,5,S01
12760,-9.40203,0.08619,-0.34955,-50.6707,5.2439,-9.1463,0.00,0.00,0.00,5,S01
12780,-9.36372,-0.06704,-0.10774,-48.0488,3.4146,-7.8659,0.00,0.00,0.00,5,S01
12800,-9.08839,-0.16759,-0.02394,-44.0244,2.0732,-7.4390,0.00,0.00,0.00,5,S01
12820,-8.94234,-0.08140,0.04310,-39.7561,3.6585,-8.9024,0.00,0.00,0.00,5,S01
12840,-9.22486,0.04788,0.42856,-33.4756,4.2073,-11.7073,0.00,0.00,0.00,5,S01
12860,-9.16261,0.06704,0.50278,-32.3780,0.4878,-11.5244,0.00,0.00,0.00,5,S01
12880,-9.16261,0.06704,0.50278,-32.3780,0.4878,-11.5244,0.00,0.00,0.00,5,S01
12900,-8.65983,0.12450,0.51236,-30.9756,-3.0488,-10.6707,0.00,0.00,0.00,5,S01
12920,-8.21929,-0.09577,0.46926,-31.1585,-3.0488,-10.9756,0.00,0.00,0.00,5,S01
12940,-7.54892,-0.31125,0.05986,-31.0976,-3.0488,-12.3780,0.00,0.00,0.00,5,S01
12960,-6.72052,-0.54348,-0.30646,-33.4756,1.2805,-14.5122,0.00,0.00,0.00,5,S01
12980,-5.81073,-0.90261,-0.84276,-33.9634,11.5854,-15.7927,0.00,0.00,0.00,5,S01
13000,-5.24570,-1.64482,-1.08936,-28.4756,24.8780,-16.2805,0.00,0.00,0.00,5,S01
13020,-6.09324,-2.07338,-0.02873,-17.5000,31.8902,-14.9390,0.00,0.00,0.00,5,S01
13040,-6.90488,-1.58257,0.36152,-10.5488,23.9024,-8.6585,0.00,0.00,0.00,5,S01
13060,-6.65828,-1.00796,0.49081,-7.0122,13.9634,-0.6707,0.00,0.00,0.00,5,S01
13080,-6.40210,-0.40223,0.47405,1.0976,4.2073,3.0488,0.00,0.00,0.00,5,S01
13100,-7.19458,-0.02394,0.74220,7.7439,-2.8659,5.4268,0.00,0.00,0.00,5,S01
13120,-8.09480,-0.08619,0.44532,10.0610,-4.1463,11.4634,0.00,0.00,0.00,5,S01
13140,-7.61117,-0.56264,-0.05746,8.6585,-3.7805,16.9512,0.00,0.00,0.00,5,S01
13160,-6.52659,-1.76932,-0.66080,5.3659,-7.5000,14.9390,0.00,0.00,0.00,5,S01
13180,-6.60321,-2.01352,-2.67911,18.2317,-2.6220,2.2561,0.00,0.00,0.00,5,S01
13200,-7.87214,0.41180,-1.12288,21.4024,12.6829,-13.2927,0.00,0.00,0.00,5,S01
13220,-12.73476,-0.18675,1.58975,1.5854,-4.6951,-12.5000,0.00,0.00,0.00,5,S01
13240,-20.37705,-2.12605,-4.88178,27.3780,-24.4512,-13.7195,0.00,0.00,0.00,5,S01
13260,-20.67393,1.14203,-2.75094,57.9268,30.9756,-45.8537,0.00,0.00,0.00,5,S01
13280,-16.93658,4.51307,-2.92571,58.7195,15.3659,-30.7317,0.00,0.00,0.00,5,S01
13300,-13.94144,3.08134,-1.70228,26.4024,-31.1585,24.6951,0.00,0.00,0.00,5,S01
13320,-14.81053,1.20907,0.31843,-32.6220,-65.5488,49.0244,0.00,0.00,0.00,5,S01
13340,-15.62217,0.29688,0.31364,-37.4390,-38.1098,33.6585,0.00,0.00,0.00,5,S01
13360,-13.78581,1.14203,-0.09816,-18.4756,-17.6829,9.8780,0.00,0.00,0.00,5,S01
13380,-9.72525,1.59214,-0.63925,-0.3659,-19.6951,9.4512,0.00,0.00,0.00,5,S01
13400,-6.39731,0.06943,-1.41737,12.1951,-6.9512,22.8049,0.00,0.00,0.00,5,S01
13420,-5.71975,-1.08697,-1.24498,18.6585,24.1463,24.5122,0.00,0.00,0.00,5,S01
13440,-6.38055,-1.27132,-0.84994,20.6098,47.0122,14.8780,0.00,0.00,0.00,5,S01
13460,-6.56490,-0.88585,-0.67277,25.0000,52.7439,6.6463,0.00,0.00,0.00,5,S01
13480,-6.34224,0.09098,-0.80924,29.0854,45.6098,3.1707,0.00,0.00,0.00,5,S01
13500,-6.15549,0.77572,-0.83558,31.2195,36.0976,1.1585,0.00,0.00,0.00,5,S01
13520,-6.38294,0.90261,-0.71347,32.5000,29.0244,-4.4512,0.00,0.00,0.00,5,S01
13540,-6.71334,0.85234,-0.28491,33.2317,22.8049,-13.4146,0.00,0.00,0.00,5,S01
13560,-6.39731,0.78769,-0.03352,33.9024,12.0732,-18.5366,0.00,0.00,0.00,5,S01
13580,-6.14352,0.57940,0.04070,34.8171,1.8902,-18.9024,0.00,0.00,0.00,5,S01
13600,-6.46434,0.70150,-0.31125,32.6829,-2.7439,-21.7683,0.00,0.00,0.00,5,S01
13620,-6.06691,1.48680,-0.44532,31.5244,1.5244,-24.7561,0.00,0.00,0.00,5,S01
13640,-5.47315,1.78847,-0.77812,28.5366,9.6341,-18.9024,0.00,0.00,0.00,5,S01
13660,-6.02621,1.90339,-0.59616,19.8780,20.1220,-7.1341,0.00,0.00,0.00,5,S01
13680,-7.26640,2.45645,-0.11492,1.7683,18.8415,3.1707,0.00,0.00,0.00,5,S01
13700,-7.84101,2.54743,-0.11732,-15.9756,5.9146,8.6585,0.00,0.00,0.00,5,S01
13720,-7.34541,1.67834,-0.34237,-17.2561,-5.8537,7.3171,0.00,0.00,0.00,5,S01
13740,-7.45554,1.57778,-0.83558,-4.7561,-14.4512,2.5610,0.00,0.00,0.00,5,S01
13760,-8.56885,1.21386,-2.48279,2.7439,-21.8902,4.1463,0.00,0.00,0.00,5,S01
13780,-11.02290,-0.54109,-1.90578,4.5732,-23.2317,10.1829,0.00,0.00,0.00,5,S01
13800,-17.14248,-1.50595,-7.04135,18.5366,-45.3049,13.2927,0.00,0.00,0.00,5,S01
13820,-18.23664,-2.54264,-1.59214,-2.5000,-44.7561,25.9146,0.00,0.00,0.00,5,S01
13840,-14.36760,-3.49553,-0.35674,-50.4878,-78.1707,34.5732,0.00,0.00,0.00,5,S01
13860,-12.79940,-1.03190,-0.95050,-35.9146,-69.5732,20.5488,0.00,0.00,0.00,5,S01
13880,-16.76420,-0.12929,-0.07183,-34.8780,-11.7683,-20.2439,0.00,0.00,0.00,5,S01
13900,-16.76420,-0.12929,-0.07183,-34.8780,-11.7683,-20.2439,0.00,0.00,0.00,5,S01
13920,-13.80736,-1.56581,-0.21308,-41.2805,-24.5122,-27.5000,0.00,0.00,0.00,5,S01
13940,-11.42752,-2.53785,0.10295,-42.7439,-39.6341,-32.0122,0.00,0.00,0.00,5,S01
13960,-10.66377,-2.28167,-0.36871,-36.2195,-26.0366,-28.5976,0.00,0.00,0.00,5,S01
13980,-10.36689,-1.30963,-0.38307,-28.5366,8.8415,-18.9024,0.00,0.00,0.00,5,S01
14000,-9.49301,-0.76854,-0.42617,-23.0488,22.1951,-12.0732,0.00,0.00,0.00,5,S01
14020,-8.19775,-0.61531,-0.53870,-20.6707,18.2927,-9.0244,0.00,0.00,0.00,5,S01
14040,-7.17542,-0.81882,-0.67756,-17.6829,17.1951,-8.7195,0.00,0.00,0.00,5,S01
14060,-6.99825,-0.96007,-0.43814,-13.8415,22.5000,-9.5122,0.00,0.00,0.00,5,S01
14080,-7.17303,-0.86191,-0.28730,-11.0976,22.1341,-8.5366,0.00,0.00,0.00,5,S01
14100,-5.87537,-0.88825,-0.39744,-10.0610,2.7439,-2.5610,0.00,0.00,0.00,5,S01
14120,-5.28161,-1.11809,-0.41899,-5.1220,1.3415,-1.3415,0.00,0.00,0.00,5,S01
14140,-6.08367,-0.98881,-0.55545,4.6341,8.1098,2.0732,0.00,0.00,0.00,5,S01
14160,-7.08205,-1.16598,-0.33758,11.8902,11.8293,10.1829,0.00,0.00,0.00,5,S01
14180,-7.22331,-1.42694,-0.05267,17.8659,8.2927,16.3415,0.00,0.00,0.00,5,S01
14200,-7.11557,-1.60890,0.22027,30.0610,6.0976,16.6463,0.00,0.00,0.00,5,S01
14220,-6.45716,-1.89621,0.32322,43.8415,7.6829,13.3537,0.00,0.00,0.00,5,S01
14240,-6.46195,-1.53947,0.25857,59.6341,12.5000,8.9634,0.00,0.00,0.00,5,S01
14260,-7.90565,-0.18675,-1.09654,67.9878,16.4024,8.1098,0.00,0.00,0.00,5,S01
14280,-8.62870,0.80924,-1.52511,60.4878,25.6098,15.7317,0.00,0.00,0.00,5,S01
14300,-8.71011,-0.20590,0.70390,47.5610,25.8537,23.6585,0.00,0.00,0.00,5,S01
14320,-9.15782,-1.55144,1.75974,47.6829,4.5732,20.5488,0.00,0.00,0.00,5,S01
14340,-9.00459,-1.51314,0.69671,57.8659,-8.7805,8.9634,0.00,0.00,0.00,5,S01
14360,-8.52096,-0.14844,0.41899,60.7317,-5.1829,-2.0122,0.00,0.00,0.00,5,S01
14380,-9.28711,0.49560,1.42694,56.4634,-15.6707,-7.9268,0.00,0.00,0.00,5,S01
14400,-10.37168,-0.45490,0.95768,55.9756,-34.8171,-8.0488,0.00,0.00,0.00,5,S01
14420,-11.13783,-0.74699,-0.97683,57.2561,-23.4146,-9.0854,0.00,0.00,0.00,5,S01
14440,-11.83693,0.18196,-2.41096,52.0122,-3.8415,-13.2317,0.00,0.00,0.00,5,S01
14460,-12.55041,1.17316,-2.95684,44.8780,-4.7561,-18.7805,0.00,0.00,0.00,5,S01
14480,-13.53203,0.82361,-2.17872,30.1220,-21.3415,-19.8780,0.00,0.00,0.00,5,S01
14500,-14.24071,-0.82361,-1.45807,22.5610,-38.2927,-15.3049,0.00,0.00,0.00,5,S01
14520,-13.99171,-1.38624,-0.39265,28.8415,-41.8293,-12.9268,0.00,0.00,0.00,5,S01
14540,-13.28303,-0.27054,-0.44532,34.0854,-41.8902,-7.1341,0.00,0.00,0.00,5,S01
14560,-12.71321,0.92416,-0.49081,33.5366,-33.5366,1.4024,0.00,0.00,0.00,5,S01
14580,-11.97580,1.41018,-0.35913,27.7439,-26.2805,6.3415,0.00,0.00,0.00,5,S01
14600,-10.67096,1.02951,-0.34955,23.4146,-20.7927,11.2195,0.00,0.00,0.00,5,S01
14620,-9.64145,0.40223,-0.50757,22.9268,-11.7073,15.0000,0.00,0.00,0.00,5,S01
14640,-9.20092,0.71587,-0.43096,24.3293,-0.7927,14.8171,0.00,0.00,0.00,5,S01
14660,-8.66222,1.16119,-0.57940,21.4024,6.7073,14.6341,0.00,0.00,0.00,5,S01
14680,-8.16183,1.35272,-0.56264,15.7317,12.7439,13.1098,0.00,0.00,0.00,5,S01
14700,-7.94636,1.08457,-0.34237,8.9024,15.6707,9.0244,0.00,0.00,0.00,5,S01
14720,-7.79791,0.66559,-0.22745,5.0610,16.7073,4.2073,0.00,0.00,0.00,5,S01
14740,-7.91044,0.59855,-0.14126,3.0488,19.5122,0.1829,0.00,0.00,0.00,5,S01
14760,-8.36534,0.82121,0.22266,-0.6098,21.7073,-3.2927,0.00,0.00,0.00,5,S01
14780,-8.76757,0.80924,0.37110,-3.5976,20.9756,-6.8902,0.00,0.00,0.00,5,S01
14800,-8.77236,0.51954,0.27533,-4.3902,19.6951,-11.0366,0.00,0.00,0.00,5,S01
14820,-8.72926,0.44053,0.14605,-3.7195,17.7439,-15.3659,0.00,0.00,0.00,5,S01
14840,-9.01417,0.47166,0.14365,-4.2683,13.7805,-16.7683,0.00,0.00,0.00,5,S01
14860,-9.02614,0.46687,0.08140,-3.5366,10.1829,-14.0244,0.00,0.00,0.00,5,S01
14880,-8.34140,0.67038,-0.01197,-1.4634,6.7073,-9.3902,0.00,0.00,0.00,5,S01
14900,-7.73088,0.84755,0.06464,-2.0122,2.1951,-5.2439,0.00,0.00,0.00,5,S01
14920,-7.57047,0.97205,0.25857,-4.0854,-0.3659,-4.0854,0.00,0.00,0.00,5,S01
14940,-6.34703,1.26653,-0.34477,-5.4268,6.3415,-6.7073,0.00,0.00,0.00,5,S01
14960,-6.60321,1.75256,0.15562,-13.9634,7.7439,-4.3902,0.00,0.00,0.00,5,S01
14980,-6.60321,1.75256,0.15562,-13.9634,7.7439,-4.3902,0.00,0.00,0.00,5,S01
15000,-7.48667,1.88663,0.73502,-27.8049,0.6707,-0.6098,0.00,0.00,0.00,5,S01
15020,-8.06846,1.34315,0.30167,-35.9756,-2.5610,-3.5366,0.00,0.00,0.00,5,S01
15040,-7.67342,1.11330,-0.22266,-35.7927,3.9634,-15.3659,0.00,0.00,0.00,5,S01
15060,-7.92002,1.33596,0.67038,-41.4024,5.1829,-21.0366,0.00,0.00,0.00,5,S01
15080,-8.65265,1.18992,1.27132,-53.7805,-8.6585,-15.3659,0.00,0.00,0.00,5,S01
15100,-8.59758,0.74939,0.73981,-56.3415,-13.6585,-10.8537,0.00,0.00,0.00,5,S01
15120,-8.15226,0.55545,0.92895,-54.5122,-10.1220,-11.7073,0.00,0.00,0.00,5,S01
15140,-8.18578,0.85234,1.15401,-51.9512,-13.7805,-10.9146,0.00,0.00,0.00,5,S01
15160,-9.74201,1.52750,0.71347,-52.9878,-18.8415,-2.9268,0.00,0.00,0.00,5,S01
15180,-11.21205,0.24421,-0.49081,-48.4756,-17.9878,9.6341,0.00,0.00,0.00,5,S01
15200,-12.10269,-1.78847,-1.41737,-33.6585,-14.0854,16.0366,0.00,0.00,0.00,5,S01
15220,-14.35803,-3.88340,-1.54905,-19.5122,-22.1341,16.2805,0.00,0.00,0.00,5,S01
15240,-15.64132,-3.39258,-2.38702,0.5488,-33.2927,18.7805,0.00,0.00,0.00,5,S01
15260,-13.81933,-2.21942,0.45250,-6.9512,-35.0610,24.1463,0.00,0.00,0.00,5,S01
15280,-12.36845,-0.03112,-0.29688,-6.8902,-46.7073,17.8659,0.00,0.00,0.00,5,S01
15300,-14.00129,-0.29688,0.78290,-3.6585,-31.7073,3.1098,0.00,0.00,0.00,5,S01
15320,-12.23916,-1.75016,0.88346,-8.3537,-31.4024,4.1463,0.00,0.00,0.00,5,S01
15340,-9.89045,-2.12366,0.14605,-9.0244,-25.4268,1.5854,0.00,0.00,0.00,5,S01
15360,-8.42759,-0.99359,-0.61292,-10.9146,-9.3293,-6.0366,0.00,0.00,0.00,5,S01
15380,-8.00142,0.18675,-0.71347,-14.5732,8.8415,-10.3049,0.00,0.00,0.00,5,S01
15400,-7.79073,0.00958,-0.27054,-18.0488,18.2317,-8.6585,0.00,0.00,0.00,5,S01
15420,-7.60877,-0.77093,0.10534,-16.3415,21.5244,-5.3659,0.00,0.00,0.00,5,S01
15440,-7.74285,-1.50595,0.32801,-9.3902,26.0366,-2.9878,0.00,0.00,0.00,5,S01
15460,-8.18817,-1.58496,0.01197,-0.6098,29.4512,-2.2561,0.00,0.00,0.00,5,S01
15480,-8.83221,-1.19710,-0.33519,5.3049,29.6951,-1.8902,0.00,0.00,0.00,5,S01
15500,-9.39724,-0.79009,-0.13647,4.8780,25.7317,-0.3049,0.00,0.00,0.00,5,S01
15520,-9.59596,-0.60334,0.24900,2.9878,18.7195,1.3415,0.00,0.00,0.00,5,S01
15540,-9.39006,-0.58658,0.48123,2.4390,11.8293,0.9146,0.00,0.00,0.00,5,S01
15560,-9.08360,-0.65601,0.64883,4.2683,7.8659,-1.2195,0.00,0.00,0.00,5,S01
15580,-9.09318,-0.56503,0.68953,7.3780,6.8902,-3.4146,0.00,0.00,0.00,5,S01
15600,-9.40442,-0.27773,0.69192,6.9512,6.9512,-4.6341,0.00,0.00,0.00,5,S01
15620,-9.69412,-0.01676,0.80924,2.6829,6.0366,-5.3049,0.00,0.00,0.00,5,S01
15640,-9.72046,-0.09577,0.88107,-1.2805,3.2317,-5.1220,0.00,0.00,0.00,5,S01
15660,-9.42837,-0.41659,0.93853,-2.8049,1.9512,-3.7195,0.00,0.00,0.00,5,S01
15680,-9.18895,-0.66559,0.85952,-1.5244,3.3537,-1.7683,0.00,0.00,0.00,5,S01
15700,-9.07881,-0.82361,0.84036,0.9146,6.6463,0.3049,0.00,0.00,0.00,5,S01
15720,-8.94234,-0.94571,0.77333,4.8780,10.3659,1.7683,0.00,0.00,0.00,5,S01
15740,-8.92319,-0.82121,0.39983,9.1463,14.5732,2.4390,0.00,0.00,0.00,5,S01
15760,-8.72208,-0.56024,-0.10295,8.9024,19.5732,2.9268,0.00,0.00,0.00,5,S01
15780,-8.57364,-0.38547,-0.35913,5.4878,24.5122,1.5244,0.00,0.00,0.00,5,S01
15800,-8.94234,-0.49081,-0.23703,3.3537,25.1829,-1.8293,0.00,0.00,0.00,5,S01
15820,-9.30626,-0.94810,0.14844,4.4512,18.4756,-4.5732,0.00,0.00,0.00,5,S01
15840,-9.13867,-1.39582,0.33758,8.4756,7.6829,-5.1829,0.00,0.00,0.00,5,S01
15860,-8.52575,-1.38624,0.02155,12.3780,1.2195,-4.6951,0.00,0.00,0.00,5,S01
15880,-7.50103,-1.26174,-0.36152,13.3537,2.2561,-4.6951,0.00,0.00,0.00,5,S01
15900,-6.34463,-1.00317,-0.52912,12.4390,8.7195,-6.3415,0.00,0.00,0.00,5,S01
15920,-5.78918,-0.72065,-0.04549,11.2805,16.2195,-9.2683,0.00,0.00,0.00,5,S01
15940,-6.96952,-0.60334,1.16837,11.5244,14.5732,-11.3415,0.00,0.00,0.00,5,S01
15960,-8.08522,-0.94810,1.61369,16.2195,3.6585,-5.7927,0.00,0.00,0.00,5,S01
15980,-8.03973,-1.42216,0.96007,24.1463,-3.6585,4.4512,0.00,0.00,0.00,5,S01
16000,-6.66067,-1.73819,1.29047,30.6098,3.9634,10.9146,0.00,0.00,0.00,5,S01
16020,-7.50822,-1.61848,2.07817,33.7195,-0.9756,5.7317,0.00,0.00,0.00,5,S01
16040,-7.50822,-1.61848,2.07817,33.7195,-0.9756,5.7317,0.00,0.00,0.00,5,S01
16060,-7.98466,-1.42216,1.35751,38.4756,-7.6220,3.8415,0.00,0.00,0.00,5,S01
16080,-7.26401,-1.06542,-0.09816,40.6098,-0.4878,5.0000,0.00,0.00,0.00,5,S01
16100,-7.03895,-1.34075,0.78530,36.7073,12.3171,3.9024,0.00,0.00,0.00,5,S01
16120,-8.61913,-1.87466,3.01191,38.6585,5.3659,-1.1585,0.00,0.00,0.00,5,S01
16140,-10.68293,-3.17711,2.03268,48.7195,-16.8902,-4.8171,0.00,0.00,0.00,5,S01
16160,-11.88003,-2.06859,-1.63045,62.5000,-13.5976,-12.4390,0.00,0.00,0.00,5,S01
16180,-12.18170,0.90022,-2.00634,59.7561,4.2683,-20.0000,0.00,0.00,0.00,5,S01
16200,-13.76666,2.88741,-2.32716,45.2439,-14.0854,-23.2317,0.00,0.00,0.00,5,S01
16220,-15.40190,2.52828,-3.24175,25.3049,-40.4268,-30.9756,0.00,0.00,0.00,5,S01
16240,-15.01404,1.72143,-2.02071,22.1341,-40.6707,-39.5122,0.00,0.00,0.00,5,S01
16260,-13.61822,1.49159,-0.89304,20.4878,-52.7439,-30.6098,0.00,0.00,0.00,5,S01
16280,-12.33972,1.14203,0.31603,13.5366,-57.9268,-2.0732,0.00,0.00,0.00,5,S01
16300,-11.87764,0.21787,1.11091,8.5366,-41.7683,18.6585,0.00,0.00,0.00,5,S01
16320,-12.01889,0.11971,0.71826,14.5122,-25.6707,13.7805,0.00,0.00,0.00,5,S01
16340,-11.46104,1.35751,0.21069,22.8049,-15.6098,2.1341,0.00,0.00,0.00,5,S01
16360,-10.25437,2.39181,-0.15802,20.5488,-14.3902,6.2195,0.00,0.00,0.00,5,S01
16380,-8.94713,2.13084,-0.39265,12.6829,-5.9756,17.1951,0.00,0.00,0.00,5,S01
16400,-7.93199,1.32639,-0.31364,3.2317,9.2683,19.0244,0.00,0.00,0.00,5,S01
16420,-7.54174,0.84036,-0.37828,-3.7805,20.2439,11.9512,0.00,0.00,0.00,5,S01
16440,-7.74045,0.68714,0.02634,-7.8659,24.6341,4.2683,0.00,0.00,0.00,5,S01
16460,-7.94157,0.69911,0.20830,-8.8415,25.7927,0.0610,0.00,0.00,0.00,5,S01
16480,-7.91523,0.67038,0.06225,-7.6220,29.5732,-2.6829,0.00,0.00,0.00,5,S01
16500,-8.08522,0.41420,0.13408,-6.0976,32.6829,-6.5244,0.00,0.00,0.00,5,S01
16520,-7.64708,-0.00718,0.24181,6.4024,22.0732,-12.7439,0.00,0.00,0.00,5,S01
16540,-6.91924,-0.31125,0.35674,11.3415,9.6341,-10.3049,0.00,0.00,0.00,5,S01
16560,-6.84263,-0.27533,-0.05507,17.2561,4.3902,-10.4878,0.00,0.00,0.00,5,S01
16580,-7.58722,0.99359,0.17478,22.1341,10.9146,-13.4756,0.00,0.00,0.00,5,S01
16600,-8.29351,1.98719,0.81403,15.3049,8.4146,-11.8902,0.00,0.00,0.00,5,S01
16620,-8.04212,2.30562,0.36152,6.9512,0.0000,-8.4146,0.00,0.00,0.00,5,S01
16640,-6.88333,2.01352,-0.69192,-1.7683,1.9512,-5.1220,0.00,0.00,0.00,5,S01
16660,-6.02621,1.24738,-1.26893,-10.0000,8.2317,-2.8049,0.00,0.00,0.00,5,S01
16680,-6.18662,0.63446,-0.16041,-14.2683,10.2439,-2.1341,0.00,0.00,0.00,5,S01
16700,-7.19936,0.87628,1.61130,-18.3537,3.1707,-1.2805,0.00,0.00,0.00,5,S01
16720,-7.71412,0.63686,1.53229,-21.5854,-5.4268,-2.3171,0.00,0.00,0.00,5,S01
16740,-8.13310,0.82121,0.12689,-16.4024,-7.1951,-7.1951,0.00,0.00,0.00,5,S01
16760,-9.45470,1.15640,-0.50518,-16.4024,-12.5000,-4.8171,0.00,0.00,0.00,5,S01
16780,-10.87207,1.11570,-0.81642,-25.6098,-22.9878,7.2561,0.00,0.00,0.00,5,S01
16800,-11.65737,-0.00718,-0.28012,-39.2073,-22.4390,12.8659,0.00,0.00,0.00,5,S01
16820,-14.65012,-1.61848,-0.79009,-33.7195,-32.0122,9.1463,0.00,0.00,0.00,5,S01
16840,-17.47528,-2.37744,-1.19710,-18.8415,-32.8659,16.0976,0.00,0.00,0.00,5,S01
16860,-15.53837,-2.94008,1.09415,-29.4512,-27.1341,28.7805,0.00,0.00,0.00,5,S01
16880,-12.60308,-0.81882,0.75178,-34.7561,-41.6463,17.3780,0.00,0.00,0.00,5,S01
16900,-12.90235,0.35195,1.74058,-30.3659,-37.0732,-6.7683,0.00,0.00,0.00,5,S01
16920,-13.50569,-0.11013,1.49398,-23.4146,-24.8780,-19.3902,0.00,0.00,0.00,5,S01
16940,-12.66772,-1.00556,1.12288,-28.1707,-7.5000,-14.4512,0.00,0.00,0.00,5,S01
16960,-10.67096,-1.58017,0.53870,-32.3171,2.0732,-7.6220,0.00,0.00,0.00,5,S01
16980,-8.96150,-1.63524,-0.14365,-34.5122,6.7683,-9.2073,0.00,0.00,0.00,5,S01
17000,-8.26000,-1.00556,-0.39025,-33.3537,18.2927,-14.6341,0.00,0.00,0.00,5,S01
17020,-7.56089,-0.67038,-0.34477,-31.8293,28.1098,-13.5976,0.00,0.00,0.00,5,S01
17040,-6.90967,-0.53870,-0.53391,-32.4390,30.7317,-6.8902,0.00,0.00,0.00,5,S01
17060,-7.06529,-0.61770,-0.15802,-35.0610,35.1220,0.3659,0.00,0.00,0.00,5,S01
17080,-7.66623,-0.88825,0.21308,-33.1707,37.6829,5.5488,0.00,0.00,0.00,5,S01
17100,-8.31027,-1.08936,0.19872,-28.1098,32.8049,7.5610,0.00,0.00,0.00,5,S01
17120,-8.74602,-1.22104,0.01437,-23.9634,24.3902,8.1707,0.00,0.00,0.00,5,S01
17140,-9.06924,-1.14443,-0.02155,-21.7683,16.5854,9.7561,0.00,0.00,0.00,5,S01
17160,-9.43316,-0.94810,0.41899,-21.1585,8.1707,11.7683,0.00,0.00,0.00,5,S01
17180,-9.30626,-0.90022,0.72305,-20.2439,-1.8902,11.8902,0.00,0.00,0.00,5,S01
17200,-8.66462,-0.81882,0.64643,-18.7195,-8.6585,7.3171,0.00,0.00,0.00,5,S01
17220,-7.58722,-0.68714,0.20351,-19.8780,-9.1463,-0.7927,0.00,0.00,0.00,5,S01
17240,-6.72771,-0.76614,-0.26336,-22.2561,-2.6829,-9.2073,0.00,0.00,0.00,5,S01
17260,-6.82108,-0.95768,-0.42856,-20.4878,6.5854,-14.1463,0.00,0.00,0.00,5,S01
17280,-7.37654,-1.46046,0.67038,-14.5122,13.5976,-10.4878,0.00,0.00,0.00,5,S01
17300,-8.04931,-1.38145,1.17795,-7.0122,13.7195,-1.7073,0.00,0.00,0.00,5,S01
17320,-7.85777,-0.85234,-0.09577,-3.9024,12.9878,5.5488,0.00,0.00,0.00,5,S01
17340,-7.46512,-1.47243,0.66080,-2.6220,15.6707,6.0976,0.00,0.00,0.00,5,S01
17360,-7.27119,-2.19548,1.53947,7.5610,7.7439,0.6098,0.00,0.00,0.00,5,S01
17380,-7.59201,-1.47243,0.59137,18.2317,2.9878,-2.5000,0.00,0.00,0.00,5,S01
17400,-7.73806,-0.11253,-1.13485,20.5488,13.7805,3.2927,0.00,0.00,0.00,5,S01
17420,-7.48667,0.36631,-1.01275,14.7561,30.4878,11.7683,0.00,0.00,0.00,5,S01
17440,-8.30549,-1.05584,1.22344,10.0610,31.4634,13.2927,0.00,0.00,0.00,5,S01
17460,-9.73961,-1.94649,2.14042,17.3171,10.5488,7.8659,0.00,0.00,0.00,5,S01
17480,-9.57681,-1.30005,0.64165,25.0610,-9.5122,1.7073,0.00,0.00,0.00,5,S01
17500,-8.47308,-0.49081,0.49799,23.4146,-13.2317,-1.5244,0.00,0.00,0.00,5,S01
17520,-9.31105,-1.01754,1.67355,27.0122,-19.0244,-5.7317,0.00,0.00,0.00,5,S01
17540,-11.83214,-1.52989,1.67115,41.4634,-29.7561,-10.7317,0.00,0.00,0.00,5,S01
17560,-12.84010,-0.90022,0.25857,47.9878,-31.8902,-12.8659,0.00,0.00,0.00,5,S01
17580,-11.84890,1.03908,-0.25379,40.7927,-26.4024,-7.8659,0.00,0.00,0.00,5,S01
17600,-11.85848,2.22182,-1.00317,22.6829,-28.7195,-0.4878,0.00,0.00,0.00,5,S01
17620,-14.77941,0.97683,-1.75495,6.7073,-22.4390,-7.0122,0.00,0.00,0.00,5,S01
17640,-15.69639,0.39025,-0.39265,3.0488,-17.1951,-25.8537,0.00,0.00,0.00,5,S01
17660,-12.85686,0.47166,0.04549,0.6707,-38.7195,-20.8537,0.00,0.00,0.00,5,S01
17680,-10.63744,0.72065,0.27773,-1.4634,-40.1829,2.0122,0.00,0.00,0.00,5,S01
17700,-11.01333,1.27850,0.91937,-7.8049,-20.7927,16.8293,0.00,0.00,0.00,5,S01
17720,-11.08515,1.29287,0.85952,-14.3902,-6.9512,15.9756,0.00,0.00,0.00,5,S01
17740,-8.67898,0.24900,-0.47405,-7.9268,7.4390,5.4878,0.00,0.00,0.00,5,S01
17760,-8.01818,0.01676,-0.87149,-4.3293,19.0244,7.0732,0.00,0.00,0.00,5,S01
17780,-8.14507,0.33998,-0.71347,-6.2805,31.5244,6.0976,0.00,0.00,0.00,5,S01
17800,-8.31506,0.65841,-0.60813,-10.8537,37.1341,3.4756,0.00,0.00,0.00,5,S01
17820,-8.35816,0.65841,-0.41659,-15.9756,34.0244,1.2805,0.00,0.00,0.00,5,S01
17840,-8.31985,0.43574,-0.28012,-20.1220,25.5488,-0.9146,0.00,0.00,0.00,5,S01
17860,-7.99903,0.08619,-0.29449,-18.8415,19.6951,-3.7195,0.00,0.00,0.00,5,S01
17880,-7.97987,-0.11013,-0.18435,-14.5122,17.5610,-7.9268,0.00,0.00,0.00,5,S01
17900,-8.32464,-0.08859,0.11253,-9.6341,15.6098,-12.1951,0.00,0.00,0.00,5,S01
17920,-8.17859,-0.16759,0.22984,-2.3780,12.0122,-13.2317,0.00,0.00,0.00,5,S01
17940,-7.42203,-0.40223,0.29449,7.6829,8.4756,-10.6707,0.00,0.00,0.00,5,S01
17960,-6.58645,-0.60094,0.24900,18.9024,6.6463,-6.9512,0.00,0.00,0.00,5,S01
17980,-6.56011,-0.20590,0.28252,28.6585,8.3537,-5.1829,0.00,0.00,0.00,5,S01
18000,-7.34302,0.56982,1.13485,31.4024,9.2073,-6.0976,0.00,0.00,0.00,5,S01
18020,-8.08761,0.92416,1.19950,31.8902,2.0732,-6.5854,0.00,0.00,0.00,5,S01
18040,-7.44118,1.29047,-0.34477,34.9390,-1.0976,-5.9146,0.00,0.00,0.00,5,S01
18060,-6.67264,2.65278,-0.51236,30.5488,5.0000,-2.3780,0.00,0.00,0.00,5,S01
18080,-6.94079,3.89537,0.70150,7.6829,-1.7073,6.5244,0.00,0.00,0.00,5,S01
18100,-7.83622,3.22020,1.43413,-16.8293,-16.2195,13.9024,0.00,0.00,0.00,5,S01
18120,-7.98227,1.93691,-0.06464,-19.4512,-12.6829,9.3902,0.00,0.00,0.00,5,S01
18140,-7.39569,0.90740,-0.30406,-15.2439,0.5488,-0.6098,0.00,0.00,0.00,5,S01
18160,-8.67898,1.41737,1.72143,-20.1829,-10.0000,-1.1585,0.00,0.00,0.00,5,S01
18180,-11.46583,2.20267,2.35111,-33.4756,-37.5610,13.6585,0.00,0.00,0.00,5,S01
18200,-12.11227,0.96486,0.51475,-34.8780,-36.8902,27.3780,0.00,0.00,0.00,5,S01
18220,-13.79060,-0.49560,0.00479,-36.6463,-24.5732,20.3659,0.00,0.00,0.00,5,S01
18240,-16.55112,-2.36068,-2.98796,-24.5732,-23.7805,19.3293,0.00,0.00,0.00,5,S01
18260,-15.64611,-3.65355,-0.18914,-24.6951,1.5244,31.0976,0.00,0.00,0.00,5,S01
18280,-12.98136,-2.24576,-0.11971,-34.5122,-20.6707,23.5976,0.00,0.00,0.00,5,S01
18300,-12.97418,-0.16999,0.13647,-28.2927,-37.6829,4.6951,0.00,0.00,0.00,5,S01
18320,-13.53203,0.48602,0.10774,-18.5366,-21.4634,-2.3171,0.00,0.00,0.00,5,S01
18340,-12.69166,0.00479,0.33040,-22.6829,-7.1341,0.8537,0.00,0.00,0.00,5,S01
18360,-11.03488,-1.00078,-0.01437,-31.2195,-3.2317,0.9146,0.00,0.00,0.00,5,S01
18380,-9.58160,-1.09654,-0.40701,-36.4024,2.5610,-7.8049,0.00,0.00,0.00,5,S01
18400,-8.40604,-0.71347,-0.61770,-36.0366,10.9146,-15.8537,0.00,0.00,0.00,5,S01
18420,-7.66145,-0.78290,-0.55545,-32.3780,21.5244,-16.6463,0.00,0.00,0.00,5,S01
18440,-7.35499,-1.24259,-0.31603,-27.5000,31.4634,-12.3171,0.00,0.00,0.00,5,S01
18460,-7.31429,-1.37667,-0.09337,-20.3049,38.6585,-7.6220,0.00,0.00,0.00,5,S01
18480,-7.55371,-1.30963,0.09577,-12.0732,42.3780,-4.3902,0.00,0.00,0.00,5,S01
18500,-7.80749,-1.15640,0.10774,-4.2073,41.0366,-2.3780,0.00,0.00,0.00,5,S01
18520,-8.05409,-0.97923,-0.12929,0.9756,36.7683,0.2439,0.00,0.00,0.00,5,S01
18540,-7.96551,-0.88346,-0.17957,3.1707,33.9024,4.1463,0.00,0.00,0.00,5,S01
18560,-7.96551,-0.67516,-0.11732,5.1829,29.6951,6.1585,0.00,0.00,0.00,5,S01
18580,-8.49702,-0.27533,-0.11013,5.2439,22.3171,7.0732,0.00,0.00,0.00,5,S01
18600,-8.14268,0.08140,-0.71347,2.1341,18.1098,10.1220,0.00,0.00,0.00,5,S01
18620,-7.12036,-0.24900,-0.96247,-3.9024,22.5610,11.6463,0.00,0.00,0.00,5,S01
18640,-5.95677,-0.96007,-0.55545,-7.8049,25.6707,8.0488,0.00,0.00,0.00,5,S01
18660,-5.10204,-1.06781,-0.02873,-9.7561,22.8049,0.2439,0.00,0.00,0.00,5,S01
18680,-5.72693,-0.03591,0.62968,-12.0122,21.3415,-7.9268,0.00,0.00,0.00,5,S01
18700,-7.78834,0.44532,0.90980,-7.9268,21.2805,-6.6463,0.00,0.00,0.00,5,S01
18720,-8.68856,-0.82361,0.84515,-2.1951,22.8659,7.2561,0.00,0.00,0.00,5,S01
18740,-8.81066,-2.45645,0.36871,8.5976,27.4390,16.9512,0.00,0.00,0.00,5,S01
18760,-9.12191,-3.31358,0.24181,18.4146,19.6341,12.9268,0.00,0.00,0.00,5,S01
18780,-8.83700,-2.21464,0.67756,27.5000,-0.3049,0.7317,0.00,0.00,0.00,5,S01
18800,-8.42041,0.15562,1.51553,29.5732,-14.0244,-8.2317,0.00,0.00,0.00,5,S01
18820,-8.44914,1.94888,0.47884,25.5488,-12.8049,-6.7683,0.00,0.00,0.00,5,S01
18840,-8.87770,1.58496,-1.12527,15.6098,3.9634,-0.6707,0.00,0.00,0.00,5,S01
18860,-10.00297,0.01915,-2.37744,9.5122,13.8415,-5.6098,0.00,0.00,0.00,5,S01
18880,-11.06121,-1.52750,-2.79643,7.2561,5.4878,-19.3293,0.00,0.00,0.00,5,S01
18900,-12.15776,-1.63045,-2.79164,11.8902,-12.8049,-25.3659,0.00,0.00,0.00,5,S01
18920,-14.11382,-0.12210,-2.48039,20.1829,-28.3537,-17.0732,0.00,0.00,0.00,5,S01
18940,-14.10185,2.19069,-0.39504,13.3537,-32.6829,23.1098,0.00,0.00,0.00,5,S01
18960,-13.30458,0.74699,-0.00718,-3.3537,-39.1463,25.4878,0.00,0.00,0.00,5,S01
18980,-14.14734,-0.66798,-0.48842,-0.3049,-25.2439,9.3902,0.00,0.00,0.00,5,S01
19000,-14.14973,-0.22984,-1.26414,6.2805,-13.7805,-7.0732,0.00,0.00,0.00,5,S01
19020,-12.40915,1.13964,-1.47004,4.3902,-15.4268,-5.4268,0.00,0.00,0.00,5,S01
19040,-9.90960,1.90818,-1.42934,1.2195,-15.3659,5.4268,0.00,0.00,0.00,5,S01
19060,-7.97987,1.38385,-1.32639,-0.6098,-6.8293,11.6463,0.00,0.00,0.00,5,S01
19080,-6.98628,0.32322,-1.03908,2.1341,8.1707,7.9268,0.00,0.00,0.00,5,S01
19100,-6.78517,-0.45969,-0.74699,11.5854,20.1220,0.3659,0.00,0.00,0.00,5,S01
19120,-7.42442,-0.74460,-0.38307,21.9512,25.8537,-5.0000,0.00,0.00,0.00,5,S01
19140,-8.39168,-0.13886,-0.22505,31.5854,25.3049,-10.6098,0.00,0.00,0.00,5,S01
19160,-8.55688,0.49560,-0.47405,37.2561,19.0854,-15.4268,0.00,0.00,0.00,5,S01
19180,-8.16183,0.64404,-0.68714,39.7561,10.2439,-17.7439,0.00,0.00,0.00,5,S01
19200,-7.51540,0.45969,-0.71108,42.1341,3.9634,-19.6951,0.00,0.00,0.00,5,S01
19220,-6.56011,0.39504,-0.96247,47.0122,5.1829,-21.8293,0.00,0.00,0.00,5,S01
19240,-5.59525,0.80685,-0.86910,53.3537,14.2683,-23.5366,0.00,0.00,0.00,5,S01
19260,-5.08289,0.87867,-0.89783,57.9878,21.5854,-21.1585,0.00,0.00,0.00,5,S01
19280,-5.66229,0.21069,-0.75417,58.0488,26.5244,-12.1341,0.00,0.00,0.00,5,S01
19300,-6.45716,0.85234,0.00479,50.3049,24.8171,-2.5610,0.00,0.00,0.00,5,S01
19320,-7.86735,2.12845,0.91937,28.1707,5.8537,1.7683,0.00,0.00,0.00,5,S01
19340,-8.83939,2.73897,0.72784,3.7195,-15.3049,0.2439,0.00,0.00,0.00,5,S01
19360,-8.82263,3.47399,-0.30167,0.3659,-12.3780,-8.6585,0.00,0.00,0.00,5,S01
19380,-9.39245,4.24253,0.08619,-13.3537,-8.4146,-12.3780,0.00,0.00,0.00,5,S01
19400,-9.35415,3.72538,0.24421,-44.7561,-22.4390,-7.3780,0.00,0.00,0.00,5,S01
19420,-8.96150,2.63841,0.20830,-63.7805,-21.9512,-6.0976,0.00,0.00,0.00,5,S01
19440,-9.06684,1.68791,-0.34716,-71.8293,-13.7805,-7.9268,0.00,0.00,0.00,5,S01
19460,-9.04051,1.01993,-2.61447,-72.4390,-12.3780,-1.7683,0.00,0.00,0.00,5,S01
19480,-9.14106,-0.23463,-1.79805,-80.4878,-11.8902,12.3780,0.00,0.00,0.00,5,S01
19500,-10.33098,-2.13563,-0.14605,-91.4634,-29.6951,18.2927,0.00,0.00,0.00,5,S01
19520,-14.28860,-2.96163,-4.31196,-69.9390,-39.6951,15.7927,0.00,0.00,0.00,5,S01
19540,-15.15290,-2.34871,-3.65834,-64.8781,-1.0366,19.6341,0.00,0.00,0.00,5,S01
19560,-12.88081,-3.27287,-1.34554,-97.3171,-1.0366,17.7439,0.00,0.00,0.00,5,S01
19580,-12.66054,-3.18668,0.06464,-91.8902,-35.7317,-4.0244,0.00,0.00,0.00,5,S01
19600,-14.68603,-2.64559,0.45969,-65.7317,-35.7927,-24.3293,0.00,0.00,0.00,5,S01
19620,-14.57590,-2.96642,0.26336,-48.3537,-16.6463,-21.1585,0.00,0.00,0.00,5,S01
19640,-12.12903,-3.82354,-0.27054,-34.3293,-10.3049,-12.6220,0.00,0.00,0.00,5,S01
19660,-9.86890,-3.67510,-0.53391,-22.6829,-6.9512,-16.2195,0.00,0.00,0.00,5,S01
19680,-8.98544,-2.28646,-0.79009,-11.3415,5.8537,-23.0488,0.00,0.00,0.00,5,S01
19700,-8.86812,-0.84276,-0.78769,-1.4634,22.0122,-22.1951,0.00,0.00,0.00,5,S01
19720,-8.75081,-0.64883,-0.38068,-0.2439,25.9756,-14.6951,0.00,0.00,0.00,5,S01
19740,-8.15226,-1.18992,-0.05507,-1.2195,22.6829,-4.9390,0.00,0.00,0.00,5,S01
19760,-7.46991,-1.55623,-0.10056,1.0366,24.2683,1.3415,0.00,0.00,0.00,5,S01
19780,-7.03416,-1.40779,-0.39265,5.9146,29.2683,3.2317,0.00,0.00,0.00,5,S01
19800,-6.69658,-1.34794,-0.53151,9.8171,32.7439,4.4512,0.00,0.00,0.00,5,S01
19820,-6.19380,-1.53947,-0.32801,12.6829,33.4146,5.8537,0.00,0.00,0.00,5,S01
19840,-5.86101,-1.31442,-0.20111,15.6707,30.6707,6.2805,0.00,0.00,0.00,5,S01
19860,-6.57927,-0.60573,0.06704,17.5610,25.5488,8.4146,0.00,0.00,0.00,5,S01
19880,-7.82425,-0.29449,0.60573,18.4146,14.4512,15.5488,0.00,0.00,0.00,5,S01
19900,-7.82904,-0.66559,0.30406,16.8902,0.0610,25.1220,0.00,0.00,0.00,5,S01
19920,-6.67982,-1.52511,-0.36631,13.5976,-4.2073,29.8171,0.00,0.00,0.00,5,S01
19940,-6.00705,-2.17154,0.74939,15.9756,-4.8171,24.9390,0.00,0.00,0.00,5,S01
19960,-5.77242,-2.45645,1.60890,30.0000,-10.0000,15.9146,0.00,0.00,0.00,5,S01
19980,-6.15549,-1.52989,0.78530,47.6220,-4.3902,10.8537,0.00,0.00,0.00,5,S01
20000,-6.76362,-0.15562,-0.70868,54.8781,10.1220,13.4756,0.00,0.00,0.00,5,S01
20020,-7.37414,-0.23463,-1.27372,48.8415,15.3659,17.2561,0.00,0.00,0.00,5,S01
20040,-8.74602,0.05986,-3.03824,46.3415,9.1463,12.5000,0.00,0.00,0.00,5,S01
20060,-10.31901,1.86029,-4.03184,35.1829,9.0244,4.2683,0.00,0.00,0.00,5,S01
20080,-11.28148,1.97043,-2.93050,18.7805,3.9634,3.5366,0.00,0.00,0.00,5,S01
20100,-13.77863,0.21787,-2.46124,17.4390,-24.2073,1.3415,0.00,0.00,0.00,5,S01
20120,-15.47612,-0.92416,-3.26569,26.5244,-35.4268,-11.2805,0.00,0.00,0.00,5,S01
20140,-15.45457,1.35991,-1.73580,34.7561,-14.7561,-20.4878,0.00,0.00,0.00,5,S01
20160,-13.72596,0.78051,0.44053,7.1951,-25.8537,13.4756,0.00,0.00,0.00,5,S01
20180,-13.61582,-0.89304,0.12929,0.3049,-8.1098,17.3171,0.00,0.00,0.00,5,S01
20200,-13.38838,-0.57940,-0.41420,15.4878,5.8537,6.0976,0.00,0.00,0.00,5,S01
20220,-11.58794,1.39821,-0.82600,26.3415,3.0488,0.3049,0.00,0.00,0.00,5,S01
20240,-8.72926,2.77967,-0.88107,19.1463,3.5366,7.9268,0.00,0.00,0.00,5,S01
20260,-6.74447,2.21703,-0.65601,6.4024,18.1707,20.6098,0.00,0.00,0.00,5,S01
20280,-6.89530,1.06303,0.33279,-2.1951,32.0122,17.9268,0.00,0.00,0.00,5,S01
20300,-6.97431,0.72784,0.37350,3.4146,20.9756,1.8293,0.00,0.00,0.00,5,S01
20320,-6.44280,0.67756,0.85712,2.1951,3.4146,-9.2683,0.00,0.00,0.00,5,S01
20340,-5.80354,0.75417,0.91698,3.8415,-6.2805,-11.5854,0.00,0.00,0.00,5,S01
20360,-5.59285,0.49081,0.60094,6.9512,-2.5000,-12.4390,0.00,0.00,0.00,5,S01
20380,-5.76284,0.37828,0.64643,13.3537,9.0854,-18.3537,0.00,0.00,0.00,5,S01
20400,-6.48589,1.38624,0.51954,20.4878,12.1341,-25.0610,0.00,0.00,0.00,5,S01
20420,-7.67102,1.90100,0.98881,11.3415,1.7683,-22.1341,0.00,0.00,0.00,5,S01
20440,-7.77876,1.04866,0.18435,0.1829,-10.0610,-14.5732,0.00,0.00,0.00,5,S01
20460,-7.06768,0.76136,-0.90261,-0.2439,0.6707,-15.7927,0.00,0.00,0.00,5,S01
20480,-7.04374,1.54426,0.00479,-3.5366,13.7805,-19.5732,0.00,0.00,0.00,5,S01
20500,-7.63750,2.46842,1.24259,-18.1098,2.5610,-14.9390,0.00,0.00,0.00,5,S01
20520,-8.60237,2.73418,0.55067,-33.6585,-8.3537,-6.9512,0.00,0.00,0.00,5,S01
20540,-9.68215,2.06380,-2.06620,-41.8293,3.1098,0.9146,0.00,0.00,0.00,5,S01
20560,-10.88883,-0.27773,-2.56180,-40.6707,13.4146,10.9756,0.00,0.00,0.00,5,S01
20580,-12.92390,-3.10289,-2.03028,-34.3293,-10.6098,19.8780,0.00,0.00,0.00,5,S01
20600,-16.50323,-3.43807,-4.20661,-19.3902,-49.5122,26.4024,0.00,0.00,0.00,5,S01
20620,-15.41387,-1.59454,-1.45567,-20.3659,-50.3049,34.6951,0.00,0.00,0.00,5,S01
20640,-12.48337,1.36709,-2.13084,-30.6707,-53.4756,30.0000,0.00,0.00,0.00,5,S01
20660,-11.99974,2.03986,-1.22583,-35.5488,-35.7927,15.6707,0.00,0.00,0.00,5,S01
20680,-12.23916,-0.29688,-0.14126,-49.2683,-21.7683,2.4390,0.00,0.00,0.00,5,S01
20700,-12.28226,-2.86825,0.56503,-47.1951,-13.9634,-11.4024,0.00,0.00,0.00,5,S01
20720,-11.53048,-3.81396,0.48602,-28.6585,2.1951,-21.7073,0.00,0.00,0.00,5,S01
20740,-10.45787,-2.82037,0.45490,-11.7073,16.5854,-25.7927,0.00,0.00,0.00,5,S01
20760,-9.27753,-0.85952,-0.02155,-3.0488,25.0610,-24.2683,0.00,0.00,0.00,5,S01
20780,-8.33182,0.63686,-0.56503,-3.2317,35.1829,-19.6951,0.00,0.00,0.00,5,S01
20800,-7.45076,0.13647,-0.69911,-7.8049,42.8049,-13.9634,0.00,0.00,0.00,5,S01
20820,-6.94797,-1.12288,-0.28252,-10.7317,44.1463,-10.0610,0.00,0.00,0.00,5,S01
20840,-6.43322,-2.15478,0.01437,-9.5732,42.3780,-7.3780,0.00,0.00,0.00,5,S01
20860,-6.37336,-2.26491,0.10774,-2.4390,39.5732,-5.5488,0.00,0.00,0.00,5,S01
20880,-6.43561,-1.70946,-0.00718,7.6220,37.5610,-1.1585,0.00,0.00,0.00,5,S01
20900,-6.38534,-0.96726,0.18675,13.7805,37.6220,5.6098,0.00,0.00,0.00,5,S01
20920,-6.59603,0.02155,0.22745,11.6463,31.8902,11.7073,0.00,0.00,0.00,5,S01
20940,-7.43400,0.38547,1.07021,3.5976,19.3902,17.9268,0.00,0.00,0.00,5,S01
20960,-7.47470,-1.07260,0.86670,1.7683,6.8293,24.1463,0.00,0.00,0.00,5,S01
20980,-7.77876,-2.46363,1.45089,8.5366,5.4878,26.8293,0.00,0.00,0.00,5,S01
21000,-8.96150,-3.25372,1.95606,17.1951,-1.9512,25.0000,0.00,0.00,0.00,5,S01
21020,-9.54568,-2.33674,1.91776,37.6220,-11.4634,20.4268,0.00,0.00,0.00,5,S01
21040,-8.82263,-0.61052,1.43413,50.0000,-19.6341,13.4146,0.00,0.00,0.00,5,S01
21060,-8.82024,-0.22027,0.26815,38.8415,-17.6829,5.0000,0.00,0.00,0.00,5,S01
21080,-9.92875,0.12450,-1.96085,24.4512,-3.2927,-9.2683,0.00,0.00,0.00,5,S01
21100,-10.69250,1.49398,-3.34949,3.9634,6.7073,-25.1220,0.00,0.00,0.00,5,S01
21120,-12.39957,1.62806,-3.22020,-5.3659,1.0366,-29.6951,0.00,0.00,0.00,5,S01
21140,-15.04516,0.75657,-3.15316,1.7073,-33.1707,-25.1220,0.00,0.00,0.00,5,S01
21160,-15.32289,-0.57221,-3.01909,11.0366,-71.1585,-18.1707,0.00,0.00,0.00,5,S01
21180,-14.99728,-1.55144,-2.99754,31.2805,-74.3902,-11.7683,0.00,0.00,0.00,5,S01
21200,-15.57907,-0.48123,-2.38223,44.7561,-56.2805,-7.4390,0.00,0.00,0.00,5,S01
21220,-13.90792,0.69432,-2.50433,51.7073,-43.1707,1.9512,0.00,0.00,0.00,5,S01
21240,-11.31500,0.71826,-1.97282,51.2195,-34.2073,13.0488,0.00,0.00,0.00,5,S01
21260,-7.99903,-0.01437,-0.99120,58.6585,-6.7073,17.5000,0.00,0.00,0.00,5,S01
21280,-7.51061,-0.09337,-1.07739,72.0732,16.2195,13.9634,0.00,0.00,0.00,5,S01
21300,-7.51061,-0.09337,-1.07739,72.0732,16.2195,13.9634,0.00,0.00,0.00,5,S01
21320,-7.22331,0.25618,-1.07739,80.6098,31.0366,9.3293,0.00,0.00,0.00,5,S01
21340,-6.97670,0.55785,-1.12288,87.5610,38.9024,7.6829,0.00,0.00,0.00,5,S01
21360,-7.15627,0.91698,-0.92416,88.7195,42.5000,6.5244,0.00,0.00,0.00,5,S01
21380,-7.79552,0.99838,-0.28970,83.6585,28.0488,2.3171,0.00,0.00,0.00,5,S01
21400,-8.06846,1.01275,0.27294,79.6341,15.4268,0.6098,0.00,0.00,0.00,5,S01
21420,-8.40365,0.80445,0.65601,75.9756,5.9756,-2.1951,0.00,0.00,0.00,5,S01
21440,-8.26000,0.69911,0.78769,76.0976,0.9146,-6.9512,0.00,0.00,0.00,5,S01
21460,-8.46829,0.85712,1.03669,75.8537,-0.9756,-11.0366,0.00,0.00,0.00,5,S01
21480,-9.63427,1.31202,1.15161,75.4268,-2.5000,-9.6341,0.00,0.00,0.00,5,S01
21500,-10.45787,1.89381,1.31681,70.3049,-6.4634,-1.5854,0.00,0.00,0.00,5,S01
21520,-10.27352,2.62405,1.20428,63.1098,-11.0976,7.6220,0.00,0.00,0.00,5,S01
21540,-9.61751,2.43490,1.58975,57.4390,-11.5854,14.3293,0.00,0.00,0.00,5,S01
21560,-8.66462,1.70946,2.25055,56.0366,-11.8293,16.2805,0.00,0.00,0.00,5,S01
21580,-7.99424,0.98162,2.36547,59.6951,-9.2683,13.5366,0.00,0.00,0.00,5,S01
21600,-9.80665,0.81882,-0.15802,71.2195,0.3049,9.6341,0.00,0.00,0.00,5,S01
21620,-13.30458,1.26893,-3.78523,78.7805,27.1951,19.0244,0.00,0.00,0.00,5,S01
21640,-13.74272,-0.82600,-3.80678,60.0000,40.3049,48.8415,0.00,0.00,0.00,5,S01
21660,-12.55519,-4.20901,-2.77967,49.3902,5.6098,67.8049,0.00,0.00,0.00,5,S01
21680,-11.50175,-5.29837,-3.38061,69.0854,-30.1829,55.0610,0.00,0.00,0.00,5,S01
21700,-11.11149,-2.69827,-4.15394,89.6341,-32.5610,22.9268,0.00,0.00,0.00,5,S01
21720,-10.80503,0.05267,-3.54821,84.1463,-23.9024,-2.2561,0.00,0.00,0.00,5,S01
21740,-10.44830,0.86191,-2.52828,64.8781,-21.0976,-18.1707,0.00,0.00,0.00,5,S01
21760,-9.43076,-0.10534,-1.81002,51.7073,-16.0976,-27.4390,0.00,0.00,0.00,5,S01
21780,-8.51378,-1.21625,-1.53229,47.8049,-6.5854,-34.3902,0.00,0.00,0.00,5,S01
21800,-8.24324,-1.40540,-1.23780,48.8415,8.8415,-39.0244,0.00,0.00,0.00,5,S01
21820,-7.82425,-1.02472,-1.36709,51.5244,25.1829,-38.4756,0.00,0.00,0.00,5,S01
21840,-7.67821,-0.73502,-1.70707,54.9390,35.9146,-34.7561,0.00,0.00,0.00,5,S01
21860,-8.09001,-0.55785,-1.94649,56.7683,40.6098,-30.3659,0.00,0.00,0.00,5,S01
21880,-8.63349,-0.45729,-2.00155,52.3171,37.3171,-26.4024,0.00,0.00,0.00,5,S01
21900,-8.86333,-0.51715,-1.64482,45.7927,27.1951,-22.6220,0.00,0.00,0.00,5,S01
21920,-8.59518,-0.60334,-1.45807,42.8659,14.1463,-19.5122,0.00,0.00,0.00,5,S01
21940,-8.21929,-0.71108,-1.40779,40.0610,5.1220,-17.7439,0.00,0.00,0.00,5,S01
21960,-8.23127,-0.76614,-1.16837,38.0488,4.3902,-15.0000,0.00,0.00,0.00,5,S01
21980,-8.51618,-0.64643,-1.01754,34.5122,6.2195,-10.3659,0.00,0.00,0.00,5,S01
22000,-8.60476,-0.48842,-0.71826,28.9024,5.6098,-3.7805,0.00,0.00,0.00,5,S01
22020,-8.61913,-0.38786,-0.16041,23.7195,2.5000,2.7439,0.00,0.00,0.00,5,S01
22040,-8.90882,-0.27294,0.28730,18.7805,-2.4390,8.8415,0.00,0.00,0.00,5,S01
22060,-9.38048,-0.24181,0.76375,12.9878,-6.4634,14.8780,0.00,0.00,0.00,5,S01
22080,-9.52653,-0.48842,0.95529,8.0488,-11.0976,19.1463,0.00,0.00,0.00,5,S01
22100,-9.21289,-0.48123,0.69671,5.7927,-14.5732,19.8171,0.00,0.00,0.00,5,S01
22120,-9.23204,-0.26336,0.34477,2.4390,-13.0488,18.7805,0.00,0.00,0.00,5,S01
22140,-9.56962,-0.74699,0.47166,0.8537,-7.6829,18.3537,0.00,0.00,0.00,5,S01
22160,-10.34535,-1.07978,0.91459,3.8415,-9.2073,14.5732,0.00,0.00,0.00,5,S01
22180,-11.33654,-1.40061,-0.09098,-0.8537,-20.4268,5.0610,0.00,0.00,0.00,5,S01
22200,-12.79701,-2.11408,-2.66953,-0.9146,-13.2317,-9.5732,0.00,0.00,0.00,5,S01
22220,-12.64857,-3.04782,-3.06458,9.7561,6.7073,-23.1098,0.00,0.00,0.00,5,S01
22240,-10.78348,-2.88022,-2.73178,24.0854,3.1707,-29.7561,0.00,0.00,0.00,5,S01
22260,-9.03811,-1.75016,-3.15316,34.0244,-11.9512,-24.6341,0.00,0.00,0.00,5,S01
22280,-9.21528,-1.10852,-2.65756,37.9878,-15.4878,-8.8415,0.00,0.00,0.00,5,S01
22300,-9.44991,-2.08296,-1.92973,62.6220,-12.3171,15.7317,0.00,0.00,0.00,5,S01
22320,-8.79869,-1.51553,-2.38702,81.2195,-6.2805,17.6829,0.00,0.00,0.00,5,S01
22340,-8.79869,-1.51553,-2.38702,81.2195,-6.2805,17.6829,0.00,0.00,0.00,5,S01
22360,-8.52336,-0.56024,-2.41575,90.3049,1.6463,18.7195,0.00,0.00,0.00,5,S01
22380,-8.62631,-0.15802,-2.44927,95.3049,1.1585,20.4268,0.00,0.00,0.00,5,S01
22400,-8.64786,-0.41659,-2.45645,100.7317,-3.2317,21.9512,0.00,0.00,0.00,5,S01
22420,-8.68616,-0.53870,-2.61447,108.5366,-4.2683,21.5244,0.00,0.00,0.00,5,S01
22440,-9.06445,-0.35913,-2.33435,113.6585,-2.3171,20.9146,0.00,0.00,0.00,5,S01
22460,-9.37091,-0.10295,-1.98958,116.9512,-3.8415,20.6098,0.00,0.00,0.00,5,S01
22480,-9.36372,0.24181,-1.79565,118.5366,-7.1951,19.8780,0.00,0.00,0.00,5,S01
22500,-9.16022,0.61531,-1.65679,115.4268,-8.4756,19.5732,0.00,0.00,0.00,5,S01
22520,-8.70771,0.87867,-1.45567,110.9146,-6.2805,20.2439,0.00,0.00,0.00,5,S01
22540,-8.36295,1.18274,-1.41976,104.6341,-2.5000,21.0976,0.00,0.00,0.00,5,S01
22560,-8.45393,1.46765,-1.29047,95.3049,2.7439,21.0976,0.00,0.00,0.00,5,S01
22580,-9.00938,1.85790,-0.53630,69.8171,10.4268,13.9024,0.00,0.00,0.00,5,S01
22600,-8.78672,1.70707,-0.17478,57.0732,9.7561,7.7439,0.00,0.00,0.00,5,S01
22620,-8.49223,1.23301,0.07661,48.9024,8.9634,1.3415,0.00,0.00,0.00,5,S01
22640,-8.64546,0.60094,0.34716,46.3415,9.2683,-3.5976,0.00,0.00,0.00,5,S01
22660,-8.94234,0.13886,0.77333,45.4878,8.7805,-4.8171,0.00,0.00,0.00,5,S01
22680,-9.27274,-0.03352,1.20189,46.6463,4.0854,-5.4878,0.00,0.00,0.00,5,S01
22700,-9.30147,0.16520,0.77333,49.7561,-5.9756,-7.3780,0.00,0.00,0.00,5,S01
22720,-9.21289,2.03507,-0.94332,45.9146,-11.5854,-8.7195,0.00,0.00,0.00,5,S01
22740,-9.70609,2.76530,-0.76375,25.4878,-8.2927,-3.7805,0.00,0.00,0.00,5,S01
22760,-10.11071,1.30245,1.98958,8.7195,-20.0610,5.3049,0.00,0.00,0.00,5,S01
22780,-9.46189,-0.45250,3.08373,15.1220,-43.1098,11.9512,0.00,0.00,0.00,5,S01
22800,-9.68933,-1.27850,1.64482,37.8659,-34.5732,15.7927,0.00,0.00,0.00,5,S01
22820,-11.86806,-0.26576,-2.27689,59.7561,-3.8415,22.2561,0.00,0.00,0.00,5,S01
22840,-12.57914,0.48363,-3.45244,56.2195,25.1829,41.8902,0.00,0.00,0.00,5,S01
22860,-11.06839,-0.44053,-3.02388,37.9268,20.5488,57.3781,0.00,0.00,0.00,5,S01
22880,-9.73243,-2.16436,-2.54504,40.3049,-5.7927,50.9756,0.00,0.00,0.00,5,S01
22900,-9.86411,-1.82678,-3.82833,63.4756,-19.6951,28.2317,0.00,0.00,0.00,5,S01
22920,-10.62786,0.18435,-4.14676,65.4878,-12.1951,5.2439,0.00,0.00,0.00,5,S01
22940,-10.25437,0.97444,-3.30400,43.1707,-13.9024,-8.5366,0.00,0.00,0.00,5,S01
22960,-9.25838,0.41420,-2.63841,27.5000,-24.2073,-18.9634,0.00,0.00,0.00,5,S01
22980,-8.44435,-0.48363,-2.33674,23.4756,-23.9024,-29.3293,0.00,0.00,0.00,5,S01
23000,-8.25521,-0.97683,-1.85790,23.7195,-10.7927,-37.0732,0.00,0.00,0.00,5,S01
23020,-8.42041,-0.91459,-1.49398,27.0732,1.7683,-40.0000,0.00,0.00,0.00,5,S01
23040,-8.57842,-0.81163,-1.38145,29.3902,6.8293,-38.0488,0.00,0.00,0.00,5,S01
23060,-8.59997,-0.95529,-1.17076,30.9756,9.6951,-33.9634,0.00,0.00,0.00,5,S01
23080,-8.52096,-1.19710,-1.29766,37.1341,12.0732,-28.9634,0.00,0.00,0.00,5,S01
23100,-8.45393,-1.29287,-1.55144,44.2683,13.8415,-23.7805,0.00,0.00,0.00,5,S01
23120,-8.54251,-0.96486,-1.50595,48.7805,15.2439,-18.9634,0.00,0.00,0.00,5,S01
23140,-8.65743,-0.64165,-1.15640,48.9634,14.1463,-13.5366,0.00,0.00,0.00,5,S01
23160,-8.73405,-0.70629,-0.98641,49.5122,11.4024,-8.7195,0.00,0.00,0.00,5,S01
23180,-8.69335,-0.72784,-0.94810,49.6341,10.7927,-5.9146,0.00,0.00,0.00,5,S01
23200,-8.79869,-0.57461,-1.00796,48.1098,12.7439,-5.1220,0.00,0.00,0.00,5,S01
23220,-8.98065,-0.41899,-0.91459,43.4146,13.2927,-3.9024,0.00,0.00,0.00,5,S01
23240,-9.04769,-0.43335,-0.61292,37.3780,11.2195,-2.6829,0.00,0.00,0.00,5,S01
23260,-9.23683,-0.52433,-0.18914,32.6220,7.8049,-2.1341,0.00,0.00,0.00,5,S01
23280,-9.57441,-0.42377,0.06943,26.3415,1.8293,-2.2561,0.00,0.00,0.00,5,S01
23300,-9.59357,-0.35913,0.45250,18.0488,-5.1829,-2.0122,0.00,0.00,0.00,5,S01
23320,-9.42597,-0.46687,0.79727,11.7073,-11.5854,-1.0976,0.00,0.00,0.00,5,S01
23340,-9.07163,-0.80924,0.73502,7.9878,-14.4512,0.0610,0.00,0.00,0.00,5,S01
23360,-9.18416,-1.76692,-0.39265,19.6341,-1.8902,2.6829,0.00,0.00,0.00,5,S01
23380,-10.32859,-1.78847,0.60334,20.8537,-1.1585,3.9024,0.00,0.00,0.00,5,S01
23400,-10.32859,-1.78847,0.60334,20.8537,-1.1585,3.9024,0.00,0.00,0.00,5,S01
23420,-10.96066,-0.77572,0.89543,23.9024,-13.8415,0.4878,0.00,0.00,0.00,5,S01
23440,-11.08755,-0.60813,-0.23224,18.4756,-21.3415,-5.6098,0.00,0.00,0.00,5,S01
23460,-11.77947,-1.45328,-1.88903,17.8659,-14.2073,-11.5854,0.00,0.00,0.00,5,S01
23480,-11.42752,-2.35111,-2.25534,22.2561,-8.4146,-20.4268,0.00,0.00,0.00,5,S01
23500,-9.89524,-1.31681,-2.51631,32.3780,-15.6707,-32.2561,0.00,0.00,0.00,5,S01
23520,-8.76757,0.12210,-2.81798,35.3049,-24.3902,-35.7317,0.00,0.00,0.00,5,S01
23540,-9.21049,0.13168,-2.46603,32.3171,-24.4512,-28.3537,0.00,0.00,0.00,5,S01
23560,-10.12747,-0.84994,-1.66158,35.7927,-22.1341,-16.0976,0.00,0.00,0.00,5,S01
23580,-10.11311,-1.92254,-1.54905,50.1220,-23.0488,-4.8171,0.00,0.00,0.00,5,S01
23600,-9.42597,-2.11887,-1.85072,70.0000,-20.6707,2.3780,0.00,0.00,0.00,5,S01
23620,-8.88967,-1.36709,-2.39420,85.6098,-13.2317,8.7805,0.00,0.00,0.00,5,S01
23640,-8.83700,-0.57940,-2.59771,91.6463,-7.2561,16.0366,0.00,0.00,0.00,5,S01
23660,-8.87291,-0.17238,-2.36787,92.0732,-6.4024,21.7073,0.00,0.00,0.00,5,S01
23680,-8.89207,0.18914,-1.79805,90.6098,-8.7805,23.2317,0.00,0.00,0.00,5,S01
23700,-8.92319,0.66080,-1.38145,88.9634,-9.5122,22.0732,0.00,0.00,0.00,5,S01
23720,-8.95671,0.99120,-1.12288,84.5122,-5.7927,21.4634,0.00,0.00,0.00,5,S01
23740,-8.88249,0.85473,-0.89543,78.4756,-0.3659,21.6463,0.00,0.00,0.00,5,S01
23760,-8.70292,0.45011,-0.76375,73.8415,4.2683,21.2195,0.00,0.00,0.00,5,S01
23780,-8.73644,0.88346,-0.58179,63.8415,9.3902,17.6220,0.00,0.00,0.00,5,S01
23800,-8.82982,1.29287,-0.44053,54.5732,8.5366,16.4024,0.00,0.00,0.00,5,S01
23820,-8.88728,1.37667,-0.25139,44.7561,6.8293,13.7195,0.00,0.00,0.00,5,S01
23840,-8.74602,1.05824,-0.08140,36.5854,5.4268,9.1463,0.00,0.00,0.00,5,S01
23860,-8.54730,0.73741,0.04310,31.0366,5.4878,4.0854,0.00,0.00,0.00,5,S01
23880,-8.50181,0.66319,0.30646,26.4634,6.5244,-0.0610,0.00,0.00,0.00,5,S01
23900,-8.76757,0.56743,0.68235,23.7195,5.4878,-4.2073,0.00,0.00,0.00,5,S01
23920,-8.97586,0.35434,0.97444,24.0854,2.0732,-7.2561,0.00,0.00,0.00,5,S01
23940,-9.00938,0.05746,1.31442,25.6707,-1.0976,-7.9878,0.00,0.00,0.00,5,S01
23960,-9.18176,0.14126,1.41737,27.7439,-3.5976,-7.0732,0.00,0.00,0.00,5,S01
23980,-9.34457,1.57538,0.34237,26.2195,-5.2439,-5.8537,0.00,0.00,0.00,5,S01
24000,-9.67497,3.12204,-0.57461,11.7073,-2.9268,-1.0366,0.00,0.00,0.00,5,S01
24020,-10.35253,2.20985,0.58179,-7.1951,-5.2439,7.2561,0.00,0.00,0.00,5,S01
24040,-10.53688,0.31603,1.91776,-9.3293,-20.4878,12.6829,0.00,0.00,0.00,5,S01
24060,-9.75877,-1.66397,2.94966,2.9878,-25.7317,15.1220,0.00,0.00,0.00,5,S01
24080,-9.31823,-1.96803,2.88741,20.0610,-15.7927,13.2927,0.00,0.00,0.00,5,S01
24100,-11.18332,-0.34716,0.77093,37.5000,-1.8902,13.6585,0.00,0.00,0.00,5,S01
24120,-13.03403,1.82199,-1.34075,45.7927,17.5000,26.8902,0.00,0.00,0.00,5,S01
24140,-11.82975,1.52750,-2.55461,36.4024,27.2561,47.8049,0.00,0.00,0.00,5,S01
24160,-9.22246,-0.06704,-2.96163,25.1220,19.3293,54.4512,0.00,0.00,0.00,5,S01
24180,-6.96713,-0.81642,-3.32555,27.9268,10.0000,45.2439,0.00,0.00,0.00,5,S01
24200,-7.52498,0.22984,-3.96959,37.3171,7.1951,29.6341,0.00,0.00,0.00,5,S01
24220,-9.86890,2.11647,-4.26647,30.4268,6.0976,15.3049,0.00,0.00,0.00,5,S01
24240,-10.74757,2.46363,-4.11563,7.4390,0.1829,6.2805,0.00,0.00,0.00,5,S01
24260,-10.30704,1.33118,-3.05740,-13.2317,-9.9390,-3.7195,0.00,0.00,0.00,5,S01
24280,-9.66779,-0.08140,-2.38462,-19.0244,-20.7317,-18.2927,0.00,0.00,0.00,5,S01
24300,-9.01896,-0.66559,-2.03507,-17.2561,-22.9268,-32.1951,0.00,0.00,0.00,5,S01
24320,-8.57364,-0.39025,-1.63524,-16.4024,-16.6463,-39.5122,0.00,0.00,0.00,5,S01
24340,-8.32703,-0.28012,-1.02472,-18.2927,-8.2927,-40.1829,0.00,0.00,0.00,5,S01
24360,-8.21211,-0.37828,-0.57221,-15.0610,-0.5488,-39.2073,0.00,0.00,0.00,5,S01
24380,-8.32224,-0.60813,-0.29928,-6.2195,7.5610,-38.4756,0.00,0.00,0.00,5,S01
24400,-8.82024,-0.94810,0.04549,11.1585,14.5732,-32.6220,0.00,0.00,0.00,5,S01
24420,-8.82024,-0.94810,0.04549,11.1585,14.5732,-32.6220,0.00,0.00,0.00,5,S01
24440,-8.92319,-0.92895,0.22745,17.7439,13.7805,-27.3780,0.00,0.00,0.00,5,S01
24460,-8.86573,-0.67277,0.29449,24.5122,13.2927,-21.5854,0.00,0.00,0.00,5,S01
24480,-8.83221,-0.43096,0.37350,28.7195,12.3171,-15.1220,0.00,0.00,0.00,5,S01
24500,-8.83939,-0.30167,0.39504,31.5244,11.2195,-10.1829,0.00,0.00,0.00,5,S01
24520,-8.89685,-0.21069,0.49560,33.7805,11.6463,-7.1951,0.00,0.00,0.00,5,S01
24540,-9.00220,-0.11013,0.69432,34.5732,11.1585,-5.0610,0.00,0.00,0.00,5,S01
24560,-9.16979,0.08619,0.82839,32.0122,8.8415,-3.8415,0.00,0.00,0.00,5,S01
24580,-9.15303,0.35913,0.89783,25.4268,5.5488,-3.4756,0.00,0.00,0.00,5,S01
24600,-9.18416,0.39265,1.14682,17.0122,1.1585,-3.1707,0.00,0.00,0.00,5,S01
24620,-9.25838,0.07901,1.28569,9.8780,-4.2073,-1.8902,0.00,0.00,0.00,5,S01
24640,-8.97347,-1.54187,0.53391,9.4512,-5.6098,-0.3659,0.00,0.00,0.00,5,S01
24660,-8.99502,-2.27689,-1.23780,25.3049,2.1951,-0.9756,0.00,0.00,0.00,5,S01
24680,-9.74201,-1.44370,-0.12210,31.6463,7.5610,-4.5122,0.00,0.00,0.00,5,S01
24700,-10.69969,0.37828,0.99838,22.0122,-6.8293,-14.2073,0.00,0.00,0.00,5,S01
24720,-11.87285,1.98240,0.20111,11.4024,-19.6951,-22.6829,0.00,0.00,0.00,5,S01
24740,-12.72997,1.11091,-0.95529,2.3171,-20.0610,-28.4756,0.00,0.00,0.00,5,S01
24760,-12.79222,-0.68474,-1.97282,-5.6098,-21.3415,-36.4634,0.00,0.00,0.00,5,S01
24780,-10.80264,-1.49638,-2.28407,-12.5610,-26.5854,-39.2683,0.00,0.00,0.00,5,S01
24800,-8.04212,-1.63524,-2.56658,-12.4390,-29.6341,-31.9512,0.00,0.00,0.00,5,S01
24820,-6.79714,-1.25456,-2.42054,-7.8659,-22.6220,-23.1707,0.00,0.00,0.00,5,S01
24840,-8.40844,-1.08218,-1.54426,-3.3537,-13.0488,-16.9512,0.00,0.00,0.00,5,S01
24860,-10.01495,-1.17076,-1.15879,5.7317,-11.5854,-11.4634,0.00,0.00,0.00,5,S01
24880,-10.27591,-1.59214,-1.17076,21.6463,-10.0610,-7.5000,0.00,0.00,0.00,5,S01
24900,-9.74919,-1.16837,-1.99198,40.0610,-7.0122,-3.1098,0.00,0.00,0.00,5,S01
24920,-9.19373,-0.51954,-2.26731,46.9512,-1.4634,6.3415,0.00,0.00,0.00,5,S01
24940,-9.01896,0.29209,-2.14281,48.9634,7.3780,13.4756,0.00,0.00,0.00,5,S01
24960,-9.24641,0.79727,-1.61130,45.1829,12.1951,16.3415,0.00,0.00,0.00,5,S01
24980,-9.35175,1.10612,-1.29766,39.3902,9.7561,17.8049,0.00,0.00,0.00,5,S01
25000,-8.92319,0.56024,-0.42138,23.6585,2.8049,20.7317,0.00,0.00,0.00,5,S01
25020,-8.69335,0.27054,-0.15562,20.8537,0.9146,19.5732,0.00,0.00,0.00,5,S01
25040,-8.54012,0.16759,0.18196,19.2073,1.8902,17.1951,0.00,0.00,0.00,5,S01
25060,-8.39886,0.21548,0.27054,17.9268,3.5976,14.0244,0.00,0.00,0.00,5,S01
25080,-8.40844,0.09577,0.50996,16.9512,5.0610,10.4878,0.00,0.00,0.00,5,S01
25100,-8.65504,0.02634,0.59137,19.5732,6.5244,5.7317,0.00,0.00,0.00,5,S01
25120,-8.93037,0.00000,0.67756,22.1341,7.1951,1.3415,0.00,0.00,0.00,5,S01
25140,-9.12909,0.12450,0.83797,22.2561,6.3415,-1.3415,0.00,0.00,0.00,5,S01
25160,-9.17698,0.22027,1.05105,20.7927,4.8171,-2.6220,0.00,0.00,0.00,5,S01
25180,-9.08121,0.23703,1.26653,21.7073,3.4146,-3.0488,0.00,0.00,0.00,5,S01
25200,-8.79151,0.16999,1.33596,25.6098,0.7317,-3.2927,0.00,0.00,0.00,5,S01
25220,-8.61434,0.22984,0.96965,30.9146,-1.4634,-4.3902,0.00,0.00,0.00,5,S01
25240,-9.06205,1.52989,0.03112,32.8659,0.6098,-6.0976,0.00,0.00,0.00,5,S01
25260,-9.93833,2.78446,-0.44293,21.8293,4.0244,-1.7073,0.00,0.00,0.00,5,S01
25280,-10.29507,2.30322,0.31125,7.1341,0.7927,6.6463,0.00,0.00,0.00,5,S01
25300,-9.76116,0.92416,1.44849,7.3780,-9.1463,11.4024,0.00,0.00,0.00,5,S01
25320,-8.70053,-0.58897,1.69988,20.4268,-16.8293,11.2195,0.00,0.00,0.00,5,S01
25340,-9.58160,-1.53229,0.40701,37.9268,-15.7317,8.8415,0.00,0.00,0.00,5,S01
25360,-12.14339,-0.39265,-2.48997,54.8781,-3.5976,13.6585,0.00,0.00,0.00,5,S01
25380,-12.98854,0.59137,-2.85149,49.3293,14.2683,32.8659,0.00,0.00,0.00,5,S01
25400,-11.56399,-0.37828,-1.80044,37.5000,8.1707,48.1098,0.00,0.00,0.00,5,S01
25420,-9.75158,-2.33195,-1.61609,44.7561,-10.9146,41.0976,0.00,0.00,0.00,5,S01
25440,-8.89207,-2.33195,-2.71742,72.4390,-15.4268,17.7439,0.00,0.00,0.00,5,S01
25460,-9.11712,-0.52672,-2.94487,83.9024,-7.3171,0.7317,0.00,0.00,0.00,5,S01
25480,-9.56723,1.21147,-1.94170,44.5732,3.8415,-5.6707,0.00,0.00,0.00,5,S01
25500,-9.40442,0.33040,-1.34554,25.7927,3.5976,-13.4146,0.00,0.00,0.00,5,S01
25520,-9.40442,0.33040,-1.34554,25.7927,3.5976,-13.4146,0.00,0.00,0.00,5,S01
25540,-9.32063,-0.49799,-1.04866,18.5366,3.1098,-23.1707,0.00,0.00,0.00,5,S01
25560,-8.97826,-1.01993,-0.73981,17.8049,2.2561,-29.3902,0.00,0.00,0.00,5,S01
25580,-8.60715,-1.18034,-0.71587,20.1829,0.4878,-30.3659,0.00,0.00,0.00,5,S01
25600,-8.57603,-0.98641,-0.94092,22.0732,2.5000,-27.3171,0.00,0.00,0.00,5,S01
25620,-8.76996,-0.69432,-0.96007,22.4390,7.8049,-22.4390,0.00,0.00,0.00,5,S01
25640,-8.96629,-0.57940,-0.89064,22.9268,10.3049,-18.1098,0.00,0.00,0.00,5,S01
25660,-9.16979,-0.70150,-0.74939,23.6585,7.9878,-14.5732,0.00,0.00,0.00,5,S01
25680,-9.25598,-0.79487,-0.57461,24.1463,4.2683,-12.0122,0.00,0.00,0.00,5,S01
25700,-9.27035,-0.62249,-0.46687,24.3902,2.0732,-9.3293,0.00,0.00,0.00,5,S01
25720,-9.15782,-0.24900,-0.54109,21.2805,0.6098,-6.3415,0.00,0.00,0.00,5,S01
25740,-9.14585,-0.07901,-0.53151,16.9512,0.6098,-4.2683,0.00,0.00,0.00,5,S01
25760,-9.16740,-0.04070,-0.61531,11.6463,-0.1220,-4.3293,0.00,0.00,0.00,5,S01
25780,-9.11473,-0.02155,-0.62010,4.8780,-0.9756,-5.6707,0.00,0.00,0.00,5,S01
25800,-9.16261,-0.23463,-0.22984,-2.0122,-1.2195,-7.1341,0.00,0.00,0.00,5,S01
25820,-9.25838,-0.64165,0.07183,-4.8780,-3.1098,-7.4390,0.00,0.00,0.00,5,S01
25840,-9.22486,-0.90261,0.16041,-3.6585,-5.1220,-5.9756,0.00,0.00,0.00,5,S01
25860,-8.97586,-0.89304,0.04310,-2.3171,-6.6463,-3.3537,0.00,0.00,0.00,5,S01
25880,-8.72447,-0.80206,0.07661,-1.6463,-7.4390,-0.7927,0.00,0.00,0.00,5,S01
25900,-8.57842,-0.88825,0.02394,0.6098,-9.3902,1.5854,0.00,0.00,0.00,5,S01
25920,-8.69574,-1.10852,0.11492,5.3049,-11.7073,3.5976,0.00,0.00,0.00,5,S01
25940,-8.32464,-1.13246,-0.13886,9.3902,-14.5122,6.0976,0.00,0.00,0.00,5,S01
25960,-7.39808,-1.08457,-0.68235,10.6098,-12.9268,8.5366,0.00,0.00,0.00,5,S01
25980,-6.12916,-0.93374,-1.39343,10.7927,-4.7561,9.5732,0.00,0.00,0.00,5,S01
26000,-5.46357,-1.06303,-0.62489,11.5854,6.7683,7.7439,0.00,0.00,0.00,5,S01
26020,-6.95037,-0.75896,0.95050,15.6707,9.2683,3.3537,0.00,0.00,0.00,5,S01
26040,-8.44914,-0.03591,0.85712,18.4756,3.9634,5.4878,0.00,0.00,0.00,5,S01
26060,-7.43639,0.40941,-0.68235,15.9146,5.6098,15.4268,0.00,0.00,0.00,5,S01
26080,-5.49230,0.13168,-1.11570,8.1098,21.1585,22.5610,0.00,0.00,0.00,5,S01
26100,-5.90410,-0.50996,0.82839,1.5244,31.4634,18.9024,0.00,0.00,0.00,5,S01
26120,-7.94875,-1.15879,2.19069,-0.1829,18.6585,9.3293,0.00,0.00,0.00,5,S01
26140,-8.25760,-1.09894,0.59376,1.8902,1.8293,4.8780,0.00,0.00,0.00,5,S01
26160,-6.88572,-0.92416,-0.19872,-1.4634,3.6585,4.8780,0.00,0.00,0.00,5,S01
26180,-7.34541,-1.00078,1.81241,0.7927,7.3171,2.3780,0.00,0.00,0.00,5,S01
26200,-11.64300,-1.99916,-1.50116,21.5244,-22.7439,3.3537,0.00,0.00,0.00,5,S01
26220,-11.86327,-0.08619,-2.77967,20.9756,-5.7317,-0.8537,0.00,0.00,0.00,5,S01
26240,-12.38760,2.14042,-1.94888,6.9512,-5.4878,-5.1829,0.00,0.00,0.00,5,S01
26260,-15.69399,2.26013,-1.92254,-8.5366,-39.9390,-10.0610,0.00,0.00,0.00,5,S01
26280,-17.13051,0.55785,-1.47243,-2.0122,-49.7561,-29.8171,0.00,0.00,0.00,5,S01
26300,-15.40669,0.18196,-0.29688,19.4512,-44.8171,-38.5976,0.00,0.00,0.00,5,S01
26320,-13.12262,0.56743,0.39265,22.1951,-55.3049,-14.6951,0.00,0.00,0.00,5,S01
26340,-12.56477,0.89304,0.46687,10.8537,-47.7439,14.7561,0.00,0.00,0.00,5,S01
26360,-12.49534,0.88585,0.61292,5.3659,-26.1585,18.0488,0.00,0.00,0.00,5,S01
26380,-11.42513,0.74939,0.12929,13.9024,-10.4878,0.7317,0.00,0.00,0.00,5,S01
26400,-9.68694,0.66080,-0.38547,27.2561,-1.4024,-7.6220,0.00,0.00,0.00,5,S01
26420,-8.40125,0.56982,-0.94092,39.5122,6.4634,-2.8659,0.00,0.00,0.00,5,S01
26440,-7.68778,0.64643,-0.96247,45.3659,20.3659,2.1341,0.00,0.00,0.00,5,S01
26460,-7.40048,0.68474,-0.72065,44.1463,33.6585,1.5244,0.00,0.00,0.00,5,S01
26480,-7.41005,0.70868,-0.62249,39.6341,37.7439,-2.2561,0.00,0.00,0.00,5,S01
26500,-7.72848,0.73023,-0.46926,33.4146,36.4634,-4.7561,0.00,0.00,0.00,5,S01
26520,-8.10437,0.79248,-0.73263,25.8537,33.4146,-7.0732,0.00,0.00,0.00,5,S01
26540,-8.10437,0.79248,-0.73263,25.8537,33.4146,-7.0732,0.00,0.00,0.00,5,S01
26560,-8.14747,0.44532,-0.75178,28.1707,28.7195,-8.6585,0.00,0.00,0.00,5,S01
26580,-8.47547,0.39983,-0.45969,29.3293,23.0488,-10.6098,0.00,0.00,0.00,5,S01
26600,-8.76996,0.73981,0.16759,25.6707,16.9512,-9.8171,0.00,0.00,0.00,5,S01
26620,-8.52336,0.73981,0.36152,19.6951,10.5488,-6.5244,0.00,0.00,0.00,5,S01
26640,-7.64469,0.51954,-0.20351,18.4756,9.8171,-4.9390,0.00,0.00,0.00,5,S01
26660,-6.64391,0.71347,-0.58658,20.0610,17.5610,-5.6707,0.00,0.00,0.00,5,S01
26680,-6.50026,0.95050,-0.33519,15.9756,24.0854,-4.6951,0.00,0.00,0.00,5,S01
26700,-7.06529,0.67995,-0.20590,11.0976,25.0000,-1.7073,0.00,0.00,0.00,5,S01
26720,-7.07965,0.57221,-0.83797,13.2317,26.8902,-2.1951,0.00,0.00,0.00,5,S01
26740,-7.22570,1.48201,-0.16999,10.6098,28.7805,-4.2073,0.00,0.00,0.00,5,S01
26760,-8.42041,2.39660,1.30005,-8.3537,10.9756,-2.3780,0.00,0.00,0.00,5,S01
26780,-9.65582,2.07098,0.79966,-28.9024,-15.6707,-0.9146,0.00,0.00,0.00,5,S01
26800,-8.79390,0.91698,-0.97205,-31.5244,-15.0610,-8.5976,0.00,0.00,0.00,5,S01
26820,-7.63511,1.02711,-0.06943,-23.9634,-2.0122,-18.4756,0.00,0.00,0.00,5,S01
26840,-8.20014,1.75974,2.21224,-38.9634,-19.5732,-16.1585,0.00,0.00,0.00,5,S01
26860,-9.37569,1.59214,2.69587,-60.1220,-42.1341,-6.8902,0.00,0.00,0.00,5,S01
26880,-9.82820,0.94810,0.73981,-58.4756,-25.6707,-7.8049,0.00,0.00,0.00,5,S01
26900,-10.19930,0.65122,-1.83875,-45.4878,8.4146,-11.7073,0.00,0.00,0.00,5,S01
26920,-10.93911,-0.27054,-2.16675,-35.6707,19.8171,0.3659,0.00,0.00,0.00,5,S01
26940,-11.97819,-0.60813,-1.67115,-38.5976,-7.3171,21.0976,0.00,0.00,0.00,5,S01
26960,-13.35246,-1.43413,-0.39265,-46.8902,-39.6951,27.6829,0.00,0.00,0.00,5,S01
26980,-15.62695,-1.24020,-3.78044,-26.2805,-48.4146,19.3293,0.00,0.00,0.00,5,S01
27000,-14.75786,-0.10534,-1.74777,-26.5244,-25.1220,17.8049,0.00,0.00,0.00,5,S01
27020,-12.03805,-0.39025,-0.93134,-42.1341,-41.8902,14.5732,0.00,0.00,0.00,5,S01
27040,-11.12107,-0.60094,-0.62968,-33.9024,-42.5610,-3.4756,0.00,0.00,0.00,5,S01
27060,-11.42513,-1.33357,-0.06704,-21.2195,-21.1585,-19.2073,0.00,0.00,0.00,5,S01
27080,-11.04924,-1.84832,0.33758,-12.9878,-12.7439,-23.4756,0.00,0.00,0.00,5,S01
27100,-10.22324,-1.68312,0.08380,-5.6098,-3.4146,-22.0122,0.00,0.00,0.00,5,S01
27120,-9.80665,-1.12049,-0.52194,0.6098,10.9756,-17.6829,0.00,0.00,0.00,5,S01
27140,-9.48104,-0.35913,-0.94092,3.3537,21.7073,-12.3171,0.00,0.00,0.00,5,S01
27160,-8.89446,-0.00718,-0.84276,3.2317,24.5732,-7.5000,0.00,0.00,0.00,5,S01
27180,-8.16662,-0.25857,-0.58897,4.3293,19.8780,-3.6585,0.00,0.00,0.00,5,S01
27200,-7.85059,-0.29209,-0.72305,7.1951,17.0122,-1.4634,0.00,0.00,0.00,5,S01
27220,-8.02058,-0.03352,-0.87628,8.8415,19.8780,0.5488,0.00,0.00,0.00,5,S01
27240,-8.25281,0.10534,-0.84276,8.2317,20.0610,3.7195,0.00,0.00,0.00,5,S01
27260,-8.45393,-0.12929,-0.49081,5.2439,16.2805,6.4024,0.00,0.00,0.00,5,S01
27280,-8.74602,-0.37589,0.01437,3.5366,10.2439,7.2561,0.00,0.00,0.00,5,S01
27300,-8.81545,-0.06704,0.08619,1.0976,2.3171,7.0122,0.00,0.00,0.00,5,S01
27320,-8.27915,0.31125,-0.17478,-3.2317,-1.4024,7.9878,0.00,0.00,0.00,5,S01
27340,-7.16106,0.22745,-0.59855,-7.7439,2.1951,9.8171,0.00,0.00,0.00,5,S01
27360,-6.14352,-0.42617,-0.69432,-10.3659,13.9024,11.2195,0.00,0.00,0.00,5,S01
27380,-5.72454,-0.99120,-0.58179,-9.8171,28.8415,10.2439,0.00,0.00,0.00,5,S01
27400,-6.38534,-0.50278,-0.27533,-11.2195,42.6829,6.8293,0.00,0.00,0.00,5,S01
27420,-7.54174,0.30406,-0.44772,-13.9634,57.5610,10.7927,0.00,0.00,0.00,5,S01
27440,-7.30232,-0.96007,-0.06704,-8.9024,53.4756,15.0000,0.00,0.00,0.00,5,S01
27460,-8.11874,-2.04225,0.86910,0.6098,43.8415,15.7317,0.00,0.00,0.00,5,S01
27480,-9.40203,-1.76932,0.44772,12.4390,27.6829,14.3902,0.00,0.00,0.00,5,S01
27500,-8.94713,-0.94571,-0.59855,20.2439,12.2561,14.5122,0.00,0.00,0.00,5,S01
27520,-8.03973,-0.79487,0.29449,23.2927,0.4268,13.5366,0.00,0.00,0.00,5,S01
27540,-8.05888,-1.14443,1.37667,30.6707,-16.2805,9.5122,0.00,0.00,0.00,5,S01
27560,-7.84101,-0.75178,0.50278,40.7927,-20.5488,7.5000,0.00,0.00,0.00,5,S01
27580,-8.79869,-0.17478,-1.88424,39.6341,5.0610,-3.2927,0.00,0.00,0.00,5,S01
27600,-8.79869,-0.17478,-1.88424,39.6341,5.0610,-3.2927,0.00,0.00,0.00,5,S01
27620,-11.46583,0.78290,-1.51074,43.7195,-4.8780,-14.6951,0.00,0.00,0.00,5,S01
27640,-13.19684,1.54905,-1.02711,35.4878,-33.5366,-17.3171,0.00,0.00,0.00,5,S01
27660,-15.37556,0.94332,-3.31358,34.0244,-50.3049,-18.3537,0.00,0.00,0.00,5,S01
27680,-15.72991,0.35434,-3.14598,46.5244,-31.3415,-30.4878,0.00,0.00,0.00,5,S01
27700,-14.90151,1.41018,-2.38462,49.1463,-30.9756,-37.8049,0.00,0.00,0.00,5,S01
27720,-14.40591,1.89621,-1.82917,41.2195,-40.8537,-19.7561,0.00,0.00,0.00,5,S01
27740,-14.58069,1.43413,-0.77812,27.6829,-31.1585,4.8780,0.00,0.00,0.00,5,S01
27760,-13.66610,0.96247,-0.81882,23.1707,-17.0122,11.5244,0.00,0.00,0.00,5,S01
27780,-11.70046,0.97205,-1.26653,28.3537,-16.3415,6.8902,0.00,0.00,0.00,5,S01
27800,-9.32302,1.33118,-1.51553,31.0366,-18.1098,5.5488,0.00,0.00,0.00,5,S01
27820,-7.54652,1.33118,-1.56102,32.1341,-6.8293,8.0488,0.00,0.00,0.00,5,S01
27840,-7.03656,0.96247,-1.39821,32.8659,11.8902,8.2927,0.00,0.00,0.00,5,S01
27860,-7.20415,0.59616,-1.31921,31.8293,25.4268,6.4634,0.00,0.00,0.00,5,S01
27880,-7.46991,0.09577,-1.19950,30.4878,30.0610,5.3049,0.00,0.00,0.00,5,S01
27900,-7.47949,-0.16281,-1.17795,32.8659,27.1341,3.0488,0.00,0.00,0.00,5,S01
27920,-7.54174,-0.05267,-1.29047,36.8902,20.2439,-0.7317,0.00,0.00,0.00,5,S01
27940,-7.82665,0.14126,-1.11330,38.2317,14.5122,-5.4878,0.00,0.00,0.00,5,S01
27960,-8.14268,0.51236,-0.84276,39.0244,9.6341,-10.9756,0.00,0.00,0.00,5,S01
27980,-8.18817,0.73263,-0.80685,39.6341,5.2439,-13.3537,0.00,0.00,0.00,5,S01
28000,-7.67581,0.68953,-0.94810,39.8171,4.3902,-12.1341,0.00,0.00,0.00,5,S01
28020,-6.73010,0.73023,-0.81642,38.8415,8.0488,-10.4878,0.00,0.00,0.00,5,S01
28040,-6.18662,0.85952,-0.29688,35.9756,11.0976,-7.6220,0.00,0.00,0.00,5,S01
28060,-6.84981,0.83797,-0.14605,28.1707,10.6098,-5.1829,0.00,0.00,0.00,5,S01
28080,-7.08205,0.57940,-0.42377,23.7805,15.8537,-8.6585,0.00,0.00,0.00,5,S01
28100,-6.90967,1.28569,-0.65122,26.1585,23.1707,-16.0366,0.00,0.00,0.00,5,S01
28120,-7.39808,2.72939,-0.01676,18.1098,18.5366,-16.7683,0.00,0.00,0.00,5,S01
28140,-8.68138,3.12922,0.39744,-7.0122,-2.7439,-9.8780,0.00,0.00,0.00,5,S01
28160,-9.18655,2.39660,-0.94571,-28.1098,-15.5488,-8.1707,0.00,0.00,0.00,5,S01
28180,-8.40365,2.16436,-1.71904,-30.9146,-1.5854,-17.3171,0.00,0.00,0.00,5,S01
28200,-7.80031,2.74136,-0.73502,-36.4024,-0.4878,-22.0732,0.00,0.00,0.00,5,S01
28220,-8.37731,2.89220,0.41899,-62.3781,-25.8537,-14.4512,0.00,0.00,0.00,5,S01
28240,-9.62708,2.71981,-1.33596,-83.1707,-33.9634,-4.2073,0.00,0.00,0.00,5,S01
28260,-10.59913,0.81642,-2.82276,-81.6463,-5.0610,4.4512,0.00,0.00,0.00,5,S01
28280,-11.92312,-1.81959,-3.87142,-66.4024,3.2927,10.9146,0.00,0.00,0.00,5,S01
28300,-13.64934,-4.26886,-2.06859,-62.1951,-26.4634,9.8780,0.00,0.00,0.00,5,S01
28320,-14.76744,-3.86185,-1.55144,-53.4756,-78.8415,1.4634,0.00,0.00,0.00,5,S01
28340,-13.26388,-0.43335,-0.62968,-47.4390,-90.4268,1.0366,0.00,0.00,0.00,5,S01
28360,-12.46182,1.02711,-1.07978,-48.3537,-66.2195,10.4268,0.00,0.00,0.00,5,S01
28380,-13.39556,0.78290,-0.28730,-49.2073,-39.3293,13.5976,0.00,0.00,0.00,5,S01
28400,-13.97017,-0.77333,0.27054,-57.3781,-28.7195,10.4878,0.00,0.00,0.00,5,S01
28420,-12.75631,-2.23140,0.62249,-54.2073,-23.0488,3.3537,0.00,0.00,0.00,5,S01
28440,-10.98939,-2.68151,0.32322,-42.7439,-18.4146,-6.5854,0.00,0.00,0.00,5,S01
28460,-9.43316,-2.08774,-0.24181,-29.7561,-6.5854,-13.3537,0.00,0.00,0.00,5,S01
28480,-8.61194,-1.01754,-0.75657,-20.3659,10.4878,-15.1220,0.00,0.00,0.00,5,S01
28500,-8.34858,-0.42138,-0.78530,-18.2317,24.1463,-13.4756,0.00,0.00,0.00,5,S01
28520,-8.22169,-0.62249,-0.50518,-18.9024,27.7439,-10.7927,0.00,0.00,0.00,5,S01
28540,-7.83862,-0.97205,-0.31364,-18.2317,22.9268,-8.1707,0.00,0.00,0.00,5,S01
28560,-7.11078,-1.06542,-0.39744,-14.8780,17.3171,-5.6707,0.00,0.00,0.00,5,S01
28580,-6.51462,-0.97683,-0.54827,-9.5732,17.1951,-3.8415,0.00,0.00,0.00,5,S01
28600,-6.19859,-0.99599,-0.31843,-6.7073,21.2805,-2.4390,0.00,0.00,0.00,5,S01
28620,-8.80587,0.28012,-0.60334,-9.8780,3.1098,13.4146,0.00,0.00,0.00,5,S01
28640,-8.80587,0.28012,-0.60334,-9.8780,3.1098,13.4146,0.00,0.00,0.00,5,S01
28660,-6.82347,-1.28808,-0.27773,-15.5488,1.2195,26.7683,0.00,0.00,0.00,5,S01
28680,-6.09564,-2.24576,-0.09337,-17.0122,2.1341,23.2927,0.00,0.00,0.00,5,S01
28700,-6.46195,-1.91297,0.21548,-11.2805,3.7805,8.5366,0.00,0.00,0.00,5,S01
28720,-5.91368,-0.82121,0.22027,0.0610,5.3659,-3.1707,0.00,0.00,0.00,5,S01
28740,-5.62398,-0.31125,1.05105,9.1463,4.1463,-7.3780,0.00,0.00,0.00,5,S01
28760,-6.31590,-0.21308,1.55144,15.9756,-0.4268,-4.1463,0.00,0.00,0.00,5,S01
28780,-7.08205,-0.21308,0.46687,15.2439,2.8659,5.4878,0.00,0.00,0.00,5,S01
28800,-7.18021,0.28491,-0.84276,7.3780,17.1951,15.4268,0.00,0.00,0.00,5,S01
28820,-8.07085,0.16281,-0.31843,-4.6951,22.9268,17.3780,0.00,0.00,0.00,5,S01
28840,-10.73560,-0.98641,-0.03352,-5.3659,7.5000,11.2195,0.00,0.00,0.00,5,S01
28860,-13.20163,-1.45567,-1.24738,14.8171,-2.5000,3.7195,0.00,0.00,0.00,5,S01
28880,-14.31493,-0.01915,-1.74298,33.7805,-2.8049,-0.6707,0.00,0.00,0.00,5,S01
28900,-14.42028,1.60172,-2.11408,35.7927,-19.0244,-0.9146,0.00,0.00,0.00,5,S01
28920,-14.25987,2.16915,-1.77410,27.3171,-24.1463,-1.0976,0.00,0.00,0.00,5,S01
28940,-14.51126,1.82438,-0.90261,13.9024,-13.4146,-2.1341,0.00,0.00,0.00,5,S01
28960,-14.38436,1.24259,-0.49321,6.5244,-4.7561,-0.9756,0.00,0.00,0.00,5,S01
28980,-13.80736,0.68474,-0.62489,4.2073,-1.8902,4.2073,0.00,0.00,0.00,5,S01
29000,-12.92151,0.59137,-0.60094,2.8049,2.1341,9.5732,0.00,0.00,0.00,5,S01
29020,-11.65019,0.81642,-0.60813,3.6585,6.0976,11.2805,0.00,0.00,0.00,5,S01
29040,-10.08917,0.98881,-1.16837,8.0488,8.7805,11.3415,0.00,0.00,0.00,5,S01
29060,-8.98783,1.08697,-1.60172,12.0732,15.0610,10.5488,0.00,0.00,0.00,5,S01
29080,-8.57603,1.21865,-1.62327,12.1341,23.2317,8.2317,0.00,0.00,0.00,5,S01
29100,-8.36055,1.17555,-1.51074,9.4512,26.7683,6.1585,0.00,0.00,0.00,5,S01
29120,-8.17141,0.95050,-1.25456,5.3049,24.3293,5.1829,0.00,0.00,0.00,5,S01
29140,-8.16902,0.70629,-1.18992,3.1098,21.4634,3.3537,0.00,0.00,0.00,5,S01
29160,-8.60955,0.45011,-1.16598,4.0854,22.6829,-0.1829,0.00,0.00,0.00,5,S01
29180,-8.90404,0.21069,-1.23062,9.4512,22.8659,-3.1707,0.00,0.00,0.00,5,S01
29200,-8.59997,0.12450,-1.27611,17.9268,20.0000,-3.9634,0.00,0.00,0.00,5,S01
29220,-8.34140,0.30885,-1.13485,25.7927,16.4634,-3.4146,0.00,0.00,0.00,5,S01
29240,-8.83700,0.56264,-0.75896,30.5488,13.8415,-2.5000,0.00,0.00,0.00,5,S01
29260,-9.27753,0.62249,-0.68953,34.0854,10.7927,-1.9512,0.00,0.00,0.00,5,S01
29280,-9.00459,0.39504,-0.78769,36.7073,8.2317,-4.2683,0.00,0.00,0.00,5,S01
29300,-8.40844,0.40462,-0.98162,40.8537,8.1098,-9.1463,0.00,0.00,0.00,5,S01
29320,-8.26239,0.58179,-1.15401,45.5488,10.1829,-13.3537,0.00,0.00,0.00,5,S01
29340,-8.28633,0.54827,-1.24977,49.2073,12.8049,-13.7195,0.00,0.00,0.00,5,S01
29360,-8.29112,0.17717,-1.24259,51.9512,13.2317,-10.8537,0.00,0.00,0.00,5,S01
29380,-8.58321,0.58658,-1.40779,53.0488,9.3902,-9.6341,0.00,0.00,0.00,5,S01
29400,-8.91840,1.53468,-0.96007,45.3049,2.9878,-9.5122,0.00,0.00,0.00,5,S01
29420,-8.80348,1.75256,-0.88107,33.3537,-6.9512,-9.2683,0.00,0.00,0.00,5,S01
29440,-7.93438,1.24738,-1.34315,28.3537,-9.5732,-12.2561,0.00,0.00,0.00,5,S01
29460,-7.12993,1.36709,-1.13964,28.2317,-2.1951,-16.2805,0.00,0.00,0.00,5,S01
29480,-7.24485,1.69270,-0.25857,21.7073,-2.2561,-13.3537,0.00,0.00,0.00,5,S01
29500,-7.68299,1.75016,-0.12689,11.3415,-13.6585,-5.9756,0.00,0.00,0.00,5,S01
29520,-7.52019,2.01113,-0.23703,3.1707,-20.0000,-5.7927,0.00,0.00,0.00,5,S01
29540,-6.81150,2.41096,-0.88825,-1.7683,-16.1585,-11.0976,0.00,0.00,0.00,5,S01
29560,-6.88333,3.40934,-0.52672,-12.1341,-11.0976,-12.1341,0.00,0.00,0.00,5,S01
29580,-7.54413,3.74932,0.18914,-38.0488,-15.8537,-8.1707,0.00,0.00,0.00,5,S01
29600,-8.02776,3.36146,0.03352,-58.4756,-18.9024,-8.7195,0.00,0.00,0.00,5,S01
29620,-7.46751,2.24816,-0.91459,-65.0610,-13.0488,-16.2195,0.00,0.00,0.00,5,S01
29640,-7.76200,1.66876,-0.72784,-64.0244,-6.9512,-20.8537,0.00,0.00,0.00,5,S01
29660,-9.83538,2.06620,-1.41258,-71.0366,-19.9390,-12.2561,0.00,0.00,0.00,5,S01
29680,-11.88961,0.05986,-0.83318,-107.5610,-45.9146,15.0000,0.00,0.00,0.00,5,S01
29700,-15.76342,-2.45645,-4.45561,-89.6341,-43.7805,9.5122,0.00,0.00,0.00,5,S01
29720,-15.76342,-2.45645,-4.45561,-89.6341,-43.7805,9.5122,0.00,0.00,0.00,5,S01
29740,-16.90306,-4.05578,-2.19069,-72.2561,-18.6585,17.1341,0.00,0.00,0.00,5,S01
29760,-13.75948,-4.72855,-1.00556,-82.5610,-35.5488,27.1951,0.00,0.00,0.00,5,S01
29780,-11.55921,-2.19069,-1.14443,-58.5366,-41.4024,17.9268,0.00,0.00,0.00,5,S01
29800,-13.06037,-0.75178,-0.91698,-38.1098,-20.7317,2.8659,0.00,0.00,0.00,5,S01
29820,-12.57435,-1.72861,-0.42617,-37.6829,-14.3902,-2.9878,0.00,0.00,0.00,5,S01
29840,-10.27352,-1.80762,-0.52672,-39.3902,-14.3902,-6.8902,0.00,0.00,0.00,5,S01
29860,-8.95671,-1.64242,-0.78051,-41.4634,-6.0976,-14.1463,0.00,0.00,0.00,5,S01
29880,-8.90882,-1.37427,-0.72305,-39.3902,6.8293,-19.6951,0.00,0.00,0.00,5,S01
29900,-8.86333,-1.17076,-0.53870,-34.9390,14.8780,-20.8537,0.00,0.00,0.00,5,S01
29920,-8.21211,-1.24259,-0.52433,-29.1463,15.1829,-18.4756,0.00,0.00,0.00,5,S01
29940,-7.55371,-1.42455,-0.45969,-23.4146,16.1585,-16.3415,0.00,0.00,0.00,5,S01
29960,-7.43639,-1.47722,-0.58179,-15.2439,20.1220,-15.3659,0.00,0.00,0.00,5,S01
29980,-7.91523,-1.48919,-0.68235,-9.0244,22.9268,-13.1098,0.00,0.00,0.00,5,S01
# DONE 1500 samples in 30.0s
