timestamp,ax,ay,az,gx,gy,gz,mx,my,mz,label,subject_id
0,-9.36851,0.14844,-0.16281,3.9634,0.4268,-1.9512,0.00,0.00,0.00,6,S01
20,-9.32781,0.11732,-0.19154,4.2073,0.3659,-2.0122,0.00,0.00,0.00,6,S01
40,-9.33020,0.12210,-0.22027,4.5122,0.5488,-2.0122,0.00,0.00,0.00,6,S01
60,-9.35175,0.14844,-0.17717,4.0854,0.7927,-1.7683,0.00,0.00,0.00,6,S01
80,-9.38048,0.13408,-0.15083,3.4756,0.6707,-1.5854,0.00,0.00,0.00,6,S01
100,-9.41400,0.09098,-0.12450,3.2927,0.3659,-1.5244,0.00,0.00,0.00,6,S01
120,-9.40921,0.08859,-0.12450,3.3537,0.1829,-1.8293,0.00,0.00,0.00,6,S01
140,-9.38048,0.08619,-0.09577,3.3537,0.1829,-2.0122,0.00,0.00,0.00,6,S01
160,-9.34457,0.05986,-0.07901,3.7195,0.0000,-2.0732,0.00,0.00,0.00,6,S01
180,-9.33499,0.05746,-0.10534,4.2073,-0.3049,-1.8293,0.00,0.00,0.00,6,S01
200,-9.37330,0.10534,-0.12450,4.0854,-0.2439,-1.6463,0.00,0.00,0.00,6,S01
220,-9.39964,0.12210,-0.12450,3.5976,0.0000,-1.5854,0.00,0.00,0.00,6,S01
240,-9.39724,0.12689,-0.10056,3.4146,0.0000,-1.8293,0.00,0.00,0.00,6,S01
260,-9.36612,0.13168,-0.12689,3.0488,-0.1829,-1.9512,0.00,0.00,0.00,6,S01
280,-9.34936,0.10056,-0.13886,2.5000,-0.2439,-1.9512,0.00,0.00,0.00,6,S01
300,-9.34696,0.05986,-0.10534,2.3171,-0.0610,-1.8902,0.00,0.00,0.00,6,S01
320,-9.36851,0.06704,-0.09337,2.3780,0.0610,-1.6463,0.00,0.00,0.00,6,S01
340,-9.39485,0.11253,-0.06225,2.0122,0.1220,-1.4024,0.00,0.00,0.00,6,S01
360,-9.38766,0.13408,-0.06943,1.3415,-0.1220,-1.4024,0.00,0.00,0.00,6,S01
380,-9.36612,0.09816,-0.13886,0.8537,-0.3659,-1.5244,0.00,0.00,0.00,6,S01
400,-9.36372,0.05028,-0.13168,0.7927,-0.1220,-1.7073,0.00,0.00,0.00,6,S01
420,-9.35415,0.03831,-0.03831,0.9146,0.1220,-1.7073,0.00,0.00,0.00,6,S01
440,-9.36612,0.04070,-0.01437,1.1585,-0.3659,-1.5244,0.00,0.00,0.00,6,S01
460,-9.36133,0.05986,-0.09577,1.4024,-0.4878,-1.4024,0.00,0.00,0.00,6,S01
480,-9.39245,0.05986,-0.07183,1.7073,-0.1220,-1.2805,0.00,0.00,0.00,6,S01
500,-9.43076,0.08380,-0.05507,1.8293,-0.5488,-1.2195,0.00,0.00,0.00,6,S01
520,-9.42358,0.11971,-0.09098,1.2805,-0.8537,-1.2805,0.00,0.00,0.00,6,S01
540,-9.37569,0.11492,-0.09337,0.7927,-0.8537,-1.4634,0.00,0.00,0.00,6,S01
560,-9.36133,0.07661,-0.07901,0.7317,-1.0366,-1.4634,0.00,0.00,0.00,6,S01
580,-9.35175,0.05028,-0.07422,0.8537,-1.4024,-1.4024,0.00,0.00,0.00,6,S01
600,-9.30866,0.08140,-0.02873,0.7317,-1.3415,-1.4024,0.00,0.00,0.00,6,S01
620,-9.28950,0.06225,-0.02394,0.6098,-0.7927,-1.4634,0.00,0.00,0.00,6,S01
640,-9.25838,0.01197,-0.02155,1.0366,0.0610,-1.0976,0.00,0.00,0.00,6,S01
660,-9.29429,-0.02873,-0.00239,1.9512,0.6098,-0.4268,0.00,0.00,0.00,6,S01
680,-9.35415,-0.07183,-0.05267,2.9268,0.1829,0.2439,0.00,0.00,0.00,6,S01
700,-9.36612,0.01915,-0.08859,3.7195,-0.1829,0.6707,0.00,0.00,0.00,6,S01
720,-9.36372,0.15323,-0.09098,3.4146,-0.5488,0.9146,0.00,0.00,0.00,6,S01
740,-9.39245,0.17238,-0.05986,2.4390,-0.1220,0.6098,0.00,0.00,0.00,6,S01
760,-9.43316,0.07901,0.05507,1.7683,0.9756,0.0610,0.00,0.00,0.00,6,S01
780,-9.39485,0.01437,0.09577,1.3415,1.0976,-0.3659,0.00,0.00,0.00,6,S01
800,-9.34696,-0.04310,0.01676,0.6098,0.7927,-0.6098,0.00,0.00,0.00,6,S01
820,-9.30866,-0.13647,-0.05507,0.3049,2.0122,-0.7317,0.00,0.00,0.00,6,S01
840,-9.27514,-0.24900,-0.06943,0.9756,3.4756,-0.4878,0.00,0.00,0.00,6,S01
860,-9.31344,-0.30406,-0.05746,2.3171,4.3293,-0.3049,0.00,0.00,0.00,6,S01
880,-9.42358,-0.23224,-0.05507,3.0488,4.6341,-0.3049,0.00,0.00,0.00,6,S01
900,-9.49301,-0.22745,-0.03352,3.1098,4.4512,-0.4878,0.00,0.00,0.00,6,S01
920,-9.53132,-0.22505,0.02155,3.5366,3.9024,-0.9146,0.00,0.00,0.00,6,S01
940,-9.45949,-0.05267,0.12450,3.5976,3.1707,-1.2805,0.00,0.00,0.00,6,S01
960,-9.37809,0.05746,0.24421,2.1951,2.4390,-1.1585,0.00,0.00,0.00,6,S01
980,-9.29429,-0.02155,0.28012,0.8537,2.1951,-0.6707,0.00,0.00,0.00,6,S01
1000,-9.30147,-0.14365,0.42138,0.4878,2.8049,0.0000,0.00,0.00,0.00,6,S01
1020,-9.36372,-0.17957,0.59137,0.1829,2.8049,1.0366,0.00,0.00,0.00,6,S01
1040,-9.38288,-0.26815,0.58897,-0.3049,2.3171,2.2561,0.00,0.00,0.00,6,S01
1060,-9.33739,-0.29209,0.52912,0.7317,2.2561,3.2317,0.00,0.00,0.00,6,S01
1080,-9.36851,-0.20351,0.51954,2.8049,2.5000,4.0854,0.00,0.00,0.00,6,S01
1100,-9.49780,-0.11492,0.42617,4.2683,1.3415,4.5122,0.00,0.00,0.00,6,S01
1120,-9.56005,-0.06464,0.32082,4.5732,0.0000,4.0854,0.00,0.00,0.00,6,S01
1140,-9.43794,-0.21069,0.20111,5.3049,-1.7683,1.7683,0.00,0.00,0.00,6,S01
1160,-9.35893,-0.34955,0.13168,6.7683,-1.9512,1.0366,0.00,0.00,0.00,6,S01
1180,-9.34457,-0.24181,0.19872,8.0488,-1.7073,0.7927,0.00,0.00,0.00,6,S01
1200,-9.36851,-0.18675,0.20351,7.9878,-2.5610,0.7927,0.00,0.00,0.00,6,S01
1220,-9.40442,-0.13647,0.05746,8.3537,-3.5976,-0.0610,0.00,0.00,0.00,6,S01
1240,-9.37091,-0.07661,-0.03831,9.0244,-3.7195,-1.5244,0.00,0.00,0.00,6,S01
1260,-9.34936,0.07901,0.00479,9.0854,-4.9390,-2.8049,0.00,0.00,0.00,6,S01
1280,-9.24641,0.15802,0.00000,7.9268,-7.9268,-2.8049,0.00,0.00,0.00,6,S01
1300,-9.10275,0.16281,-0.25379,6.4024,-9.8171,-2.5610,0.00,0.00,0.00,6,S01
1320,-8.88009,0.09577,-0.78769,4.9390,-9.3902,-3.8415,0.00,0.00,0.00,6,S01
1340,-8.42520,0.14605,-1.20189,2.9878,-5.9146,-6.4634,0.00,0.00,0.00,6,S01
1360,-8.24563,0.42856,-1.05105,-0.6098,-1.5854,-8.0488,0.00,0.00,0.00,6,S01
1380,-8.27197,0.58179,-0.57940,-5.6707,-0.7317,-8.0488,0.00,0.00,0.00,6,S01
1400,-8.18578,0.25139,-0.38547,-9.2073,-1.5854,-8.7195,0.00,0.00,0.00,6,S01
1420,-8.36055,-0.10056,-0.37589,-8.7805,1.1585,-12.3171,0.00,0.00,0.00,6,S01
1440,-8.88249,0.23463,-0.34955,-6.8902,7.6829,-16.7073,0.00,0.00,0.00,6,S01
1460,-9.77792,0.84755,0.60813,-8.7805,11.9512,-15.7927,0.00,0.00,0.00,6,S01
1480,-10.40520,0.71826,1.26893,-9.5122,8.2317,-10.1829,0.00,0.00,0.00,6,S01
1500,-10.44830,0.00479,1.19471,-2.3780,4.0244,-6.9512,0.00,0.00,0.00,6,S01
1520,-9.92875,-0.44532,0.72784,7.9878,5.6707,-7.1951,0.00,0.00,0.00,6,S01
1540,-9.17458,-0.07901,0.43574,17.3171,8.5366,-5.2439,0.00,0.00,0.00,6,S01
1560,-8.30549,0.40941,0.35913,22.0732,8.9024,1.5244,0.00,0.00,0.00,6,S01
1580,-8.13789,0.76136,0.48842,26.8293,11.2195,7.0732,0.00,0.00,0.00,6,S01
1600,-8.32943,1.15401,0.35434,29.3902,13.5366,8.4756,0.00,0.00,0.00,6,S01
1620,-7.96072,1.37906,0.04070,28.3537,14.9390,11.5244,0.00,0.00,0.00,6,S01
1640,-7.52976,1.33118,-0.06225,24.4512,16.2805,15.7927,0.00,0.00,0.00,6,S01
1660,-7.61596,1.06542,0.37589,20.4878,15.6098,17.0732,0.00,0.00,0.00,6,S01
1680,-8.74362,1.43413,1.69509,16.8902,8.8415,15.5488,0.00,0.00,0.00,6,S01
1700,-10.04607,1.99916,2.57616,8.5976,-3.4146,15.0000,0.00,0.00,0.00,6,S01
1720,-10.01734,1.51314,1.02232,3.8415,-9.7561,12.5610,0.00,0.00,0.00,6,S01
1740,-9.16979,0.74460,0.29688,3.5366,1.3415,5.7927,0.00,0.00,0.00,6,S01
1760,-8.29112,0.38786,0.35913,4.5122,13.4146,2.0732,0.00,0.00,0.00,6,S01
1780,-7.89368,0.48602,0.90740,4.6341,17.6220,1.7683,0.00,0.00,0.00,6,S01
1800,-8.20493,1.11330,1.30484,3.5366,13.7805,0.3659,0.00,0.00,0.00,6,S01
1820,-8.40844,1.57060,1.28090,4.1463,9.4512,-2.1951,0.00,0.00,0.00,6,S01
1840,-8.05888,1.32399,1.06781,10.4878,7.4390,-1.8902,0.00,0.00,0.00,6,S01
1860,-7.98945,1.04866,1.44610,18.7805,7.2561,1.2195,0.00,0.00,0.00,6,S01
1880,-8.42520,1.25456,2.02549,20.7927,2.6220,2.6220,0.00,0.00,0.00,6,S01
1900,-7.98945,1.51074,1.22823,16.7683,-4.1463,0.0610,0.00,0.00,0.00,6,S01
1920,-7.00783,1.75974,0.16281,12.5000,5.3049,-4.8780,0.00,0.00,0.00,6,S01
1940,-7.19936,1.73101,1.00796,5.0610,26.9512,-6.7683,0.00,0.00,0.00,6,S01
1960,-8.47308,1.64721,1.59454,1.0976,40.0000,-9.5122,0.00,0.00,0.00,6,S01
1980,-9.50019,1.78129,1.85551,1.5244,47.9878,-15.7927,0.00,0.00,0.00,6,S01
2000,-9.40203,1.95846,1.97282,2.4390,44.6951,-18.2927,0.00,0.00,0.00,6,S01
2020,-10.01734,3.09331,4.06775,-3.7195,28.1707,-16.3415,0.00,0.00,0.00,6,S01
2040,-9.47625,3.00951,3.91452,-16.3415,13.7805,-14.6951,0.00,0.00,0.00,6,S01
2060,-8.35576,1.98479,3.39737,-24.4512,28.2927,-22.8659,0.00,0.00,0.00,6,S01
2080,-7.75482,1.42216,2.53546,-27.9878,41.3415,-36.4634,0.00,0.00,0.00,6,S01
2100,-6.84502,1.45089,1.29287,-25.1220,45.0610,-41.8293,0.00,0.00,0.00,6,S01
2120,-5.67905,2.15478,-0.05028,-21.9512,44.8171,-36.5244,0.00,0.00,0.00,6,S01
2140,-4.88178,2.93529,-1.89142,-17.0122,43.8415,-23.5976,0.00,0.00,0.00,6,S01
2160,-3.98874,3.16035,-3.54581,-37.6220,39.5732,-10.7927,0.00,0.00,0.00,6,S01
2180,-2.68869,2.15478,-2.71981,-82.3781,31.5244,-11.9512,0.00,0.00,0.00,6,S01
2200,-1.64003,0.96247,-0.54827,-105.7317,3.9024,-23.5976,0.00,0.00,0.00,6,S01
2220,-1.13964,-0.41659,-0.01915,-95.0000,-48.2927,-25.0000,0.00,0.00,0.00,6,S01
2240,-1.34075,-0.32322,-1.33357,-83.3537,-90.7317,-17.8049,0.00,0.00,0.00,6,S01
2260,-1.31681,-0.69671,-3.03824,-83.4146,-102.9268,-10.0610,0.00,0.00,0.00,6,S01
2280,-1.26414,-2.29365,-4.89135,-63.9634,-90.2439,-11.5244,0.00,0.00,0.00,6,S01
2300,-4.36463,-9.01178,-25.67781,7.5610,-52.9878,-27.7439,0.00,0.00,0.00,6,S01
2320,-19.10812,-6.29675,-28.23243,24.4512,92.6220,-64.6341,0.00,0.00,0.00,6,S01
2340,-33.88753,-16.27099,6.93600,-167.8659,157.5000,-105.9756,0.00,0.00,0.00,6,S01
2360,-25.40966,-5.90410,1.11809,-59.8781,6.6463,-90.0000,0.00,0.00,0.00,6,S01
2380,-14.31733,3.22738,-3.35907,36.0366,43.9634,23.5366,0.00,0.00,0.00,6,S01
2400,-15.56231,-4.89614,1.47004,-50.4268,55.6707,18.3537,0.00,0.00,0.00,6,S01
2420,-15.06671,-7.48188,2.02789,-42.5610,44.2073,-5.3659,0.00,0.00,0.00,6,S01
2440,-13.63737,-2.94726,1.56341,-0.1220,24.7561,-26.5244,0.00,0.00,0.00,6,S01
2460,-12.05720,0.28252,2.08774,-2.3171,-1.8293,-17.0122,0.00,0.00,0.00,6,S01
2480,-11.58075,0.75417,2.71263,-26.4024,-8.7195,2.1951,0.00,0.00,0.00,6,S01
2500,-10.57279,-1.25456,3.07416,-45.2439,4.3293,21.5244,0.00,0.00,0.00,6,S01
2520,-8.86333,-2.56658,2.27449,-51.4024,7.1341,28.1098,0.00,0.00,0.00,6,S01
2540,-6.82108,-2.22421,1.37427,-44.5732,5.3049,22.8659,0.00,0.00,0.00,6,S01
2560,-5.58088,-1.56341,0.73741,-37.4390,6.8293,19.3293,0.00,0.00,0.00,6,S01
2580,-4.88657,-1.89621,1.01514,-32.0732,16.0366,25.4878,0.00,0.00,0.00,6,S01
2600,-4.33829,-0.56982,0.60094,-26.0366,13.2927,40.0610,0.00,0.00,0.00,6,S01
2620,-3.83551,0.92895,-0.83797,-25.8537,0.4268,63.0488,0.00,0.00,0.00,6,S01
2640,-3.00951,1.12049,-2.43730,-24.3293,-6.1585,86.2195,0.00,0.00,0.00,6,S01
2660,-1.73101,0.63207,-3.80199,-17.8049,-14.0854,98.5366,0.00,0.00,0.00,6,S01
2680,-0.59616,0.30885,-5.15232,-10.1829,-33.6585,95.6098,0.00,0.00,0.00,6,S01
2700,-0.74699,-1.46525,-17.06826,32.0732,-62.6220,85.6707,0.00,0.00,0.00,6,S01
2720,-3.70862,-9.12670,-34.19638,197.1951,-45.1829,79.4512,0.00,0.00,0.00,6,S01
2740,-26.01779,11.29824,-7.67581,123.1098,49.1463,-51.2195,0.00,0.00,0.00,6,S01
2760,-27.54529,16.60139,-7.72609,-52.0122,1.9512,-134.1463,0.00,0.00,0.00,6,S01
2780,-18.59337,2.14760,-11.71483,5.6707,30.4878,7.9268,0.00,0.00,0.00,6,S01
2800,-14.70279,-10.23761,-4.83868,52.9878,91.5854,70.8537,0.00,0.00,0.00,6,S01
2820,-15.68681,-2.26491,-4.36942,79.2073,25.2439,32.9878,0.00,0.00,0.00,6,S01
2840,-14.06354,5.55934,-6.03818,95.6098,-28.5976,46.5244,0.00,0.00,0.00,6,S01
2860,-9.78031,6.18901,-4.84826,73.7195,-11.0976,80.6098,0.00,0.00,0.00,6,S01
2880,-5.93283,3.59609,-1.97282,59.4512,20.0610,90.1829,0.00,0.00,0.00,6,S01
2900,-4.11803,2.45885,1.24498,70.0000,34.5122,66.7683,0.00,0.00,0.00,6,S01
2920,-3.98395,3.84030,2.51631,88.7805,29.8171,39.6951,0.00,0.00,0.00,6,S01
2940,-4.18506,4.55138,1.65918,91.7683,17.9878,29.1463,0.00,0.00,0.00,6,S01
2960,-4.65912,4.68785,0.84755,73.3537,17.5610,17.9878,0.00,0.00,0.00,6,S01
2980,-6.67743,2.11169,-2.95444,81.3415,19.9390,6.4634,0.00,0.00,0.00,6,S01
3000,-14.56393,-1.00556,-1.82438,91.0976,27.6829,-11.8902,0.00,0.00,0.00,6,S01
3020,-16.11058,-2.20267,-4.25689,65.3049,-11.5854,-21.5244,0.00,0.00,0.00,6,S01
3040,-14.54238,2.28167,-8.00861,76.9512,-36.9512,-3.5976,0.00,0.00,0.00,6,S01
3060,-12.81856,3.37582,-10.72842,67.8049,-11.0366,25.0610,0.00,0.00,0.00,6,S01
3080,-12.18649,-0.49799,-7.20415,33.4146,40.3659,37.0122,0.00,0.00,0.00,6,S01
3100,-13.28543,-1.80523,-7.18979,28.2927,40.9756,23.6585,0.00,0.00,0.00,6,S01
3120,-14.30775,0.07661,-7.69736,41.7683,25.4268,12.6220,0.00,0.00,0.00,6,S01
3140,-13.03403,1.36469,-7.37414,46.6463,19.5122,6.8293,0.00,0.00,0.00,6,S01
3160,-11.48738,0.78530,-6.33745,53.4756,11.6463,1.7073,0.00,0.00,0.00,6,S01
3180,-11.04685,-0.01437,-5.55455,62.5000,-6.2195,0.0610,0.00,0.00,0.00,6,S01
3200,-11.23838,0.55306,-5.58567,70.4878,-17.6220,1.4024,0.00,0.00,0.00,6,S01
3220,-10.70208,0.99120,-5.97353,76.9512,-13.6585,7.3780,0.00,0.00,0.00,6,S01
3240,-9.76355,0.72784,-5.94241,82.6829,-3.1707,11.6463,0.00,0.00,0.00,6,S01
3260,-9.32542,0.40223,-5.98550,90.1829,0.0000,9.3902,0.00,0.00,0.00,6,S01
3280,-9.69652,0.53151,-6.11000,95.7317,-3.2927,4.2073,0.00,0.00,0.00,6,S01
3300,-9.72285,0.80445,-5.61680,94.8781,-6.4024,1.6463,0.00,0.00,0.00,6,S01
3320,-9.03572,0.80924,-5.08528,92.7439,-9.6341,2.8659,0.00,0.00,0.00,6,S01
3340,-8.06846,0.42377,-4.85544,91.8902,-12.1951,5.3659,0.00,0.00,0.00,6,S01
3360,-7.22331,-0.39504,-4.33111,94.2683,-10.4268,7.9878,0.00,0.00,0.00,6,S01
3380,-6.71574,-0.93853,-3.79960,100.1220,-7.3780,9.3902,0.00,0.00,0.00,6,S01
3400,-6.22492,-1.39103,-3.71101,110.3659,-3.5976,11.4634,0.00,0.00,0.00,6,S01
3420,-6.14831,-1.40061,-3.86664,124.1463,2.1341,14.1463,0.00,0.00,0.00,6,S01
3440,-6.64391,-1.43652,-3.84988,132.6219,2.5000,17.1341,0.00,0.00,0.00,6,S01
3460,-6.92882,-1.48680,-4.13000,137.1951,-3.9024,19.3902,0.00,0.00,0.00,6,S01
3480,-7.13951,-1.74537,-4.11084,136.8902,-8.9024,18.7805,0.00,0.00,0.00,6,S01
3500,-8.02058,-2.69108,-3.06218,135.4878,-15.6098,16.7073,0.00,0.00,0.00,6,S01
3520,-8.47787,-3.22978,-2.74376,135.7317,-31.2195,15.3659,0.00,0.00,0.00,6,S01
3540,-7.66863,-3.23696,-3.08613,135.1219,-41.3415,17.8659,0.00,0.00,0.00,6,S01
3560,-7.13472,-2.62165,-3.73495,134.0244,-35.0000,22.1341,0.00,0.00,0.00,6,S01
3580,-7.59920,-2.31998,-3.30400,122.1341,-20.7927,25.3049,0.00,0.00,0.00,6,S01
3600,-8.26000,-2.32477,-2.69348,106.8902,-15.0610,25.6098,0.00,0.00,0.00,6,S01
3620,-8.24084,-2.64799,-2.46842,92.2561,-18.9024,24.1463,0.00,0.00,0.00,6,S01
3640,-7.94875,-2.70066,-2.54743,88.4146,-16.7073,25.8537,0.00,0.00,0.00,6,S01
3660,-7.93917,-2.86825,-2.43011,83.7195,-14.2683,26.3415,0.00,0.00,0.00,6,S01
3680,-8.09719,-2.98557,-2.43251,80.4268,-14.6951,24.8171,0.00,0.00,0.00,6,S01
3700,-7.99185,-3.01909,-2.36547,78.4756,-15.5488,24.0244,0.00,0.00,0.00,6,S01
3720,-7.80749,-3.10767,-2.38702,76.6463,-16.1585,25.0000,0.00,0.00,0.00,6,S01
3740,-7.98945,-3.33512,-2.25534,76.5854,-16.7073,26.8902,0.00,0.00,0.00,6,S01
3760,-8.30309,-3.40455,-2.36068,78.2317,-19.0244,29.2683,0.00,0.00,0.00,6,S01
3780,-8.28633,-3.42610,-2.95684,80.1220,-20.3049,32.6829,0.00,0.00,0.00,6,S01
3800,-8.51857,-3.72777,-2.60729,80.7317,-16.9512,35.6707,0.00,0.00,0.00,6,S01
3820,-8.88967,-3.85227,-1.88424,83.2927,-16.2805,36.5854,0.00,0.00,0.00,6,S01
3840,-8.92080,-3.28963,-2.15239,90.5488,-18.8415,37.9878,0.00,0.00,0.00,6,S01
3860,-8.81784,-1.92015,-2.98078,96.7073,-17.9268,40.0000,0.00,0.00,0.00,6,S01
3880,-8.94474,-0.49560,-2.91853,86.2805,-13.8415,40.8537,0.00,0.00,0.00,6,S01
3900,-8.85615,-0.35434,-2.54025,64.5732,-11.3415,39.4512,0.00,0.00,0.00,6,S01
3920,-9.33499,-1.54187,-2.38223,50.6098,-9.6951,30.7317,0.00,0.00,0.00,6,S01
3940,-10.19691,-1.97761,-2.67911,48.5976,-11.9512,19.1463,0.00,0.00,0.00,6,S01
3960,-10.14902,-0.83318,-2.17154,40.6098,-17.7439,13.0488,0.00,0.00,0.00,6,S01
3980,-9.17219,-0.11253,-2.07098,29.6951,-24.0244,14.9390,0.00,0.00,0.00,6,S01
4000,-8.30549,-0.79248,-2.64080,33.5366,-20.0610,17.6829,0.00,0.00,0.00,6,S01
4020,-8.44196,-1.41976,-3.40934,49.2073,-7.0122,15.9146,0.00,0.00,0.00,6,S01
4040,-9.14106,-1.35033,-3.42850,63.5976,3.7195,14.5732,0.00,0.00,0.00,6,S01
4060,-9.37091,-0.60334,-2.81079,73.2317,0.9756,16.5854,0.00,0.00,0.00,6,S01
4080,-9.24162,0.56024,-2.54025,80.0000,-9.3902,19.2683,0.00,0.00,0.00,6,S01
4100,-9.29429,1.27132,-2.79882,88.7195,-16.8293,23.0488,0.00,0.00,0.00,6,S01
4120,-9.42358,1.37906,-2.67911,96.7073,-19.0244,26.9512,0.00,0.00,0.00,6,S01
4140,-9.18416,0.86431,-2.76770,101.5854,-19.3293,30.2439,0.00,0.00,0.00,6,S01
4160,-8.86094,0.34237,-2.38941,104.1463,-16.1585,31.3415,0.00,0.00,0.00,6,S01
4180,-8.72926,0.02873,-1.55384,105.9756,-13.9024,29.5732,0.00,0.00,0.00,6,S01
4200,-8.85136,0.19393,-1.82438,112.6829,-14.6951,25.6098,0.00,0.00,0.00,6,S01
4220,-9.29429,0.61531,-2.25773,121.3415,-10.7317,21.8293,0.00,0.00,0.00,6,S01
4240,-9.39485,0.85473,-2.47321,124.6951,-6.4634,22.7439,0.00,0.00,0.00,6,S01
4260,-9.12670,0.67277,-2.11169,123.5366,-4.8171,27.0122,0.00,0.00,0.00,6,S01
4280,-8.81784,0.23224,-1.83156,125.0000,-6.8293,29.8171,0.00,0.00,0.00,6,S01
4300,-8.52336,0.17238,-1.90100,130.8537,-9.2683,30.0610,0.00,0.00,0.00,6,S01
4320,-8.60476,0.98402,-2.00155,132.6219,-8.5366,30.0610,0.00,0.00,0.00,6,S01
4340,-9.43555,1.90339,-1.88903,125.6707,-8.0488,32.8659,0.00,0.00,0.00,6,S01
4360,-10.31183,1.88184,-1.64960,114.3293,-9.6951,39.0244,0.00,0.00,0.00,6,S01
4380,-10.36450,1.00556,-1.34794,107.3171,-12.4390,41.6463,0.00,0.00,0.00,6,S01
4400,-9.71088,0.48842,-1.71185,109.5732,-15.6707,38.5366,0.00,0.00,0.00,6,S01
4420,-9.29669,0.95289,-2.16196,113.3537,-13.5366,35.4268,0.00,0.00,0.00,6,S01
4440,-9.63187,1.28329,-1.94888,114.1463,-7.7439,35.4878,0.00,0.00,0.00,6,S01
4460,-9.86651,0.63686,-1.43652,111.8902,-7.8049,35.4268,0.00,0.00,0.00,6,S01
4480,-9.93115,0.33998,-0.86431,112.7439,-16.8902,34.4512,0.00,0.00,0.00,6,S01
4500,-9.83778,1.66397,-0.90261,115.0610,-30.0610,35.1220,0.00,0.00,0.00,6,S01
4520,-9.61751,2.77249,-0.98402,107.3171,-38.5976,40.4268,0.00,0.00,0.00,6,S01
4540,-9.39485,2.82755,-1.00317,94.9390,-40.3049,43.6585,0.00,0.00,0.00,6,S01
4560,-9.28950,1.63045,-0.65841,83.7195,-36.8293,38.8415,0.00,0.00,0.00,6,S01
4580,-9.38527,0.73502,-0.56503,83.1707,-35.0610,29.2073,0.00,0.00,0.00,6,S01
4600,-9.10275,0.46926,-0.47166,90.9146,-36.4634,24.1463,0.00,0.00,0.00,6,S01
4620,-8.15465,0.65362,-0.50278,99.2683,-38.9634,26.5854,0.00,0.00,0.00,6,S01
4640,-7.28077,1.26174,-0.24181,103.5366,-36.5244,31.8293,0.00,0.00,0.00,6,S01
4660,-7.85298,2.25773,0.38547,99.0854,-31.2195,29.7561,0.00,0.00,0.00,6,S01
4680,-8.12831,2.57377,0.29209,93.7195,-27.9878,26.8293,0.00,0.00,0.00,6,S01
4700,-7.86016,2.41814,-0.23224,89.8171,-24.4512,24.5122,0.00,0.00,0.00,6,S01
4720,-7.30471,2.15239,-0.63925,88.4756,-17.3171,20.7927,0.00,0.00,0.00,6,S01
4740,-7.34541,2.05422,-0.51715,86.2195,-8.5366,13.4146,0.00,0.00,0.00,6,S01
4760,-8.24802,2.82516,-0.15562,83.7805,-3.5976,5.2439,0.00,0.00,0.00,6,S01
4780,-8.65504,3.77326,-0.28970,78.6585,-0.4268,2.5610,0.00,0.00,0.00,6,S01
4800,-8.20014,4.60405,-0.96007,66.5244,5.7927,3.4756,0.00,0.00,0.00,6,S01
4820,-7.69496,4.78362,-1.53229,47.6220,15.9146,4.6341,0.00,0.00,0.00,6,S01
4840,-8.76996,3.92170,-1.23541,32.1951,24.6951,5.6707,0.00,0.00,0.00,6,S01
4860,-10.54646,3.61046,-0.74460,24.7561,20.7317,8.3537,0.00,0.00,0.00,6,S01
4880,-10.33098,2.14281,-1.53708,37.1341,5.6098,12.1951,0.00,0.00,0.00,6,S01
4900,-10.63026,2.24576,-2.41814,51.8293,16.9512,11.7683,0.00,0.00,0.00,6,S01
4920,-13.30219,4.03902,-2.83952,47.6220,31.0976,8.4756,0.00,0.00,0.00,6,S01
4940,-14.20001,4.30956,-3.18908,39.5122,40.6707,6.0976,0.00,0.00,0.00,6,S01
4960,-13.16572,1.72622,-2.58095,43.8415,40.1220,-0.5488,0.00,0.00,0.00,6,S01
4980,-12.04283,-0.27773,-2.36068,51.4634,30.3049,-13.1098,0.00,0.00,0.00,6,S01
5000,-11.54005,-0.87628,-2.40857,63.4146,28.4146,-20.3659,0.00,0.00,0.00,6,S01
5020,-11.29584,-0.47645,-2.39181,72.9268,32.7439,-24.7561,0.00,0.00,0.00,6,S01
5040,-10.76912,0.33040,-2.53067,81.9512,35.6707,-27.1341,0.00,0.00,0.00,6,S01
5060,-10.01016,0.55067,-2.87065,83.2927,33.4756,-28.9634,0.00,0.00,0.00,6,S01
5080,-9.26795,0.21069,-3.13640,82.1951,30.1220,-26.8293,0.00,0.00,0.00,6,S01
5100,-9.15303,-0.10295,-3.25133,83.0488,24.3902,-24.5122,0.00,0.00,0.00,6,S01
5120,-9.35175,-0.61531,-3.37582,87.3171,14.6341,-23.5976,0.00,0.00,0.00,6,S01
5140,-9.40442,-0.98641,-3.49075,96.7073,3.9024,-23.5366,0.00,0.00,0.00,6,S01
5160,-9.04529,-0.91698,-3.96480,103.1707,-7.9268,-23.2317,0.00,0.00,0.00,6,S01
5180,-8.69095,-0.69671,-4.28323,104.2683,-15.6707,-20.5488,0.00,0.00,0.00,6,S01
5200,-8.51618,-0.06943,-4.38378,100.1220,-20.7927,-16.4634,0.00,0.00,0.00,6,S01
5220,-8.52096,0.72065,-4.27604,92.1951,-24.1463,-12.8659,0.00,0.00,0.00,6,S01
5240,-8.29351,0.82361,-4.28562,82.9268,-23.9634,-9.9390,0.00,0.00,0.00,6,S01
5260,-8.09480,0.06464,-4.12282,76.3415,-19.3293,-8.1707,0.00,0.00,0.00,6,S01
5280,-8.01339,-0.94092,-3.76608,74.0244,-14.8171,-8.2317,0.00,0.00,0.00,6,S01
5300,-8.23366,-1.58496,-3.54342,75.3659,-12.2561,-10.7317,0.00,0.00,0.00,6,S01
5320,-8.83939,-1.39103,-3.30400,78.2317,-10.6098,-13.4756,0.00,0.00,0.00,6,S01
5340,-9.14824,-0.94810,-3.47159,78.4756,-11.2805,-12.2561,0.00,0.00,0.00,6,S01
5360,-9.01656,-0.85473,-3.49553,74.3902,-8.0488,-6.8902,0.00,0.00,0.00,6,S01
5380,-8.67659,-1.16598,-3.16274,71.0976,-0.5488,-3.6585,0.00,0.00,0.00,6,S01
5400,-8.54251,-1.09415,-2.70066,71.4634,3.5366,-7.0122,0.00,0.00,0.00,6,S01
5420,-8.51857,-0.19632,-2.60010,68.5976,1.4024,-12.4390,0.00,0.00,0.00,6,S01
5440,-8.15465,0.10534,-2.47800,60.1829,0.8537,-11.8293,0.00,0.00,0.00,6,S01
5460,-7.81946,-0.81163,-1.86269,54.8781,6.0366,-7.0732,0.00,0.00,0.00,6,S01
5480,-7.89368,-2.09971,-1.05105,57.8659,7.6829,-5.7317,0.00,0.00,0.00,6,S01
5500,-8.24563,-2.41575,-0.77093,65.9146,0.7317,-7.5610,0.00,0.00,0.00,6,S01
5520,-8.26718,-1.59454,-1.49398,70.1220,-7.3780,-4.8171,0.00,0.00,0.00,6,S01
5540,-8.11874,-1.01514,-1.62087,65.4268,-8.7805,5.6707,0.00,0.00,0.00,6,S01
5560,-7.80989,-1.45567,-1.16598,58.4146,-11.6463,17.8659,0.00,0.00,0.00,6,S01
5580,-7.74285,-1.75256,-1.02472,57.6220,-17.3171,23.9634,0.00,0.00,0.00,6,S01
5600,-7.85538,-1.18992,-1.16119,57.0122,-21.4024,24.8171,0.00,0.00,0.00,6,S01
5620,-7.70215,-0.87388,-0.92895,50.9146,-21.8902,25.2439,0.00,0.00,0.00,6,S01
5640,-7.80510,-1.47243,-0.30885,48.9024,-21.6463,25.9146,0.00,0.00,0.00,6,S01
5660,-8.32464,-2.12126,-0.25139,54.3902,-26.5244,27.0122,0.00,0.00,0.00,6,S01
5680,-8.26478,-2.04944,-0.86431,59.6341,-30.6707,29.4512,0.00,0.00,0.00,6,S01
5700,-7.57765,-1.77171,-1.36948,56.0366,-26.9512,32.9268,0.00,0.00,0.00,6,S01
5720,-7.88889,-2.41575,-1.33596,52.0122,-23.5366,34.3293,0.00,0.00,0.00,6,S01
5740,-9.31584,-2.89459,-2.40138,61.2195,-31.3415,28.5976,0.00,0.00,0.00,6,S01
5760,-10.42675,-2.19069,-3.06937,70.1220,-40.4878,13.2927,0.00,0.00,0.00,6,S01
5780,-11.03727,-0.85473,-2.63602,73.4146,-46.0366,0.5488,0.00,0.00,0.00,6,S01
5800,-10.32380,-1.35751,-3.35667,70.5488,-50.6707,6.0366,0.00,0.00,0.00,6,S01
5820,-8.88249,-2.59053,-3.04064,64.6341,-40.4268,15.2439,0.00,0.00,0.00,6,S01
5840,-8.11634,-3.15316,-1.81002,64.3902,-30.0000,12.9878,0.00,0.00,0.00,6,S01
5860,-8.44674,-2.22661,-1.46765,76.7683,-26.8902,3.7805,0.00,0.00,0.00,6,S01
5880,-9.05966,-1.44610,-1.71425,97.4390,-20.6098,-0.0610,0.00,0.00,0.00,6,S01
5900,-9.22965,-1.03430,-2.30083,119.0244,-14.6951,2.3171,0.00,0.00,0.00,6,S01
5920,-8.95910,-0.76136,-2.30562,129.6951,-14.0854,6.9512,0.00,0.00,0.00,6,S01
5940,-8.82742,-0.35195,-2.20745,131.0366,-17.0122,10.1220,0.00,0.00,0.00,6,S01
5960,-9.07881,-0.00239,-2.12366,130.1829,-14.8780,12.0732,0.00,0.00,0.00,6,S01
5980,-9.16261,0.26097,-2.20745,129.6342,-9.1463,14.9390,0.00,0.00,0.00,6,S01
6000,-8.98304,0.29209,-2.26970,128.6585,-2.8659,17.7439,0.00,0.00,0.00,6,S01
6020,-8.74362,0.26097,-2.20027,128.2927,3.2317,18.9024,0.00,0.00,0.00,6,S01
6040,-8.84179,0.19872,-1.95846,128.2927,6.5244,18.1098,0.00,0.00,0.00,6,S01
6060,-8.99741,0.03112,-2.11647,131.5854,7.5000,16.2195,0.00,0.00,0.00,6,S01
6080,-8.96389,-0.12689,-2.09493,137.1342,9.2683,13.4756,0.00,0.00,0.00,6,S01
6100,-8.82263,-0.09816,-2.03507,141.2195,10.3049,11.2805,0.00,0.00,0.00,6,S01
6120,-8.95671,0.75417,-1.64721,141.8902,17.6829,10.7317,0.00,0.00,0.00,6,S01
6140,-9.34457,1.13725,-1.02472,135.7317,19.6341,12.5000,0.00,0.00,0.00,6,S01
6160,-9.72525,1.34075,-0.38307,126.9512,17.6220,13.4756,0.00,0.00,0.00,6,S01
6180,-9.63427,1.30723,-0.00239,118.4756,13.1707,13.1707,0.00,0.00,0.00,6,S01
6200,-9.54808,0.90980,0.27054,111.7683,9.3902,11.5244,0.00,0.00,0.00,6,S01
6220,-9.77313,0.72305,0.42856,110.0000,8.7195,9.4512,0.00,0.00,0.00,6,S01
6240,-9.90481,0.64165,0.94092,108.3537,8.7805,7.9268,0.00,0.00,0.00,6,S01
6260,-9.58878,0.67516,0.90980,105.2439,2.3780,5.3049,0.00,0.00,0.00,6,S01
6280,-9.11233,0.84755,0.40462,101.3415,-5.4878,0.4878,0.00,0.00,0.00,6,S01
6300,-9.22725,0.84036,-0.15083,97.0122,-8.1098,-4.7561,0.00,0.00,0.00,6,S01
6320,-10.07001,0.71347,-0.87388,94.0854,-7.9268,-7.3171,0.00,0.00,0.00,6,S01
6340,-9.77074,0.18196,-1.18274,87.3171,-7.5610,-4.1463,0.00,0.00,0.00,6,S01
6360,-9.17219,-0.15083,-0.92656,76.4634,-5.0610,0.4268,0.00,0.00,0.00,6,S01
6380,-8.93037,-0.36152,-1.08457,70.7317,-3.0488,3.0488,0.00,0.00,0.00,6,S01
6400,-8.76038,-0.44772,-1.60651,71.5854,0.0610,5.1829,0.00,0.00,0.00,6,S01
6420,-8.63828,-0.56982,-1.79805,75.8537,6.2195,8.5366,0.00,0.00,0.00,6,S01
6440,-8.52815,-1.04627,-1.74537,81.7683,10.9146,12.7439,0.00,0.00,0.00,6,S01
6460,-8.83939,-1.37906,-1.92494,88.5366,11.8902,15.0610,0.00,0.00,0.00,6,S01
6480,-9.38288,-1.21386,-2.12845,88.2927,9.9390,15.2439,0.00,0.00,0.00,6,S01
6500,-9.87848,-0.67038,-1.85790,81.0976,7.5610,14.4512,0.00,0.00,0.00,6,S01
6520,-10.15860,-0.54588,-1.29047,72.8049,3.0488,13.7805,0.00,0.00,0.00,6,S01
6540,-9.84496,-0.94571,-0.79487,70.6098,-2.4390,12.6829,0.00,0.00,0.00,6,S01
6560,-9.42118,-1.21386,-0.74220,74.6341,-5.3659,10.4878,0.00,0.00,0.00,6,S01
6580,-9.56962,-0.89064,-0.84755,75.5488,-5.3659,6.5854,0.00,0.00,0.00,6,S01
6600,-9.63427,-0.51954,-0.80206,70.7927,-3.1707,2.8659,0.00,0.00,0.00,6,S01
6620,-9.26317,-0.21548,-0.95050,65.7927,-1.6463,-0.3659,0.00,0.00,0.00,6,S01
6640,-8.92798,0.04549,-0.99359,59.2683,-0.6098,-1.6463,0.00,0.00,0.00,6,S01
6660,-8.76517,0.04310,-0.88107,50.6707,0.1220,-0.8537,0.00,0.00,0.00,6,S01
6680,-8.62152,-0.16999,-0.91219,44.2683,1.2195,-0.4878,0.00,0.00,0.00,6,S01
6700,-8.51378,-0.55545,-0.92416,41.5854,4.9390,-0.9146,0.00,0.00,0.00,6,S01
6720,-8.70771,-0.74939,-0.78051,40.9756,9.5122,-2.0732,0.00,0.00,0.00,6,S01
6740,-8.93516,-0.57221,-0.77812,39.2073,10.4878,-2.6829,0.00,0.00,0.00,6,S01
6760,-8.80109,-0.38547,-0.80685,35.0610,8.7805,-1.6463,0.00,0.00,0.00,6,S01
6780,-8.56885,-0.46687,-0.57940,31.6463,8.7195,-0.3049,0.00,0.00,0.00,6,S01
6800,-8.63589,-0.57700,-0.49321,30.7317,9.5122,0.2439,0.00,0.00,0.00,6,S01
6820,-8.69574,-0.56743,-0.58179,29.2073,10.4878,-0.2439,0.00,0.00,0.00,6,S01
6840,-8.42998,-0.51954,-0.67277,25.0610,10.0610,-1.7073,0.00,0.00,0.00,6,S01
6860,-7.63750,-0.56024,-0.91219,20.3659,8.7805,-3.3537,0.00,0.00,0.00,6,S01
6880,-6.75644,-0.69911,-1.13246,17.0122,11.4634,-5.0610,0.00,0.00,0.00,6,S01
6900,-6.93840,-0.68474,-0.61770,13.5366,17.5000,-8.0488,0.00,0.00,0.00,6,S01
6920,-8.13550,-0.95289,0.63207,8.6585,15.6098,-11.5244,0.00,0.00,0.00,6,S01
6940,-8.56167,-1.22104,0.70150,7.4390,2.8659,-12.0122,0.00,0.00,0.00,6,S01
6960,-7.80270,-1.29287,-0.19393,9.5732,-2.6829,-8.4146,0.00,0.00,0.00,6,S01
6980,-8.18099,-1.24259,1.01514,12.3780,5.4878,-1.8902,0.00,0.00,0.00,6,S01
7000,-9.83778,-1.61369,3.31358,16.7073,5.3049,4.3293,0.00,0.00,0.00,6,S01
7020,-10.57279,-1.93930,3.31836,27.6220,-7.6829,9.0854,0.00,0.00,0.00,6,S01
7040,-9.31823,-1.81720,1.86508,42.3780,-3.3537,15.4268,0.00,0.00,0.00,6,S01
7060,-7.89129,-1.26893,-0.70629,53.9634,25.3049,19.0854,0.00,0.00,0.00,6,S01
7080,-7.27119,-0.29209,-2.59771,52.5610,65.9146,14.1463,0.00,0.00,0.00,6,S01
7100,-6.55772,0.40462,-3.11486,30.0610,91.8902,6.5244,0.00,0.00,0.00,6,S01
7120,-5.28161,0.48123,-2.82755,4.3902,85.4878,5.0000,0.00,0.00,0.00,6,S01
7140,-3.97916,0.14126,-1.58975,-4.2683,55.3049,9.0854,0.00,0.00,0.00,6,S01
7160,-2.80840,-0.58179,-0.42138,1.3415,8.9634,16.6463,0.00,0.00,0.00,6,S01
7180,-1.84832,-0.34477,-0.26815,16.2195,-39.0854,22.6220,0.00,0.00,0.00,6,S01
7200,-1.37906,0.50996,-1.29047,26.2195,-77.9878,28.3537,0.00,0.00,0.00,6,S01
7220,-1.15640,1.17555,-2.98796,23.3537,-105.7927,38.7195,0.00,0.00,0.00,6,S01
7240,-0.99120,1.56341,-4.71897,5.6707,-122.8659,50.8537,0.00,0.00,0.00,6,S01
7260,-0.77812,1.22344,-5.52342,-22.6220,-123.0488,58.5366,0.00,0.00,0.00,6,S01
7280,-0.79487,0.18435,-5.45639,-47.4390,-103.2317,57.6829,0.00,0.00,0.00,6,S01
7300,-1.72622,-3.68228,-8.46111,-37.5000,-77.8659,42.5000,0.00,0.00,0.00,6,S01
7320,-6.47153,-8.48266,-18.72266,89.3293,-32.8049,3.9024,0.00,0.00,0.00,6,S01
7340,-30.36805,18.97165,1.04387,6.2805,142.0122,-222.9878,0.00,0.00,0.00,6,S01
7360,-24.65070,12.10508,-4.37181,8.7195,151.6463,-66.8902,0.00,0.00,0.00,6,S01
7380,-18.86152,-1.30484,-3.10289,-2.4390,149.5122,51.7683,0.00,0.00,0.00,6,S01
7400,-13.24951,-2.47800,2.39420,16.7683,99.2683,37.5000,0.00,0.00,0.00,6,S01
7420,-9.04051,1.48201,3.64637,45.1829,-14.8780,5.8537,0.00,0.00,0.00,6,S01
7440,-4.26886,2.88022,3.28006,59.2683,-102.2561,26.5244,0.00,0.00,0.00,6,S01
7460,-1.00556,-0.76375,1.63524,64.1463,-115.7927,53.7805,0.00,0.00,0.00,6,S01
7480,-4.62560,-2.43251,-2.08296,91.6463,-76.9512,27.8659,0.00,0.00,0.00,6,S01
7500,-12.91193,2.08535,-4.22337,94.0854,-6.1585,-36.0976,0.00,0.00,0.00,6,S01
7520,-13.64216,3.69904,-0.48123,72.0122,50.1829,-45.2439,0.00,0.00,0.00,6,S01
7540,-10.26155,2.56180,-0.16520,47.8049,10.4268,-17.0732,0.00,0.00,0.00,6,S01
7560,-8.21690,0.13647,-2.11647,15.2439,-41.8902,4.2683,0.00,0.00,0.00,6,S01
7580,-11.61427,-2.28886,-0.32561,1.0976,-12.9268,10.9756,0.00,0.00,0.00,6,S01
7600,-14.50647,-3.18908,-0.11971,19.7561,10.3659,14.0244,0.00,0.00,0.00,6,S01
7620,-13.29740,-0.67038,-2.51870,52.4390,-9.8171,19.1463,0.00,0.00,0.00,6,S01
7640,-11.22881,2.16915,-4.61841,62.6220,-31.7073,22.6220,0.00,0.00,0.00,6,S01
7660,-11.61667,1.05584,-4.22816,37.8049,-28.8415,18.9634,0.00,0.00,0.00,6,S01
7680,-13.64456,-1.89621,-2.32716,18.1098,-20.2439,6.2805,0.00,0.00,0.00,6,S01
7700,-14.17128,-2.46603,-2.68629,32.6829,-30.6098,2.0732,0.00,0.00,0.00,6,S01
7720,-13.14896,-0.45729,-3.28245,44.5122,-46.5244,8.9024,0.00,0.00,0.00,6,S01
7740,-11.72919,0.85712,-3.49793,35.0610,-51.4634,14.4512,0.00,0.00,0.00,6,S01
7760,-11.59272,0.00958,-2.74854,22.0732,-39.6341,8.7195,0.00,0.00,0.00,6,S01
7780,-11.98059,-1.12288,-1.64003,15.9146,-34.0854,0.4878,0.00,0.00,0.00,6,S01
7800,-11.31979,-1.08697,-1.68552,13.5976,-42.4390,-1.4024,0.00,0.00,0.00,6,S01
7820,-9.84975,-0.77812,-0.93853,10.1220,-40.5488,0.0610,0.00,0.00,0.00,6,S01
7840,-9.64384,-0.81403,0.09816,13.1098,-28.7195,-3.2317,0.00,0.00,0.00,6,S01
7860,-11.18810,-0.83797,-0.51954,29.6341,-20.4878,-12.0122,0.00,0.00,0.00,6,S01
7880,-11.34852,-0.74939,-0.90261,42.2561,-20.9756,-14.8780,0.00,0.00,0.00,6,S01
7900,-10.43872,-0.88107,-0.65601,45.7927,-26.9512,-13.8415,0.00,0.00,0.00,6,S01
7920,-10.82419,-0.42377,-0.45729,47.9878,-25.2439,-14.3293,0.00,0.00,0.00,6,S01
7940,-10.94390,0.26815,-1.04627,43.2927,-20.3659,-12.5000,0.00,0.00,0.00,6,S01
7960,-11.07079,0.16041,-1.40779,33.6585,-12.3780,-10.4878,0.00,0.00,0.00,6,S01
7980,-11.61667,-0.59137,-0.92416,27.1341,-2.0732,-10.4878,0.00,0.00,0.00,6,S01
8000,-11.91594,-0.96726,-1.24498,28.7805,0.6098,-11.6463,0.00,0.00,0.00,6,S01
8020,-11.99974,-0.53630,-1.70228,31.4634,-0.1829,-13.9634,0.00,0.00,0.00,6,S01
8040,-11.70286,-0.24660,-1.68312,26.7073,0.3659,-14.9390,0.00,0.00,0.00,6,S01
8060,-11.62385,-0.62728,-1.19950,20.9756,4.8780,-14.1463,0.00,0.00,0.00,6,S01
8080,-11.30781,-0.92895,-1.07021,19.6341,9.8171,-12.9878,0.00,0.00,0.00,6,S01
8100,-11.10191,-0.54827,-0.92416,19.4512,13.9024,-12.9268,0.00,0.00,0.00,6,S01
8120,-10.77630,-0.19872,-0.70629,17.5610,15.4878,-10.9756,0.00,0.00,0.00,6,S01
8140,-10.22085,-0.13168,-0.43335,14.8780,14.5732,-7.9268,0.00,0.00,0.00,6,S01
8160,-9.50259,-0.49081,-0.08859,10.7317,12.7439,-4.3293,0.00,0.00,0.00,6,S01
8180,-8.93995,-0.71108,0.19393,9.5732,12.9878,-2.5610,0.00,0.00,0.00,6,S01
8200,-8.63349,-0.55545,0.18675,10.5488,12.5000,-2.2561,0.00,0.00,0.00,6,S01
8220,-8.44914,-0.27294,-0.03352,10.1220,10.9756,-1.5854,0.00,0.00,0.00,6,S01
8240,-8.39168,-0.29449,-0.12210,7.0122,9.7561,0.0610,0.00,0.00,0.00,6,S01
8260,-8.14029,-0.51236,-0.14605,3.2927,7.2561,1.9512,0.00,0.00,0.00,6,S01
8280,-7.97987,-0.58897,-0.02394,-0.0610,4.9390,2.4390,0.00,0.00,0.00,6,S01
8300,-8.13550,-0.30885,-0.06464,-0.9756,3.9634,1.7073,0.00,0.00,0.00,6,S01
8320,-8.48984,-0.02873,-0.21787,-1.8902,2.6829,1.9512,0.00,0.00,0.00,6,S01
8340,-8.61194,-0.07661,-0.26576,-5.0610,0.3049,4.5122,0.00,0.00,0.00,6,S01
8360,-8.81784,-0.10056,-0.31603,-8.1707,-1.3415,6.8902,0.00,0.00,0.00,6,S01
8380,-9.14346,-0.10295,-0.38547,-9.0854,-1.1585,8.5976,0.00,0.00,0.00,6,S01
8400,-9.50019,-0.05507,-0.46448,-9.0854,-0.9146,9.8171,0.00,0.00,0.00,6,S01
8420,-9.71328,-0.06225,-0.52912,-9.3902,-0.9146,11.3415,0.00,0.00,0.00,6,S01
8440,-9.90721,0.01676,-0.70629,-9.0854,-0.9756,11.9512,0.00,0.00,0.00,6,S01
8460,-10.16099,0.23942,-0.91698,-8.7805,-0.7317,11.5244,0.00,0.00,0.00,6,S01
8480,-10.32859,0.15323,-0.93374,-9.8780,-0.2439,12.0122,0.00,0.00,0.00,6,S01
8500,-10.32619,0.04070,-1.02472,-8.2317,0.3049,11.6463,0.00,0.00,0.00,6,S01
8520,-10.30225,0.02634,-1.08697,-4.9390,2.0732,9.4512,0.00,0.00,0.00,6,S01
8540,-10.66377,0.15323,-1.43652,-0.8537,5.6098,6.0366,0.00,0.00,0.00,6,S01
8560,-11.26711,0.17717,-1.68791,2.2561,11.4024,3.0488,0.00,0.00,0.00,6,S01
8580,-12.63420,0.04310,-2.69827,6.1585,26.1585,-2.1341,0.00,0.00,0.00,6,S01
8600,-12.92630,-0.29688,-2.69108,7.2561,33.5976,-6.0976,0.00,0.00,0.00,6,S01
8620,-13.20163,-0.41659,-2.88022,13.5366,42.8049,-12.8049,0.00,0.00,0.00,6,S01
8640,-13.96298,-0.34237,-3.12204,22.1341,47.6220,-20.4878,0.00,0.00,0.00,6,S01
8660,-13.93186,-0.11971,-3.57694,26.5244,40.9756,-24.0854,0.00,0.00,0.00,6,S01
8680,-13.30458,0.22745,-3.33512,21.8293,34.3293,-23.2927,0.00,0.00,0.00,6,S01
8700,-12.80898,0.33998,-2.90417,11.2805,35.9146,-20.3049,0.00,0.00,0.00,6,S01
8720,-12.86165,0.46926,-1.99198,2.1951,44.0244,-17.0732,0.00,0.00,0.00,6,S01
8740,-12.65336,0.33279,-1.59454,-0.8537,51.0366,-12.0122,0.00,0.00,0.00,6,S01
8760,-12.14339,0.43574,-1.35033,-2.7439,60.0000,-5.6098,0.00,0.00,0.00,6,S01
8780,-11.49696,0.58897,-1.34075,-2.6829,69.8171,-2.5000,0.00,0.00,0.00,6,S01
8800,-10.87925,0.77572,-1.41976,-1.0366,74.4512,-3.7195,0.00,0.00,0.00,6,S01
8820,-10.38844,0.74939,-1.49638,0.0000,76.4024,-6.5244,0.00,0.00,0.00,6,S01
8840,-10.15141,0.65122,-1.37667,6.0366,79.5122,-10.0610,0.00,0.00,0.00,6,S01
8860,-10.18015,0.78051,-1.31202,19.0244,80.1829,-12.3171,0.00,0.00,0.00,6,S01
8880,-9.94551,0.85712,-1.96085,33.2317,72.9878,-12.3171,0.00,0.00,0.00,6,S01
8900,-9.77553,0.25379,-2.17394,43.8415,64.2073,-8.9634,0.00,0.00,0.00,6,S01
8920,-9.61033,-0.38547,-2.30322,54.8171,52.6220,-3.7195,0.00,0.00,0.00,6,S01
8940,-9.20092,-0.74699,-2.84671,66.8902,41.0976,3.6585,0.00,0.00,0.00,6,S01
8960,-8.88249,-1.03190,-3.16274,78.9024,34.0854,11.0366,0.00,0.00,0.00,6,S01
8980,-8.65025,-1.00556,-3.15316,91.9512,28.4756,13.9024,0.00,0.00,0.00,6,S01
9000,-8.41801,-1.11809,-2.76291,100.4878,22.9878,15.8537,0.00,0.00,0.00,6,S01
9020,-8.02776,-1.58257,-2.12605,101.9512,14.2683,21.2805,0.00,0.00,0.00,6,S01
9040,-7.24007,-1.84114,-1.59933,98.9024,3.1707,28.1707,0.00,0.00,0.00,6,S01
9060,-6.51702,-1.95127,-1.32399,95.4268,-5.1220,32.9268,0.00,0.00,0.00,6,S01
9080,-6.16746,-2.06141,-1.20907,96.5244,-7.0122,33.9024,0.00,0.00,0.00,6,S01
9100,-6.27999,-2.63602,-1.78368,102.3171,-3.7195,32.9878,0.00,0.00,0.00,6,S01
9120,-7.98706,-3.54581,-1.06542,108.4146,1.4024,30.3049,0.00,0.00,0.00,6,S01
9140,-9.87608,-3.45962,-0.75896,107.0732,-7.3780,28.2927,0.00,0.00,0.00,6,S01
9160,-9.31823,-2.31519,-1.68073,110.4878,-23.8415,30.4268,0.00,0.00,0.00,6,S01
9180,-7.55849,-1.55384,-2.14760,109.8781,-38.4146,37.9268,0.00,0.00,0.00,6,S01
9200,-6.70376,-1.98719,-2.71742,99.6951,-46.7683,48.2927,0.00,0.00,0.00,6,S01
9220,-7.51061,-3.24414,-2.00155,85.5488,-40.0610,53.4146,0.00,0.00,0.00,6,S01
9240,-8.86573,-3.96959,-1.20189,86.4634,-31.7073,52.3171,0.00,0.00,0.00,6,S01
9260,-8.73884,-3.04064,-1.96803,100.0000,-30.6098,49.6951,0.00,0.00,0.00,6,S01
9280,-7.89847,-1.98000,-2.65038,106.6463,-31.1585,50.7927,0.00,0.00,0.00,6,S01
9300,-6.65828,-2.03268,-3.38301,107.1951,-28.6585,55.6098,0.00,0.00,0.00,6,S01
9320,-6.06212,-3.03345,-3.41413,106.0976,-15.9146,58.0488,0.00,0.00,0.00,6,S01
9340,-6.76362,-3.06697,-2.72939,104.5122,-0.8537,54.8781,0.00,0.00,0.00,6,S01
9360,-7.12754,-2.53546,-2.80361,108.4756,6.4024,52.8049,0.00,0.00,0.00,6,S01
9380,-6.96473,-1.93930,-2.94247,115.1829,7.8659,54.1463,0.00,0.00,0.00,6,S01
9400,-7.13951,-1.72861,-2.38941,120.6098,3.7195,57.7439,0.00,0.00,0.00,6,S01
9420,-7.23049,-2.14042,-2.03028,127.0732,-8.7805,58.9634,0.00,0.00,0.00,6,S01
9440,-7.04135,-2.27210,-2.35589,137.9268,-17.8049,54.1463,0.00,0.00,0.00,6,S01
9460,-6.96952,-1.60412,-3.01430,148.5976,-17.4390,45.3049,0.00,0.00,0.00,6,S01
9480,-7.11557,-0.73981,-3.11486,151.5244,-14.2683,41.4024,0.00,0.00,0.00,6,S01
9500,-7.44597,-0.32801,-2.94008,148.0488,-12.9878,43.3537,0.00,0.00,0.00,6,S01
9520,-7.97987,-0.46448,-2.69827,141.8293,-12.5610,46.0976,0.00,0.00,0.00,6,S01
9540,-8.41801,-0.68714,-2.75094,136.7683,-14.0244,45.9756,0.00,0.00,0.00,6,S01
9560,-8.48266,-0.54348,-3.08613,136.8293,-17.1341,44.2073,0.00,0.00,0.00,6,S01
9580,-8.46111,-0.76136,-2.72221,139.0244,-19.6951,42.0122,0.00,0.00,0.00,6,S01
9600,-9.04769,-0.78051,-2.27449,143.5976,-24.8171,37.7439,0.00,0.00,0.00,6,S01
9620,-9.67018,-0.62010,-2.65996,147.3781,-28.7805,34.2683,0.00,0.00,0.00,6,S01
9640,-9.70370,-0.21548,-3.47159,146.6463,-26.0366,33.9024,0.00,0.00,0.00,6,S01
9660,-9.25119,0.07183,-3.21302,141.4634,-19.6341,35.7927,0.00,0.00,0.00,6,S01
9680,-8.76517,-0.30406,-2.23140,137.6829,-19.8780,36.3415,0.00,0.00,0.00,6,S01
9700,-8.44196,-0.77333,-1.90339,140.6707,-26.4634,32.5610,0.00,0.00,0.00,6,S01
9720,-8.48505,-0.39744,-2.06141,147.6219,-28.7805,28.2927,0.00,0.00,0.00,6,S01
9740,-9.01178,0.26815,-2.20506,148.6585,-26.7683,30.4878,0.00,0.00,0.00,6,S01
9760,-9.39964,0.29928,-1.63763,141.9512,-26.2195,35.3659,0.00,0.00,0.00,6,S01
9780,-9.45949,0.24181,-1.42455,136.7073,-33.5976,37.0122,0.00,0.00,0.00,6,S01
9800,-7.80989,0.40701,-1.96085,125.3049,-41.8293,36.8293,0.00,0.00,0.00,6,S01
9820,-6.93121,0.36392,-2.02310,116.7073,-29.8171,38.8415,0.00,0.00,0.00,6,S01
9840,-7.61117,0.61531,-1.33118,106.8293,-11.7683,34.0854,0.00,0.00,0.00,6,S01
9860,-9.24162,1.33836,-0.24421,96.4024,-2.3171,24.0244,0.00,0.00,0.00,6,S01
9880,-9.29190,1.49398,-0.33998,87.8659,-6.2805,18.1098,0.00,0.00,0.00,6,S01
9900,-8.14986,0.49799,-0.88825,83.7195,-4.7561,16.7683,0.00,0.00,0.00,6,S01
9920,-8.51618,-0.36871,0.11253,80.4878,5.1829,12.8049,0.00,0.00,0.00,6,S01
9940,-9.93594,-0.64883,0.83079,81.5244,7.1951,5.0000,0.00,0.00,0.00,6,S01
9960,-11.13543,0.20590,0.39744,88.4756,5.0610,-1.8293,0.00,0.00,0.00,6,S01
9980,-11.79863,1.46286,-2.21703,90.7317,10.3659,-5.2439,0.00,0.00,0.00,6,S01
10000,-14.44661,0.68235,-1.15879,84.6341,27.1951,-4.1463,0.00,0.00,0.00,6,S01
10020,-13.60385,-1.00796,-1.81002,76.2805,14.2683,7.4390,0.00,0.00,0.00,6,S01
10040,-10.48182,-0.14365,-3.46202,76.9512,0.1829,13.8415,0.00,0.00,0.00,6,S01
10060,-10.57998,1.92973,-4.61602,73.7195,11.3415,4.7561,0.00,0.00,0.00,6,S01
10080,-11.01333,1.70467,-4.09169,61.6463,29.7561,-4.0854,0.00,0.00,0.00,6,S01
10100,-11.31500,0.73263,-3.64398,52.4390,27.0122,-14.6341,0.00,0.00,0.00,6,S01
10120,-11.35809,-0.01197,-3.99113,51.4634,9.2073,-24.9390,0.00,0.00,0.00,6,S01
10140,-10.79785,-0.63686,-4.40054,60.4878,-2.1951,-26.5854,0.00,0.00,0.00,6,S01
10160,-9.95030,-0.80206,-4.60644,71.2805,-3.3537,-21.6463,0.00,0.00,0.00,6,S01
10180,-9.05727,-0.41180,-5.03501,77.8049,2.9268,-15.7317,0.00,0.00,0.00,6,S01
10200,-8.76038,-0.45250,-4.50110,82.6829,14.0244,-13.7805,0.00,0.00,0.00,6,S01
10220,-9.24641,-0.44772,-3.69904,86.2195,14.6951,-19.2683,0.00,0.00,0.00,6,S01
10240,-9.19373,-0.06464,-3.38780,84.5732,4.2683,-24.4512,0.00,0.00,0.00,6,S01
10260,-8.42280,0.10774,-3.09570,78.1707,-4.0854,-24.7561,0.00,0.00,0.00,6,S01
10280,-7.87932,-0.20111,-2.32477,73.3537,-3.2927,-26.4024,0.00,0.00,0.00,6,S01
10300,-7.75482,-0.86431,-1.54187,72.5000,-4.6951,-30.8537,0.00,0.00,0.00,6,S01
10320,-7.95114,-1.37427,-0.62489,71.2805,-13.7195,-38.5366,0.00,0.00,0.00,6,S01
10340,-8.13789,-1.25935,-0.47884,70.3659,-24.4512,-42.0732,0.00,0.00,0.00,6,S01
10360,-8.07085,-0.78051,-0.64643,67.9878,-24.6341,-40.9756,0.00,0.00,0.00,6,S01
10380,-8.18338,-0.60813,-0.27773,67.2561,-16.4634,-41.8902,0.00,0.00,0.00,6,S01
10400,-8.44435,-0.59616,-0.24421,71.8293,-16.4634,-45.5488,0.00,0.00,0.00,6,S01
10420,-8.38928,-1.22823,0.62489,67.8659,-27.5610,-43.7805,0.00,0.00,0.00,6,S01
10440,-7.94157,-1.72143,1.06063,61.0366,-48.7195,-36.5244,0.00,0.00,0.00,6,S01
10460,-7.31907,-1.88184,1.46765,57.7439,-72.4390,-29.7561,0.00,0.00,0.00,6,S01
10480,-6.84502,-1.35033,0.59616,59.3293,-91.6463,-22.6220,0.00,0.00,0.00,6,S01
10500,-6.37336,-0.70868,-0.93134,57.5610,-92.8659,-12.9268,0.00,0.00,0.00,6,S01
10520,-5.95199,-0.81882,-1.99916,49.5122,-71.4634,-4.4512,0.00,0.00,0.00,6,S01
10540,-6.48829,-0.76854,-1.79565,30.4878,-33.3537,-3.3537,0.00,0.00,0.00,6,S01
10560,-7.22570,-0.64883,-1.22823,5.9146,7.9268,-2.0122,0.00,0.00,0.00,6,S01
10580,-7.89368,-1.07021,-0.78769,-10.1829,38.4756,0.0610,0.00,0.00,0.00,6,S01
10600,-9.62469,-2.66475,1.44370,-17.5000,53.2927,-3.6585,0.00,0.00,0.00,6,S01
10620,-12.89996,-3.88818,4.07972,-18.6585,37.1341,-10.3049,0.00,0.00,0.00,6,S01
10640,-14.06115,-2.71502,-0.46448,1.7683,19.2683,-7.2561,0.00,0.00,0.00,6,S01
10660,-14.89672,-2.43730,-1.38864,6.0976,51.7073,0.1220,0.00,0.00,0.00,6,S01
10680,-16.43380,-4.99191,-1.05345,-8.1098,68.3537,0.3659,0.00,0.00,0.00,6,S01
10700,-17.06347,-7.31907,-0.64165,-10.3659,59.8171,-6.5244,0.00,0.00,0.00,6,S01
10720,-14.68843,-4.23534,-2.82037,11.4024,51.8902,-7.1951,0.00,0.00,0.00,6,S01
10740,-11.92552,-1.04148,-3.26809,10.5488,57.9878,15.8537,0.00,0.00,0.00,6,S01
10760,-10.03649,-2.34392,-3.88579,-4.2073,66.7073,46.5244,0.00,0.00,0.00,6,S01
10780,-9.14106,-4.64475,-3.73256,-4.2683,80.8537,55.1829,0.00,0.00,0.00,6,S01
10800,-8.58321,-4.74052,-2.79164,11.2805,81.5854,50.0000,0.00,0.00,0.00,6,S01
10820,-7.93199,-3.98874,-3.38061,27.3780,55.7317,50.3049,0.00,0.00,0.00,6,S01
10840,-8.04691,-2.17154,-4.21140,32.1951,33.0488,50.8537,0.00,0.00,0.00,6,S01
10860,-8.99741,-0.32561,-3.90734,27.5610,30.5488,51.7683,0.00,0.00,0.00,6,S01
10880,-9.10994,0.00718,-3.46202,25.7927,32.3780,56.8902,0.00,0.00,0.00,6,S01
10900,-8.42280,-0.56503,-3.56736,32.6829,21.3415,60.6098,0.00,0.00,0.00,6,S01
10920,-7.79791,-1.35751,-3.70383,40.9146,1.3415,58.5366,0.00,0.00,0.00,6,S01
10940,-8.01339,-1.21386,-3.80678,48.4756,-11.8293,51.5244,0.00,0.00,0.00,6,S01
10960,-8.08522,-0.98162,-3.68946,55.6707,-10.6098,47.2561,0.00,0.00,0.00,6,S01
10980,-7.48427,-1.00796,-3.78044,66.7073,-3.5366,47.7439,0.00,0.00,0.00,6,S01
11000,-6.97431,-0.92656,-4.37660,78.1707,0.5488,50.1220,0.00,0.00,0.00,6,S01
11020,-7.58483,-0.68235,-4.00550,82.7439,3.9024,51.9512,0.00,0.00,0.00,6,S01
11040,-8.67898,-0.58419,-3.45962,83.3537,1.2805,55.4268,0.00,0.00,0.00,6,S01
11060,-8.18817,0.51236,-3.18668,84.6951,-21.4634,65.9146,0.00,0.00,0.00,6,S01
11080,-7.81707,1.10612,-2.65038,86.8902,-27.3780,70.1829,0.00,0.00,0.00,6,S01
11100,-8.14029,1.26893,-2.47082,84.8171,-35.3049,70.7317,0.00,0.00,0.00,6,S01
11120,-8.26957,0.43574,-1.77410,76.2195,-49.2683,72.0732,0.00,0.00,0.00,6,S01
11140,-7.66623,-0.18675,-1.33118,70.5488,-65.1220,73.5976,0.00,0.00,0.00,6,S01
11160,-6.88333,0.11492,-1.60651,70.6707,-72.1951,74.8171,0.00,0.00,0.00,6,S01
11180,-6.36139,1.19471,-2.13084,71.9512,-65.3659,75.0610,0.00,0.00,0.00,6,S01
11200,-6.03578,1.92254,-2.18830,70.0610,-52.0732,70.3049,0.00,0.00,0.00,6,S01
11220,-6.30154,1.37188,-1.67355,70.4878,-40.9756,58.7195,0.00,0.00,0.00,6,S01
11240,-6.90727,0.91219,-1.37667,77.3781,-37.5610,42.8659,0.00,0.00,0.00,6,S01
11260,-6.56251,1.25217,-1.84114,86.9512,-40.2439,30.7927,0.00,0.00,0.00,6,S01
11280,-6.12437,2.26970,-1.63763,87.6829,-44.0854,20.9756,0.00,0.00,0.00,6,S01
11300,-5.94959,2.82995,-1.72861,81.2195,-47.5000,15.4268,0.00,0.00,0.00,6,S01
11320,-6.53138,2.82755,-1.38624,72.2561,-44.1463,12.2561,0.00,0.00,0.00,6,S01
11340,-7.05571,2.86347,-1.12527,68.9634,-40.4878,10.8537,0.00,0.00,0.00,6,S01
11360,-7.32626,3.27287,-1.33357,67.9878,-39.6341,10.1220,0.00,0.00,0.00,6,S01
11380,-8.17859,4.08690,-0.81403,61.9512,-36.5244,7.4390,0.00,0.00,0.00,6,S01
11400,-9.62469,4.35984,0.31364,50.9756,-36.0976,5.1829,0.00,0.00,0.00,6,S01
11420,-10.40520,3.19865,0.17957,50.6098,-39.2073,4.2073,0.00,0.00,0.00,6,S01
11440,-11.14501,2.94247,-1.42455,64.3293,-32.4390,1.5244,0.00,0.00,0.00,6,S01
11460,-13.66131,5.47793,-2.61686,67.6829,-12.2561,-0.4878,0.00,0.00,0.00,6,S01
11480,-16.82645,6.73489,-1.70467,50.7317,8.3537,8.1098,0.00,0.00,0.00,6,S01
11500,-16.41465,4.44364,-2.64080,43.8415,16.3415,13.9024,0.00,0.00,0.00,6,S01
11520,-14.81293,2.41336,-3.61285,59.7561,24.7561,-2.0732,0.00,0.00,0.00,6,S01
11540,-13.42908,1.83875,-3.32076,72.0122,30.9146,-21.7073,0.00,0.00,0.00,6,S01
11560,-11.90637,1.19471,-2.37265,70.7927,27.6829,-33.7195,0.00,0.00,0.00,6,S01
11580,-10.46506,0.28491,-2.29604,72.6829,24.0854,-40.1220,0.00,0.00,0.00,6,S01
11600,-9.60314,-0.96726,-1.58975,87.3171,32.6220,-44.2073,0.00,0.00,0.00,6,S01
11620,-9.35415,-1.68073,-1.57299,108.2317,34.7561,-49.4512,0.00,0.00,0.00,6,S01
11640,-8.98065,-1.81002,-2.02310,123.1098,28.7805,-47.3171,0.00,0.00,0.00,6,S01
11660,-8.57364,-1.71664,-2.19069,128.4756,21.9512,-35.3049,0.00,0.00,0.00,6,S01
11680,-8.34858,-1.36469,-2.31040,129.9390,14.0854,-23.7195,0.00,0.00,0.00,6,S01
11700,-8.37013,-0.64404,-2.38702,129.8171,2.0732,-18.2927,0.00,0.00,0.00,6,S01
11720,-8.30788,-0.03112,-2.51152,126.6463,-12.8659,-15.4268,0.00,0.00,0.00,6,S01
11740,-8.05409,0.24421,-2.65278,118.7805,-23.5366,-13.8415,0.00,0.00,0.00,6,S01
11760,-7.88889,-0.26815,-2.09014,108.5366,-26.3415,-12.0122,0.00,0.00,0.00,6,S01
11780,-7.92241,-1.13246,-1.70228,104.3293,-27.2561,-11.0976,0.00,0.00,0.00,6,S01
11800,-8.22169,-1.33596,-1.64960,107.0732,-26.4024,-12.4390,0.00,0.00,0.00,6,S01
11820,-8.75320,-1.14922,-1.45328,108.5366,-23.9634,-10.3659,0.00,0.00,0.00,6,S01
11840,-9.01896,-1.36948,-1.24738,110.9756,-23.5366,-1.4634,0.00,0.00,0.00,6,S01
11860,-8.60237,-2.22661,-1.27611,121.7073,-24.8171,9.2073,0.00,0.00,0.00,6,S01
11880,-7.87692,-2.71981,-1.68552,137.0122,-27.1951,14.2683,0.00,0.00,0.00,6,S01
11900,-7.10360,-2.16196,-2.08535,145.3659,-27.9268,13.9634,0.00,0.00,0.00,6,S01
11920,-6.56251,-0.68235,-2.16915,138.6585,-27.9268,12.2561,0.00,0.00,0.00,6,S01
11940,-6.64152,-0.21069,-0.92416,122.6829,-30.6098,10.9146,0.00,0.00,0.00,6,S01
11960,-6.63912,-1.33118,-0.27533,116.0976,-39.1463,10.7317,0.00,0.00,0.00,6,S01
11980,-6.19141,-3.02148,-0.60094,120.1829,-42.0122,12.0122,0.00,0.00,0.00,6,S01
12000,-6.48829,-2.94247,-1.19710,125.1220,-34.8780,8.4146,0.00,0.00,0.00,6,S01
12020,-7.41245,-0.88825,-3.10767,117.1951,-24.6951,1.8902,0.00,0.00,0.00,6,S01
12040,-8.48744,0.16999,-3.16274,93.7805,-9.3902,1.9512,0.00,0.00,0.00,6,S01
12060,-10.03649,-0.63446,-1.09654,77.0732,-5.4268,4.0854,0.00,0.00,0.00,6,S01
12080,-10.42435,-2.02071,-0.26576,71.2805,-24.5122,4.6341,0.00,0.00,0.00,6,S01
12100,-9.12430,-2.84910,-0.52672,74.6951,-38.4146,5.0610,0.00,0.00,0.00,6,S01
12120,-8.17859,-2.29604,-1.38145,88.2927,-32.8049,6.1585,0.00,0.00,0.00,6,S01
12140,-8.56885,-1.65200,-1.41737,99.0854,-17.5610,6.9512,0.00,0.00,0.00,6,S01
12160,-8.87531,-1.52511,-1.29766,102.6220,-7.8049,8.7195,0.00,0.00,0.00,6,S01
12180,-8.97826,-1.44131,-1.13246,100.6098,-7.8659,8.9024,0.00,0.00,0.00,6,S01
12200,-8.87291,-0.85952,-0.90261,96.5244,-12.0122,7.0122,0.00,0.00,0.00,6,S01
12220,-9.03811,0.14126,-1.07500,91.7683,-16.0976,5.6098,0.00,0.00,0.00,6,S01
12240,-9.55526,0.73023,-1.20428,83.7805,-16.0976,8.5366,0.00,0.00,0.00,6,S01
12260,-9.79228,0.23224,-1.14922,74.3902,-15.3659,13.1707,0.00,0.00,0.00,6,S01
12280,-9.63187,-0.72065,-1.24498,66.9512,-17.8659,11.1585,0.00,0.00,0.00,6,S01
12300,-8.50181,-1.11809,-1.03908,62.9878,-18.4756,-5.1829,0.00,0.00,0.00,6,S01
12320,-8.06846,-0.68714,-0.79487,63.3537,-17.6829,-9.1463,0.00,0.00,0.00,6,S01
12340,-7.86974,-0.37589,-0.68953,64.5122,-15.4268,-10.9756,0.00,0.00,0.00,6,S01
12360,-8.12592,-0.04549,-0.80685,66.7073,-8.4756,-10.4878,0.00,0.00,0.00,6,S01
12380,-9.04529,0.18914,-0.19393,64.8171,-0.8537,-8.2317,0.00,0.00,0.00,6,S01
12400,-10.11790,0.28252,0.61531,61.0366,-2.0122,-6.8293,0.00,0.00,0.00,6,S01
12420,-10.22803,0.46208,0.81642,59.9390,-9.5122,-8.2317,0.00,0.00,0.00,6,S01
12440,-9.69173,0.79248,0.95050,61.3415,-12.7439,-11.4634,0.00,0.00,0.00,6,S01
12460,-9.25838,1.40779,0.64883,62.6220,-10.9756,-12.5000,0.00,0.00,0.00,6,S01
12480,-9.18416,1.92015,0.57940,59.5732,-3.3537,-10.9756,0.00,0.00,0.00,6,S01
12500,-9.22246,2.00395,0.54827,54.8171,3.8415,-8.2317,0.00,0.00,0.00,6,S01
12520,-9.37330,1.56820,0.60813,51.0366,7.2561,-5.0610,0.00,0.00,0.00,6,S01
12540,-9.68933,0.82361,0.76854,50.0610,7.4390,-0.6098,0.00,0.00,0.00,6,S01
12560,-9.82341,0.54827,1.03430,50.7927,4.3293,4.7561,0.00,0.00,0.00,6,S01
12580,-9.19373,0.07422,1.49877,49.9390,-1.6463,8.5366,0.00,0.00,0.00,6,S01
12600,-8.81784,-0.21308,1.57778,57.2561,-4.0244,7.1341,0.00,0.00,0.00,6,S01
12620,-9.43794,-0.47884,1.59214,70.7927,-2.8659,1.9512,0.00,0.00,0.00,6,S01
12640,-9.53132,-0.54827,0.93613,85.4268,-5.0610,-2.4390,0.00,0.00,0.00,6,S01
12660,-9.45949,-0.40701,-0.02394,95.8537,-2.5610,-3.4756,0.00,0.00,0.00,6,S01
12680,-9.32542,0.04788,-0.90980,97.6829,7.1951,0.6098,0.00,0.00,0.00,6,S01
12700,-9.45710,0.66798,-0.56024,87.1341,13.9634,8.3537,0.00,0.00,0.00,6,S01
12720,-9.89524,1.03908,0.49321,71.0976,7.5610,15.1829,0.00,0.00,0.00,6,S01
12740,-9.78510,0.35674,1.18034,60.9756,-5.3659,17.5000,0.00,0.00,0.00,6,S01
12760,-9.33739,-0.89783,1.32160,60.7927,-13.4756,14.5122,0.00,0.00,0.00,6,S01
12780,-9.12191,-1.42694,0.78051,65.3049,-14.2683,8.8415,0.00,0.00,0.00,6,S01
12800,-8.83460,-0.96486,0.03352,63.2927,-10.3659,4.4512,0.00,0.00,0.00,6,S01
12820,-8.68138,-0.55306,0.34237,54.2073,-4.8171,3.8415,0.00,0.00,0.00,6,S01
12840,-8.79390,-0.74699,0.95289,51.4634,-2.1341,4.3902,0.00,0.00,0.00,6,S01
12860,-9.01417,-1.11570,1.14443,56.3415,-1.9512,3.2317,0.00,0.00,0.00,6,S01
12880,-9.04051,-0.97444,0.58179,60.4878,-4.5732,0.7317,0.00,0.00,0.00,6,S01
12900,-8.80348,-0.43574,-0.41180,57.0122,-9.2073,-2.2561,0.00,0.00,0.00,6,S01
12920,-8.52575,0.22984,-1.09176,47.6829,-12.5610,-7.9878,0.00,0.00,0.00,6,S01
12940,-8.39886,0.56024,-1.48919,37.3171,-11.8293,-15.9756,0.00,0.00,0.00,6,S01
12960,-8.74841,0.42138,-1.35751,31.2805,-8.0488,-23.1707,0.00,0.00,0.00,6,S01
12980,-9.49301,0.52912,-0.58897,29.0244,-5.9756,-24.1463,0.00,0.00,0.00,6,S01
13000,-9.66539,0.73023,0.17478,27.9878,-7.8659,-18.1707,0.00,0.00,0.00,6,S01
13020,-9.22486,0.54348,0.85473,30.0610,-8.7195,-12.3171,0.00,0.00,0.00,6,S01
13040,-9.38048,0.79966,1.38385,34.7561,-6.5854,-11.2195,0.00,0.00,0.00,6,S01
13060,-10.42675,1.32878,1.75734,36.7073,-4.0854,-9.0244,0.00,0.00,0.00,6,S01
13080,-11.03727,1.85551,1.80283,35.7317,-4.0244,-1.7683,0.00,0.00,0.00,6,S01
13100,-10.51294,1.96564,1.63524,34.4512,-4.0854,6.7683,0.00,0.00,0.00,6,S01
13120,-9.65582,1.92733,1.30245,32.0732,-2.0122,12.6829,0.00,0.00,0.00,6,S01
13140,-9.05727,1.61848,1.24259,26.9512,2.6220,16.2195,0.00,0.00,0.00,6,S01
13160,-8.82263,1.21625,1.39821,22.6829,7.7439,16.0366,0.00,0.00,0.00,6,S01
13180,-8.64307,0.90740,1.51074,21.1585,11.4024,12.5610,0.00,0.00,0.00,6,S01
13200,-8.52336,0.68235,1.50595,23.4146,14.6341,8.4146,0.00,0.00,0.00,6,S01
13220,-8.51618,0.62968,1.41497,27.6220,18.2927,5.0610,0.00,0.00,0.00,6,S01
13240,-8.57124,0.76375,1.20907,30.3049,20.2439,2.9268,0.00,0.00,0.00,6,S01
13260,-8.32703,0.85952,0.86431,30.0000,20.3049,1.3415,0.00,0.00,0.00,6,S01
13280,-8.00382,1.03430,0.60813,26.0976,24.5732,-0.6707,0.00,0.00,0.00,6,S01
13300,-8.12113,1.09415,1.20907,18.9634,33.0488,-2.9878,0.00,0.00,0.00,6,S01
13320,-8.47547,1.18752,1.48919,14.8780,34.6951,-5.0000,0.00,0.00,0.00,6,S01
13340,-8.43956,1.17076,0.76854,13.1707,31.8902,-5.8537,0.00,0.00,0.00,6,S01
13360,-8.08043,1.27850,0.01676,8.7195,34.8171,-7.1951,0.00,0.00,0.00,6,S01
13380,-8.15705,1.48680,0.95289,-2.1951,43.5976,-9.5732,0.00,0.00,0.00,6,S01
13400,-8.69095,1.34554,1.74537,-8.7195,44.2683,-11.5244,0.00,0.00,0.00,6,S01
13420,-9.03332,1.19710,1.38385,-5.6707,38.4146,-12.0122,0.00,0.00,0.00,6,S01
13440,-8.77475,1.13246,0.41180,-2.9268,33.1098,-11.2805,0.00,0.00,0.00,6,S01
13460,-8.23605,0.93134,-0.16999,-4.3902,32.8049,-9.6341,0.00,0.00,0.00,6,S01
13480,-7.81946,0.49799,0.10774,-5.1829,36.1585,-7.5610,0.00,0.00,0.00,6,S01
13500,-7.82425,0.40462,0.68953,1.4024,35.0000,-5.9756,0.00,0.00,0.00,6,S01
13520,-8.24802,1.80523,0.36152,15.9756,33.6585,-4.2683,0.00,0.00,0.00,6,S01
13540,-8.58321,2.34392,0.85473,7.0732,33.5366,-4.6951,0.00,0.00,0.00,6,S01
13560,-8.55209,2.18830,1.36948,-3.1098,25.4268,-6.6463,0.00,0.00,0.00,6,S01
13580,-8.42041,1.81241,1.33118,-2.8659,22.1341,-10.0610,0.00,0.00,0.00,6,S01
13600,-8.82503,2.24337,1.34075,-2.9878,28.5366,-14.7561,0.00,0.00,0.00,6,S01
13620,-9.39245,2.94966,0.96247,-8.9024,35.3659,-18.5976,0.00,0.00,0.00,6,S01
13640,-9.01656,3.08134,-0.13647,-8.2317,35.4878,-18.9024,0.00,0.00,0.00,6,S01
13660,-7.39808,2.84192,-1.45328,-6.4024,25.1829,-13.3537,0.00,0.00,0.00,6,S01
13680,-4.94881,2.19069,-1.81002,-8.9634,12.5000,-2.6829,0.00,0.00,0.00,6,S01
13700,-2.36308,1.07021,-1.63763,-8.0488,-5.6098,13.0488,0.00,0.00,0.00,6,S01
13720,-0.56982,0.29209,-1.82678,-13.9024,-34.5732,24.1463,0.00,0.00,0.00,6,S01
13740,0.23463,0.33998,-2.07098,-36.9512,-63.9024,17.1341,0.00,0.00,0.00,6,S01
13760,1.01754,0.23463,-1.78847,-59.3902,-83.4146,2.3780,0.00,0.00,0.00,6,S01
13780,1.59214,-0.46687,-0.56024,-60.6707,-94.8171,-11.7073,0.00,0.00,0.00,6,S01
13800,1.15401,-0.33519,-0.16999,-46.5854,-100.3049,-26.7073,0.00,0.00,0.00,6,S01
13820,0.60573,0.42856,-1.08936,-27.9878,-89.8171,-36.0366,0.00,0.00,0.00,6,S01
13840,0.12450,-0.13168,-2.02549,-14.5122,-63.7195,-38.2317,0.00,0.00,0.00,6,S01
13860,-1.02472,0.70150,-3.89776,-2.1341,-30.7927,-40.1829,0.00,0.00,0.00,6,S01
13880,-10.05325,-2.13802,-19.97961,20.3659,12.1341,-42.6829,0.00,0.00,0.00,6,S01
13900,-36.18596,-3.49793,-6.90009,-65.7317,170.0000,-95.1220,0.00,0.00,0.00,6,S01
13920,-34.94816,-17.69315,6.25844,-141.2195,262.0732,-78.1707,0.00,0.00,0.00,6,S01
13940,-25.17024,-9.85932,4.32393,-4.3902,173.4756,-55.6098,0.00,0.00,0.00,6,S01
13960,-18.70111,2.28646,3.06697,89.7561,41.7073,-32.8049,0.00,0.00,0.00,6,S01
13980,-16.31648,7.48427,1.36948,28.2927,-72.4390,-18.8415,0.00,0.00,0.00,6,S01
14000,-12.63420,0.70629,0.78769,-56.8293,-51.5854,30.4878,0.00,0.00,0.00,6,S01
14020,-12.34690,-7.38132,4.42209,-78.7805,28.7195,36.0366,0.00,0.00,0.00,6,S01
14040,-13.08192,-6.14352,4.22816,-48.5366,50.9146,2.6829,0.00,0.00,0.00,6,S01
14060,-11.37964,-1.26414,1.03908,-16.9512,27.8049,-5.4878,0.00,0.00,0.00,6,S01
14080,-8.24324,1.77171,0.36392,-43.0488,11.6463,11.8293,0.00,0.00,0.00,6,S01
14100,-5.05177,1.74058,-0.28730,-74.8781,-8.4756,44.3293,0.00,0.00,0.00,6,S01
14120,-2.91853,-0.48363,-0.85952,-90.5488,-27.8049,75.6098,0.00,0.00,0.00,6,S01
14140,-1.68552,-2.50194,-1.10852,-85.0610,-36.7683,84.5122,0.00,0.00,0.00,6,S01
14160,-1.12288,-2.38702,-1.72383,-48.7195,-38.5976,76.2805,0.00,0.00,0.00,6,S01
14180,-0.51236,-1.10852,-2.24576,-13.7195,-50.7927,72.3781,0.00,0.00,0.00,6,S01
14200,-0.39744,0.06943,-4.69264,-0.4268,-79.6341,79.3293,0.00,0.00,0.00,6,S01
14220,-2.41814,-7.23049,-24.10243,57.3781,-105.6098,89.5732,0.00,0.00,0.00,6,S01
14240,-6.57448,-10.26394,-38.35511,271.1585,-57.9268,78.1707,0.00,0.00,0.00,6,S01
14260,-21.81118,9.30866,-13.39556,150.8537,60.3049,-75.7317,0.00,0.00,0.00,6,S01
14280,-28.51494,19.47204,-1.94409,-56.7683,60.0610,-141.3415,0.00,0.00,0.00,6,S01
14300,-21.25572,3.88579,-4.28083,-18.0488,45.7317,19.7561,0.00,0.00,0.00,6,S01
14320,-16.57027,-5.21218,-5.04937,40.1220,80.4268,75.3659,0.00,0.00,0.00,6,S01
14340,-14.27423,0.59855,-7.09881,92.1341,58.5976,52.0122,0.00,0.00,0.00,6,S01
14360,-10.42675,5.02543,-7.02459,84.3293,12.6829,51.5244,0.00,0.00,0.00,6,S01
14380,-6.39012,4.19225,-2.91614,38.9024,-11.1585,72.9268,0.00,0.00,0.00,6,S01
14400,-4.34308,1.15401,4.78840,6.8293,-48.2317,85.6098,0.00,0.00,0.00,6,S01
14420,-2.32238,-0.33998,6.84023,20.0000,-117.3171,72.6829,0.00,0.00,0.00,6,S01
14440,-0.46926,0.12929,5.44441,64.0244,-122.6829,48.4756,0.00,0.00,0.00,6,S01
14460,-0.54827,1.58257,2.42054,92.8659,-85.1220,24.3902,0.00,0.00,0.00,6,S01
14480,-2.91374,-0.92416,0.34477,102.3171,-54.2683,3.0488,0.00,0.00,0.00,6,S01
14500,-8.14268,-0.06225,-0.88825,117.1951,-27.6220,-28.3537,0.00,0.00,0.00,6,S01
14520,-13.68286,3.98874,-2.42772,121.2805,-8.4146,-43.0488,0.00,0.00,0.00,6,S01
14540,-16.48887,2.33674,-4.49870,79.3902,-5.0000,-15.4268,0.00,0.00,0.00,6,S01
14560,-13.92228,0.14844,-5.37019,52.8659,-1.0366,14.9390,0.00,0.00,0.00,6,S01
14580,-12.11227,-0.29688,-2.86586,39.3902,-22.7439,26.0976,0.00,0.00,0.00,6,S01
14600,-10.65899,0.99838,-4.42448,28.4146,-72.1341,35.5488,0.00,0.00,0.00,6,S01
14620,-12.08593,1.95127,-5.73411,13.7195,-68.3537,32.1951,0.00,0.00,0.00,6,S01
14640,-13.40992,-1.31681,-2.74376,-4.2683,-28.7195,20.4878,0.00,0.00,0.00,6,S01
14660,-12.09072,-4.18028,0.28012,-0.0610,-31.9512,5.9756,0.00,0.00,0.00,6,S01
14680,-10.72602,-1.31681,-0.66319,33.2927,-65.2439,-12.0732,0.00,0.00,0.00,6,S01
14700,-12.58153,4.30238,-2.93290,53.9634,-61.4634,-23.5366,0.00,0.00,0.00,6,S01
14720,-13.57273,2.88741,-2.61686,47.0122,-22.5610,-8.9634,0.00,0.00,0.00,6,S01
14740,-12.87123,-0.47884,-0.50757,32.3171,-2.9268,-5.2439,0.00,0.00,0.00,6,S01
14760,-12.72758,1.30963,-2.35589,49.1463,-21.4634,-20.5488,0.00,0.00,0.00,6,S01
14780,-13.25909,2.52588,-3.08613,50.6707,-19.3293,-26.2805,0.00,0.00,0.00,6,S01
14800,-12.45464,1.44370,-2.77727,40.0610,-23.9024,-32.0122,0.00,0.00,0.00,6,S01
14820,-11.24557,0.10534,-2.22182,32.6829,-36.6463,-39.2683,0.00,0.00,0.00,6,S01
14840,-11.06361,-0.07422,-2.13802,45.3049,-35.3049,-36.8293,0.00,0.00,0.00,6,S01
14860,-11.59991,1.00078,-2.12366,60.6707,-26.8293,-28.7195,0.00,0.00,0.00,6,S01
14880,-12.02847,2.42772,-2.51152,63.0488,-22.6829,-21.8293,0.00,0.00,0.00,6,S01
14900,-12.15297,2.47082,-1.71664,50.2439,-16.2805,-13.1707,0.00,0.00,0.00,6,S01
14920,-11.98298,1.39343,-1.04627,39.5122,-12.8049,-4.5732,0.00,0.00,0.00,6,S01
14940,-11.53766,0.67277,-0.76375,35.0000,-14.5122,-0.7317,0.00,0.00,0.00,6,S01
14960,-10.89841,0.74939,-0.63686,33.1707,-16.3415,-2.0732,0.00,0.00,0.00,6,S01
14980,-10.40041,1.05824,-0.76375,28.9024,-13.1098,-3.3537,0.00,0.00,0.00,6,S01
# DONE 750 samples in 15.0s
