timestamp,ax,ay,az,gx,gy,gz,mx,my,mz,label,subject_id
0,-8.49942,-0.67995,1.72143,7.3780,8.0488,-1.9512,0.00,0.00,0.00,3,S01
20,-8.49942,-0.67995,1.72143,7.3780,8.0488,-1.9512,0.00,0.00,0.00,3,S01
40,-8.67898,-0.85712,1.69270,1.0976,9.0854,0.8537,0.00,0.00,0.00,3,S01
60,-9.08600,-1.18992,2.01831,-5.0000,8.4146,-0.7317,0.00,0.00,0.00,3,S01
80,-9.70609,-1.42694,2.21224,-10.1220,5.2439,-4.3293,0.00,0.00,0.00,3,S01
100,-9.90242,-1.86987,2.14520,-14.9390,-0.1220,-6.6463,0.00,0.00,0.00,3,S01
120,-9.48583,-2.19069,2.27928,-14.7561,-2.9878,-8.2927,0.00,0.00,0.00,3,S01
140,-9.50977,-2.05422,2.14999,-12.7439,-4.0244,-10.1829,0.00,0.00,0.00,3,S01
160,-10.71645,-1.72861,1.63763,-15.1220,-3.8415,-14.1463,0.00,0.00,0.00,3,S01
180,-11.31021,-0.49081,1.19231,-21.8293,-2.1951,-22.5000,0.00,0.00,0.00,3,S01
200,-10.21845,-0.33998,0.23463,-27.9268,-2.8659,-27.4390,0.00,0.00,0.00,3,S01
220,-9.69891,-1.39821,-2.32477,-24.9390,-13.5366,-22.4390,0.00,0.00,0.00,3,S01
240,-10.42675,-1.30484,-2.82755,-29.6951,-5.4268,-19.1463,0.00,0.00,0.00,3,S01
260,-12.00932,-1.07500,-0.16041,-12.9268,17.6220,-8.7805,0.00,0.00,0.00,3,S01
280,-11.35570,-0.46687,-0.68235,-0.9756,9.4512,0.3049,0.00,0.00,0.00,3,S01
300,-10.34774,-0.16520,-0.83318,1.7683,8.1098,10.0000,0.00,0.00,0.00,3,S01
320,-9.75877,0.04549,-0.88107,0.6707,11.7073,17.7439,0.00,0.00,0.00,3,S01
340,-9.56962,0.21069,-0.70868,0.9146,17.4390,21.9512,0.00,0.00,0.00,3,S01
360,-9.23683,0.41180,-0.48123,3.1707,20.1829,25.3049,0.00,0.00,0.00,3,S01
380,-8.68377,0.44772,-0.30646,2.6220,19.5732,28.7195,0.00,0.00,0.00,3,S01
400,-8.13071,0.37110,-0.18914,-0.3049,18.4756,28.5976,0.00,0.00,0.00,3,S01
420,-7.76440,0.46926,-0.39744,-2.0732,17.5000,22.8659,0.00,0.00,0.00,3,S01
440,-7.54892,0.74220,-0.33040,-4.8171,18.6585,16.0366,0.00,0.00,0.00,3,S01
460,-7.39329,0.58897,-0.15083,-9.9390,19.3293,11.7683,0.00,0.00,0.00,3,S01
480,-7.30232,0.53870,-0.26576,-14.0854,19.1463,8.6585,0.00,0.00,0.00,3,S01
500,-7.43878,0.39265,0.29928,-18.1707,21.0976,6.4634,0.00,0.00,0.00,3,S01
520,-7.78594,0.09816,1.33836,-21.7683,20.7927,2.9878,0.00,0.00,0.00,3,S01
540,-8.30788,-0.00958,1.58496,-22.1951,13.8415,-1.9512,0.00,0.00,0.00,3,S01
560,-9.02135,0.22505,1.92733,-22.0122,7.0732,-3.5976,0.00,0.00,0.00,3,S01
580,-9.38288,0.38068,2.84431,-23.8415,1.8293,0.0000,0.00,0.00,0.00,3,S01
600,-8.78911,0.26336,1.83875,-21.8902,-5.7927,4.8171,0.00,0.00,0.00,3,S01
620,-8.60955,0.17238,0.00479,-15.9146,-6.2195,6.8902,0.00,0.00,0.00,3,S01
640,-8.85376,-1.55623,0.92416,-6.1585,0.7317,8.9024,0.00,0.00,0.00,3,S01
660,-8.72447,-3.14119,2.27449,16.9512,-1.0366,9.7561,0.00,0.00,0.00,3,S01
680,-8.09719,-1.94170,-0.21787,41.5244,-12.4390,8.1707,0.00,0.00,0.00,3,S01
700,-8.65504,1.34554,-3.34470,52.7439,-21.0976,1.3415,0.00,0.00,0.00,3,S01
720,-10.92235,3.31597,-5.85382,41.0366,-14.3293,-2.9268,0.00,0.00,0.00,3,S01
740,-11.74595,1.75974,-4.75010,7.4390,18.1707,0.5488,0.00,0.00,0.00,3,S01
760,-12.63899,0.56503,-0.22505,-25.3049,39.4512,-3.0488,0.00,0.00,0.00,3,S01
780,-13.31176,0.11971,-1.79565,-28.9634,19.2683,-13.8415,0.00,0.00,0.00,3,S01
800,-13.26867,-0.83797,-2.18591,-30.3659,10.3659,-21.2195,0.00,0.00,0.00,3,S01
820,-13.16572,-1.95606,-1.38624,-33.5366,9.7561,-26.4024,0.00,0.00,0.00,3,S01
840,-13.35486,-2.25294,0.00000,-32.3171,8.7195,-33.8415,0.00,0.00,0.00,3,S01
860,-13.23754,-2.30562,0.78769,-28.1098,1.7073,-36.5854,0.00,0.00,0.00,3,S01
880,-12.26071,-2.45166,1.68552,-19.8171,0.6707,-34.7561,0.00,0.00,0.00,3,S01
900,-10.74278,-1.86748,1.87227,-4.1463,2.1341,-35.1829,0.00,0.00,0.00,3,S01
920,-9.12191,-0.81882,1.64960,7.1341,0.1829,-35.1829,0.00,0.00,0.00,3,S01
940,-7.78355,0.13886,1.60412,6.4634,-1.4024,-31.8293,0.00,0.00,0.00,3,S01
960,-6.63433,0.73741,1.98958,0.9756,-3.4756,-26.0976,0.00,0.00,0.00,3,S01
980,-5.26006,0.99838,3.15795,-5.4878,-10.1220,-17.3780,0.00,0.00,0.00,3,S01
1000,-3.98635,-0.19632,3.41174,-6.9512,-25.0000,-2.2561,0.00,0.00,0.00,3,S01
1020,-2.98557,-1.53708,2.24097,3.1098,-42.0732,11.2805,0.00,0.00,0.00,3,S01
1040,-2.40138,-3.19147,0.94810,14.8780,-58.2927,16.4024,0.00,0.00,0.00,3,S01
1060,-3.14119,-4.67348,-1.32639,29.5122,-75.7927,8.7195,0.00,0.00,0.00,3,S01
1080,-7.40287,-6.87854,-6.17225,47.5610,-80.5488,-22.8659,0.00,0.00,0.00,3,S01
1100,-13.07952,1.25456,-8.59518,39.2683,-39.2073,-89.6341,0.00,0.00,0.00,3,S01
1120,-16.13213,7.76200,-2.87304,0.1829,34.7561,-103.5976,0.00,0.00,0.00,3,S01
1140,-15.33965,1.16358,0.16520,-48.1098,30.6098,-36.4634,0.00,0.00,0.00,3,S01
1160,-15.01643,-2.49476,-2.30562,-69.8171,-8.5976,-0.8537,0.00,0.00,0.00,3,S01
1180,-15.80652,-2.18351,-0.66319,-69.5122,4.2073,10.3659,0.00,0.00,0.00,3,S01
1200,-16.00524,-0.57221,0.23942,-55.6707,19.8780,20.7317,0.00,0.00,0.00,3,S01
1220,-14.15213,-0.55785,-0.64883,-47.0732,13.4756,38.1707,0.00,0.00,0.00,3,S01
1240,-12.33732,-0.52433,0.06943,-50.8537,10.3049,48.5366,0.00,0.00,0.00,3,S01
1260,-11.27669,0.77812,0.05746,-55.4878,9.9390,48.0488,0.00,0.00,0.00,3,S01
1280,-10.11071,1.67834,0.21548,-56.4024,11.6463,48.5366,0.00,0.00,0.00,3,S01
1300,-8.15705,1.29047,0.67995,-55.6707,6.2805,54.8781,0.00,0.00,0.00,3,S01
1320,-6.13394,0.24900,1.11570,-53.7805,-8.4146,60.9146,0.00,0.00,0.00,3,S01
1340,-4.50110,-0.87867,1.05105,-53.4146,-26.8902,64.8171,0.00,0.00,0.00,3,S01
1360,-2.89938,-1.70946,0.74460,-53.4146,-41.4024,60.5488,0.00,0.00,0.00,3,S01
1380,-1.46765,-2.15239,0.65122,-45.0610,-51.2195,43.7805,0.00,0.00,0.00,3,S01
1400,-0.81882,-1.80044,0.10534,-24.5122,-58.7805,22.6829,0.00,0.00,0.00,3,S01
1420,-1.68791,-0.54348,-1.19471,-6.8902,-64.0244,5.0610,0.00,0.00,0.00,3,S01
1440,-4.18746,0.22984,-3.24175,1.7683,-61.1585,-4.5732,0.00,0.00,0.00,3,S01
1460,-9.43555,-1.82917,-6.78996,4.7561,-41.0366,-11.5854,0.00,0.00,0.00,3,S01
1480,-14.05157,-3.22738,-4.13957,4.1463,27.9268,-21.7683,0.00,0.00,0.00,3,S01
1500,-14.18565,-2.46842,6.67503,7.1951,65.7317,-19.4512,0.00,0.00,0.00,3,S01
1520,-14.07312,1.45089,-0.30406,34.9390,-6.7683,-14.2683,0.00,0.00,0.00,3,S01
1540,-15.21755,3.51708,-3.24414,21.5244,-13.3537,-3.5366,0.00,0.00,0.00,3,S01
1560,-17.24304,-0.23703,3.00233,-51.6463,25.8537,-11.8902,0.00,0.00,0.00,3,S01
1580,-15.23191,-0.70150,1.72622,-44.6341,9.2683,-27.8659,0.00,0.00,0.00,3,S01
1600,-12.90714,-1.61609,1.29287,-36.3415,3.9024,-35.0000,0.00,0.00,0.00,3,S01
1620,-10.22564,-3.70862,1.16837,-24.3902,5.6707,-29.5122,0.00,0.00,0.00,3,S01
1640,-8.16662,-3.97198,0.70390,-6.3415,17.1951,-23.9024,0.00,0.00,0.00,3,S01
1660,-7.28077,-2.21464,1.41258,-0.7317,28.4756,-19.0244,0.00,0.00,0.00,3,S01
1680,-6.49547,-0.11013,2.08056,-9.6341,20.6707,-11.2805,0.00,0.00,0.00,3,S01
1700,-5.42766,0.63686,2.04704,-5.9146,2.3780,0.6707,0.00,0.00,0.00,3,S01
1720,-4.12760,0.06464,1.75974,4.3293,-16.6463,12.8659,0.00,0.00,0.00,3,S01
1740,-2.67193,-0.56982,1.70946,10.4878,-31.7073,25.4268,0.00,0.00,0.00,3,S01
1760,-2.01831,-1.98240,0.99359,21.3415,-51.7073,34.8780,0.00,0.00,0.00,3,S01
1780,-1.95367,-2.25294,-1.12288,42.6220,-82.8049,30.7927,0.00,0.00,0.00,3,S01
1800,-3.29921,-1.76213,-3.59609,37.7439,-102.6829,7.7439,0.00,0.00,0.00,3,S01
1820,-8.85136,-4.53222,-8.87770,7.8659,-93.1707,-33.2317,0.00,0.00,0.00,3,S01
1840,-17.32205,2.03747,-9.18416,-39.1463,9.6341,-116.0366,0.00,0.00,0.00,3,S01
1860,-20.14721,4.90093,8.31027,-48.6585,151.5854,-117.5000,0.00,0.00,0.00,3,S01
1880,-18.69632,-0.99359,4.29041,-60.8537,82.5610,-49.5732,0.00,0.00,0.00,3,S01
1900,-16.69238,-4.70461,-1.44849,-45.0000,10.2439,-11.7683,0.00,0.00,0.00,3,S01
1920,-16.55351,-1.72143,1.60890,-30.6707,34.5122,5.6098,0.00,0.00,0.00,3,S01
1940,-14.58069,0.85234,1.27850,-17.5000,43.7195,32.3171,0.00,0.00,0.00,3,S01
1960,-11.59512,1.35033,-0.28730,-18.2317,26.8902,62.2561,0.00,0.00,0.00,3,S01
1980,-8.67659,1.45089,-0.22266,-27.0122,17.8659,79.5122,0.00,0.00,0.00,3,S01
2000,-6.94318,1.68552,0.14844,-38.6585,14.2073,76.8902,0.00,0.00,0.00,3,S01
2020,-5.93283,1.43892,0.36631,-41.8293,13.6585,63.9024,0.00,0.00,0.00,3,S01
2040,-5.03979,0.59855,0.27533,-37.5610,11.5854,49.8781,0.00,0.00,0.00,3,S01
2060,-4.25928,-0.51475,0.30646,-35.3659,5.7317,37.6829,0.00,0.00,0.00,3,S01
2080,-3.62243,-1.46525,0.37110,-33.2927,-7.6829,24.6341,0.00,0.00,0.00,3,S01
2100,-3.26090,-1.74058,0.49321,-24.0244,-25.9146,9.1463,0.00,0.00,0.00,3,S01
2120,-2.94726,-1.14922,0.12210,-7.6220,-44.3902,-4.7561,0.00,0.00,0.00,3,S01
2140,-3.74693,0.50757,-1.37906,10.9146,-61.3415,-14.4512,0.00,0.00,0.00,3,S01
2160,-7.05332,1.90578,-4.85305,20.1220,-73.2317,-19.0854,0.00,0.00,0.00,3,S01
2180,-12.35887,-0.54588,-8.79869,15.3659,-50.4268,-16.8293,0.00,0.00,0.00,3,S01
2200,-14.75547,-5.46117,3.67749,8.2317,43.2317,-10.4878,0.00,0.00,0.00,3,S01
2220,-14.93503,-4.40773,5.17148,23.6585,40.9146,-17.1951,0.00,0.00,0.00,3,S01
2240,-15.02362,3.11964,-2.54743,68.5976,-9.1463,-23.1707,0.00,0.00,0.00,3,S01
2260,-16.11537,5.98072,-4.19704,36.8902,12.3171,-11.1585,0.00,0.00,0.00,3,S01
2280,-15.94059,1.21625,0.80685,-30.6707,45.7317,-7.0122,0.00,0.00,0.00,3,S01
2300,-14.71476,-0.91219,1.39821,-56.8902,32.7439,-29.0854,0.00,0.00,0.00,3,S01
2320,-12.67969,-1.77650,0.17238,-49.6951,8.2927,-47.2561,0.00,0.00,0.00,3,S01
2340,-10.47942,-2.85149,-0.02634,-42.6220,0.1220,-46.9512,0.00,0.00,0.00,3,S01
2360,-8.14747,-4.02226,0.56024,-31.0976,0.9146,-35.5488,0.00,0.00,0.00,3,S01
2380,-6.25844,-3.74453,1.00317,-12.8049,3.1707,-22.4390,0.00,0.00,0.00,3,S01
2400,-5.19302,-2.51870,1.42455,-2.6220,3.2927,-13.9024,0.00,0.00,0.00,3,S01
2420,-4.71897,-1.26414,1.40300,6.6463,-1.4634,-10.2439,0.00,0.00,0.00,3,S01
2440,-4.34787,-0.35674,1.11330,17.5000,-7.1341,-10.1829,0.00,0.00,0.00,3,S01
2460,-4.44364,0.13886,0.76136,23.9634,-9.3293,-11.8902,0.00,0.00,0.00,3,S01
2480,-4.39575,-0.53391,0.63207,22.0122,-9.2683,-10.7927,0.00,0.00,0.00,3,S01
2500,-4.38857,-1.50595,0.41659,23.2317,-14.2073,-10.3049,0.00,0.00,0.00,3,S01
2520,-4.52504,-1.61848,-0.60334,34.8780,-28.6585,-14.9390,0.00,0.00,0.00,3,S01
2540,-6.31351,-2.96402,-2.65996,35.9756,-44.6951,-22.9268,0.00,0.00,0.00,3,S01
2560,-12.08832,-6.12916,-8.23366,37.6829,-41.1585,-51.0366,0.00,0.00,0.00,3,S01
2580,-17.98046,3.88818,-5.02543,27.3171,28.6585,-119.1463,0.00,0.00,0.00,3,S01
2600,-18.96687,9.32063,1.53708,1.8293,44.7561,-94.6341,0.00,0.00,0.00,3,S01
2620,-16.13692,4.16112,-2.96881,-53.6585,-29.6341,-0.3049,0.00,0.00,0.00,3,S01
2640,-14.09945,-4.37899,-4.59687,-102.9268,-44.0854,45.9756,0.00,0.00,0.00,3,S01
2660,-15.99566,-3.10528,-0.16281,-98.3537,12.1341,30.3659,0.00,0.00,0.00,3,S01
2680,-15.62935,-1.43892,0.74460,-71.0366,41.2195,31.3415,0.00,0.00,0.00,3,S01
2700,-13.37162,-0.80924,-0.81403,-57.5000,29.5732,43.1707,0.00,0.00,0.00,3,S01
2720,-10.77870,-0.38786,-0.54588,-54.0854,18.1098,49.0244,0.00,0.00,0.00,3,S01
2740,-8.74362,0.60813,-0.22505,-56.1585,7.0122,50.3049,0.00,0.00,0.00,3,S01
2760,-7.41484,1.53229,-0.18196,-60.8537,0.7927,51.2805,0.00,0.00,0.00,3,S01
2780,-6.14352,1.33836,-0.22984,-65.0610,-1.1585,52.5610,0.00,0.00,0.00,3,S01
2800,-4.84347,0.58419,-0.16759,-69.6341,-3.7805,48.7195,0.00,0.00,0.00,3,S01
2820,-3.92410,-0.13168,0.06225,-73.2927,-4.7561,36.8902,0.00,0.00,0.00,3,S01
2840,-3.69665,-0.99838,0.45250,-74.1463,-0.7927,21.0366,0.00,0.00,0.00,3,S01
2860,-4.22337,-1.02951,1.21386,-74.3293,1.6463,2.7439,0.00,0.00,0.00,3,S01
2880,-4.76686,-0.23463,2.26970,-67.9268,-28.2927,-20.8537,0.00,0.00,0.00,3,S01
2900,-4.29999,-0.87388,0.16041,-56.1585,-48.6585,-23.4146,0.00,0.00,0.00,3,S01
2920,-4.93684,0.21069,-1.79565,-42.0732,-53.4756,-32.4390,0.00,0.00,0.00,3,S01
2940,-9.68694,1.91057,-6.07170,-26.6463,-46.4024,-42.5000,0.00,0.00,0.00,3,S01
2960,-17.32684,1.62806,-10.88644,-19.9390,-10.7927,-45.0000,0.00,0.00,0.00,3,S01
2980,-18.30607,-4.14915,4.33351,-36.0976,69.5732,-25.9146,0.00,0.00,0.00,3,S01
3000,-16.00763,-2.02789,2.35111,-37.8659,5.1220,-24.2073,0.00,0.00,0.00,3,S01
3020,-14.12340,4.29999,-3.54581,-3.1098,-64.8781,-28.3537,0.00,0.00,0.00,3,S01
3040,-14.85363,6.36379,-5.05655,-30.8537,-47.1951,-18.8415,0.00,0.00,0.00,3,S01
3060,-14.75547,0.66798,-2.31998,-94.6341,8.7195,2.3780,0.00,0.00,0.00,3,S01
3080,-13.37162,-2.25055,0.33519,-118.9024,31.6463,-0.9756,0.00,0.00,0.00,3,S01
3100,-11.31739,-1.65679,-0.50278,-108.1707,5.6098,-16.9512,0.00,0.00,0.00,3,S01
3120,-9.10754,-0.82361,-0.96007,-108.0488,-24.8780,-23.4756,0.00,0.00,0.00,3,S01
3140,-7.24007,0.09577,-0.83318,-127.1341,-44.0854,-20.7317,0.00,0.00,0.00,3,S01
3160,-6.18662,0.02873,-0.83797,-139.8781,-54.7561,-12.1341,0.00,0.00,0.00,3,S01
3180,-5.86819,-1.01514,-1.18034,-138.1098,-57.5000,-3.5976,0.00,0.00,0.00,3,S01
3200,-5.66468,-1.73101,-1.67594,-130.4878,-52.7439,-0.4878,0.00,0.00,0.00,3,S01
3220,-5.51385,-1.84832,-1.90339,-120.8537,-38.4146,-0.7927,0.00,0.00,0.00,3,S01
3240,-5.93762,-2.23140,-1.58736,-111.8902,-12.9268,0.3659,0.00,0.00,0.00,3,S01
3260,-6.28957,-3.43329,-0.83558,-105.9756,17.8659,4.6341,0.00,0.00,0.00,3,S01
3280,-6.84981,-3.68946,0.68714,-101.4024,44.3293,0.9756,0.00,0.00,0.00,3,S01
3300,-8.57124,-2.17154,5.83467,-87.4390,50.1220,-10.1220,0.00,0.00,0.00,3,S01
3320,-9.63187,-0.89304,3.95283,-58.2317,6.5244,-14.5732,0.00,0.00,0.00,3,S01
3340,-9.53611,-0.36152,1.09894,-39.9390,-22.2561,-10.3049,0.00,0.00,0.00,3,S01
3360,-9.86172,0.95289,2.04704,-50.0610,-20.0610,-7.0732,0.00,0.00,0.00,3,S01
3380,-10.26634,1.62327,2.41336,-75.7317,-23.7195,-5.2439,0.00,0.00,0.00,3,S01
3400,-12.64617,-0.16999,-1.54426,-94.3902,-32.6829,-9.2073,0.00,0.00,0.00,3,S01
3420,-14.74828,0.01437,-3.91931,-104.8171,-20.5488,-40.0000,0.00,0.00,0.00,3,S01
3440,-14.46098,3.22499,-3.62482,-106.8902,-22.5610,-61.0366,0.00,0.00,0.00,3,S01
3460,-13.18966,3.28724,-4.12282,-129.5732,-57.4390,-23.7195,0.00,0.00,0.00,3,S01
3480,-11.66216,-1.57778,-5.60961,-158.9024,-80.0000,31.7683,0.00,0.00,0.00,3,S01
3500,-10.50815,-4.05338,-5.12599,-158.4146,-53.0488,48.2927,0.00,0.00,0.00,3,S01
3520,-11.03488,-1.95846,-0.76614,-145.3659,-1.8293,37.5610,0.00,0.00,0.00,3,S01
3540,-10.87207,-0.21787,-0.39265,-125.0000,9.9390,40.3659,0.00,0.00,0.00,3,S01
3560,-9.88566,0.52194,-1.62087,-116.0366,-3.1098,49.8781,0.00,0.00,0.00,3,S01
3580,-8.70532,0.22266,-1.86987,-118.9024,-11.7683,53.9634,0.00,0.00,0.00,3,S01
3600,-7.76918,-0.22505,-1.57060,-122.3781,-12.0732,50.3049,0.00,0.00,0.00,3,S01
3620,-7.28316,-0.53870,-1.64003,-120.0610,-7.7439,44.0854,0.00,0.00,0.00,3,S01
3640,-7.39569,-0.34477,-2.03268,-116.0976,-2.5000,36.5854,0.00,0.00,0.00,3,S01
3660,-7.60877,-0.17717,-1.64242,-115.7927,8.0488,29.8780,0.00,0.00,0.00,3,S01
3680,-7.68060,-0.19632,-0.26576,-116.8293,18.5366,25.1829,0.00,0.00,0.00,3,S01
3700,-7.67342,-0.27773,0.31603,-115.1220,17.8659,20.4268,0.00,0.00,0.00,3,S01
3720,-7.42921,-0.43096,0.52672,-109.6951,12.9268,14.9390,0.00,0.00,0.00,3,S01
3740,-7.20894,-0.90022,0.82839,-102.3781,11.7683,10.1220,0.00,0.00,0.00,3,S01
3760,-7.68299,-1.28090,1.32399,-92.6829,16.8902,3.7805,0.00,0.00,0.00,3,S01
3780,-9.02614,-0.90740,3.08613,-83.4146,23.4146,-4.7561,0.00,0.00,0.00,3,S01
3800,-10.18493,-0.30885,4.61123,-73.5366,14.3293,-11.3415,0.00,0.00,0.00,3,S01
3820,-9.49540,-0.73741,3.47638,-57.6829,-7.1951,-13.1707,0.00,0.00,0.00,3,S01
3840,-8.35576,-1.44849,2.31759,-40.8537,-17.0122,-15.3659,0.00,0.00,0.00,3,S01
3860,-8.85855,0.87388,0.77812,-28.9024,-16.5244,-19.5732,0.00,0.00,0.00,3,S01
3880,-11.43231,3.95283,-3.73735,-24.4512,-20.5488,-17.5000,0.00,0.00,0.00,3,S01
3900,-14.01805,3.63679,-7.69257,-24.5732,-10.7927,-6.0976,0.00,0.00,0.00,3,S01
3920,-12.53365,-0.72784,-1.48441,-46.4634,30.3659,12.1341,0.00,0.00,0.00,3,S01
3940,-11.35330,-0.53870,0.78530,-65.0000,7.6829,5.3049,0.00,0.00,0.00,3,S01
3960,-11.93031,2.60729,-3.69904,-54.0854,-34.6951,-9.9390,0.00,0.00,0.00,3,S01
3980,-11.94467,2.99036,-4.75728,-58.5976,-16.4634,-9.8780,0.00,0.00,0.00,3,S01
4000,-10.55364,0.74460,-2.16915,-86.7683,8.6585,-5.3049,0.00,0.00,0.00,3,S01
4020,-9.38527,-0.68714,-1.97282,-99.6951,5.7317,-14.2683,0.00,0.00,0.00,3,S01
4040,-8.84658,-1.50835,-2.24576,-97.3171,1.3415,-31.0976,0.00,0.00,0.00,3,S01
4060,-8.39168,-1.30963,-1.61130,-94.8781,1.7683,-45.0610,0.00,0.00,0.00,3,S01
4080,-7.68060,-1.44370,-1.02472,-99.5122,-2.1951,-47.9878,0.00,0.00,0.00,3,S01
4100,-7.47470,-1.29526,-0.94092,-103.2317,-11.7073,-48.0488,0.00,0.00,0.00,3,S01
4120,-7.87214,-0.76614,-1.43413,-100.6707,-21.0976,-47.8659,0.00,0.00,0.00,3,S01
4140,-7.97987,-0.79727,-1.89621,-97.8049,-23.4146,-43.2927,0.00,0.00,0.00,3,S01
4160,-7.91044,-1.33836,-1.85072,-97.8659,-17.9268,-36.3415,0.00,0.00,0.00,3,S01
4180,-7.76918,-3.21781,0.41659,-77.8049,6.0976,-26.7683,0.00,0.00,0.00,3,S01
4200,-8.04691,-3.62243,1.85551,-52.8049,5.1220,-22.9878,0.00,0.00,0.00,3,S01
4220,-8.59758,-3.09091,1.69270,-26.7073,-7.7439,-18.0488,0.00,0.00,0.00,3,S01
4240,-9.05008,-1.95606,1.84354,-8.7195,-15.3049,-12.1951,0.00,0.00,0.00,3,S01
4260,-9.21528,-0.72065,2.08774,-3.4756,-20.5488,-8.3537,0.00,0.00,0.00,3,S01
4280,-9.51695,0.18914,2.30322,-8.2927,-23.8415,-7.5610,0.00,0.00,0.00,3,S01
4300,-10.09156,1.13006,2.49236,-19.3293,-21.4634,-7.5610,0.00,0.00,0.00,3,S01
4320,-10.14184,0.72784,2.75812,-35.3049,-16.8902,-6.5244,0.00,0.00,0.00,3,S01
4340,-9.72046,-0.02634,2.45406,-46.4024,-14.6341,-7.9878,0.00,0.00,0.00,3,S01
4360,-10.34774,-1.53708,0.55306,-52.0122,-13.5976,-10.8537,0.00,0.00,0.00,3,S01
4380,-11.49935,-2.97599,-2.54504,-53.7195,-10.7927,-19.5732,0.00,0.00,0.00,3,S01
4400,-11.36767,0.53391,-3.20105,-55.1829,-3.8415,-33.2927,0.00,0.00,0.00,3,S01
4420,-10.60871,0.68235,-3.82593,-67.5610,-14.2073,-18.0488,0.00,0.00,0.00,3,S01
4440,-10.38365,-3.06697,-5.28879,-85.1829,-27.1341,7.7439,0.00,0.00,0.00,3,S01
4460,-11.17613,-4.74291,-3.06218,-85.4268,-8.2317,6.9512,0.00,0.00,0.00,3,S01
4480,-12.42112,-2.77967,-0.56743,-64.5122,11.2195,-0.0610,0.00,0.00,0.00,3,S01
4500,-12.34211,-0.43814,-2.81319,-40.1829,7.5610,10.1220,0.00,0.00,0.00,3,S01
4520,-11.77229,0.77812,-3.90015,-42.5000,11.4024,25.9146,0.00,0.00,0.00,3,S01
4540,-11.56399,1.36948,-1.82678,-64.7561,17.3780,35.2439,0.00,0.00,0.00,3,S01
4560,-10.98220,1.03669,-0.47884,-79.9390,6.4024,43.7195,0.00,0.00,0.00,3,S01
4580,-9.76834,0.11732,-1.22823,-78.9024,-5.2439,52.5000,0.00,0.00,0.00,3,S01
4600,-8.56645,-0.56024,-1.18752,-75.9146,-1.2195,54.9390,0.00,0.00,0.00,3,S01
4620,-8.00382,-0.06225,-0.12450,-77.1341,3.8415,49.6341,0.00,0.00,0.00,3,S01
4640,-7.60638,0.57221,-0.25379,-78.5366,-0.2439,43.2927,0.00,0.00,0.00,3,S01
4660,-7.17063,0.69911,-0.33998,-78.2317,-0.3049,37.7439,0.00,0.00,0.00,3,S01
4680,-7.07247,0.12450,0.55785,-78.9634,1.7683,29.5122,0.00,0.00,0.00,3,S01
4700,-7.03416,-0.34716,1.61369,-76.4024,-3.1707,20.3049,0.00,0.00,0.00,3,S01
4720,-6.35900,-0.34716,1.70946,-70.0000,-17.4390,16.0976,0.00,0.00,0.00,3,S01
4740,-5.48272,-0.16759,1.43173,-63.4146,-32.0122,15.9756,0.00,0.00,0.00,3,S01
4760,-4.68545,-0.62728,-0.03352,-52.5000,-40.3659,16.3415,0.00,0.00,0.00,3,S01
4780,-4.75728,-0.88585,-1.57060,-38.3537,-36.3415,8.7195,0.00,0.00,0.00,3,S01
4800,-6.52181,0.05507,-1.92973,-30.3049,-23.5976,-7.4390,0.00,0.00,0.00,3,S01
4820,-8.86812,-0.33519,-0.57700,-22.8049,-16.4634,-14.3293,0.00,0.00,0.00,3,S01
4840,-10.00297,-2.81319,0.44053,-12.2561,-30.0000,-11.8293,0.00,0.00,0.00,3,S01
4860,-9.99100,-2.16196,-1.60890,1.3415,-47.3171,-12.3780,0.00,0.00,0.00,3,S01
4880,-12.15297,0.17957,-3.68707,11.4634,-35.2439,-19.9390,0.00,0.00,0.00,3,S01
4900,-15.65090,1.36948,-1.75734,3.1707,2.3780,-20.4268,0.00,0.00,0.00,3,S01
4920,-17.40824,-0.10295,0.40701,-7.8049,18.7195,-17.5000,0.00,0.00,0.00,3,S01
4940,-17.00123,-1.10852,0.47405,-12.7439,4.1463,-24.3902,0.00,0.00,0.00,3,S01
4960,-14.95658,-1.54426,0.50039,-9.3293,-6.2805,-31.4634,0.00,0.00,0.00,3,S01
4980,-12.89996,-1.95606,0.14844,-1.1585,-7.1951,-34.3293,0.00,0.00,0.00,3,S01
5000,-11.52808,-2.32238,0.51236,7.3780,1.4634,-36.0366,0.00,0.00,0.00,3,S01
5020,-10.03170,-1.73340,0.93374,13.1707,10.0610,-34.3902,0.00,0.00,0.00,3,S01
5040,-8.36295,-0.48842,1.37427,15.8537,12.6220,-26.6463,0.00,0.00,0.00,3,S01
5060,-6.61518,0.65841,1.80762,15.8537,6.3415,-15.0610,0.00,0.00,0.00,3,S01
5080,-5.34386,1.06542,1.92015,15.4878,-7.5610,-4.8780,0.00,0.00,0.00,3,S01
5100,-4.60644,-0.25139,1.37667,18.7195,-23.0488,2.5610,0.00,0.00,0.00,3,S01
5120,-3.38301,-0.22984,1.40779,20.9146,-32.3171,7.7439,0.00,0.00,0.00,3,S01
5140,-2.36547,-0.32322,1.31681,18.4756,-47.9878,19.2683,0.00,0.00,0.00,3,S01
5160,-1.92973,-1.17795,-0.19872,18.9024,-80.7317,33.7805,0.00,0.00,0.00,3,S01
5180,-2.15239,-0.81882,-2.38223,14.3902,-112.7439,33.9634,0.00,0.00,0.00,3,S01
5200,-5.53539,-4.28323,-6.79474,-0.0610,-127.0122,15.5488,0.00,0.00,0.00,3,S01
5220,-11.30063,-2.06380,-10.53928,-22.9878,-97.0732,-51.4634,0.00,0.00,0.00,3,S01
5240,-16.65167,5.54018,-8.58082,-64.0244,12.4390,-107.4390,0.00,0.00,0.00,3,S01
5260,-19.25417,2.67193,6.26802,-109.0244,105.7927,-53.5976,0.00,0.00,0.00,3,S01
5280,-18.86391,-3.52905,2.65756,-122.2561,46.2805,-3.5366,0.00,0.00,0.00,3,S01
5300,-17.74582,-2.23858,0.46208,-94.2683,5.1829,2.5000,0.00,0.00,0.00,3,S01
5320,-15.95975,-0.67038,0.34716,-72.0122,5.6707,23.2927,0.00,0.00,0.00,3,S01
5340,-13.87919,-0.73741,0.45250,-61.1585,8.2927,53.5976,0.00,0.00,0.00,3,S01
5360,-11.41316,-1.07739,0.48842,-57.1341,9.5122,71.8293,0.00,0.00,0.00,3,S01
5380,-10.18972,0.55067,0.71826,-52.3781,14.3902,69.6951,0.00,0.00,0.00,3,S01
5400,-8.89446,1.53947,1.36709,-49.4512,21.7683,63.1707,0.00,0.00,0.00,3,S01
5420,-7.51300,1.10373,1.95606,-49.2683,19.3293,55.7317,0.00,0.00,0.00,3,S01
5440,-6.10282,-0.34237,1.97522,-46.9512,6.6463,49.0244,0.00,0.00,0.00,3,S01
5460,-4.67588,-1.22104,1.93691,-46.9512,-9.3902,41.4634,0.00,0.00,0.00,3,S01
5480,-3.31358,-1.65679,1.74777,-47.0732,-28.7195,29.0854,0.00,0.00,0.00,3,S01
5500,-2.39660,-0.29928,-0.35195,-11.5244,-64.8781,0.4878,0.00,0.00,0.00,3,S01
5520,-3.37343,0.44532,-1.61130,5.9756,-62.5610,-2.3780,0.00,0.00,0.00,3,S01
5540,-6.30154,-0.62249,-4.02226,19.4512,-44.2683,5.3049,0.00,0.00,0.00,3,S01
5560,-10.35971,-2.23858,-5.99269,26.2195,0.6098,5.6707,0.00,0.00,0.00,3,S01
5580,-14.12579,-1.45567,3.02627,16.7683,63.9024,-0.6098,0.00,0.00,0.00,3,S01
5600,-14.97573,0.26336,2.55222,17.8049,38.9024,-5.9756,0.00,0.00,0.00,3,S01
5620,-14.43704,2.67911,-0.15802,20.8537,1.5854,-8.7805,0.00,0.00,0.00,3,S01
5640,-15.04277,0.90022,1.35991,-3.9634,11.5244,-10.1829,0.00,0.00,0.00,3,S01
5660,-15.56710,-0.98162,2.50912,-13.7195,29.8780,-21.2805,0.00,0.00,0.00,3,S01
5680,-14.57590,-1.53229,1.80044,-10.5488,29.5732,-34.6341,0.00,0.00,0.00,3,S01
5700,-12.67251,-1.55144,1.21147,-7.3171,23.2317,-41.5854,0.00,0.00,0.00,3,S01
5720,-10.79306,-1.96325,0.37589,-2.8049,15.0000,-39.4512,0.00,0.00,0.00,3,S01
5740,-9.54568,-2.12605,-0.12929,5.7317,18.5366,-31.7073,0.00,0.00,0.00,3,S01
5760,-8.44435,-1.51314,0.73741,7.3171,33.5366,-18.2927,0.00,0.00,0.00,3,S01
5780,-7.21612,-0.21069,2.09732,-2.3171,37.0122,-4.3293,0.00,0.00,0.00,3,S01
5800,-6.16507,0.55785,2.33914,-5.1829,18.4146,7.3780,0.00,0.00,0.00,3,S01
5820,-5.02543,-0.27773,1.91297,1.6463,-8.9024,14.5122,0.00,0.00,0.00,3,S01
5840,-3.30879,-0.38307,1.80044,12.5000,-30.2439,15.3049,0.00,0.00,0.00,3,S01
5860,-2.27449,-1.36469,0.76375,29.3902,-54.2073,21.7073,0.00,0.00,0.00,3,S01
5880,-1.53229,-2.07577,-1.26174,46.7683,-84.5122,27.8659,0.00,0.00,0.00,3,S01
5900,-2.07577,-2.83234,-3.66792,43.9024,-100.8537,16.6463,0.00,0.00,0.00,3,S01
5920,-6.89291,-6.27041,-8.49702,27.8659,-88.9634,-22.9268,0.00,0.00,0.00,3,S01
5940,-13.95820,0.73741,-9.74440,3.5366,-6.0976,-111.0366,0.00,0.00,0.00,3,S01
5960,-19.20629,7.80510,3.39258,-24.6341,113.1098,-126.5854,0.00,0.00,0.00,3,S01
5980,-18.39705,2.31998,3.59370,-63.0488,73.9634,-40.6707,0.00,0.00,0.00,3,S01
6000,-16.53196,-2.70305,-1.62327,-64.8781,3.2927,10.1220,0.00,0.00,0.00,3,S01
6020,-16.53914,-1.86987,1.06063,-61.2805,14.0854,19.7561,0.00,0.00,0.00,3,S01
6040,-15.07629,0.10056,0.86191,-47.7439,22.7439,31.2195,0.00,0.00,0.00,3,S01
6060,-12.66293,0.94332,-0.46448,-41.4024,14.9390,47.2561,0.00,0.00,0.00,3,S01
6080,-10.29507,0.79966,-0.50996,-42.2561,21.2805,58.5366,0.00,0.00,0.00,3,S01
6100,-8.72447,0.78530,-0.12689,-44.2073,33.4146,59.6951,0.00,0.00,0.00,3,S01
6120,-7.89368,0.25379,0.32082,-48.9024,39.5732,53.6585,0.00,0.00,0.00,3,S01
6140,-7.45076,-0.85473,2.07577,-49.6341,39.1463,39.1463,0.00,0.00,0.00,3,S01
6160,-6.64152,-0.96965,3.33991,-39.9390,21.0976,22.7439,0.00,0.00,0.00,3,S01
6180,-5.16908,-0.24660,2.77009,-34.0854,-9.5122,16.5244,0.00,0.00,0.00,3,S01
6200,-3.52187,-1.34794,1.59454,-27.5610,-32.0122,18.9024,0.00,0.00,0.00,3,S01
6220,-2.54264,-1.75495,0.33998,-10.7927,-45.4878,14.0854,0.00,0.00,0.00,3,S01
6240,-3.29442,0.25379,-1.03669,1.8293,-56.0366,-0.3049,0.00,0.00,0.00,3,S01
6260,-5.02064,1.92973,-2.26252,3.7195,-52.1951,1.4634,0.00,0.00,0.00,3,S01
6280,-8.20732,0.33040,-4.70939,6.6463,-34.8780,19.6951,0.00,0.00,0.00,3,S01
6300,-10.71645,-3.72777,-4.49631,10.0610,7.1951,28.9634,0.00,0.00,0.00,3,S01
6320,-12.22479,-3.17471,4.16352,7.9268,36.5854,8.4146,0.00,0.00,0.00,3,S01
6340,-13.52245,0.16041,-0.36871,30.1829,-4.4512,-18.2927,0.00,0.00,0.00,3,S01
6360,-16.11058,2.47321,-1.30723,35.0610,-0.4878,-24.5732,0.00,0.00,0.00,3,S01
6380,-17.68836,-0.15083,1.83875,5.6707,20.9756,-15.7927,0.00,0.00,0.00,3,S01
6400,-16.93898,-1.62087,1.78368,0.1829,20.9756,-18.8415,0.00,0.00,0.00,3,S01
6420,-14.79138,-1.74777,0.82839,5.1829,14.1463,-29.3293,0.00,0.00,0.00,3,S01
6440,-12.86405,-1.70467,-0.18435,8.0488,13.5366,-37.5000,0.00,0.00,0.00,3,S01
6460,-11.35809,-2.30322,-0.31603,10.0000,17.6829,-38.0488,0.00,0.00,0.00,3,S01
6480,-9.32302,-1.77889,0.30646,20.1220,22.1951,-35.3659,0.00,0.00,0.00,3,S01
6500,-7.13712,-0.91459,1.07739,21.4024,19.6951,-25.2439,0.00,0.00,0.00,3,S01
6520,-5.60722,-0.11013,1.63524,10.8537,8.7805,-14.3293,0.00,0.00,0.00,3,S01
6540,-4.54419,0.39744,1.79326,13.2317,-6.7073,-9.0854,0.00,0.00,0.00,3,S01
6560,-3.41174,-0.36152,1.64482,22.9268,-22.1951,-4.5122,0.00,0.00,0.00,3,S01
6580,-1.85311,-0.07422,1.69509,28.4146,-30.2439,4.3902,0.00,0.00,0.00,3,S01
6600,-1.08218,-0.88585,1.16119,28.2927,-38.0488,19.5122,0.00,0.00,0.00,3,S01
6620,-1.38864,-2.01592,-0.79248,33.5976,-54.2683,25.6707,0.00,0.00,0.00,3,S01
6640,-3.49075,-3.07655,-3.35907,36.4634,-64.2683,10.1829,0.00,0.00,0.00,3,S01
6660,-9.97664,-8.77954,-9.90960,41.2195,-57.3171,-30.9146,0.00,0.00,0.00,3,S01
6680,-17.58062,1.40061,-9.67257,14.5732,27.8659,-128.7805,0.00,0.00,0.00,3,S01
6700,-21.76569,6.88333,6.35661,-22.1341,119.0244,-128.4756,0.00,0.00,0.00,3,S01
6720,-19.12249,0.13647,0.25857,-38.3537,39.7561,-40.1220,0.00,0.00,0.00,3,S01
6740,-16.02439,-4.93206,-3.54342,-38.3537,-5.5488,3.0488,0.00,0.00,0.00,3,S01
6760,-15.76582,-2.00634,0.55067,-35.2439,28.2317,14.9390,0.00,0.00,0.00,3,S01
6780,-14.58787,1.43652,0.92177,-28.7195,48.1098,33.7195,0.00,0.00,0.00,3,S01
6800,-9.44752,3.31836,-0.88825,-55.9146,16.2805,90.0000,0.00,0.00,0.00,3,S01
6820,-7.55131,1.34075,-1.40061,-64.2073,6.3415,102.1341,0.00,0.00,0.00,3,S01
6840,-6.05254,-1.64721,-1.50356,-62.0732,7.9878,89.9390,0.00,0.00,0.00,3,S01
6860,-5.16908,-2.65756,0.31125,-51.4024,21.4024,56.7683,0.00,0.00,0.00,3,S01
6880,-5.18345,-1.40779,3.80439,-36.2805,30.7317,29.0244,0.00,0.00,0.00,3,S01
6900,-4.99191,-0.14844,3.78523,-23.9024,11.0366,22.4390,0.00,0.00,0.00,3,S01
6920,-4.26886,-0.19632,1.94170,-20.1829,-21.8293,23.9024,0.00,0.00,0.00,3,S01
6940,-3.33273,-1.52511,0.39265,-15.6707,-39.2683,20.9756,0.00,0.00,0.00,3,S01
6960,-3.37104,-0.62489,-0.56024,-3.4756,-38.5366,5.0610,0.00,0.00,0.00,3,S01
6980,-5.02543,1.73580,-1.71425,5.2439,-35.7317,-11.8902,0.00,0.00,0.00,3,S01
7000,-8.45153,2.17872,-4.52265,8.9634,-34.4512,-15.1220,0.00,0.00,0.00,3,S01
7020,-11.77947,-1.48680,-5.44202,9.8171,-11.9512,-5.6098,0.00,0.00,0.00,3,S01
7040,-11.73877,-5.55455,5.82749,10.0610,16.4634,-6.4024,0.00,0.00,0.00,3,S01
7060,-13.61343,-2.94247,-0.16041,43.1707,-34.3902,-31.4024,0.00,0.00,0.00,3,S01
7080,-16.96292,1.33596,-3.99832,71.3415,-21.8293,-39.3902,0.00,0.00,0.00,3,S01
7100,-19.26135,0.71347,0.36871,39.6951,26.1585,-27.3780,0.00,0.00,0.00,3,S01
7120,-18.84716,-0.77333,1.82917,18.2317,22.6829,-29.8171,0.00,0.00,0.00,3,S01
7140,-16.16804,-1.13006,1.06303,24.8780,3.1098,-47.2561,0.00,0.00,0.00,3,S01
7160,-13.37640,-1.80044,0.50039,35.9756,0.6707,-55.3049,0.00,0.00,0.00,3,S01
7180,-10.78348,-2.22900,0.56743,42.1341,5.4268,-48.6585,0.00,0.00,0.00,3,S01
7200,-8.13071,-2.93769,0.90261,39.5732,7.6220,-30.1220,0.00,0.00,0.00,3,S01
7220,-6.32309,-2.29604,1.15640,28.8415,3.9634,-17.5610,0.00,0.00,0.00,3,S01
7240,-5.20978,-0.46208,1.38864,29.6341,-0.4878,-16.2195,0.00,0.00,0.00,3,S01
7260,-4.11084,0.84755,1.63045,41.0976,-4.8780,-13.9024,0.00,0.00,0.00,3,S01
7280,-2.77967,0.69671,1.70946,45.0610,-12.5610,0.0000,0.00,0.00,0.00,3,S01
7300,-1.70467,0.64165,1.87945,30.9756,-24.3293,19.5732,0.00,0.00,0.00,3,S01
7320,-1.35751,-0.39025,1.30005,19.8171,-47.3781,36.3415,0.00,0.00,0.00,3,S01
7340,-1.27850,-1.61609,-0.58658,30.6098,-80.4268,40.1829,0.00,0.00,0.00,3,S01
7360,-2.59053,-3.01669,-3.18189,36.2805,-101.8902,21.7073,0.00,0.00,0.00,3,S01
7380,-8.38210,-8.29351,-9.48822,33.4756,-100.5488,-25.4268,0.00,0.00,0.00,3,S01
7400,-16.14889,0.93613,-10.63504,5.2439,-21.9512,-127.6220,0.00,0.00,0.00,3,S01
7420,-20.76012,8.45632,-0.56264,-15.1829,120.4878,-133.7805,0.00,0.00,0.00,3,S01
7440,-18.09059,-0.36392,7.20894,-62.3171,118.0488,-33.1098,0.00,0.00,0.00,3,S01
7460,-15.87356,-5.30795,0.84515,-72.8659,13.6585,11.3415,0.00,0.00,0.00,3,S01
7480,-17.23107,-2.15239,1.69988,-52.5610,31.8902,11.8293,0.00,0.00,0.00,3,S01
7500,-17.45134,0.66798,1.53708,-31.3415,62.4390,23.4756,0.00,0.00,0.00,3,S01
7520,-15.85201,1.57060,0.41659,-32.9878,53.2927,42.9268,0.00,0.00,0.00,3,S01
7540,-13.23515,1.25456,-0.05986,-39.3293,39.3902,62.9268,0.00,0.00,0.00,3,S01
7560,-11.38443,1.93451,-0.15562,-45.0610,34.2073,75.2439,0.00,0.00,0.00,3,S01
7580,-8.90882,1.30245,0.49799,-50.9756,31.4024,81.0976,0.00,0.00,0.00,3,S01
7600,-6.61757,0.53630,0.98881,-51.7683,17.8049,73.5976,0.00,0.00,0.00,3,S01
7620,-4.44843,-0.48602,0.97923,-44.2073,-2.9878,66.9512,0.00,0.00,0.00,3,S01
7640,-2.64320,-1.52271,0.39504,-43.9024,-24.2073,64.3902,0.00,0.00,0.00,3,S01
7660,-1.40779,-2.01352,0.40462,-44.2073,-40.9756,51.5244,0.00,0.00,0.00,3,S01
7680,-0.41899,-1.85790,0.35434,-31.7073,-59.6951,32.0732,0.00,0.00,0.00,3,S01
7700,0.01437,-0.90022,-0.31843,-9.7561,-78.6585,17.6220,0.00,0.00,0.00,3,S01
7720,-0.59137,-0.16999,-1.68552,6.7073,-92.2561,7.7439,0.00,0.00,0.00,3,S01
7740,-4.74291,-1.31921,-5.66947,19.8780,-94.6951,-6.8293,0.00,0.00,0.00,3,S01
7760,-11.83214,-3.79242,-10.14902,17.3171,-55.4878,-43.9634,0.00,0.00,0.00,3,S01
7780,-18.10495,-1.44131,1.14922,0.0610,74.5122,-78.0488,0.00,0.00,0.00,3,S01
7800,-19.46486,0.05507,5.63116,17.4390,104.0244,-65.9756,0.00,0.00,0.00,3,S01
7820,-18.45451,2.26491,0.16041,36.6463,31.4634,-40.8537,0.00,0.00,0.00,3,S01
7840,-18.40183,0.05986,2.37505,7.5610,16.0976,-28.2317,0.00,0.00,0.00,3,S01
7860,-17.90384,-2.16436,2.68629,2.3780,21.5854,-32.9878,0.00,0.00,0.00,3,S01
7880,-15.68441,-2.53307,2.40378,15.3049,25.1220,-45.0000,0.00,0.00,0.00,3,S01
7900,-12.41872,-2.36787,1.42694,29.8780,9.7561,-52.5610,0.00,0.00,0.00,3,S01
7920,-9.83059,-2.36787,0.78051,40.7927,-3.7195,-43.1098,0.00,0.00,0.00,3,S01
7940,-7.46991,-2.37984,0.88107,40.1829,-2.9268,-19.6341,0.00,0.00,0.00,3,S01
7960,-5.34386,-1.56820,1.16358,33.2927,-2.3780,2.4390,0.00,0.00,0.00,3,S01
7980,-3.84509,-0.28970,1.50116,27.6220,-4.1463,10.7317,0.00,0.00,0.00,3,S01
8000,-2.98796,0.41420,1.54665,28.5366,-10.7317,11.9512,0.00,0.00,0.00,3,S01
8020,-1.90818,1.46046,1.91057,28.1098,-21.3415,18.6585,0.00,0.00,0.00,3,S01
8040,-1.54187,-0.59376,1.08936,29.3902,-45.6098,36.0976,0.00,0.00,0.00,3,S01
8060,-1.71904,-2.60250,-1.56341,42.4390,-81.8902,40.5488,0.00,0.00,0.00,3,S01
8080,-3.23457,-3.98395,-4.14676,42.1341,-100.6707,16.7073,0.00,0.00,0.00,3,S01
8100,-14.31014,2.65996,-9.26556,9.5122,-9.3293,-125.1220,0.00,0.00,0.00,3,S01
8120,-17.76258,7.01741,2.11169,-24.8780,121.9512,-113.2927,0.00,0.00,0.00,3,S01
8140,-17.09699,-0.85712,4.70461,-54.7561,113.4756,-25.7927,0.00,0.00,0.00,3,S01
8160,-17.19516,-4.37899,0.04310,-55.4878,33.5366,7.3171,0.00,0.00,0.00,3,S01
8180,-19.02912,-1.12049,2.51152,-42.1341,37.6829,10.3049,0.00,0.00,0.00,3,S01
8200,-17.80807,1.21386,1.35272,-23.6585,47.2561,24.8171,0.00,0.00,0.00,3,S01
8220,-14.65491,1.24259,0.21548,-31.2195,31.5854,46.5854,0.00,0.00,0.00,3,S01
8240,-12.21043,1.94888,-0.49321,-42.0732,15.6707,61.7073,0.00,0.00,0.00,3,S01
8260,-10.44111,1.75016,-0.83797,-43.3537,18.5366,74.3902,0.00,0.00,0.00,3,S01
8280,-8.18817,-0.40941,0.51475,-48.5366,27.8659,78.2317,0.00,0.00,0.00,3,S01
8300,-6.60800,-1.33836,1.65918,-42.1951,19.0854,58.9024,0.00,0.00,0.00,3,S01
8320,-4.76925,-1.57538,2.19788,-28.8415,-3.2927,39.2683,0.00,0.00,0.00,3,S01
8340,-3.22020,-1.08457,1.75256,-23.3537,-30.3049,31.2195,0.00,0.00,0.00,3,S01
8360,-1.86029,-1.15401,1.01275,-16.9512,-50.1829,30.0000,0.00,0.00,0.00,3,S01
8380,-1.02232,-0.67038,0.11013,0.0610,-64.2683,23.1707,0.00,0.00,0.00,3,S01
8400,-0.79727,-0.01676,-0.85473,16.5854,-75.4878,11.4024,0.00,0.00,0.00,3,S01
8420,-1.53468,0.34237,-2.17633,26.5244,-82.6829,2.7439,0.00,0.00,0.00,3,S01
8440,-6.03099,-0.79009,-6.20577,37.6829,-80.0000,-9.5732,0.00,0.00,0.00,3,S01
8460,-12.61744,-2.15478,-9.91678,32.9878,-36.6463,-31.5244,0.00,0.00,0.00,3,S01
8480,-16.81448,-3.88340,1.14922,9.1463,71.3415,-42.3171,0.00,0.00,0.00,3,S01
8500,-17.99721,-2.52828,6.76123,21.4024,79.9390,-47.6829,0.00,0.00,0.00,3,S01
8520,-17.64766,2.30562,-0.08859,62.6829,6.9512,-45.6707,0.00,0.00,0.00,3,S01
8540,-17.49683,0.87628,0.24181,38.4756,0.8537,-30.9756,0.00,0.00,0.00,3,S01
8560,-16.43859,-1.48919,3.45004,15.0000,15.3659,-28.4756,0.00,0.00,0.00,3,S01
8580,-14.04678,-2.21703,2.13563,23.2927,8.8415,-39.0854,0.00,0.00,0.00,3,S01
8600,-11.55681,-2.48518,1.12767,36.5244,4.2073,-49.0244,0.00,0.00,0.00,3,S01
8620,-9.48104,-2.56419,0.60334,44.1463,6.4024,-45.4878,0.00,0.00,0.00,3,S01
8640,-8.15705,-2.05183,0.75657,37.7439,16.4024,-32.9268,0.00,0.00,0.00,3,S01
8660,-7.25204,-0.26815,1.64003,25.1829,24.4512,-23.8415,0.00,0.00,0.00,3,S01
8680,-6.15070,1.16598,2.13323,22.2561,16.9512,-16.4024,0.00,0.00,0.00,3,S01
8700,-4.75728,1.13964,1.95846,27.8049,-8.5976,-2.6829,0.00,0.00,0.00,3,S01
8720,-3.01669,1.16598,1.85072,26.3415,-39.9390,16.5244,0.00,0.00,0.00,3,S01
8740,-2.13802,-0.31843,1.10852,22.2561,-72.5610,38.1707,0.00,0.00,0.00,3,S01
8760,-1.87466,-2.11887,-0.93134,35.4268,-106.8902,47.4390,0.00,0.00,0.00,3,S01
8780,-2.90417,-3.83791,-3.73017,44.2683,-128.7805,31.7073,0.00,0.00,0.00,3,S01
8800,-7.97748,-7.30950,-9.86172,36.8293,-119.2073,-16.0366,0.00,0.00,0.00,3,S01
8820,-15.78258,1.38864,-10.48660,-11.9512,-10.7927,-112.1341,0.00,0.00,0.00,3,S01
8840,-20.42254,5.88974,1.11809,-35.7317,170.4878,-123.3537,0.00,0.00,0.00,3,S01
8860,-18.86391,-0.62728,6.67982,-55.9146,173.1707,-50.5488,0.00,0.00,0.00,3,S01
8880,-16.69238,-3.77805,1.06303,-52.5000,55.3659,-9.2683,0.00,0.00,0.00,3,S01
8900,-15.87835,-2.05662,1.99437,-41.3415,35.7317,6.4634,0.00,0.00,0.00,3,S01
8920,-14.81053,1.18513,1.32878,-26.2195,45.1220,23.1098,0.00,0.00,0.00,3,S01
8940,-12.85926,3.00712,-0.02394,-28.5366,40.6098,55.1829,0.00,0.00,0.00,3,S01
8960,-9.92636,1.88663,-0.75417,-32.8659,31.9512,92.5000,0.00,0.00,0.00,3,S01
8980,-7.81467,-0.53870,-1.43892,-35.6707,23.2927,105.2439,0.00,0.00,0.00,3,S01
9000,-7.37654,-1.93691,-0.33758,-34.7561,24.8780,79.3902,0.00,0.00,0.00,3,S01
9020,-7.59680,-0.92177,3.78044,-24.8171,30.7317,40.0000,0.00,0.00,0.00,3,S01
9040,-6.35182,0.52194,3.77805,-9.8171,10.4268,24.7561,0.00,0.00,0.00,3,S01
9060,-4.83868,0.50039,1.62087,-5.6098,-23.5366,29.3293,0.00,0.00,0.00,3,S01
9080,-3.33991,-1.19231,0.04310,-5.5488,-41.7073,34.9390,0.00,0.00,0.00,3,S01
9100,-2.12126,-1.32878,-0.58897,0.0610,-43.8415,25.9146,0.00,0.00,0.00,3,S01
9120,-2.03747,0.23224,-0.66080,2.8049,-39.9390,9.2683,0.00,0.00,0.00,3,S01
9140,-3.16513,1.65679,-1.45567,4.1463,-36.5244,3.1098,0.00,0.00,0.00,3,S01
9160,-7.36217,1.24498,-5.38695,16.0976,-32.4390,0.8537,0.00,0.00,0.00,3,S01
9180,-13.15374,-0.60573,-8.77954,15.4878,-1.8293,-12.3780,0.00,0.00,0.00,3,S01
9200,-17.08263,-3.42850,4.60166,-2.9268,59.3902,-25.0000,0.00,0.00,0.00,3,S01
9220,-16.53196,-1.84354,1.08936,13.7805,10.6707,-35.7317,0.00,0.00,0.00,3,S01
9240,-15.22952,1.92973,-2.68151,39.0244,-20.5488,-37.2561,0.00,0.00,0.00,3,S01
9260,-15.80891,0.36152,0.39983,15.4268,2.3171,-30.1829,0.00,0.00,0.00,3,S01
9280,-15.95496,-1.85790,1.80044,5.9756,17.9878,-32.2561,0.00,0.00,0.00,3,S01
9300,-14.53520,-2.17394,1.40779,17.0122,17.1341,-41.7683,0.00,0.00,0.00,3,S01
9320,-12.48337,-1.60651,0.70150,30.4268,7.9268,-50.3049,0.00,0.00,0.00,3,S01
9340,-9.84256,-1.69509,0.33519,39.3293,0.2439,-46.8293,0.00,0.00,0.00,3,S01
9360,-8.05649,-1.80283,0.22984,37.6829,5.3049,-34.4512,0.00,0.00,0.00,3,S01
9380,-6.90727,-0.48842,0.83797,27.6220,20.4268,-20.1220,0.00,0.00,0.00,3,S01
9400,-5.97832,0.68714,1.81959,15.9756,25.6098,-7.1951,0.00,0.00,0.00,3,S01
9420,-3.45004,-0.02394,2.77967,9.0854,-21.7073,11.7683,0.00,0.00,0.00,3,S01
9440,-2.17872,0.27773,2.20027,14.3293,-53.2927,18.4146,0.00,0.00,0.00,3,S01
9460,-1.72622,-1.20668,0.65362,26.2195,-86.8293,29.7561,0.00,0.00,0.00,3,S01
9480,-1.44849,-2.16915,-1.83396,40.9756,-118.5976,30.3659,0.00,0.00,0.00,3,S01
9500,-3.61524,-4.02705,-4.99430,34.6341,-129.6342,8.2317,0.00,0.00,0.00,3,S01
9520,-10.42914,-7.18979,-11.42513,21.9512,-101.5244,-49.8781,0.00,0.00,0.00,3,S01
9540,-17.73864,3.63200,-10.49857,-9.9390,33.1707,-145.4878,0.00,0.00,0.00,3,S01
9560,-21.31079,6.72052,7.50103,-35.4878,178.7805,-118.6585,0.00,0.00,0.00,3,S01
9580,-18.56225,-1.07500,4.66151,-68.7195,100.5488,-25.3049,0.00,0.00,0.00,3,S01
9600,-17.04432,-4.23055,0.44532,-64.0244,18.2927,6.7073,0.00,0.00,0.00,3,S01
9620,-17.55189,-1.89142,2.41336,-44.3902,33.2927,12.7439,0.00,0.00,0.00,3,S01
9640,-15.96693,0.88825,1.62806,-27.9268,33.9024,28.3537,0.00,0.00,0.00,3,S01
9660,-13.30697,2.11887,0.37350,-30.9756,15.1829,52.1951,0.00,0.00,0.00,3,S01
9680,-11.10910,2.42533,-0.48123,-36.8293,8.5366,74.3293,0.00,0.00,0.00,3,S01
9700,-8.81784,0.68474,0.13647,-42.8659,13.0488,85.0000,0.00,0.00,0.00,3,S01
9720,-6.90967,-0.56264,1.51314,-42.1341,11.8293,69.8781,0.00,0.00,0.00,3,S01
9740,-5.29837,-1.10373,2.14520,-31.0976,0.9756,48.2317,0.00,0.00,0.00,3,S01
9760,-4.29999,-1.15879,1.47243,-22.9878,-14.2073,39.5122,0.00,0.00,0.00,3,S01
9780,-3.40934,-1.24738,0.99120,-23.9024,-30.5488,34.6341,0.00,0.00,0.00,3,S01
9800,-2.30083,-1.57778,0.96726,-18.5976,-46.4024,23.8415,0.00,0.00,0.00,3,S01
9820,-1.42455,-0.89304,0.29928,-1.5244,-62.5000,11.9512,0.00,0.00,0.00,3,S01
9840,-1.53947,0.28491,-0.71347,11.6463,-79.5732,2.1341,0.00,0.00,0.00,3,S01
9860,-4.77164,0.31125,-3.99113,25.4268,-92.3171,-2.8049,0.00,0.00,0.00,3,S01
9880,-11.12107,-1.18034,-9.11712,31.5854,-73.3537,-15.5488,0.00,0.00,0.00,3,S01
9900,-15.43063,-1.94409,-7.18739,6.5854,23.9024,-26.1585,0.00,0.00,0.00,3,S01
9920,-16.55590,-2.32477,8.32224,-11.4634,107.4390,-27.1951,0.00,0.00,0.00,3,S01
9940,-16.44577,1.67594,1.61130,20.0000,39.0244,-32.0122,0.00,0.00,0.00,3,S01
9960,-17.23346,1.81959,0.14126,10.1829,11.9512,-30.3659,0.00,0.00,0.00,3,S01
9980,-17.13530,-0.32322,3.38780,-16.0366,24.5732,-29.3293,0.00,0.00,0.00,3,S01
10000,-14.83208,-1.69988,2.35111,-14.2073,11.8293,-35.6707,0.00,0.00,0.00,3,S01
10020,-11.75553,-2.46842,1.90818,-3.5976,-1.2195,-44.1463,0.00,0.00,0.00,3,S01
10040,-9.28950,-2.94966,1.34075,12.1951,-10.3659,-44.4512,0.00,0.00,0.00,3,S01
10060,-7.16345,-3.75411,0.67038,26.8293,-10.4268,-33.4146,0.00,0.00,0.00,3,S01
10080,-6.44759,-2.51391,0.59376,27.6829,3.0488,-24.5732,0.00,0.00,0.00,3,S01
10100,-6.63912,-0.28252,0.87628,25.1829,21.0976,-18.8415,0.00,0.00,0.00,3,S01
10120,-6.50026,0.19154,0.92656,20.9146,23.0488,-9.3293,0.00,0.00,0.00,3,S01
10140,-5.21936,-0.02873,1.70707,20.0000,8.9634,-1.0366,0.00,0.00,0.00,3,S01
10160,-3.68468,0.52433,2.62405,16.7683,-14.4512,7.5000,0.00,0.00,0.00,3,S01
10180,-2.87783,0.04070,1.98479,13.4146,-48.0488,21.4024,0.00,0.00,0.00,3,S01
10200,-2.32238,-1.16837,0.28491,22.0732,-83.3537,30.2439,0.00,0.00,0.00,3,S01
10220,-3.07416,-2.91374,-2.06620,29.3293,-105.2439,22.9878,0.00,0.00,0.00,3,S01
10240,-9.03811,-8.70292,-8.86812,35.6098,-99.1463,-12.9878,0.00,0.00,0.00,3,S01
10260,-16.29494,-0.67277,-9.80426,15.0000,6.0976,-112.6829,0.00,0.00,0.00,3,S01
10280,-21.50472,9.03093,4.47237,-8.1098,142.5610,-135.6098,0.00,0.00,0.00,3,S01
10300,-18.77772,2.97120,4.46279,-43.3537,89.5732,-43.2317,0.00,0.00,0.00,3,S01
10320,-15.87835,-3.25372,-1.31681,-60.0610,-9.8171,12.0122,0.00,0.00,0.00,3,S01
10340,-15.26064,-3.50990,0.55785,-55.9756,1.8293,19.5122,0.00,0.00,0.00,3,S01
10360,-14.02284,-0.27054,1.18274,-28.1098,26.3415,25.0000,0.00,0.00,0.00,3,S01
10380,-11.87764,1.31442,-0.24181,-27.0122,12.9268,42.1951,0.00,0.00,0.00,3,S01
10400,-9.29669,1.13006,-0.81403,-32.3171,3.9634,62.9878,0.00,0.00,0.00,3,S01
10420,-7.29034,-0.26097,-0.85234,-32.8659,7.2561,74.9390,0.00,0.00,0.00,3,S01
10440,-6.53378,-1.30484,-0.44772,-34.1463,18.5366,65.4878,0.00,0.00,0.00,3,S01
10460,-7.15387,-0.33998,1.24259,-25.7317,30.3659,39.2073,0.00,0.00,0.00,3,S01
10480,-6.93840,-0.07422,2.05183,-14.2683,22.9268,23.8415,0.00,0.00,0.00,3,S01
10500,-6.28239,0.32082,2.00395,-10.0610,-0.8537,19.6341,0.00,0.00,0.00,3,S01
10520,-5.76524,0.59137,2.34632,-13.4146,-26.9512,19.9390,0.00,0.00,0.00,3,S01
10540,-4.71179,-0.31603,2.19788,-17.6829,-45.6707,20.7317,0.00,0.00,0.00,3,S01
10560,-3.86903,-0.91698,0.51236,-4.3902,-43.4756,14.8171,0.00,0.00,0.00,3,S01
10580,-4.24971,0.04070,-0.56743,6.3415,-27.8049,2.6829,0.00,0.00,0.00,3,S01
10600,-7.17782,1.79805,-2.59053,10.0610,-19.4512,-1.9512,0.00,0.00,0.00,3,S01
10620,-12.59829,2.40857,-6.74207,15.4268,-2.6829,7.3780,0.00,0.00,0.00,3,S01
10640,-16.43141,-2.39420,-0.47884,7.2561,48.1707,29.8780,0.00,0.00,0.00,3,S01
10660,-17.65484,-5.56652,3.70144,2.9878,30.2439,23.7805,0.00,0.00,0.00,3,S01
10680,-15.58625,-2.53785,-0.92895,38.7195,-18.4146,-0.1220,0.00,0.00,0.00,3,S01
10700,-13.65653,1.35512,-1.69270,45.6098,-12.8659,-12.8659,0.00,0.00,0.00,3,S01
10720,-12.30620,1.69988,-0.26336,22.5000,3.4146,-19.0854,0.00,0.00,0.00,3,S01
10740,-9.26556,-0.76614,0.32801,5.4878,-2.0732,-36.7073,0.00,0.00,0.00,3,S01
10760,-7.24485,-1.62087,0.33279,16.6463,-15.9756,-36.8293,0.00,0.00,0.00,3,S01
10780,-5.04937,-2.43490,0.23224,22.8659,-28.9634,-28.1098,0.00,0.00,0.00,3,S01
10800,-3.71820,-3.04064,-0.23942,29.5732,-30.7317,-24.6341,0.00,0.00,0.00,3,S01
10820,-4.76446,-1.99676,-1.19710,37.0122,-13.4146,-33.4146,0.00,0.00,0.00,3,S01
10840,-6.87615,-0.99838,-1.71425,36.7683,20.7317,-38.0488,0.00,0.00,0.00,3,S01
10860,-8.43477,-0.69671,-0.10056,29.1463,62.0122,-31.2195,0.00,0.00,0.00,3,S01
10880,-9.25598,-0.52433,7.86256,23.0488,79.3293,-17.7439,0.00,0.00,0.00,3,S01
10900,-8.71250,-0.62249,5.18105,29.0854,27.7439,-7.8659,0.00,0.00,0.00,3,S01
10920,-8.77714,0.15802,2.67911,32.3171,0.0610,-10.0000,0.00,0.00,0.00,3,S01
10940,-8.85615,0.19154,3.05740,21.5244,-2.2561,-12.8049,0.00,0.00,0.00,3,S01
10960,-8.26239,-0.61292,2.67911,10.4878,-10.7927,-12.5000,0.00,0.00,0.00,3,S01
10980,-7.74045,0.05986,1.30484,4.1463,-14.7561,-13.7805,0.00,0.00,0.00,3,S01
11000,-8.92798,-1.45328,-0.67038,-12.1951,-13.4146,-13.4756,0.00,0.00,0.00,3,S01
11020,-11.21684,-3.30160,-3.37104,-11.0976,-11.0366,-29.6341,0.00,0.00,0.00,3,S01
11040,-12.65575,1.67355,-1.31442,-5.5488,-0.1220,-51.7683,0.00,0.00,0.00,3,S01
11060,-12.22479,0.36631,0.63686,-32.5000,-12.3171,-26.8902,0.00,0.00,0.00,3,S01
11080,-11.51850,-2.72700,-1.80762,-29.3293,-21.5244,-2.4390,0.00,0.00,0.00,3,S01
11100,-12.68687,-2.82037,-0.40462,-19.9390,4.5122,-2.8049,0.00,0.00,0.00,3,S01
11120,-13.85764,-0.64643,0.08859,-15.7317,20.6707,1.1585,0.00,0.00,0.00,3,S01
11140,-13.70441,0.76614,-1.16358,-12.4390,21.1585,15.0610,0.00,0.00,0.00,3,S01
11160,-12.52646,1.08218,-1.10133,-16.4024,20.6707,31.0366,0.00,0.00,0.00,3,S01
11180,-10.63983,0.92177,-0.64883,-17.4390,13.6585,46.0976,0.00,0.00,0.00,3,S01
11200,-8.74123,0.53870,-0.90740,-18.8415,4.6951,57.0732,0.00,0.00,0.00,3,S01
11220,-7.62074,0.29928,-0.87388,-21.1585,7.1341,57.1951,0.00,0.00,0.00,3,S01
11240,-7.59920,0.59137,0.28491,-23.4146,20.4268,42.5000,0.00,0.00,0.00,3,S01
11260,-8.08761,0.15323,1.44370,-16.8902,30.5488,27.6220,0.00,0.00,0.00,3,S01
11280,-8.71729,-0.14605,2.52828,-10.4268,24.2683,20.2439,0.00,0.00,0.00,3,S01
11300,-8.61673,0.38547,3.82115,-11.5854,-0.1829,20.0610,0.00,0.00,0.00,3,S01
11320,-6.58166,0.67516,3.39737,-14.2683,-32.6220,26.5244,0.00,0.00,0.00,3,S01
11340,-4.26168,-0.52912,1.13246,-6.7073,-51.7073,34.8171,0.00,0.00,0.00,3,S01
11360,-3.20344,-2.20267,-1.28329,9.0854,-56.2195,25.9756,0.00,0.00,0.00,3,S01
11380,-3.84748,-0.81642,-2.39660,17.9268,-48.5366,0.8537,0.00,0.00,0.00,3,S01
11400,-5.76045,0.86431,-2.49476,19.1463,-23.1098,-3.9024,0.00,0.00,0.00,3,S01
11420,-9.21528,-0.53870,-3.68707,20.3659,1.9512,9.7561,0.00,0.00,0.00,3,S01
11440,-12.70363,-2.30801,1.22104,21.0366,27.7439,14.6951,0.00,0.00,0.00,3,S01
11460,-13.88158,-2.16436,2.00395,27.3171,6.1585,5.3659,0.00,0.00,0.00,3,S01
11480,-13.69483,0.86910,-1.08457,37.3780,-25.1829,-8.2927,0.00,0.00,0.00,3,S01
11500,-13.85285,1.95606,-0.65841,27.0732,-12.5000,-12.7439,0.00,0.00,0.00,3,S01
11520,-14.48013,0.05507,1.17555,8.0488,6.5244,-18.4146,0.00,0.00,0.00,3,S01
11540,-14.47534,-2.11408,1.89142,5.1220,12.0732,-29.9390,0.00,0.00,0.00,3,S01
11560,-13.07713,-2.32238,2.03028,12.1341,12.0122,-43.9024,0.00,0.00,0.00,3,S01
11580,-10.83376,-2.16436,1.41976,21.5854,6.7073,-51.2805,0.00,0.00,0.00,3,S01
11600,-9.36372,-1.99437,1.08457,30.3049,8.0488,-51.2805,0.00,0.00,0.00,3,S01
11620,-8.69335,-1.53708,1.06063,37.1341,17.8659,-43.9634,0.00,0.00,0.00,3,S01
11640,-7.86256,-0.78290,1.63045,35.9146,27.0732,-30.6098,0.00,0.00,0.00,3,S01
11660,-6.83784,0.47405,2.18591,29.3902,23.5976,-19.3902,0.00,0.00,0.00,3,S01
11680,-5.69341,1.14443,2.20027,21.3415,7.9878,-12.0122,0.00,0.00,0.00,3,S01
11700,-4.43406,0.98162,1.82438,13.3537,-13.4756,-5.0610,0.00,0.00,0.00,3,S01
11720,-3.15556,0.76614,1.48919,4.0244,-33.9024,0.5488,0.00,0.00,0.00,3,S01
11740,-2.32716,-0.18914,0.76854,-0.6707,-55.3049,7.3780,0.00,0.00,0.00,3,S01
11760,-1.95606,-1.38385,-0.77572,3.4146,-77.5610,9.9390,0.00,0.00,0.00,3,S01
11780,-4.03184,-3.58651,-3.50511,4.7561,-88.9634,0.6098,0.00,0.00,0.00,3,S01
11800,-9.92157,-5.59525,-8.67180,7.5610,-73.9634,-35.8537,0.00,0.00,0.00,3,S01
11820,-15.52161,2.98318,-8.51857,-8.9024,11.8293,-94.8171,0.00,0.00,0.00,3,S01
11840,-16.93658,4.01029,8.51378,-41.3415,104.6341,-72.1951,0.00,0.00,0.00,3,S01
11860,-15.67723,-1.10612,3.91452,-52.5610,37.0732,-15.1829,0.00,0.00,0.00,3,S01
11880,-16.48647,-2.90177,0.24900,-41.0366,1.7073,2.2561,0.00,0.00,0.00,3,S01
11900,-17.65484,-0.33758,2.74376,-26.0976,29.9390,8.5976,0.00,0.00,0.00,3,S01
11920,-16.71392,1.88663,1.34554,-25.4878,28.1707,22.8659,0.00,0.00,0.00,3,S01
11940,-14.13058,1.99437,0.69671,-40.0000,15.7317,47.8659,0.00,0.00,0.00,3,S01
11960,-11.56878,1.48680,0.36631,-52.3781,10.2439,67.3171,0.00,0.00,0.00,3,S01
11980,-9.46667,0.15323,-0.08619,-56.7683,12.6220,73.1707,0.00,0.00,0.00,3,S01
12000,-8.31746,-0.04788,0.42856,-55.7927,21.8293,57.3781,0.00,0.00,0.00,3,S01
12020,-7.89608,-0.14844,1.35272,-45.3049,27.9268,35.4268,0.00,0.00,0.00,3,S01
12040,-7.04374,-0.93374,2.15239,-36.4634,20.8537,25.6707,0.00,0.00,0.00,3,S01
12060,-3.56257,-0.58419,1.75974,-30.3049,-31.7073,30.0610,0.00,0.00,0.00,3,S01
12080,-1.51314,-1.57778,0.75657,-14.8780,-55.0000,32.0732,0.00,0.00,0.00,3,S01
12100,-1.06303,-1.25217,-0.69192,5.3659,-72.9878,18.7195,0.00,0.00,0.00,3,S01
12120,-1.67594,0.80445,-1.95846,14.2073,-80.7927,1.0976,0.00,0.00,0.00,3,S01
12140,-5.51145,1.13725,-5.04219,17.1341,-73.7195,-7.1951,0.00,0.00,0.00,3,S01
12160,-13.00051,-0.39983,-9.43316,14.8780,-29.0854,-18.5976,0.00,0.00,0.00,3,S01
12180,-19.16319,-2.93290,-0.97444,-3.5976,94.2073,-17.1341,0.00,0.00,0.00,3,S01
12200,-20.00595,-2.31280,7.56568,-9.8171,119.3902,-13.4756,0.00,0.00,0.00,3,S01
12220,-16.73786,2.53785,1.14922,23.0488,16.4024,-13.2317,0.00,0.00,0.00,3,S01
12240,-14.15691,3.14119,-1.37427,10.7927,-17.7439,-11.4634,0.00,0.00,0.00,3,S01
12260,-12.07875,0.50518,-0.49799,-20.7317,3.7805,-15.1220,0.00,0.00,0.00,3,S01
12280,-9.88326,-2.51152,0.94332,-26.5244,25.0610,-27.7439,0.00,0.00,0.00,3,S01
12300,-7.73806,-3.46920,1.34554,-8.2317,25.2439,-43.9634,0.00,0.00,0.00,3,S01
12320,-5.78918,-2.79882,1.48680,14.2683,10.1220,-47.9268,0.00,0.00,0.00,3,S01
12340,-4.72855,-1.79086,0.62968,28.3537,-14.3293,-41.8902,0.00,0.00,0.00,3,S01
12360,-5.62637,-0.88346,-0.84036,28.5366,-29.8171,-36.2805,0.00,0.00,0.00,3,S01
12380,-6.94558,-0.16520,-1.94888,26.4024,-16.0976,-32.1341,0.00,0.00,0.00,3,S01
12400,-7.44118,0.02634,-1.61848,19.8780,21.3415,-24.8780,0.00,0.00,0.00,3,S01
12420,-7.44836,-0.62968,-0.08619,5.4878,61.6463,-15.4878,0.00,0.00,0.00,3,S01
12440,-8.11634,-1.11330,8.62391,-3.2927,88.9024,-10.5488,0.00,0.00,0.00,3,S01
12460,-8.21690,-1.22104,6.25365,8.1707,43.6585,-9.6341,0.00,0.00,0.00,3,S01
12480,-8.03734,-0.63925,2.16675,23.2317,2.8659,-13.0488,0.00,0.00,0.00,3,S01
12500,-7.57286,-1.31202,0.73263,21.7683,-4.7561,-12.6220,0.00,0.00,0.00,3,S01
12520,-7.54892,-1.32399,0.81882,14.7561,-0.2439,-12.3171,0.00,0.00,0.00,3,S01
12540,-9.20571,-2.94008,-2.24097,17.0122,0.0000,-18.5366,0.00,0.00,0.00,3,S01
12560,-11.24796,-0.12689,-2.99275,20.1220,10.9146,-42.7439,0.00,0.00,0.00,3,S01
12580,-13.17050,2.41096,0.61052,-5.1220,7.9268,-41.8293,0.00,0.00,0.00,3,S01
12600,-12.56238,-1.45328,-1.65200,-22.9268,-20.5488,-9.0244,0.00,0.00,0.00,3,S01
12620,-13.28303,-2.90656,-2.16436,-21.2805,-17.0122,-3.0488,0.00,0.00,0.00,3,S01
12640,-15.22952,-0.74699,-0.63925,-21.2195,2.4390,-2.6829,0.00,0.00,0.00,3,S01
12660,-16.17762,0.83079,-1.14443,-23.4756,12.6220,8.9634,0.00,0.00,0.00,3,S01
12680,-15.46654,1.02472,-1.04387,-25.7927,19.5122,22.8659,0.00,0.00,0.00,3,S01
12700,-13.54639,0.60094,-0.24900,-32.1341,13.5366,42.7439,0.00,0.00,0.00,3,S01
12720,-11.77229,0.20830,-0.85712,-34.9390,-0.1829,60.9146,0.00,0.00,0.00,3,S01
12740,-10.40759,-0.21548,-0.04070,-35.5488,2.0122,67.2561,0.00,0.00,0.00,3,S01
12760,-8.96629,0.22505,1.11091,-30.5488,4.5122,61.2195,0.00,0.00,0.00,3,S01
12780,-7.26880,0.73502,1.17076,-23.5976,-3.9634,52.4390,0.00,0.00,0.00,3,S01
12800,-5.47554,0.20111,1.03190,-18.4756,-11.4024,50.1220,0.00,0.00,0.00,3,S01
12820,-4.07733,-0.88346,1.56581,-19.2073,-16.2805,49.9390,0.00,0.00,0.00,3,S01
12840,-3.11246,-0.74699,2.03268,-23.2927,-23.4756,40.4878,0.00,0.00,0.00,3,S01
12860,-2.41814,-0.82361,1.42694,-19.6341,-33.9634,23.1707,0.00,0.00,0.00,3,S01
12880,-2.02789,-1.06063,0.30885,-3.1098,-43.7805,5.6707,0.00,0.00,0.00,3,S01
12900,-2.55461,-0.06225,-0.79487,12.3171,-50.3049,-8.4756,0.00,0.00,0.00,3,S01
12920,-4.03423,1.18274,-2.17872,20.1829,-53.4756,-11.2195,0.00,0.00,0.00,3,S01
12940,-8.30309,0.57700,-5.86340,25.0000,-52.6220,-5.0610,0.00,0.00,0.00,3,S01
12960,-13.26867,-1.47722,-6.79235,14.1463,-13.4146,-2.0732,0.00,0.00,0.00,3,S01
12980,-14.95658,-3.33273,6.67264,-5.1220,40.6098,-1.8293,0.00,0.00,0.00,3,S01
13000,-14.47534,-0.56503,1.02951,24.1463,-6.5854,-10.0000,0.00,0.00,0.00,3,S01
13020,-14.46816,2.22900,-2.25294,28.5976,-21.7073,-12.0732,0.00,0.00,0.00,3,S01
13040,-16.92461,1.06063,2.78924,-12.6829,7.9268,-15.6707,0.00,0.00,0.00,3,S01
13060,-17.11375,-0.89543,3.58173,-25.0000,13.9634,-27.0122,0.00,0.00,0.00,3,S01
13080,-14.29578,-1.78607,2.31040,-11.0366,-1.7073,-40.9146,0.00,0.00,0.00,3,S01
13100,-10.79306,-2.48518,1.77171,5.1220,-5.1220,-48.3537,0.00,0.00,0.00,3,S01
13120,-8.70532,-3.24414,1.45807,14.1463,2.8049,-47.3781,0.00,0.00,0.00,3,S01
13140,-8.17859,-3.04542,0.87628,22.6829,11.8902,-41.6463,0.00,0.00,0.00,3,S01
13160,-7.97509,-1.32639,0.93613,24.7561,21.7683,-31.0366,0.00,0.00,0.00,3,S01
13180,-7.02459,1.02232,1.62566,17.4390,22.3780,-14.9390,0.00,0.00,0.00,3,S01
13200,-5.48751,1.70467,1.82438,11.9512,5.9146,8.4146,0.00,0.00,0.00,3,S01
13220,-3.82593,0.95289,1.51314,7.8049,-18.4756,30.0000,0.00,0.00,0.00,3,S01
13240,-2.56419,0.05746,1.08697,-0.4268,-43.2317,38.7805,0.00,0.00,0.00,3,S01
13260,-1.84354,-1.61369,0.10295,1.2195,-69.6341,35.7317,0.00,0.00,0.00,3,S01
13280,-1.83156,-2.35829,-1.65439,10.9146,-91.2805,19.8171,0.00,0.00,0.00,3,S01
13300,-5.41808,-5.81312,-5.72454,9.5122,-95.2439,-11.5244,0.00,0.00,0.00,3,S01
13320,-11.45386,-2.09732,-8.69335,-3.9024,-46.5244,-83.5976,0.00,0.00,0.00,3,S01
13340,-15.93341,6.32069,-1.47722,-26.2195,77.6220,-121.3415,0.00,0.00,0.00,3,S01
13360,-16.68280,-3.45244,2.30322,-41.7683,55.2439,-20.0000,0.00,0.00,0.00,3,S01
13380,-18.92138,-1.29287,3.02148,-23.4756,53.9024,-6.5854,0.00,0.00,0.00,3,S01
13400,-18.29649,1.28569,1.98479,-7.6220,50.4268,18.0488,0.00,0.00,0.00,3,S01
13420,-15.51203,2.96881,0.80206,-10.8537,32.9878,52.6220,0.00,0.00,0.00,3,S01
13440,-11.94228,2.33195,0.02634,-27.0122,21.6463,85.4268,0.00,0.00,0.00,3,S01
13460,-9.79947,0.93374,-0.74220,-41.7683,21.9512,92.9878,0.00,0.00,0.00,3,S01
13480,-9.10754,0.11253,-0.07901,-46.4634,34.3293,72.7439,0.00,0.00,0.00,3,S01
13500,-8.79390,0.01197,1.60651,-43.2317,34.5122,46.1585,0.00,0.00,0.00,3,S01
13520,-7.27119,-0.40701,1.21147,-38.2927,6.6463,33.7195,0.00,0.00,0.00,3,S01
13540,-5.20260,-1.05824,0.27533,-36.5854,-25.1220,34.0854,0.00,0.00,0.00,3,S01
13560,-3.16753,-1.63524,-0.12210,-35.8537,-49.2073,35.9146,0.00,0.00,0.00,3,S01
13580,-1.52511,-1.94409,-0.34716,-24.1463,-68.5976,30.6707,0.00,0.00,0.00,3,S01
13600,-0.85234,-1.00078,-0.93853,-9.0244,-83.5976,16.4024,0.00,0.00,0.00,3,S01
13620,-1.49159,-0.13168,-1.98000,2.4390,-90.0610,1.9512,0.00,0.00,0.00,3,S01
13640,-4.17788,-0.71347,-4.65912,15.8537,-84.2683,-6.4024,0.00,0.00,0.00,3,S01
13660,-10.01255,-1.25696,-8.43477,17.3171,-43.4146,-20.4878,0.00,0.00,0.00,3,S01
13680,-16.56787,-1.10612,-3.82115,-2.3780,71.2195,-24.3902,0.00,0.00,0.00,3,S01
13700,-19.35712,-2.16436,7.80031,-8.2927,122.1951,-16.7683,0.00,0.00,0.00,3,S01
13720,-17.32444,1.63285,1.51553,24.6951,36.2805,-17.5610,0.00,0.00,0.00,3,S01
13740,-14.92785,3.03585,-0.83318,11.8293,2.0732,-15.7927,0.00,0.00,0.00,3,S01
13760,-13.63737,0.76614,1.10133,-16.5854,13.7195,-20.1829,0.00,0.00,0.00,3,S01
13780,-13.00051,-1.72861,2.21224,-21.5854,25.4878,-37.6220,0.00,0.00,0.00,3,S01
13800,-11.31021,-3.27766,1.92254,-0.9756,26.3415,-54.1463,0.00,0.00,0.00,3,S01
13820,-9.04769,-3.59849,1.50835,18.1707,17.6220,-59.9390,0.00,0.00,0.00,3,S01
13840,-6.95276,-2.74376,1.11809,32.3780,9.3902,-53.7805,0.00,0.00,0.00,3,S01
13860,-6.29914,-1.59214,0.36152,43.6585,11.2805,-37.3780,0.00,0.00,0.00,3,S01
13880,-7.10360,-0.48842,0.57461,41.5854,25.5488,-20.4878,0.00,0.00,0.00,3,S01
13900,-7.84101,-0.33758,3.02148,33.9634,35.8537,-6.0366,0.00,0.00,0.00,3,S01
13920,-6.85221,-0.89304,4.25450,31.4024,14.2683,2.1951,0.00,0.00,0.00,3,S01
13940,-5.45639,0.36152,2.54504,35.6707,-23.1707,1.0976,0.00,0.00,0.00,3,S01
13960,-4.76207,0.35913,0.75657,34.3293,-47.3781,3.9024,0.00,0.00,0.00,3,S01
13980,-4.51068,-1.08697,-1.32399,26.0976,-63.1707,6.6463,0.00,0.00,0.00,3,S01
14000,-5.36780,-1.45567,-2.92571,13.1098,-55.6707,-1.8293,0.00,0.00,0.00,3,S01
14020,-9.18176,-4.88178,-6.05733,9.8171,-21.2805,-21.9512,0.00,0.00,0.00,3,S01
14040,-14.10664,1.21865,-2.98078,11.8293,43.2927,-65.7927,0.00,0.00,0.00,3,S01
14060,-16.44098,3.01430,3.90734,-9.2073,55.7927,-59.5122,0.00,0.00,0.00,3,S01
14080,-14.83447,-0.07901,-0.57940,-17.3171,-3.3537,-14.4512,0.00,0.00,0.00,3,S01
14100,-13.24233,-1.75256,-1.51314,-22.2561,-7.9878,4.8171,0.00,0.00,0.00,3,S01
14120,-13.65892,-0.12689,0.86191,-25.5488,14.5122,14.2683,0.00,0.00,0.00,3,S01
14140,-12.90714,1.07500,-0.29928,-21.7683,20.7927,30.5488,0.00,0.00,0.00,3,S01
14160,-11.42513,1.81959,-0.47405,-21.6463,24.3293,45.4878,0.00,0.00,0.00,3,S01
14180,-9.44752,1.42934,-0.44772,-24.3902,21.5244,57.8659,0.00,0.00,0.00,3,S01
14200,-8.06846,0.37589,-0.93374,-24.5732,17.6220,61.4024,0.00,0.00,0.00,3,S01
14220,-7.35020,-0.20351,-1.00556,-23.7195,21.9512,50.9756,0.00,0.00,0.00,3,S01
14240,-7.41724,0.30646,-0.10534,-20.6098,29.5732,32.7439,0.00,0.00,0.00,3,S01
14260,-7.71891,0.62728,1.11809,-20.6707,26.8902,19.3293,0.00,0.00,0.00,3,S01
14280,-7.61356,0.66080,1.42934,-24.3293,10.0000,13.6585,0.00,0.00,0.00,3,S01
14300,-6.87615,0.46448,1.77889,-30.2439,-12.6220,12.1951,0.00,0.00,0.00,3,S01
14320,-5.80354,-0.01915,2.15239,-34.5732,-32.3780,12.0122,0.00,0.00,0.00,3,S01
14340,-4.74052,-0.67756,1.40779,-30.4268,-41.3415,11.8293,0.00,0.00,0.00,3,S01
14360,-4.02705,-1.32160,0.23463,-14.7561,-35.7317,8.2927,0.00,0.00,0.00,3,S01
14380,-4.79798,-0.43814,-0.97683,0.4268,-24.0854,0.0610,0.00,0.00,0.00,3,S01
14400,-7.11317,0.69432,-2.69108,9.1463,-13.6585,-3.5366,0.00,0.00,0.00,3,S01
14420,-10.93192,-0.41659,-4.22337,19.5122,2.5610,1.2195,0.00,0.00,0.00,3,S01
14440,-13.83370,-2.27210,2.72939,25.3659,26.3415,6.8293,0.00,0.00,0.00,3,S01
14460,-14.62618,-1.09176,0.79009,32.0122,-3.4756,6.8902,0.00,0.00,0.00,3,S01
14480,-14.82011,2.13802,-1.60890,37.8049,-14.3902,2.5610,0.00,0.00,0.00,3,S01
14500,-14.62378,2.33195,-0.54109,13.4756,2.9878,0.0000,0.00,0.00,0.00,3,S01
14520,-14.57829,0.19632,0.92656,-10.5488,16.5854,-13.7195,0.00,0.00,0.00,3,S01
14540,-13.78102,-1.95846,1.69509,-10.1829,24.1463,-33.9024,0.00,0.00,0.00,3,S01
14560,-11.87045,-3.30639,1.57778,2.3171,22.6829,-49.2683,0.00,0.00,0.00,3,S01
14580,-9.51695,-3.40934,1.42216,19.7561,15.4878,-59.0244,0.00,0.00,0.00,3,S01
14600,-7.82904,-2.50433,1.16598,32.6829,4.6341,-60.9756,0.00,0.00,0.00,3,S01
14620,-7.75003,-1.25217,0.31125,39.2073,-2.0732,-54.3902,0.00,0.00,0.00,3,S01
14640,-8.19775,-0.45011,-0.63925,42.8659,5.9756,-41.0366,0.00,0.00,0.00,3,S01
14660,-6.43322,-0.31125,1.92973,32.1951,37.6220,-12.5000,0.00,0.00,0.00,3,S01
14680,-5.89452,0.26336,3.05979,23.9024,23.8415,-6.4634,0.00,0.00,0.00,3,S01
14700,-5.21457,0.87149,2.31998,14.6341,-5.1829,-4.8780,0.00,0.00,0.00,3,S01
14720,-4.83389,0.63686,1.19471,10.1220,-25.7317,-3.9634,0.00,0.00,0.00,3,S01
14740,-4.60166,-0.95289,-0.13168,10.2439,-39.8171,-1.5854,0.00,0.00,0.00,3,S01
14760,-4.14915,-1.36709,-1.22823,8.5976,-49.9390,-2.1951,0.00,0.00,0.00,3,S01
14780,-6.28717,-4.69264,-3.73017,5.3659,-52.9878,-9.2683,0.00,0.00,0.00,3,S01
14800,-11.00375,-2.41814,-7.46991,11.0366,-33.4756,-43.8415,0.00,0.00,0.00,3,S01
14820,-15.05953,5.29837,-1.91057,-6.5244,34.2073,-71.7683,0.00,0.00,0.00,3,S01
14840,-15.35880,2.05422,3.86424,-37.8049,46.8902,-30.4878,0.00,0.00,0.00,3,S01
14860,-14.82011,-2.57856,-0.66319,-41.5854,-0.5488,0.9146,0.00,0.00,0.00,3,S01
14880,-16.58224,-2.21464,0.77093,-44.3293,8.2927,4.8780,0.00,0.00,0.00,3,S01
14900,-17.27177,-0.06704,0.70150,-35.4268,25.9756,12.7439,0.00,0.00,0.00,3,S01
14920,-15.11699,1.36469,0.00479,-33.1707,23.1707,30.2439,0.00,0.00,0.00,3,S01
14940,-12.53365,2.10211,-0.23224,-44.0244,8.1098,52.2561,0.00,0.00,0.00,3,S01
14960,-9.93833,0.56743,-1.07021,-49.0854,-3.3537,73.9024,0.00,0.00,0.00,3,S01
14980,-8.37252,-1.14203,-1.27372,-48.7195,3.3537,73.4756,0.00,0.00,0.00,3,S01
15000,-7.87453,-1.21147,-0.04070,-39.9390,20.4268,50.4268,0.00,0.00,0.00,3,S01
15020,-7.45076,-0.80685,1.72143,-24.2683,28.1707,30.8537,0.00,0.00,0.00,3,S01
15040,-6.08367,-0.53870,1.88184,-13.2927,13.2927,27.8659,0.00,0.00,0.00,3,S01
15060,-4.37899,-0.52433,1.21147,-13.6585,-10.2439,33.1098,0.00,0.00,0.00,3,S01
15080,-2.86586,-1.09654,1.11570,-16.8293,-25.3049,29.2683,0.00,0.00,0.00,3,S01
15100,-2.32716,-1.23780,0.40701,-6.5854,-32.9268,11.7073,0.00,0.00,0.00,3,S01
15120,-2.45645,-0.19154,-0.29449,6.3415,-34.0854,-5.5488,0.00,0.00,0.00,3,S01
15140,-2.89698,1.48680,-0.94571,13.1707,-34.8171,-10.1829,0.00,0.00,0.00,3,S01
15160,-5.24809,1.89142,-3.49075,17.6829,-38.2927,-2.1951,0.00,0.00,0.00,3,S01
15180,-9.86651,0.01915,-7.48667,13.1707,-25.7927,2.4390,0.00,0.00,0.00,3,S01
15200,-14.23114,-1.76213,1.63524,-13.1098,38.9634,-6.2805,0.00,0.00,0.00,3,S01
15220,-15.78497,-1.85311,3.29203,-18.4756,36.5854,-18.4146,0.00,0.00,0.00,3,S01
15240,-15.55992,1.25696,-1.41258,14.0854,1.3415,-20.9146,0.00,0.00,0.00,3,S01
15260,-16.69238,0.99359,0.94092,-6.1585,8.2317,-17.5000,0.00,0.00,0.00,3,S01
15280,-17.55668,-0.59137,1.75974,-19.6341,16.6463,-23.2317,0.00,0.00,0.00,3,S01
15300,-16.29254,-1.58017,1.61130,-10.5488,23.5976,-36.7683,0.00,0.00,0.00,3,S01
15320,-13.74751,-2.01113,1.52750,2.1951,24.1463,-54.2073,0.00,0.00,0.00,3,S01
15340,-11.46823,-2.36547,1.05345,14.2073,18.4756,-62.7439,0.00,0.00,0.00,3,S01
15360,-9.48104,-2.71263,0.90980,24.2683,13.0488,-54.6341,0.00,0.00,0.00,3,S01
15380,-7.58244,-2.04465,0.90980,28.5976,7.9878,-33.6585,0.00,0.00,0.00,3,S01
15400,-5.92565,-0.56743,1.16119,20.7927,4.4512,-10.7317,0.00,0.00,0.00,3,S01
15420,-4.89614,0.70629,1.48680,8.4146,1.7073,6.5854,0.00,0.00,0.00,3,S01
15440,-4.11563,0.61531,2.16436,0.4268,-0.7317,19.6951,0.00,0.00,0.00,3,S01
15460,-3.11725,1.36948,3.00233,0.1829,-7.8049,33.0488,0.00,0.00,0.00,3,S01
15480,-2.61926,0.50757,2.01352,-2.9878,-37.1951,53.5976,0.00,0.00,0.00,3,S01
15500,-2.06141,-0.89064,-0.06464,-2.6829,-77.8049,67.7439,0.00,0.00,0.00,3,S01
15520,-2.20745,-1.58975,-2.18830,-5.6098,-104.0244,59.2073,0.00,0.00,0.00,3,S01
15540,-7.15387,-8.95431,-8.34858,1.0366,-110.3049,19.9390,0.00,0.00,0.00,3,S01
15560,-13.53203,-3.22738,-10.57998,-9.8780,-46.7683,-96.7073,0.00,0.00,0.00,3,S01
15580,-19.44092,7.66623,-1.35272,-33.7805,88.5366,-152.8049,0.00,0.00,0.00,3,S01
15600,-18.27734,-0.30646,5.30316,-49.9390,112.3171,-69.9390,0.00,0.00,0.00,3,S01
15620,-15.98608,-4.81953,0.79727,-38.2927,20.8537,-13.9024,0.00,0.00,0.00,3,S01
15640,-16.10819,-1.93212,2.31040,-19.5122,16.4634,5.7927,0.00,0.00,0.00,3,S01
15660,-15.66526,1.61609,0.75896,9.0244,40.9146,25.7317,0.00,0.00,0.00,3,S01
15680,-14.14255,2.68869,0.45490,3.8415,51.5854,47.3781,0.00,0.00,0.00,3,S01
15700,-12.40675,3.89776,0.47166,-15.1220,40.6707,62.8049,0.00,0.00,0.00,3,S01
15720,-10.15141,2.55701,0.04310,-32.5000,26.1585,73.0488,0.00,0.00,0.00,3,S01
15740,-8.10916,1.05345,0.79966,-49.6341,21.3415,66.6463,0.00,0.00,0.00,3,S01
15760,-6.75644,-0.36392,1.12767,-48.2927,16.6463,46.5244,0.00,0.00,0.00,3,S01
15780,-5.09247,-1.77410,1.57538,-40.0000,7.5000,33.3537,0.00,0.00,0.00,3,S01
15800,-3.75890,-2.21224,1.53708,-39.2073,-14.8780,24.4512,0.00,0.00,0.00,3,S01
15820,-2.92332,-1.95127,1.37667,-39.6341,-42.7439,11.0976,0.00,0.00,0.00,3,S01
15840,-2.07577,-1.16358,0.56264,-22.1341,-65.0000,-1.0976,0.00,0.00,0.00,3,S01
15860,-1.69270,0.46208,-0.72065,0.0610,-80.3049,-6.6463,0.00,0.00,0.00,3,S01
15880,-3.42371,1.83875,-2.79882,12.8659,-89.1463,-4.8171,0.00,0.00,0.00,3,S01
15900,-9.02135,1.12288,-7.54652,21.8902,-81.5854,1.1585,0.00,0.00,0.00,3,S01
15920,-14.00369,-1.57778,-9.43555,3.8415,-27.8049,1.5854,0.00,0.00,0.00,3,S01
15940,-16.02439,-4.08930,5.01346,-18.9634,56.9512,-3.9024,0.00,0.00,0.00,3,S01
15960,-16.03157,-2.11408,2.50912,8.3537,17.9878,-21.8293,0.00,0.00,0.00,3,S01
15980,-16.26381,-0.84994,2.65996,12.0122,4.2683,-23.4756,0.00,0.00,0.00,3,S01
16000,-15.90229,-2.18591,3.02388,16.7073,18.3537,-25.3049,0.00,0.00,0.00,3,S01
16020,-13.72356,-3.31836,2.93290,33.1098,17.3171,-32.1341,0.00,0.00,0.00,3,S01
16040,-10.91038,-3.56497,1.88663,47.9268,4.0244,-43.8415,0.00,0.00,0.00,3,S01
16060,-8.82503,-2.59771,1.20907,52.8659,-5.8537,-51.3415,0.00,0.00,0.00,3,S01
16080,-8.25521,-1.19950,0.28970,52.5610,-7.8659,-47.8659,0.00,0.00,0.00,3,S01
16100,-7.79791,0.63925,0.52672,43.2317,5.4878,-35.0610,0.00,0.00,0.00,3,S01
16120,-6.18901,1.07739,1.83156,28.8415,17.0122,-14.8171,0.00,0.00,0.00,3,S01
16140,-4.41730,0.39504,2.49476,21.9512,3.7805,3.1098,0.00,0.00,0.00,3,S01
16160,-3.00951,-0.20351,2.09493,19.3902,-22.3171,13.5976,0.00,0.00,0.00,3,S01
16180,-2.18351,-0.19632,1.04627,16.8293,-46.3415,19.5732,0.00,0.00,0.00,3,S01
16200,-1.67115,-0.58179,-0.43574,19.3902,-66.8293,24.1463,0.00,0.00,0.00,3,S01
16220,-1.54187,-0.45250,-2.34871,25.1829,-82.3781,22.3780,0.00,0.00,0.00,3,S01
16240,-6.11719,-5.97353,-6.44280,20.0610,-82.6829,12.7439,0.00,0.00,0.00,3,S01
16260,-14.86081,-6.28239,-11.51611,14.5122,-25.7317,-48.9634,0.00,0.00,0.00,3,S01
16280,-22.02187,6.67982,0.93374,-6.4024,128.9024,-119.0244,0.00,0.00,0.00,3,S01
16300,-19.67315,2.10690,6.77320,-8.9024,133.9024,-62.2561,0.00,0.00,0.00,3,S01
16320,-15.94299,-2.46842,0.92177,-15.9146,19.3902,-7.8049,0.00,0.00,0.00,3,S01
16340,-13.75948,-3.69665,0.41899,-24.0854,-2.4390,16.8902,0.00,0.00,0.00,3,S01
16360,-12.82574,-0.68474,0.92656,-11.4024,29.6341,27.8659,0.00,0.00,0.00,3,S01
16380,-11.71004,2.11647,0.38307,-6.2195,46.5244,43.8415,0.00,0.00,0.00,3,S01
16400,-9.79468,2.20506,-0.17717,-11.2805,47.3171,66.8902,0.00,0.00,0.00,3,S01
16420,-8.04212,0.79487,-0.49560,-15.3049,42.9268,81.7683,0.00,0.00,0.00,3,S01
16440,-6.65828,-1.01275,-0.59616,-21.5854,38.7195,78.2317,0.00,0.00,0.00,3,S01
16460,-6.77080,-0.59137,0.55785,-20.4268,41.7683,52.6220,0.00,0.00,0.00,3,S01
16480,-7.22810,0.31125,1.80762,-12.4390,39.9390,27.6220,0.00,0.00,0.00,3,S01
16500,-7.30232,0.42377,1.93451,-7.0122,21.2805,14.1463,0.00,0.00,0.00,3,S01
16520,-6.97431,0.84276,2.86825,-8.0488,-7.1341,4.8171,0.00,0.00,0.00,3,S01
16540,-5.99029,1.14443,3.06458,-8.7805,-34.7561,0.7317,0.00,0.00,0.00,3,S01
16560,-5.30795,0.51236,1.12767,-1.0976,-42.6220,4.4512,0.00,0.00,0.00,3,S01
16580,-5.42526,0.43574,0.38547,2.5000,-28.9634,8.4756,0.00,0.00,0.00,3,S01
16600,-5.72454,0.38547,1.26893,0.6707,-19.2683,10.7927,0.00,0.00,0.00,3,S01
16620,-7.37893,0.18914,-0.13168,7.5000,-21.0366,12.2561,0.00,0.00,0.00,3,S01
16640,-11.48020,0.22745,-4.73094,25.9146,-15.2439,7.9878,0.00,0.00,0.00,3,S01
16660,-15.56710,0.10774,-5.52103,32.6829,22.2561,5.4878,0.00,0.00,0.00,3,S01
16680,-17.15924,-2.90896,1.58257,21.2805,34.8780,7.5610,0.00,0.00,0.00,3,S01
16700,-16.34521,-1.68791,-1.40779,31.6463,-25.9146,-2.7439,0.00,0.00,0.00,3,S01
16720,-14.46337,1.17316,-2.43490,35.9146,-30.1220,-2.1341,0.00,0.00,0.00,3,S01
16740,-13.11783,1.83156,-2.02310,17.1951,-5.5488,1.5854,0.00,0.00,0.00,3,S01
16760,-11.65019,0.01197,-1.63285,-2.1341,12.3780,-5.6098,0.00,0.00,0.00,3,S01
16780,-9.94312,-1.79805,-0.63446,-5.4268,23.1098,-25.5488,0.00,0.00,0.00,3,S01
16800,-8.33422,-2.59292,0.35434,2.3171,21.2195,-49.8171,0.00,0.00,0.00,3,S01
16820,-6.34703,-1.91536,1.24020,14.0244,10.0610,-58.6585,0.00,0.00,0.00,3,S01
16840,-4.59926,-0.92656,1.46286,23.1707,-14.0244,-49.7561,0.00,0.00,0.00,3,S01
16860,-4.89614,-0.22745,0.14844,25.4268,-44.2073,-38.7805,0.00,0.00,0.00,3,S01
16880,-6.05015,0.24181,-1.74777,23.4756,-58.1707,-32.9878,0.00,0.00,0.00,3,S01
16900,-6.49786,0.15323,-2.94247,18.7805,-45.4878,-27.6220,0.00,0.00,0.00,3,S01
16920,-6.55293,0.35674,-2.77009,2.9878,-14.9390,-22.8659,0.00,0.00,0.00,3,S01
16940,-6.87615,0.20111,-1.75256,-21.5854,26.2805,-14.5122,0.00,0.00,0.00,3,S01
16960,-7.69496,-0.19154,5.56173,-43.8415,71.5854,-5.9756,0.00,0.00,0.00,3,S01
16980,-8.91122,-1.23541,7.14669,-45.7317,50.4878,-1.0976,0.00,0.00,0.00,3,S01
17000,-9.88326,-1.13964,3.15077,-27.1341,7.7439,-5.8537,0.00,0.00,0.00,3,S01
17020,-10.33816,-1.98000,4.19464,-21.5244,6.7073,-7.9268,0.00,0.00,0.00,3,S01
17040,-9.81623,-1.95127,3.44047,-15.7317,4.9390,-10.7317,0.00,0.00,0.00,3,S01
17060,-9.33978,-1.90818,1.40540,-10.8537,5.3659,-15.0000,0.00,0.00,0.00,3,S01
17080,-9.39245,-3.84988,-1.22104,3.7805,9.9390,-21.4024,0.00,0.00,0.00,3,S01
17100,-9.05008,-2.94247,-2.63841,21.7683,6.5854,-38.3537,0.00,0.00,0.00,3,S01
17120,-9.65103,-0.44532,-3.53145,17.4390,-2.3171,-46.7073,0.00,0.00,0.00,3,S01
17140,-12.07635,0.59137,-4.20182,-4.6951,0.7317,-31.2805,0.00,0.00,0.00,3,S01
17160,-13.52006,-1.59214,0.46687,-21.2805,27.0732,-9.2683,0.00,0.00,0.00,3,S01
17180,-13.21360,-1.78129,0.45011,-7.8049,18.4756,-2.3780,0.00,0.00,0.00,3,S01
17200,-11.59512,-1.42934,-1.50356,7.2561,-2.4390,8.4756,0.00,0.00,0.00,3,S01
17220,-10.57519,-1.85311,-1.45807,6.7073,2.7439,23.3537,0.00,0.00,0.00,3,S01
17240,-11.42992,-0.91219,-0.28252,5.0000,16.9512,31.0366,0.00,0.00,0.00,3,S01
17260,-12.62463,0.69192,0.99838,6.1585,26.5244,39.0854,0.00,0.00,0.00,3,S01
17280,-10.66617,1.05584,0.16281,10.4878,25.7317,58.8415,0.00,0.00,0.00,3,S01
17300,-9.74919,0.83797,0.23463,1.3415,20.3659,55.4878,0.00,0.00,0.00,3,S01
17320,-9.78271,1.09894,0.70390,-6.6463,13.9024,43.3537,0.00,0.00,0.00,3,S01
17340,-9.91439,1.23780,1.48919,-9.8171,10.9146,30.3659,0.00,0.00,0.00,3,S01
17360,-9.10036,0.77812,1.75256,-12.5610,1.7683,20.7927,0.00,0.00,0.00,3,S01
17380,-7.40766,0.28970,1.93930,-15.6098,-13.4756,19.0244,0.00,0.00,0.00,3,S01
17400,-5.31752,0.44532,1.86508,-19.0854,-33.2317,24.1463,0.00,0.00,0.00,3,S01
17420,-3.35667,0.06943,0.79487,-14.8780,-52.4390,34.2683,0.00,0.00,0.00,3,S01
17440,-1.97761,-1.11570,-0.30406,-2.4390,-65.5488,36.9512,0.00,0.00,0.00,3,S01
17460,-1.61130,-1.38145,-1.25696,10.6098,-72.5610,22.5000,0.00,0.00,0.00,3,S01
17480,-4.28802,-0.57700,-3.40455,24.9390,-68.5976,-0.1220,0.00,0.00,0.00,3,S01
17500,-9.26795,-1.24977,-6.99346,36.3415,-48.2317,-20.1829,0.00,0.00,0.00,3,S01
17520,-12.73715,-1.26893,-4.37899,25.6707,13.7805,-32.9268,0.00,0.00,0.00,3,S01
17540,-14.26465,-1.21147,4.81474,13.7805,43.1098,-33.5976,0.00,0.00,0.00,3,S01
17560,-14.73152,1.43413,-0.10534,32.5000,-3.1098,-32.0732,0.00,0.00,0.00,3,S01
17580,-15.93820,0.41180,-0.04549,24.2073,0.5488,-27.5000,0.00,0.00,0.00,3,S01
17600,-16.81448,-2.58813,2.87783,8.7195,16.8902,-27.8049,0.00,0.00,0.00,3,S01
17620,-15.89032,-3.38780,2.49236,23.1707,19.6951,-35.4878,0.00,0.00,0.00,3,S01
17640,-13.23275,-3.07894,1.39103,43.9634,14.9390,-43.7195,0.00,0.00,0.00,3,S01
17660,-10.91517,-2.48279,0.83079,57.5000,13.8415,-47.8659,0.00,0.00,0.00,3,S01
17680,-9.44513,-2.33914,0.74939,56.3415,20.0610,-45.3049,0.00,0.00,0.00,3,S01
17700,-8.58561,-1.29766,1.10373,52.7439,27.4390,-38.8415,0.00,0.00,0.00,3,S01
17720,-7.60398,-0.00958,1.75256,45.9756,27.2561,-26.0976,0.00,0.00,0.00,3,S01
17740,-6.42125,0.53151,2.16675,39.8780,14.8780,-11.8293,0.00,0.00,0.00,3,S01
17760,-4.83629,0.80445,2.08535,39.3293,-12.5000,-0.9146,0.00,0.00,0.00,3,S01
17780,-3.03824,0.80445,1.69509,41.2195,-48.1098,10.3049,0.00,0.00,0.00,3,S01
17800,-1.74537,-0.60573,0.80445,43.9024,-83.5976,25.4878,0.00,0.00,0.00,3,S01
17820,-0.91937,-1.94409,-0.80924,46.0976,-114.2073,30.9146,0.00,0.00,0.00,3,S01
17840,-1.24498,-1.26414,-2.45885,37.3171,-128.2927,17.0122,0.00,0.00,0.00,3,S01
17860,-5.51624,-5.87777,-6.99107,25.3049,-118.3537,-7.7439,0.00,0.00,0.00,3,S01
17880,-13.26148,-3.54821,-11.07318,8.3537,-47.9878,-82.1341,0.00,0.00,0.00,3,S01
17900,-20.10890,6.34463,-6.84981,-19.0244,108.7195,-136.3415,0.00,0.00,0.00,3,S01
17920,-19.00757,0.69432,9.93833,-40.2439,182.3781,-68.5366,0.00,0.00,0.00,3,S01
17940,-16.96771,-3.64876,3.16274,-46.4024,60.0610,-11.2195,0.00,0.00,0.00,3,S01
17960,-17.19755,-2.56419,1.93451,-31.3415,30.4268,10.1829,0.00,0.00,0.00,3,S01
17980,-17.51598,0.79009,2.18591,-15.7927,53.2317,25.3659,0.00,0.00,0.00,3,S01
18000,-15.51203,2.44687,1.22583,-20.5488,42.9268,48.4146,0.00,0.00,0.00,3,S01
18020,-12.93108,2.91614,0.10295,-33.7195,25.9756,75.9146,0.00,0.00,0.00,3,S01
18040,-10.51294,1.93691,-0.44772,-45.0000,26.0976,96.4634,0.00,0.00,0.00,3,S01
18060,-8.49942,0.76614,0.23703,-57.4390,34.2683,95.2439,0.00,0.00,0.00,3,S01
18080,-7.11557,0.24421,1.09654,-56.9512,31.7073,69.7561,0.00,0.00,0.00,3,S01
18100,-5.77960,-0.06225,1.53708,-48.4146,13.7805,45.7927,0.00,0.00,0.00,3,S01
18120,-4.52744,-0.58419,1.27611,-49.3293,-9.9390,40.3049,0.00,0.00,0.00,3,S01
18140,-3.29921,-1.00317,1.30723,-57.9878,-30.4268,39.2073,0.00,0.00,0.00,3,S01
18160,-2.09971,-1.52271,1.15401,-52.9878,-45.6707,29.2073,0.00,0.00,0.00,3,S01
18180,-1.39343,-1.60172,0.29928,-30.1829,-55.7317,15.1220,0.00,0.00,0.00,3,S01
18200,-1.38624,-0.93613,-0.59616,-11.7683,-64.0854,2.9268,0.00,0.00,0.00,3,S01
18220,-2.87783,0.27533,-2.09971,1.6463,-71.5244,-2.3780,0.00,0.00,0.00,3,S01
18240,-7.77876,-0.43335,-6.58645,18.2927,-69.4512,-7.5610,0.00,0.00,0.00,3,S01
18260,-14.17128,-1.53708,-9.66779,8.3537,-17.1951,-22.0122,0.00,0.00,0.00,3,S01
18280,-17.57823,-3.09810,5.61680,-10.1829,81.8293,-32.1341,0.00,0.00,0.00,3,S01
18300,-17.54232,-0.32082,3.29203,3.9024,44.7561,-40.1220,0.00,0.00,0.00,3,S01
18320,-16.80490,1.98240,-0.64643,16.2195,-2.0732,-35.7317,0.00,0.00,0.00,3,S01
18340,-17.09699,-0.79727,2.16675,-11.4024,10.1220,-29.0854,0.00,0.00,0.00,3,S01
18360,-16.43380,-3.10289,3.38301,-8.3537,23.0488,-37.1951,0.00,0.00,0.00,3,S01
18380,-13.96538,-3.18189,2.25773,14.6341,19.5732,-48.8415,0.00,0.00,0.00,3,S01
18400,-11.44189,-2.19548,1.36709,29.8171,9.7561,-53.7195,0.00,0.00,0.00,3,S01
18420,-9.23444,-2.30322,0.70868,40.3049,3.7195,-43.3537,0.00,0.00,0.00,3,S01
18440,-7.40048,-2.46842,0.72544,42.0122,5.3049,-28.1098,0.00,0.00,0.00,3,S01
18460,-6.28478,-1.34315,0.78290,37.8659,10.2439,-19.0854,0.00,0.00,0.00,3,S01
18480,-5.62398,0.28252,0.96726,31.5854,15.8537,-14.9390,0.00,0.00,0.00,3,S01
18500,-4.87459,0.58897,1.75256,25.4268,17.6829,-8.7805,0.00,0.00,0.00,3,S01
18520,-3.48835,1.07500,3.95283,20.1220,10.0000,-1.2805,0.00,0.00,0.00,3,S01
18540,-2.66235,0.58419,3.31118,26.0366,-21.4024,12.5610,0.00,0.00,0.00,3,S01
18560,-2.38223,-1.43173,1.18513,42.9268,-67.1341,29.3293,0.00,0.00,0.00,3,S01
18580,-2.43011,-2.17394,-1.57778,59.8781,-107.9878,28.3537,0.00,0.00,0.00,3,S01
18600,-12.27507,-2.59292,-11.43710,37.9268,-86.0366,-73.5366,0.00,0.00,0.00,3,S01
18620,-18.73463,6.71813,-7.63272,-13.4146,59.8781,-134.0244,0.00,0.00,0.00,3,S01
18640,-19.84793,1.40300,7.86016,-44.6951,157.1951,-78.9024,0.00,0.00,0.00,3,S01
18660,-17.91581,-3.56018,2.46842,-44.0244,66.7683,-30.7927,0.00,0.00,0.00,3,S01
18680,-17.15446,-3.36385,1.70467,-33.4756,20.9146,-7.8049,0.00,0.00,0.00,3,S01
18700,-15.89750,-0.56264,1.68791,-13.2927,30.3049,15.9756,0.00,0.00,0.00,3,S01
18720,-13.51527,1.81241,0.87628,-9.1463,26.9512,42.6220,0.00,0.00,0.00,3,S01
18740,-11.35570,3.40216,-0.00479,-17.3171,15.7927,73.5366,0.00,0.00,0.00,3,S01
18760,-8.61913,1.92733,-0.74220,-22.9878,12.0122,101.8293,0.00,0.00,0.00,3,S01
18780,-7.05811,0.33519,-1.13964,-32.8049,13.6585,102.5000,0.00,0.00,0.00,3,S01
18800,-6.73250,-0.70390,-0.20830,-39.5732,21.8293,72.4390,0.00,0.00,0.00,3,S01
18820,-6.86657,-0.28012,2.51152,-31.2805,29.6951,33.2317,0.00,0.00,0.00,3,S01
18840,-6.06212,0.19154,2.90177,-22.7439,9.7561,14.9390,0.00,0.00,0.00,3,S01
18860,-4.99670,0.66559,1.83156,-24.2073,-25.3659,13.9024,0.00,0.00,0.00,3,S01
18880,-3.80199,-0.49321,1.08457,-28.2927,-46.3415,21.1585,0.00,0.00,0.00,3,S01
18900,-2.90177,-0.94571,0.30885,-21.0976,-50.1829,21.5244,0.00,0.00,0.00,3,S01
18920,-2.69108,-0.49560,-0.69432,-9.8171,-54.7561,11.8902,0.00,0.00,0.00,3,S01
18940,-4.98952,0.30406,-2.76291,-0.6707,-58.1098,0.7317,0.00,0.00,0.00,3,S01
18960,-10.95826,-1.55863,-7.17063,16.4634,-41.0366,-10.9146,0.00,0.00,0.00,3,S01
18980,-16.95095,-2.31280,-3.05500,19.6951,33.9634,-26.0366,0.00,0.00,0.00,3,S01
19000,-18.10256,-2.86347,4.49631,21.5244,65.1829,-27.4390,0.00,0.00,0.00,3,S01
19020,-16.18002,1.17555,-0.96486,50.5488,7.1341,-24.5732,0.00,0.00,0.00,3,S01
19040,-14.40112,3.21541,-2.38223,32.5610,-7.6829,-16.0366,0.00,0.00,0.00,3,S01
19060,-13.10586,1.85551,-0.49799,-8.5366,13.4756,-16.6463,0.00,0.00,0.00,3,S01
19080,-11.60470,-0.19154,0.96007,-29.2683,29.0854,-28.8415,0.00,0.00,0.00,3,S01
19100,-9.40442,-2.28407,1.24259,-22.8659,25.2439,-39.5122,0.00,0.00,0.00,3,S01
19120,-7.12993,-3.16513,1.49159,-0.6707,10.9146,-42.5000,0.00,0.00,0.00,3,S01
19140,-5.19063,-3.56018,0.83558,21.2805,-11.1585,-32.9268,0.00,0.00,0.00,3,S01
19160,-4.89614,-2.74376,0.06704,25.3659,-28.4756,-26.8902,0.00,0.00,0.00,3,S01
19180,-5.92086,-1.05345,-0.96247,28.9634,-28.7195,-32.8049,0.00,0.00,0.00,3,S01
19200,-6.84742,0.41899,-1.66876,31.9512,-10.3049,-38.1707,0.00,0.00,0.00,3,S01
19220,-7.07726,0.94571,-1.32160,19.2073,18.5366,-33.7195,0.00,0.00,0.00,3,S01
19240,-7.66145,0.35674,1.05584,-0.7927,52.4390,-23.9634,0.00,0.00,0.00,3,S01
19260,-8.07804,-0.34955,7.64708,-13.1707,62.9878,-15.0000,0.00,0.00,0.00,3,S01
19280,-7.63750,-1.05345,4.51068,-3.7195,14.3902,-9.8780,0.00,0.00,0.00,3,S01
19300,-7.39569,-1.44370,1.54665,3.5976,-10.9756,-11.5244,0.00,0.00,0.00,3,S01
19320,-7.12514,-1.77889,0.45729,4.8780,-5.1829,-15.1220,0.00,0.00,0.00,3,S01
19340,-7.27358,-2.00155,-0.55067,6.6463,5.4268,-20.5488,0.00,0.00,0.00,3,S01
19360,-8.76757,-0.47645,-2.22661,9.0244,12.1341,-34.0244,0.00,0.00,0.00,3,S01
19380,-11.28627,2.32238,-0.15562,-5.0610,20.6098,-45.5488,0.00,0.00,0.00,3,S01
19400,-13.02925,0.37828,-1.29766,-17.8049,0.3049,-20.1829,0.00,0.00,0.00,3,S01
19420,-14.15452,-2.97360,-2.13563,-34.2073,-11.9512,1.3415,0.00,0.00,0.00,3,S01
19440,-16.18480,-1.88424,-0.86191,-36.2805,-2.8659,-5.0610,0.00,0.00,0.00,3,S01
19460,-17.21910,-0.24421,-0.94092,-33.1098,2.7439,2.1951,0.00,0.00,0.00,3,S01
19480,-17.32923,0.15083,-0.10534,-41.5244,15.3659,22.0122,0.00,0.00,0.00,3,S01
19500,-15.79455,0.54588,0.18914,-45.4268,25.7927,40.1829,0.00,0.00,0.00,3,S01
19520,-13.39077,1.04148,-0.27054,-45.9756,24.6341,56.4024,0.00,0.00,0.00,3,S01
19540,-11.46104,1.41258,-0.68714,-51.8293,21.5854,66.8293,0.00,0.00,0.00,3,S01
19560,-9.80186,1.83396,-0.31364,-57.8659,21.7683,69.0854,0.00,0.00,0.00,3,S01
19580,-7.93678,1.31202,0.35913,-56.2195,17.8659,67.1341,0.00,0.00,0.00,3,S01
19600,-5.70538,0.09577,1.13246,-49.4512,10.4878,64.5732,0.00,0.00,0.00,3,S01
19620,-3.59609,-1.24977,1.92733,-46.5854,-2.7439,64.1463,0.00,0.00,0.00,3,S01
19640,-2.10450,-2.11647,1.67355,-50.9756,-19.8780,60.7927,0.00,0.00,0.00,3,S01
19660,-1.29287,-1.48680,1.68073,-49.5732,-28.9634,42.3171,0.00,0.00,0.00,3,S01
19680,-0.90022,-1.50835,1.32399,-31.2805,-38.8415,17.4390,0.00,0.00,0.00,3,S01
19700,-0.80445,-1.45807,0.26576,-6.2195,-53.1707,-1.2195,0.00,0.00,0.00,3,S01
19720,-1.64482,0.80685,-0.85952,15.3659,-68.2927,-15.8537,0.00,0.00,0.00,3,S01
19740,-6.09564,3.19626,-5.14275,34.4512,-87.8659,-22.3780,0.00,0.00,0.00,3,S01
19760,-12.78025,0.79009,-10.85771,21.8902,-85.3049,-25.2439,0.00,0.00,0.00,3,S01
19780,-16.51999,-3.79481,-8.20972,-26.6463,3.3537,-32.2561,0.00,0.00,0.00,3,S01
19800,-17.85596,-3.54102,8.60476,-40.9146,80.1829,-47.0122,0.00,0.00,0.00,3,S01
19820,-16.97489,0.91219,2.00634,3.1707,18.9634,-39.8780,0.00,0.00,0.00,3,S01
19840,-17.17122,0.74699,0.58897,11.4024,11.8902,-20.4878,0.00,0.00,0.00,3,S01
19860,-16.70913,-1.29287,3.16035,2.5000,26.4634,-24.8780,0.00,0.00,0.00,3,S01
19880,-14.61660,-2.54982,2.33674,18.2317,19.6341,-39.0854,0.00,0.00,0.00,3,S01
19900,-12.06438,-2.89220,1.50835,36.3415,11.5244,-49.1463,0.00,0.00,0.00,3,S01
19920,-8.68856,-2.25294,0.50278,50.2439,5.1829,-36.4024,0.00,0.00,0.00,3,S01
19940,-7.46751,-1.12288,0.72065,43.9634,7.4390,-25.9756,0.00,0.00,0.00,3,S01
19960,-6.23929,0.51715,1.21386,35.7317,9.3902,-17.7439,0.00,0.00,0.00,3,S01
19980,-4.99909,0.67516,1.40061,30.8537,3.7805,-4.9390,0.00,0.00,0.00,3,S01
20000,-3.41892,0.45729,1.77889,22.4390,-8.4756,6.8902,0.00,0.00,0.00,3,S01
20020,-2.03747,0.20351,2.02549,13.2317,-26.8293,17.5000,0.00,0.00,0.00,3,S01
20040,-1.30484,-1.06542,1.24738,17.8049,-55.6707,28.3537,0.00,0.00,0.00,3,S01
20060,-0.99599,-1.75016,-0.72065,28.8415,-91.3415,29.2073,0.00,0.00,0.00,3,S01
20080,-3.68946,-4.71418,-4.20182,25.7317,-111.8293,10.4878,0.00,0.00,0.00,3,S01
20100,-10.24718,-5.43484,-10.28310,25.1220,-90.3049,-52.2561,0.00,0.00,0.00,3,S01
20120,-17.19276,5.88974,-9.40442,-7.3171,23.5976,-137.2561,0.00,0.00,0.00,3,S01
20140,-19.40500,5.91368,7.40287,-41.8293,144.6951,-95.0610,0.00,0.00,0.00,3,S01
20160,-17.61175,-2.66714,4.49870,-71.7683,81.8902,-19.3902,0.00,0.00,0.00,3,S01
20180,-17.71231,-2.76530,1.21147,-61.5854,21.5244,-4.2683,0.00,0.00,0.00,3,S01
20200,-17.99961,-0.69671,2.02789,-47.8049,37.1341,11.2805,0.00,0.00,0.00,3,S01
20220,-16.93180,1.50835,1.47722,-39.1463,43.3537,33.7195,0.00,0.00,0.00,3,S01
20240,-14.35563,2.02310,0.46926,-45.9146,31.1585,62.1341,0.00,0.00,0.00,3,S01
20260,-11.88961,1.97522,-0.47884,-51.3415,25.5488,84.2073,0.00,0.00,0.00,3,S01
20280,-9.12430,1.35272,-0.26097,-52.9878,32.4390,88.4756,0.00,0.00,0.00,3,S01
20300,-7.42921,1.05824,-0.00718,-52.9268,33.5366,73.1707,0.00,0.00,0.00,3,S01
20320,-6.01902,0.11971,0.55545,-52.6829,23.8415,56.7683,0.00,0.00,0.00,3,S01
20340,-4.42209,-1.07739,0.97923,-55.3049,5.9146,50.6098,0.00,0.00,0.00,3,S01
20360,-2.88980,-1.08697,1.93691,-62.9878,-12.8659,45.3049,0.00,0.00,0.00,3,S01
20380,-1.46765,-0.88346,2.19309,-61.1585,-33.3537,35.6707,0.00,0.00,0.00,3,S01
20400,-0.72305,-1.22104,1.20907,-41.5854,-53.7805,26.8293,0.00,0.00,0.00,3,S01
20420,-0.70390,-0.95768,-0.06225,-18.4146,-73.2927,15.5488,0.00,0.00,0.00,3,S01
20440,-2.51631,0.52912,-2.27449,1.7683,-91.2805,1.8293,0.00,0.00,0.00,3,S01
20460,-7.76440,-1.68073,-7.34781,15.0610,-99.8171,-15.6707,0.00,0.00,0.00,3,S01
20480,-13.40274,-4.22577,-10.10114,-4.0854,-48.8415,-50.1220,0.00,0.00,0.00,3,S01
20500,-17.20234,-1.86029,4.39097,-20.6098,79.1463,-72.5610,0.00,0.00,0.00,3,S01
20520,-18.19354,0.15802,4.92487,4.6951,87.4390,-52.6220,0.00,0.00,0.00,3,S01
20540,-18.48324,1.51792,0.94092,16.0366,35.6707,-34.5122,0.00,0.00,0.00,3,S01
20560,-18.63886,-0.48842,3.30160,-8.4756,26.8293,-33.8415,0.00,0.00,0.00,3,S01
20580,-16.87433,-1.94409,2.68151,-4.2683,22.5000,-44.9390,0.00,0.00,0.00,3,S01
20600,-14.13058,-2.82516,1.95127,7.4390,14.0854,-51.7683,0.00,0.00,0.00,3,S01
20620,-11.38443,-3.42610,1.37427,14.9390,1.0366,-44.1463,0.00,0.00,0.00,3,S01
20640,-9.11473,-3.50990,1.26893,23.0488,-1.7073,-27.1951,0.00,0.00,0.00,3,S01
20660,-7.23049,-2.94008,1.36948,29.0854,-3.3537,-13.2927,0.00,0.00,0.00,3,S01
20680,-5.75806,-1.20668,1.44131,34.5732,-9.0854,-10.8537,0.00,0.00,0.00,3,S01
20700,-4.60644,0.53391,1.30723,45.6098,-18.4756,-11.1585,0.00,0.00,0.00,3,S01
20720,-3.26809,0.96247,1.03190,55.6098,-32.4390,-4.9390,0.00,0.00,0.00,3,S01
20740,-1.75974,1.01035,0.78290,55.9146,-47.5000,8.7805,0.00,0.00,0.00,3,S01
20760,-1.21386,-0.11013,-0.07183,45.1829,-65.4268,25.7927,0.00,0.00,0.00,3,S01
20780,-1.13006,-1.08936,-1.46525,35.6098,-84.4512,30.3049,0.00,0.00,0.00,3,S01
20800,-2.58095,-2.31998,-3.34470,29.2683,-93.6585,17.1341,0.00,0.00,0.00,3,S01
20820,-8.38210,-7.53695,-9.49780,30.1220,-81.2805,-20.4878,0.00,0.00,0.00,3,S01
20840,-15.46415,1.14443,-9.49062,-2.3171,15.9756,-111.9512,0.00,0.00,0.00,3,S01
20860,-20.22622,7.72609,4.78840,-29.5122,156.4024,-112.5610,0.00,0.00,0.00,3,S01
20880,-18.73942,-0.13886,7.15387,-62.2561,124.6951,-25.0000,0.00,0.00,0.00,3,S01
20900,-18.06425,-2.65278,1.70707,-65.5488,27.5610,9.6341,0.00,0.00,0.00,3,S01
20920,-18.28212,-0.34955,2.83713,-54.8171,29.1463,20.0610,0.00,0.00,0.00,3,S01
20940,-16.91025,2.01592,1.82678,-48.4146,35.0000,36.1585,0.00,0.00,0.00,3,S01
20960,-14.32451,2.54504,0.11253,-57.1951,24.2073,58.7805,0.00,0.00,0.00,3,S01
20980,-11.79863,1.65439,-0.48842,-66.4024,20.9146,78.9634,0.00,0.00,0.00,3,S01
21000,-9.23444,0.41180,0.17238,-70.7317,25.0610,83.1098,0.00,0.00,0.00,3,S01
21020,-8.04452,-0.07661,0.45490,-64.0244,22.6829,66.4634,0.00,0.00,0.00,3,S01
21040,-6.51462,-0.80206,1.48201,-52.6220,12.6829,51.7683,0.00,0.00,0.00,3,S01
21060,-4.90093,-1.08457,1.70467,-43.9024,-11.5854,48.6585,0.00,0.00,0.00,3,S01
21080,-3.33991,-1.17316,1.26414,-44.1463,-41.4634,53.1098,0.00,0.00,0.00,3,S01
21100,-1.75974,-1.54665,0.90022,-40.0610,-64.0244,52.8659,0.00,0.00,0.00,3,S01
21120,-0.62249,-1.89860,0.19632,-18.4756,-78.9024,42.8049,0.00,0.00,0.00,3,S01
21140,-0.35195,-0.95768,-0.69911,2.3780,-91.4024,25.0610,0.00,0.00,0.00,3,S01
21160,-1.90578,0.39744,-2.41336,16.4024,-99.6341,10.7317,0.00,0.00,0.00,3,S01
21180,-7.22810,-0.93853,-7.22810,31.2805,-90.9146,-4.8780,0.00,0.00,0.00,3,S01
21200,-14.20001,-2.21464,-10.58477,18.1707,-22.6220,-34.8780,0.00,0.00,0.00,3,S01
21220,-18.31085,-0.93134,6.36139,6.1585,99.8781,-48.1098,0.00,0.00,0.00,3,S01
21240,-17.79850,0.66319,1.04866,27.5000,20.4268,-37.8049,0.00,0.00,0.00,3,S01
21260,-18.42099,-1.15640,3.65355,11.3415,21.7073,-32.0122,0.00,0.00,0.00,3,S01
21280,-17.32444,-2.51631,3.73974,16.8293,29.2073,-35.9756,0.00,0.00,0.00,3,S01
21300,-14.12818,-2.61926,2.45885,30.9146,14.8171,-43.5976,0.00,0.00,0.00,3,S01
21320,-10.98220,-2.41814,1.28329,42.6829,1.5244,-46.9512,0.00,0.00,0.00,3,S01
21340,-8.84179,-2.58095,0.90022,45.1829,-2.3780,-39.9390,0.00,0.00,0.00,3,S01
21360,-7.83622,-1.66636,0.56982,38.9024,-1.5854,-29.5122,0.00,0.00,0.00,3,S01
21380,-7.11557,0.45011,0.85712,28.2927,4.0244,-16.6463,0.00,0.00,0.00,3,S01
21400,-5.59285,1.31921,1.90818,19.3902,5.9146,1.5854,0.00,0.00,0.00,3,S01
21420,-3.51708,0.37828,2.37744,26.3415,-8.5976,20.1220,0.00,0.00,0.00,3,S01
21440,-1.55384,0.10056,2.50912,34.3902,-35.9756,31.7683,0.00,0.00,0.00,3,S01
21460,-0.98162,-1.29766,1.50116,38.2927,-76.2195,40.1220,0.00,0.00,0.00,3,S01
21480,-1.08697,-2.39660,-0.70390,50.7317,-119.5122,34.2683,0.00,0.00,0.00,3,S01
21500,-2.50673,-2.64080,-3.23696,55.6707,-144.5732,11.5854,0.00,0.00,0.00,3,S01
21520,-7.48667,-6.26802,-9.06684,52.2561,-133.5976,-26.5854,0.00,0.00,0.00,3,S01
21540,-13.87200,1.11330,-10.47463,19.8780,-27.0732,-108.7805,0.00,0.00,0.00,3,S01
21560,-19.80244,6.98628,-4.55138,-16.0976,150.6707,-124.8171,0.00,0.00,0.00,3,S01
21580,-19.42655,-0.48602,10.67814,-51.4634,210.7927,-47.1341,0.00,0.00,0.00,3,S01
21600,-18.74181,-3.16274,4.41730,-51.8293,80.6707,-7.8049,0.00,0.00,0.00,3,S01
21620,-18.27255,-1.24977,2.97360,-36.9512,35.6707,8.1098,0.00,0.00,0.00,3,S01
21640,-16.69956,2.02789,2.62644,-24.6951,39.1463,26.0976,0.00,0.00,0.00,3,S01
21660,-14.50647,3.54102,0.90501,-28.1707,30.4268,52.9878,0.00,0.00,0.00,3,S01
21680,-11.20965,1.88424,0.18914,-38.7805,28.7195,84.9390,0.00,0.00,0.00,3,S01
21700,-8.64786,-0.29928,0.30167,-45.3049,35.0610,91.4634,0.00,0.00,0.00,3,S01
21720,-8.61673,-0.39504,1.93212,-40.7927,42.5000,63.4756,0.00,0.00,0.00,3,S01
21740,-7.56328,-0.80206,2.38702,-30.3659,31.0976,36.7073,0.00,0.00,0.00,3,S01
21760,-6.09085,-0.49560,1.65439,-24.0244,1.3415,25.3049,0.00,0.00,0.00,3,S01
21780,-4.17309,-0.09098,1.57060,-24.1463,-33.0488,24.8780,0.00,0.00,0.00,3,S01
21800,-2.09971,-0.78051,1.23301,-19.6341,-66.9512,30.5488,0.00,0.00,0.00,3,S01
21820,-0.71347,-1.27611,0.30646,0.6707,-91.7073,30.3049,0.00,0.00,0.00,3,S01
21840,-0.54348,-0.27533,-1.09654,19.3902,-109.2683,19.4512,0.00,0.00,0.00,3,S01
21860,-3.46920,-0.04310,-4.46997,28.5976,-115.9146,5.2439,0.00,0.00,0.00,3,S01
21880,-9.58878,-2.00874,-9.42358,23.2317,-85.4268,-19.8780,0.00,0.00,0.00,3,S01
21900,-15.67484,-3.55539,-8.85615,-2.3171,31.0366,-47.9268,0.00,0.00,0.00,3,S01
21920,-17.46331,-2.82516,10.55604,-12.0732,140.0000,-57.1951,0.00,0.00,0.00,3,S01
21940,-16.74505,1.23541,2.99036,31.5244,53.8415,-47.6829,0.00,0.00,0.00,3,S01
21960,-15.84722,1.31921,-0.58419,32.0122,2.9878,-28.8415,0.00,0.00,0.00,3,S01
21980,-15.76103,-0.79487,2.92093,2.9268,16.2805,-24.8780,0.00,0.00,0.00,3,S01
22000,-14.95179,-1.98958,3.12204,0.2439,21.0366,-33.5366,0.00,0.00,0.00,3,S01
22020,-12.89756,-1.69988,2.02071,10.3049,8.7805,-42.0732,0.00,0.00,0.00,3,S01
22040,-10.48421,-2.15478,1.09654,17.9268,1.4634,-40.6098,0.00,0.00,0.00,3,S01
22060,-8.65265,-2.86347,0.88825,24.4512,6.2805,-36.2195,0.00,0.00,0.00,3,S01
22080,-7.46033,-2.28167,0.80206,31.9512,12.3171,-31.7073,0.00,0.00,0.00,3,S01
22100,-6.55054,-0.70629,1.09176,32.8659,19.6951,-21.4024,0.00,0.00,0.00,3,S01
22120,-5.55934,0.43096,1.66636,23.9634,19.1463,-4.0244,0.00,0.00,0.00,3,S01
22140,-4.61602,0.04549,1.86508,15.2439,3.1707,11.0976,0.00,0.00,0.00,3,S01
22160,-3.33033,0.55306,2.16915,14.6341,-16.8293,15.9146,0.00,0.00,0.00,3,S01
22180,-2.67193,0.38307,1.69031,17.0732,-36.1585,23.1098,0.00,0.00,0.00,3,S01
22200,-2.37984,-1.66876,0.29928,23.5366,-59.0854,30.7927,0.00,0.00,0.00,3,S01
22220,-3.78523,-4.42448,-2.14760,35.1829,-76.7683,20.3049,0.00,0.00,0.00,3,S01
22240,-10.13226,-9.58399,-8.54012,55.6707,-67.0122,-28.2317,0.00,0.00,0.00,3,S01
22260,-16.63491,1.56341,-9.37809,44.9390,29.2683,-130.7927,0.00,0.00,0.00,3,S01
22280,-19.64682,9.05008,6.31830,11.4634,128.4756,-125.9146,0.00,0.00,0.00,3,S01
22300,-16.54393,1.48680,2.10929,-22.9268,50.3659,-24.1463,0.00,0.00,0.00,3,S01
22320,-14.53520,-5.26006,-1.16598,-45.6707,-8.8415,15.6098,0.00,0.00,0.00,3,S01
22340,-15.75385,-2.54982,1.32878,-32.6220,18.1098,9.3293,0.00,0.00,0.00,3,S01
22360,-14.97573,0.63207,0.69671,-6.7073,36.4024,17.9268,0.00,0.00,0.00,3,S01
22380,-12.69406,1.13964,-0.11492,-13.7805,24.8171,39.9390,0.00,0.00,0.00,3,S01
22400,-10.75475,2.35111,0.05028,-24.6951,13.2317,56.5854,0.00,0.00,0.00,3,S01
22420,-8.24324,1.24738,0.35434,-30.8537,9.1463,71.9512,0.00,0.00,0.00,3,S01
22440,-7.10838,0.44532,0.64643,-35.1829,9.2073,67.1341,0.00,0.00,0.00,3,S01
22460,-7.26880,-0.17478,2.05183,-30.2439,13.3537,46.9512,0.00,0.00,0.00,3,S01
22480,-6.67264,-1.07978,2.62165,-21.1585,6.4634,31.4024,0.00,0.00,0.00,3,S01
22500,-5.77960,-1.30963,2.81319,-17.9268,-9.5732,24.6341,0.00,0.00,0.00,3,S01
22520,-4.51068,-0.71347,3.60806,-22.2561,-29.3902,17.9268,0.00,0.00,0.00,3,S01
22540,-2.79643,-0.18196,0.06225,0.0000,-60.7927,3.5366,0.00,0.00,0.00,3,S01
22560,-2.88741,0.32322,-1.31681,9.5122,-61.8293,-2.0122,0.00,0.00,0.00,3,S01
22580,-5.22654,0.30646,-3.50032,18.1707,-58.1707,0.6098,0.00,0.00,0.00,3,S01
22600,-9.07881,-2.07817,-6.51941,28.1707,-38.9024,5.1829,0.00,0.00,0.00,3,S01
22620,-11.60230,-3.06697,-1.94888,17.2561,22.9268,-1.9512,0.00,0.00,0.00,3,S01
22640,-13.88158,-2.16436,4.78840,11.4634,51.8293,-13.4756,0.00,0.00,0.00,3,S01
22660,-15.81610,0.67038,-0.05267,35.1220,22.1951,-20.7927,0.00,0.00,0.00,3,S01
22680,-17.96370,0.09098,1.33596,23.1707,24.8171,-21.2195,0.00,0.00,0.00,3,S01
22700,-18.86631,-1.76213,2.82276,5.3659,20.4268,-24.1463,0.00,0.00,0.00,3,S01
22720,-17.08023,-1.99198,2.68151,7.9878,6.7073,-35.1829,0.00,0.00,0.00,3,S01
22740,-13.68286,-1.37667,2.13802,15.4878,-7.9268,-46.6463,0.00,0.00,0.00,3,S01
22760,-10.52970,-1.18992,1.37667,20.4878,-13.2317,-48.7805,0.00,0.00,0.00,3,S01
22780,-8.69095,-2.24576,0.46926,20.7317,-6.7073,-44.1463,0.00,0.00,0.00,3,S01
22800,-8.17141,-1.98479,-0.08859,20.7317,9.6341,-41.0366,0.00,0.00,0.00,3,S01
22820,-7.38851,-0.62728,0.19872,17.8049,26.7683,-33.1098,0.00,0.00,0.00,3,S01
22840,-6.22253,0.88825,1.30005,7.5610,33.9634,-20.6098,0.00,0.00,0.00,3,S01
22860,-4.68545,0.25139,2.96402,0.0610,25.4878,-6.5244,0.00,0.00,0.00,3,S01
22880,-2.75094,-0.85952,3.90494,7.0732,1.8293,1.0976,0.00,0.00,0.00,3,S01
22900,-1.58496,-0.69911,2.78446,19.2073,-24.4512,4.3293,0.00,0.00,0.00,3,S01
22920,-1.51553,-1.47243,0.60334,28.9024,-49.9390,11.2195,0.00,0.00,0.00,3,S01
22940,-1.84354,-1.23301,-1.96803,40.7317,-66.5854,11.1585,0.00,0.00,0.00,3,S01
22960,-5.64313,-3.33273,-4.99430,34.1463,-61.8902,-0.3049,0.00,0.00,0.00,3,S01
22980,-12.80419,-4.43406,-9.56484,32.3171,-13.3537,-45.1220,0.00,0.00,0.00,3,S01
23000,-19.30684,6.88572,2.05901,11.4024,98.5366,-111.7683,0.00,0.00,0.00,3,S01
23020,-18.59576,5.72932,4.35984,-15.0610,67.5610,-63.1098,0.00,0.00,0.00,3,S01
23040,-15.89750,-0.94332,-2.12845,-29.0854,-23.2927,5.0000,0.00,0.00,0.00,3,S01
23060,-14.26944,-4.26168,-0.30646,-47.8659,-17.7439,24.3293,0.00,0.00,0.00,3,S01
23080,-14.77701,-1.49877,1.92733,-30.1220,18.1707,20.5488,0.00,0.00,0.00,3,S01
23100,-13.08671,0.44532,0.10295,-9.0854,21.7073,30.3659,0.00,0.00,0.00,3,S01
23120,-10.83855,1.37667,0.05746,-10.8537,18.3537,44.8780,0.00,0.00,0.00,3,S01
23140,-8.73165,1.33596,-0.17717,-16.5854,16.2195,60.4878,0.00,0.00,0.00,3,S01
23160,-7.43639,0.61292,-0.56024,-22.0122,21.1585,66.5244,0.00,0.00,0.00,3,S01
23180,-7.16106,0.38307,0.35434,-28.2317,33.1707,54.5122,0.00,0.00,0.00,3,S01
23200,-7.74285,0.22745,2.40138,-29.0244,38.9024,33.8415,0.00,0.00,0.00,3,S01
23220,-7.46512,0.10295,3.47159,-27.9268,23.2927,20.3049,0.00,0.00,0.00,3,S01
23240,-6.37097,0.42856,2.61926,-29.6341,-6.0976,13.7195,0.00,0.00,0.00,3,S01
23260,-4.65193,-0.12450,2.01831,-32.2561,-26.2805,10.9756,0.00,0.00,0.00,3,S01
23280,-3.31358,-1.31921,0.89543,-22.4390,-38.5976,5.6098,0.00,0.00,0.00,3,S01
23300,-3.84988,-0.64165,-0.45250,-7.5610,-44.3293,-6.9512,0.00,0.00,0.00,3,S01
23320,-5.37259,0.92416,-1.77650,3.6585,-40.4268,-7.3780,0.00,0.00,0.00,3,S01
23340,-8.49463,-0.16041,-4.22337,10.2439,-30.3659,8.7195,0.00,0.00,0.00,3,S01
23360,-10.51294,-2.91853,2.05422,16.2805,5.3049,17.1951,0.00,0.00,0.00,3,S01
23380,-12.84489,-2.27210,2.08056,28.4756,-1.6463,5.4878,0.00,0.00,0.00,3,S01
23400,-14.65491,0.78290,-1.55863,42.1341,-14.9390,-5.7317,0.00,0.00,0.00,3,S01
23420,-15.29655,1.37427,-0.04788,28.9634,0.7317,-7.8049,0.00,0.00,0.00,3,S01
23440,-15.93820,-0.06464,1.02711,7.6829,8.3537,-14.3293,0.00,0.00,0.00,3,S01
23460,-15.37796,-1.16358,1.02232,-0.4268,13.5366,-28.4756,0.00,0.00,0.00,3,S01
23480,-13.68526,-1.13246,0.89064,-2.2561,13.7805,-43.7195,0.00,0.00,0.00,3,S01
23500,-11.54723,-1.71664,0.49321,-2.9268,11.6463,-50.3659,0.00,0.00,0.00,3,S01
23520,-9.87848,-2.62644,0.73981,2.2561,18.8415,-50.0000,0.00,0.00,0.00,3,S01
23540,-9.14106,-2.95205,1.35512,8.2317,27.0732,-45.2439,0.00,0.00,0.00,3,S01
23560,-8.75320,-1.99916,2.42772,10.8537,29.4512,-36.5854,0.00,0.00,0.00,3,S01
23580,-7.80270,-0.11253,3.10767,10.4268,19.5732,-24.8171,0.00,0.00,0.00,3,S01
23600,-6.29675,1.35033,2.88980,6.4024,-4.9390,-8.1098,0.00,0.00,0.00,3,S01
23620,-4.45800,1.83396,2.91614,0.2439,-29.5732,12.1951,0.00,0.00,0.00,3,S01
23640,-2.94247,0.68953,2.17633,2.7439,-52.3781,34.9390,0.00,0.00,0.00,3,S01
23660,-2.09493,-1.44849,0.65362,10.4268,-76.8902,49.5122,0.00,0.00,0.00,3,S01
23680,-1.88663,-2.34153,-1.55623,18.5976,-98.3537,42.1951,0.00,0.00,0.00,3,S01
23700,-4.00789,-3.89058,-4.29520,17.9268,-99.9390,14.3902,0.00,0.00,0.00,3,S01
23720,-9.56005,-5.33668,-9.07642,18.2317,-66.5854,-40.2439,0.00,0.00,0.00,3,S01
23740,-14.93982,4.16352,-7.66863,-3.5976,42.5000,-115.5488,0.00,0.00,0.00,3,S01
23760,-16.12255,2.36547,8.41562,-27.1951,132.5610,-87.8659,0.00,0.00,0.00,3,S01
23780,-15.05235,-3.35428,3.17471,-28.5366,51.8293,-29.3293,0.00,0.00,0.00,3,S01
23800,-15.98848,-3.15077,3.34949,-21.3415,17.0122,-5.3659,0.00,0.00,0.00,3,S01
23820,-17.02756,-0.24900,3.06218,-4.0244,29.0854,8.7195,0.00,0.00,0.00,3,S01
23840,-15.47851,2.50912,1.71185,1.9512,24.6341,22.8049,0.00,0.00,0.00,3,S01
23860,-9.65582,1.16119,0.15562,-25.1829,8.2927,63.2927,0.00,0.00,0.00,3,S01
23880,-8.64307,-0.78530,-0.31364,-31.0976,25.4878,67.4390,0.00,0.00,0.00,3,S01
23900,-9.54568,0.07901,1.50835,-30.5488,45.6707,51.2805,0.00,0.00,0.00,3,S01
23920,-9.63906,0.69911,3.32794,-22.9268,38.3537,36.5244,0.00,0.00,0.00,3,S01
23940,-7.55371,0.57461,2.18112,-15.1829,5.7317,31.1585,0.00,0.00,0.00,3,S01
23960,-5.73172,0.37350,1.17555,-9.8780,-21.3415,30.5488,0.00,0.00,0.00,3,S01
23980,-4.00789,-0.18435,0.71108,-6.0976,-38.5976,35.4268,0.00,0.00,0.00,3,S01
24000,-3.06697,-0.74220,-0.09337,-2.2561,-56.9512,36.7683,0.00,0.00,0.00,3,S01
24020,-2.37265,0.00239,-0.65841,5.6707,-72.0732,23.5366,0.00,0.00,0.00,3,S01
24040,-3.05500,0.35674,-1.83635,16.7683,-79.3902,10.1829,0.00,0.00,0.00,3,S01
24060,-5.80594,-1.10133,-4.31196,28.9024,-72.9878,4.0854,0.00,0.00,0.00,3,S01
24080,-9.60793,-2.74136,-6.64152,30.6098,-42.0732,-5.1829,0.00,0.00,0.00,3,S01
24100,-12.28704,-1.73340,-2.20506,8.9634,29.5732,-11.8902,0.00,0.00,0.00,3,S01
24120,-13.29979,-0.38547,6.84263,-4.3902,60.3049,-8.5976,0.00,0.00,0.00,3,S01
24140,-13.65413,2.36547,1.62327,10.0000,9.3293,-9.3902,0.00,0.00,0.00,3,S01
24160,-15.81370,1.19231,1.98000,-10.6707,11.9512,-11.7073,0.00,0.00,0.00,3,S01
24180,-17.39866,-1.39103,5.36062,-33.7195,34.0854,-22.4390,0.00,0.00,0.00,3,S01
24200,-15.50246,-2.04225,4.13479,-26.7683,28.1098,-41.2195,0.00,0.00,0.00,3,S01
24220,-12.57914,-2.81079,2.94726,-15.0000,28.5366,-54.6951,0.00,0.00,0.00,3,S01
24240,-10.57998,-2.69827,1.66158,0.4268,41.8902,-61.1585,0.00,0.00,0.00,3,S01
24260,-9.55526,-3.37104,1.34315,5.3049,51.7683,-54.1463,0.00,0.00,0.00,3,S01
24280,-9.00459,-2.51631,0.99838,1.6463,50.1829,-42.3171,0.00,0.00,0.00,3,S01
24300,-7.91044,-0.36631,1.23780,2.8049,47.2561,-28.7805,0.00,0.00,0.00,3,S01
24320,-6.10043,1.66158,2.07577,6.0366,37.9268,-11.2805,0.00,0.00,0.00,3,S01
24340,-4.04141,1.39343,2.20745,14.2073,11.8293,10.0610,0.00,0.00,0.00,3,S01
24360,-2.22421,0.35674,1.90339,18.4756,-24.5122,26.8902,0.00,0.00,0.00,3,S01
24380,-1.19950,-0.63686,1.13964,15.1829,-60.4878,35.7927,0.00,0.00,0.00,3,S01
24400,-1.20668,-1.86029,-0.54588,18.2317,-92.2561,34.3293,0.00,0.00,0.00,3,S01
24420,-4.07972,-5.36062,-4.01268,30.9146,-114.0854,17.2561,0.00,0.00,0.00,3,S01
24440,-10.26634,-5.83467,-10.14663,38.4756,-107.1951,-39.9390,0.00,0.00,0.00,3,S01
24460,-15.65568,4.72137,-8.91601,0.4878,0.4878,-115.3049,0.00,0.00,0.00,3,S01
24480,-16.51281,3.91213,6.76601,-27.1951,141.7683,-71.7683,0.00,0.00,0.00,3,S01
24500,-16.34043,-2.55940,5.01585,-51.0976,102.1951,-9.6951,0.00,0.00,0.00,3,S01
24520,-17.60217,-2.25534,2.98557,-42.7439,40.4878,1.0976,0.00,0.00,0.00,3,S01
24540,-18.16241,0.44293,2.43011,-34.3902,35.9756,11.4634,0.00,0.00,0.00,3,S01
24560,-16.92222,2.58334,1.38145,-32.3780,36.0976,34.1463,0.00,0.00,0.00,3,S01
24580,-13.66371,1.89621,0.91937,-45.4268,23.7195,65.4268,0.00,0.00,0.00,3,S01
24600,-10.47463,1.14203,0.60094,-58.7195,9.6341,85.4268,0.00,0.00,0.00,3,S01
24620,-8.10437,0.89304,0.15323,-60.8537,9.6341,87.1341,0.00,0.00,0.00,3,S01
24640,-6.98149,0.09577,0.55785,-59.0854,17.8049,71.0366,0.00,0.00,0.00,3,S01
24660,-6.05254,-0.81642,1.22344,-52.7439,18.2927,46.2805,0.00,0.00,0.00,3,S01
24680,-5.14514,-0.96486,1.38624,-42.0122,5.5488,26.1585,0.00,0.00,0.00,3,S01
24700,-3.82593,-0.93134,1.52511,-34.8780,-16.1585,18.6585,0.00,0.00,0.00,3,S01
24720,-2.70305,-0.88585,1.04387,-27.6220,-42.6829,18.2927,0.00,0.00,0.00,3,S01
24740,-1.75974,-0.93374,0.22266,-12.7439,-62.6829,15.1220,0.00,0.00,0.00,3,S01
24760,-1.45807,-0.74460,-0.62489,1.7683,-70.3049,8.8415,0.00,0.00,0.00,3,S01
24780,-3.51708,-0.48602,-2.55701,14.8780,-65.6098,3.4146,0.00,0.00,0.00,3,S01
24800,-8.25760,-1.98958,-6.39252,25.5488,-46.9512,-8.2927,0.00,0.00,0.00,3,S01
24820,-13.36204,-1.58736,-6.59603,10.9756,12.1951,-34.1463,0.00,0.00,0.00,3,S01
24840,-15.97651,-0.44293,6.32788,-3.1707,72.6829,-46.0976,0.00,0.00,0.00,3,S01
24860,-16.81208,1.06303,2.26731,15.1220,27.8659,-39.3293,0.00,0.00,0.00,3,S01
24880,-17.97088,-0.29928,2.23858,14.9390,10.8537,-29.4512,0.00,0.00,0.00,3,S01
24900,-17.98764,-3.11486,3.53863,6.8902,17.3780,-25.3049,0.00,0.00,0.00,3,S01
24920,-16.34521,-3.83072,2.80840,23.7805,20.2439,-35.4878,0.00,0.00,0.00,3,S01
24940,-13.56794,-2.71981,1.72861,41.6463,18.4146,-50.5488,0.00,0.00,0.00,3,S01
24960,-11.17613,-1.91536,1.07739,47.9268,15.4878,-51.3415,0.00,0.00,0.00,3,S01
24980,-9.47864,-2.05422,0.80445,44.1463,16.2805,-38.9024,0.00,0.00,0.00,3,S01
25000,-7.92720,-1.63045,1.09894,38.7195,20.8537,-22.4390,0.00,0.00,0.00,3,S01
25020,-6.38534,-0.75417,1.35512,34.0854,15.9146,-6.4024,0.00,0.00,0.00,3,S01
25040,-4.81235,-0.55545,1.49877,31.3415,-0.3049,2.0732,0.00,0.00,0.00,3,S01
25060,-3.13880,0.10295,1.67834,38.5366,-20.5488,2.1951,0.00,0.00,0.00,3,S01
25080,-1.54426,0.75178,1.73340,46.6463,-44.5732,7.9268,0.00,0.00,0.00,3,S01
25100,-0.94092,-0.68714,0.50757,46.3415,-77.4390,22.3780,0.00,0.00,0.00,3,S01
25120,-1.27132,-1.91057,-1.53229,42.9268,-107.3171,22.9878,0.00,0.00,0.00,3,S01
25140,-4.51786,-4.73573,-5.28879,46.4024,-119.8781,1.6463,0.00,0.00,0.00,3,S01
25160,-15.96933,6.30633,-8.48505,-7.7439,35.0610,-111.9512,0.00,0.00,0.00,3,S01
25180,-17.36036,1.46765,7.27837,-45.6098,169.8171,-64.3293,0.00,0.00,0.00,3,S01
25200,-17.24304,-4.36942,5.90650,-58.9024,113.5976,-19.2073,0.00,0.00,0.00,3,S01
25220,-17.90623,-3.19865,2.44687,-35.0000,38.9634,-4.7561,0.00,0.00,0.00,3,S01
25240,-18.05228,-0.38786,2.91853,-18.2317,43.7195,13.1707,0.00,0.00,0.00,3,S01
25260,-16.42422,2.56419,1.48680,-13.1098,40.2439,35.6098,0.00,0.00,0.00,3,S01
25280,-13.43147,2.82995,0.64165,-22.9268,27.9268,67.5610,0.00,0.00,0.00,3,S01
25300,-10.46984,1.62327,-0.11732,-33.9024,22.0122,92.8659,0.00,0.00,0.00,3,S01
25320,-8.33422,0.27294,0.02155,-39.5122,28.3537,91.1585,0.00,0.00,0.00,3,S01
25340,-7.61835,0.28730,1.26174,-38.6585,33.5366,61.7073,0.00,0.00,0.00,3,S01
25360,-6.64870,0.24660,2.05662,-33.6585,21.1585,35.9756,0.00,0.00,0.00,3,S01
25380,-5.09965,0.28252,1.83396,-32.8049,-3.9634,26.4634,0.00,0.00,0.00,3,S01
25400,-3.57694,-0.10056,1.29766,-33.9024,-30.8537,26.0976,0.00,0.00,0.00,3,S01
25420,-1.88184,-0.82600,0.88585,-28.7195,-51.9512,26.0366,0.00,0.00,0.00,3,S01
25440,-0.79487,-1.44131,0.24660,-11.8902,-65.7317,18.5976,0.00,0.00,0.00,3,S01
25460,-1.17076,-0.73981,-0.87388,5.9146,-76.8902,3.9634,0.00,0.00,0.00,3,S01
25480,-4.64715,-0.86670,-3.91931,22.3171,-84.0854,-11.2195,0.00,0.00,0.00,3,S01
25500,-9.99340,-2.78685,-7.78116,30.1220,-65.9146,-32.1341,0.00,0.00,0.00,3,S01
25520,-14.02044,-2.09732,-3.52666,15.9146,19.6951,-53.5366,0.00,0.00,0.00,3,S01
25540,-16.64210,-0.96726,5.79636,18.9634,85.1220,-50.1220,0.00,0.00,0.00,3,S01
25560,-17.76977,2.05901,0.57461,42.3171,39.6341,-36.5854,0.00,0.00,0.00,3,S01
25580,-18.27255,0.43335,2.03028,18.9024,21.3415,-27.5000,0.00,0.00,0.00,3,S01
25600,-17.26459,-1.53947,2.88741,3.4146,16.2805,-31.4634,0.00,0.00,0.00,3,S01
25620,-14.80574,-2.23858,1.92733,12.3780,13.0488,-42.1341,0.00,0.00,0.00,3,S01
25640,-12.02608,-2.84910,1.33836,22.8659,11.1585,-50.1829,0.00,0.00,0.00,3,S01
25660,-9.83059,-3.21781,1.12767,29.2073,9.2683,-46.8293,0.00,0.00,0.00,3,S01
25680,-8.21929,-2.97120,1.13246,27.2561,10.1829,-34.7561,0.00,0.00,0.00,3,S01
25700,-6.98389,-1.44849,1.38624,20.0000,8.5366,-24.0854,0.00,0.00,0.00,3,S01
25720,-5.58807,0.43574,1.79805,18.7805,3.7805,-17.2561,0.00,0.00,0.00,3,S01
25740,-4.19943,1.31442,1.88663,25.6098,-11.2195,-9.8171,0.00,0.00,0.00,3,S01
25760,-2.96642,1.11809,1.75974,33.3537,-32.6829,2.5000,0.00,0.00,0.00,3,S01
25780,-2.05183,-0.50278,1.28569,33.9634,-54.4512,18.4756,0.00,0.00,0.00,3,S01
25800,-1.49638,-1.70946,0.21308,38.2317,-75.0610,24.0244,0.00,0.00,0.00,3,S01
25820,-1.50356,-0.92177,-1.03190,42.5610,-89.0244,14.6951,0.00,0.00,0.00,3,S01
25840,-5.30316,-4.97276,-4.94642,40.1220,-95.3659,-3.4756,0.00,0.00,0.00,3,S01
25860,-11.74356,-3.46920,-9.55287,35.9146,-60.1220,-67.0122,0.00,0.00,0.00,3,S01
25880,-17.34120,6.14113,-7.87214,6.6463,56.6463,-122.9878,0.00,0.00,0.00,3,S01
25900,-17.91581,1.84354,8.78433,-31.5854,151.1585,-60.0000,0.00,0.00,0.00,3,S01
25920,-18.35156,-2.75333,3.48596,-55.3049,74.6951,-6.8902,0.00,0.00,0.00,3,S01
25940,-20.42493,-0.72305,2.85868,-43.5976,42.0122,4.9390,0.00,0.00,0.00,3,S01
25960,-19.07939,1.64960,2.20267,-33.2317,37.8659,23.5976,0.00,0.00,0.00,3,S01
25980,-16.25663,3.26569,0.64643,-35.8537,18.8415,48.4146,0.00,0.00,0.00,3,S01
26000,-12.66533,2.17394,-0.45490,-52.2561,4.3902,79.3293,0.00,0.00,0.00,3,S01
26020,-9.49540,0.56743,-0.28970,-63.4756,6.0976,91.4024,0.00,0.00,0.00,3,S01
26040,-7.71412,-0.05986,0.33998,-62.7439,16.0976,75.9756,0.00,0.00,0.00,3,S01
26060,-6.64630,-0.43335,1.24259,-51.4634,22.6220,54.3902,0.00,0.00,0.00,3,S01
26080,-5.36780,-0.97205,1.60412,-42.5000,12.1951,44.9390,0.00,0.00,0.00,3,S01
26100,-3.90494,-0.82361,1.69509,-44.6341,-13.1707,42.2561,0.00,0.00,0.00,3,S01
26120,-2.57377,-0.70150,1.54905,-46.9512,-45.3659,37.9268,0.00,0.00,0.00,3,S01
26140,-1.30005,-1.23541,0.68953,-31.0366,-75.6707,31.2805,0.00,0.00,0.00,3,S01
26160,-0.54348,-0.97444,-0.23942,-10.4878,-97.1951,20.1220,0.00,0.00,0.00,3,S01
26180,-0.83079,-0.22505,-1.59214,4.5732,-109.2683,10.0000,0.00,0.00,0.00,3,S01
26200,-4.23055,-0.77572,-5.22894,16.6463,-103.8415,0.3049,0.00,0.00,0.00,3,S01
26220,-10.41957,-2.54504,-9.17219,8.5366,-51.4024,-23.9024,0.00,0.00,0.00,3,S01
26240,-16.86715,-1.89142,-4.38857,-18.0488,75.1829,-53.5366,0.00,0.00,0.00,3,S01
26260,-19.30445,-0.77093,8.50181,-10.6098,140.0610,-56.0976,0.00,0.00,0.00,3,S01
26280,-18.33480,1.75734,1.92973,23.3537,48.9634,-37.8049,0.00,0.00,0.00,3,S01
26300,-17.53513,0.44772,1.72861,2.9878,9.2073,-24.4512,0.00,0.00,0.00,3,S01
26320,-16.81927,-1.04148,3.58412,-11.2805,11.8293,-29.6951,0.00,0.00,0.00,3,S01
26340,-14.75786,-1.39582,2.40857,-3.8415,8.6585,-38.7195,0.00,0.00,0.00,3,S01
26360,-11.81539,-1.98479,1.52750,0.7317,7.0122,-42.8049,0.00,0.00,0.00,3,S01
26380,-9.85214,-2.21703,1.01035,8.1707,11.2805,-41.6463,0.00,0.00,0.00,3,S01
26400,-8.39886,-2.93769,0.55545,16.1585,14.8171,-31.8293,0.00,0.00,0.00,3,S01
26420,-7.36456,-1.71185,1.02951,14.9390,16.3415,-21.7073,0.00,0.00,0.00,3,S01
26440,-6.01423,0.26336,2.08774,4.5122,10.5488,-11.2805,0.00,0.00,0.00,3,S01
26460,-4.28083,0.09337,2.29604,-0.1220,-9.8780,3.5366,0.00,0.00,0.00,3,S01
26480,-1.41018,-0.51954,2.15239,12.0732,-46.0976,20.6707,0.00,0.00,0.00,3,S01
26500,-1.01993,-2.24337,0.76614,24.2683,-68.5976,28.1707,0.00,0.00,0.00,3,S01
26520,-1.78368,-2.64799,-1.33596,34.5122,-86.3415,18.8415,0.00,0.00,0.00,3,S01
26540,-7.10599,-7.59680,-6.47871,39.0854,-81.5854,-11.0366,0.00,0.00,0.00,3,S01
26560,-14.08988,-0.59616,-9.80186,33.6585,-9.1463,-94.6951,0.00,0.00,0.00,3,S01
26580,-19.39303,8.98304,3.40934,-6.1585,123.7195,-130.7317,0.00,0.00,0.00,3,S01
26600,-17.14248,2.25055,5.84664,-34.0244,104.6341,-48.5976,0.00,0.00,0.00,3,S01
26620,-15.40669,-3.84269,0.29688,-41.3415,12.8659,-1.9512,0.00,0.00,0.00,3,S01
26640,-17.14488,-2.92811,2.60729,-38.2927,17.7439,3.9024,0.00,0.00,0.00,3,S01
26660,-16.47450,-0.03112,1.34315,-10.5488,32.6829,14.7561,0.00,0.00,0.00,3,S01
26680,-13.90552,1.82917,0.25618,-11.0976,20.9756,32.3780,0.00,0.00,0.00,3,S01
26700,-11.79623,3.65834,-0.25618,-21.7073,7.6829,51.5244,0.00,0.00,0.00,3,S01
26720,-9.44991,2.11408,-1.00078,-31.4024,5.4268,75.7927,0.00,0.00,0.00,3,S01
26740,-7.83862,0.28730,-1.11091,-41.3415,12.9268,78.0488,0.00,0.00,0.00,3,S01
26760,-7.43639,0.05028,0.42138,-45.2439,24.0854,52.8659,0.00,0.00,0.00,3,S01
26780,-6.80911,0.13886,2.48039,-41.2195,27.8659,33.4146,0.00,0.00,0.00,3,S01
26800,-5.59046,-0.06943,1.96085,-38.1098,13.4146,32.9878,0.00,0.00,0.00,3,S01
26820,-4.34308,-0.46448,1.52271,-42.6220,-6.3415,36.1585,0.00,0.00,0.00,3,S01
26840,-2.93290,-1.40779,1.87705,-42.7439,-22.4390,29.7561,0.00,0.00,0.00,3,S01
26860,-2.20506,-1.47243,1.24498,-27.3780,-36.7683,12.2561,0.00,0.00,0.00,3,S01
26880,-2.39660,-0.31125,0.30167,-10.1829,-43.6585,-3.7805,0.00,0.00,0.00,3,S01
26900,-4.23055,1.17316,-1.63524,1.2195,-46.0976,-3.6585,0.00,0.00,0.00,3,S01
26920,-8.39168,-0.37828,-5.84425,9.5732,-44.0244,5.2439,0.00,0.00,0.00,3,S01
26940,-11.52329,-3.00472,-4.04381,-0.9756,0.0610,1.1585,0.00,0.00,0.00,3,S01
26960,-13.44823,-3.59849,5.98550,-9.8780,34.6341,-14.1463,0.00,0.00,0.00,3,S01
26980,-15.69399,-0.96247,-0.45490,26.7683,8.4146,-23.5366,0.00,0.00,0.00,3,S01
27000,-18.16002,-0.06464,1.45089,25.3659,22.0732,-21.1585,0.00,0.00,0.00,3,S01
27020,-18.86391,-1.72143,2.95923,6.7073,15.0000,-22.2561,0.00,0.00,0.00,3,S01
27040,-17.01799,-2.66714,2.41814,13.2927,2.5000,-34.5122,0.00,0.00,0.00,3,S01
27060,-13.92947,-2.17154,2.06620,26.3415,0.9146,-48.5976,0.00,0.00,0.00,3,S01
27080,-11.36767,-2.17394,0.94571,35.4268,-1.7683,-54.0244,0.00,0.00,0.00,3,S01
27100,-9.21528,-2.31519,0.79727,37.9878,3.7195,-50.0000,0.00,0.00,0.00,3,S01
27120,-7.68778,-2.05422,0.78530,36.4024,7.4390,-40.2439,0.00,0.00,0.00,3,S01
27140,-6.71095,-0.57221,0.79009,28.6585,8.1098,-30.6098,0.00,0.00,0.00,3,S01
27160,-5.45878,1.33118,1.38624,19.2683,9.7561,-20.2439,0.00,0.00,0.00,3,S01
27180,-4.11324,0.96247,2.08056,11.9512,5.1829,-8.0488,0.00,0.00,0.00,3,S01
27200,-2.60250,0.43814,3.11964,11.5854,-3.7195,2.7439,0.00,0.00,0.00,3,S01
27220,-1.63045,0.00958,2.61207,13.8415,-25.9756,16.2195,0.00,0.00,0.00,3,S01
27240,-1.06063,-1.13485,1.25456,16.2805,-52.5000,27.5000,0.00,0.00,0.00,3,S01
27260,-1.63285,-1.13246,-0.44053,16.7073,-69.3902,23.1707,0.00,0.00,0.00,3,S01
27280,-6.79714,-6.48350,-5.24330,23.6585,-74.1463,3.7805,0.00,0.00,0.00,3,S01
27300,-13.35486,-3.44286,-10.09635,32.6829,-32.8659,-63.8415,0.00,0.00,0.00,3,S01
27320,-17.90145,6.76601,-1.67115,-5.3659,81.2805,-111.2805,0.00,0.00,0.00,3,S01
27340,-16.41944,1.50835,6.14113,-35.4268,100.9756,-48.2317,0.00,0.00,0.00,3,S01
27360,-15.96693,-3.83072,0.80924,-36.8902,16.1585,-4.6951,0.00,0.00,0.00,3,S01
27380,-17.97806,-2.14999,2.92332,-31.8902,10.3049,2.7439,0.00,0.00,0.00,3,S01
27400,-17.73864,0.81642,2.07338,-14.3293,21.5854,17.1341,0.00,0.00,0.00,3,S01
27420,-15.51922,2.45166,0.86191,-14.3902,20.3659,42.3780,0.00,0.00,0.00,3,S01
27440,-12.47140,2.24337,0.48123,-26.6463,21.0366,70.6098,0.00,0.00,0.00,3,S01
27460,-9.78031,1.18034,-0.04070,-38.5366,25.1829,86.7073,0.00,0.00,0.00,3,S01
27480,-8.12353,1.15401,-0.30885,-45.5488,34.7561,77.1951,0.00,0.00,0.00,3,S01
27500,-7.61356,0.86670,-0.01676,-47.3171,43.3537,56.2805,0.00,0.00,0.00,3,S01
27520,-6.77559,-0.22745,1.10133,-44.2683,41.6463,40.9146,0.00,0.00,0.00,3,S01
27540,-5.20499,-1.01035,2.18830,-43.8415,22.6220,34.1463,0.00,0.00,0.00,3,S01
27560,-3.52426,-1.38624,2.31280,-48.4756,-9.0854,29.2073,0.00,0.00,0.00,3,S01
27580,-1.91536,-1.47243,1.85790,-41.8293,-36.8293,19.6341,0.00,0.00,0.00,3,S01
27600,-0.74939,-1.26414,1.08936,-23.2317,-58.1098,4.7561,0.00,0.00,0.00,3,S01
27620,-0.82361,-0.43814,0.05267,-2.1341,-72.1951,-9.2073,0.00,0.00,0.00,3,S01
27640,-3.14598,0.67038,-2.24576,16.4024,-79.2073,-13.1707,0.00,0.00,0.00,3,S01
27660,-7.90565,-1.25456,-6.78277,25.8537,-74.1463,-15.4268,0.00,0.00,0.00,3,S01
27680,-12.95742,-2.09732,-8.56645,6.6463,-13.9634,-34.7561,0.00,0.00,0.00,3,S01
27700,-16.60139,-0.43335,3.55060,-7.1951,97.8659,-47.8049,0.00,0.00,0.00,3,S01
27720,-18.79448,0.88107,4.56574,2.8049,92.0732,-35.0610,0.00,0.00,0.00,3,S01
27740,-19.36191,0.38307,2.30562,6.1585,37.3780,-22.0122,0.00,0.00,0.00,3,S01
27760,-18.92616,-1.45089,3.10289,-4.8171,23.7195,-24.2683,0.00,0.00,0.00,3,S01
27780,-14.31733,-1.80283,2.12126,9.2683,18.2317,-51.0976,0.00,0.00,0.00,3,S01
27800,-11.75792,-1.44131,1.14682,14.1463,11.0976,-51.1585,0.00,0.00,0.00,3,S01
27820,-9.61033,-1.51074,1.13246,10.4878,7.0732,-33.5976,0.00,0.00,0.00,3,S01
27840,-7.57286,-1.51553,1.17795,4.1463,0.9756,-6.5244,0.00,0.00,0.00,3,S01
27860,-5.82270,-1.01514,1.59214,-1.4024,-6.8293,10.6098,0.00,0.00,0.00,3,S01
27880,-4.17549,-0.47884,1.82438,10.5488,-20.0000,18.5976,0.00,0.00,0.00,3,S01
27900,-2.41575,-0.06704,1.94888,28.6585,-41.1585,27.8049,0.00,0.00,0.00,3,S01
27920,-0.96726,0.54109,1.56581,35.0610,-68.1707,43.7195,0.00,0.00,0.00,3,S01
27940,-0.65601,-0.62489,-0.04549,25.2439,-101.2805,59.5122,0.00,0.00,0.00,3,S01
27960,-1.19471,-1.80283,-2.35589,17.1341,-127.6220,54.3293,0.00,0.00,0.00,3,S01
27980,-4.35505,-5.07810,-6.27520,19.7561,-128.6585,23.2927,0.00,0.00,0.00,3,S01
28000,-11.10431,-6.06691,-11.44428,14.0854,-67.6829,-56.1585,0.00,0.00,0.00,3,S01
28020,-17.34599,4.68785,-8.58561,-22.9268,83.1098,-151.9512,0.00,0.00,0.00,3,S01
28040,-17.41542,4.29280,11.29345,-34.0244,181.7683,-105.0000,0.00,0.00,0.00,3,S01
28060,-14.91348,-2.39899,5.43484,-56.2195,61.0976,-19.8780,0.00,0.00,0.00,3,S01
28080,-15.40908,-3.41174,2.25534,-48.7805,10.2439,5.4878,0.00,0.00,0.00,3,S01
28100,-17.33163,-0.08140,4.11324,-23.3537,47.6829,10.9756,0.00,0.00,0.00,3,S01
28120,-16.07467,1.67115,2.09014,-12.9268,45.2439,29.8780,0.00,0.00,0.00,3,S01
28140,-13.32134,1.64482,1.33836,-17.9878,40.4268,50.9146,0.00,0.00,0.00,3,S01
28160,-11.12825,1.99437,0.99599,-29.6341,39.8780,59.3902,0.00,0.00,0.00,3,S01
28180,-10.46745,3.73735,0.72065,-39.3902,39.2683,54.9390,0.00,0.00,0.00,3,S01
28200,-9.53611,3.05740,0.66559,-47.5610,38.6585,55.5488,0.00,0.00,0.00,3,S01
28220,-7.31429,0.44772,1.37188,-53.2317,27.9878,61.2195,0.00,0.00,0.00,3,S01
28240,-5.33907,-1.91536,1.41737,-52.0122,1.8293,59.3902,0.00,0.00,0.00,3,S01
28260,-3.39019,-2.86107,1.30005,-47.5000,-26.6463,48.5366,0.00,0.00,0.00,3,S01
28280,-1.85790,-1.94888,1.63045,-37.7439,-49.3293,29.6951,0.00,0.00,0.00,3,S01
28300,-1.08936,-1.30245,0.81882,-15.3049,-68.1707,14.5122,0.00,0.00,0.00,3,S01
28320,-1.40779,-0.37589,-0.47166,7.1341,-84.7561,4.6341,0.00,0.00,0.00,3,S01
28340,-4.60644,0.75657,-3.79481,25.2439,-101.7073,-0.4878,0.00,0.00,0.00,3,S01
28360,-10.34774,-2.14520,-9.22965,28.9634,-97.4390,-8.7805,0.00,0.00,0.00,3,S01
28380,-13.84327,-4.14436,-8.81784,1.7683,-10.9756,-33.2317,0.00,0.00,0.00,3,S01
28400,-16.02679,-2.35589,8.72686,-5.3049,106.2805,-49.1463,0.00,0.00,0.00,3,S01
28420,-16.96053,1.15879,2.57856,31.0366,64.0244,-39.8171,0.00,0.00,0.00,3,S01
28440,-17.76019,0.56264,0.86191,25.4268,25.9756,-24.0854,0.00,0.00,0.00,3,S01
28460,-18.08580,-1.34554,3.94325,3.4756,21.8293,-28.5366,0.00,0.00,0.00,3,S01
28480,-16.28775,-2.02549,2.60010,15.6098,15.0610,-38.7195,0.00,0.00,0.00,3,S01
28500,-13.29500,-1.98240,1.94409,25.9146,8.8415,-46.7683,0.00,0.00,0.00,3,S01
28520,-10.70926,-2.58334,1.35272,34.8780,6.0976,-47.8049,0.00,0.00,0.00,3,S01
28540,-8.97347,-2.94966,1.25935,37.9878,9.3902,-43.8415,0.00,0.00,0.00,3,S01
28560,-7.32147,-2.44927,1.50835,36.2195,7.2561,-34.0854,0.00,0.00,0.00,3,S01
28580,-5.98790,-1.37427,1.40061,34.2073,-5.0610,-21.7073,0.00,0.00,0.00,3,S01
28600,-4.75967,0.22027,1.51074,33.2317,-16.6463,-12.6829,0.00,0.00,0.00,3,S01
28620,-3.43089,1.66397,1.80283,33.9634,-28.2317,0.3049,0.00,0.00,0.00,3,S01
28640,-2.32956,2.20506,1.76213,32.3780,-46.4024,22.8049,0.00,0.00,0.00,3,S01
28660,-1.96085,-0.33040,0.64643,27.9878,-76.8902,46.7073,0.00,0.00,0.00,3,S01
28680,-1.92733,-2.64320,-1.60890,36.4024,-111.8902,48.8415,0.00,0.00,0.00,3,S01
28700,-4.22337,-4.89614,-5.12838,40.5488,-131.7683,21.2195,0.00,0.00,0.00,3,S01
28720,-9.56723,-4.01029,-10.14902,25.3659,-104.1463,-43.7805,0.00,0.00,0.00,3,S01
28740,-15.32289,5.97114,-7.94875,-24.0244,27.0122,-114.3902,0.00,0.00,0.00,3,S01
28760,-16.65167,2.26013,7.77158,-53.1707,174.8781,-68.1098,0.00,0.00,0.00,3,S01
28780,-17.00601,-3.92410,8.15226,-73.9024,128.3537,-15.4878,0.00,0.00,0.00,3,S01
28800,-18.32522,-2.83234,2.35350,-46.8293,41.1585,-7.6220,0.00,0.00,0.00,3,S01
28820,-18.61013,0.12450,3.58173,-25.2439,41.5244,5.9146,0.00,0.00,0.00,3,S01
28840,-16.68759,2.18830,1.81241,-16.2805,33.1098,29.8780,0.00,0.00,0.00,3,S01
28860,-13.69723,1.98479,0.89064,-21.4024,21.8293,58.8415,0.00,0.00,0.00,3,S01
28880,-10.43154,1.18992,0.63446,-28.7195,21.8293,78.1707,0.00,0.00,0.00,3,S01
28900,-8.63589,1.78607,0.18196,-31.5244,31.7073,76.7683,0.00,0.00,0.00,3,S01
28920,-7.75482,2.42293,-0.04070,-36.5854,42.9878,66.4024,0.00,0.00,0.00,3,S01
28940,-6.96473,1.26414,0.17957,-43.2927,43.4756,57.3781,0.00,0.00,0.00,3,S01
28960,-5.87777,-0.75178,0.87149,-47.9878,29.8171,50.8537,0.00,0.00,0.00,3,S01
28980,-4.38857,-2.41336,1.29287,-50.2439,3.8415,43.7805,0.00,0.00,0.00,3,S01
29000,-2.76291,-2.00634,1.73580,-43.7195,-24.8780,30.7317,0.00,0.00,0.00,3,S01
29020,-1.41497,-1.10612,1.23062,-27.1951,-54.1463,18.9634,0.00,0.00,0.00,3,S01
29040,-0.78769,-0.16520,0.36152,-6.8293,-77.0732,11.4634,0.00,0.00,0.00,3,S01
29060,-2.11887,0.52194,-1.66397,12.6829,-95.0610,6.1585,0.00,0.00,0.00,3,S01
29080,-6.93600,-1.05584,-6.83305,26.6463,-101.5244,-5.2439,0.00,0.00,0.00,3,S01
29100,-15.40908,-2.88741,2.05422,-29.3293,72.8049,-51.2805,0.00,0.00,0.00,3,S01
29120,-16.41944,-0.53630,6.66067,-16.3415,87.0732,-48.2927,0.00,0.00,0.00,3,S01
29140,-17.04193,1.12527,1.00078,18.9634,29.5732,-31.5854,0.00,0.00,0.00,3,S01
29160,-18.03313,-0.57940,2.82276,3.6585,25.7317,-23.1707,0.00,0.00,0.00,3,S01
29180,-17.19755,-2.02310,3.12443,2.6829,22.5610,-31.4634,0.00,0.00,0.00,3,S01
29200,-14.96376,-1.83396,2.31280,17.9268,18.7805,-45.0000,0.00,0.00,0.00,3,S01
29220,-12.52646,-1.81241,1.68552,27.9268,15.1829,-51.4634,0.00,0.00,0.00,3,S01
29240,-10.68532,-2.33195,1.44131,34.6341,15.0610,-46.6463,0.00,0.00,0.00,3,S01
29260,-9.17937,-2.17154,1.60172,40.1829,15.0610,-36.4024,0.00,0.00,0.00,3,S01
29280,-7.61596,-0.91698,1.84593,40.3659,4.9390,-19.4512,0.00,0.00,0.00,3,S01
29300,-5.57610,0.10295,2.00634,39.3293,-16.9512,4.7561,0.00,0.00,0.00,3,S01
29320,-3.68707,-0.22984,1.46286,42.6829,-45.6707,26.0366,0.00,0.00,0.00,3,S01
29340,-2.13323,-0.84515,0.81882,43.0488,-69.8171,31.6463,0.00,0.00,0.00,3,S01
29360,-1.02472,-0.55067,0.42138,44.1463,-83.7195,29.2683,0.00,0.00,0.00,3,S01
29380,-0.98881,-1.92494,-0.66080,52.8659,-97.8659,30.8537,0.00,0.00,0.00,3,S01
29400,-1.74537,-3.29921,-3.05021,65.7317,-114.2683,20.2439,0.00,0.00,0.00,3,S01
29420,-5.86819,-6.73250,-7.50582,67.6829,-108.6585,-14.3293,0.00,0.00,0.00,3,S01
29440,-12.81377,-2.19069,-11.29584,51.0366,-33.2927,-97.1341,0.00,0.00,0.00,3,S01
29460,-19.32360,8.11874,-5.53779,9.0854,138.9024,-151.9512,0.00,0.00,0.00,3,S01
29480,-19.13925,1.73101,10.69250,-24.2073,215.6098,-78.4146,0.00,0.00,0.00,3,S01
29500,-18.21269,-3.61764,3.66792,-36.2805,91.6463,-24.9390,0.00,0.00,0.00,3,S01
29520,-18.43775,-2.60968,2.30083,-23.5976,41.7073,-6.5244,0.00,0.00,0.00,3,S01
29540,-17.57344,1.04148,2.36308,-6.9512,47.0732,14.8780,0.00,0.00,0.00,3,S01
29560,-14.87039,2.30562,0.65841,-7.9878,36.2195,44.3293,0.00,0.00,0.00,3,S01
29580,-12.30141,2.88980,-0.13886,-24.7561,24.5122,70.0000,0.00,0.00,0.00,3,S01
29600,-9.26077,1.61609,-0.10295,-37.3780,20.6098,88.9024,0.00,0.00,0.00,3,S01
29620,-7.12036,0.89304,0.02873,-44.5122,16.8293,85.5488,0.00,0.00,0.00,3,S01
29640,-6.12197,0.11253,0.22745,-45.3049,11.6463,64.6341,0.00,0.00,0.00,3,S01
29660,-5.30795,-0.25379,1.36469,-40.0000,10.7927,42.6220,0.00,0.00,0.00,3,S01
29680,-4.45800,-0.57700,2.11169,-32.7439,2.9268,30.6707,0.00,0.00,0.00,3,S01
29700,-3.61764,-0.35674,2.34153,-28.3537,-14.5732,25.0610,0.00,0.00,0.00,3,S01
29720,-2.69587,-0.92656,1.50356,-20.6707,-31.5854,23.2927,0.00,0.00,0.00,3,S01
29740,-2.44209,-0.56503,0.16281,-6.4634,-44.9390,14.7561,0.00,0.00,0.00,3,S01
29760,-3.28006,0.75896,-1.12049,1.8293,-55.2439,1.6463,0.00,0.00,0.00,3,S01
29780,-6.66067,1.20189,-3.97677,6.2805,-57.8659,-2.0122,0.00,0.00,0.00,3,S01
29800,-12.39718,0.06225,-8.14986,9.2683,-37.1341,-6.1585,0.00,0.00,0.00,3,S01
29820,-14.52562,-3.97437,1.06542,-5.6098,32.6829,-7.7439,0.00,0.00,0.00,3,S01
29840,-14.37718,-5.33907,5.96396,-3.6585,27.1951,-18.2317,0.00,0.00,0.00,3,S01
29860,-14.06833,-0.33519,-1.07978,49.9390,-22.5000,-27.3171,0.00,0.00,0.00,3,S01
29880,-15.65090,1.42455,-3.27048,42.9878,-8.9024,-17.7439,0.00,0.00,0.00,3,S01
29900,-17.23346,-0.88585,3.07416,10.5488,33.9024,-15.8537,0.00,0.00,0.00,3,S01
29920,-16.08904,-2.29125,2.97360,13.5366,30.3659,-29.2683,0.00,0.00,0.00,3,S01
29940,-13.36204,-2.15718,1.61369,31.2805,8.6585,-45.7317,0.00,0.00,0.00,3,S01
29960,-10.45069,-1.87945,1.31202,45.8537,-3.1707,-50.9756,0.00,0.00,0.00,3,S01
29980,-7.96311,-2.77009,1.13006,48.4146,-9.6951,-42.3171,0.00,0.00,0.00,3,S01
# DONE 1500 samples in 30.0s
