timestamp,ax,ay,az,gx,gy,gz,mx,my,mz,label,subject_id
0,-8.57364,1.76213,1.66876,-5.4268,10.5488,-2.0732,0.00,0.00,0.00,2,S01
20,-8.61913,1.61609,1.81720,-4.7561,9.0854,-5.4268,0.00,0.00,0.00,2,S01
40,-8.55448,1.64960,1.55623,-2.3171,8.2317,-7.1341,0.00,0.00,0.00,2,S01
60,-8.59518,1.11809,1.22344,-0.1829,8.7805,-8.1707,0.00,0.00,0.00,2,S01
80,-8.94234,0.50278,1.68312,6.1585,9.5732,-11.3415,0.00,0.00,0.00,2,S01
100,-9.29190,0.73023,1.68791,15.5488,5.6707,-15.5488,0.00,0.00,0.00,2,S01
120,-9.64145,1.04627,1.90578,20.4268,-0.9146,-16.7073,0.00,0.00,0.00,2,S01
140,-9.83059,0.81403,2.77967,25.6707,-7.4390,-14.2683,0.00,0.00,0.00,2,S01
160,-9.73961,0.97923,3.03345,37.0732,-13.9634,-11.0976,0.00,0.00,0.00,2,S01
180,-10.52970,2.30083,1.99198,45.7317,-15.7317,-7.4390,0.00,0.00,0.00,2,S01
200,-11.85848,3.83791,0.56503,42.7439,-10.0610,3.1098,0.00,0.00,0.00,2,S01
220,-12.21043,4.03423,-0.58419,34.0854,-4.3902,19.0244,0.00,0.00,0.00,2,S01
240,-10.62307,2.88501,-1.02472,26.2805,-2.4390,30.1829,0.00,0.00,0.00,2,S01
260,-8.86333,1.33836,-1.02711,19.3902,-3.1098,27.7439,0.00,0.00,0.00,2,S01
280,-8.37252,0.92656,-1.08457,18.2317,-3.0488,14.3293,0.00,0.00,0.00,2,S01
300,-8.89685,1.42934,-1.06542,17.9878,-4.9390,2.8659,0.00,0.00,0.00,2,S01
320,-9.35415,2.14760,-0.83079,11.3415,-7.5000,0.0000,0.00,0.00,0.00,2,S01
340,-9.17219,2.51631,-1.12767,0.0610,-7.3171,1.1585,0.00,0.00,0.00,2,S01
360,-9.46907,2.57856,-0.96247,-17.5610,-2.0732,-0.3049,0.00,0.00,0.00,2,S01
380,-9.82341,2.23618,-0.53870,-36.0366,-1.0976,-5.9146,0.00,0.00,0.00,2,S01
400,-9.72046,1.66876,-0.61770,-46.3415,-6.5854,-12.5610,0.00,0.00,0.00,2,S01
420,-9.39245,1.07260,-0.34237,-50.7317,-7.1951,-17.8049,0.00,0.00,0.00,2,S01
440,-9.05248,0.59376,0.16759,-52.6220,-5.0000,-19.2683,0.00,0.00,0.00,2,S01
460,-8.53054,0.43335,0.59376,-52.4390,-4.7561,-14.7561,0.00,0.00,0.00,2,S01
480,-8.36295,0.62728,0.57461,-50.0000,-2.5000,-11.4634,0.00,0.00,0.00,2,S01
500,-8.33422,0.78530,0.56024,-48.4756,0.8537,-7.9268,0.00,0.00,0.00,2,S01
520,-8.39886,0.71108,0.63686,-48.2927,4.3293,-4.3293,0.00,0.00,0.00,2,S01
540,-8.50420,0.59616,0.79487,-47.3171,8.1707,-1.7073,0.00,0.00,0.00,2,S01
560,-8.69813,0.52672,0.81403,-45.3049,10.5488,0.2439,0.00,0.00,0.00,2,S01
580,-8.98544,0.51236,1.02232,-43.5976,12.9878,1.5854,0.00,0.00,0.00,2,S01
600,-9.25359,0.51954,1.24498,-41.5244,14.2683,1.5854,0.00,0.00,0.00,2,S01
620,-9.21289,0.65362,1.17555,-37.9878,13.7805,0.7927,0.00,0.00,0.00,2,S01
640,-9.01656,0.76136,1.18992,-35.7927,12.8049,0.7927,0.00,0.00,0.00,2,S01
660,-8.93516,0.88825,1.44131,-36.4634,11.4634,1.2195,0.00,0.00,0.00,2,S01
680,-8.81784,1.03908,1.64003,-38.4756,9.3293,2.4390,0.00,0.00,0.00,2,S01
700,-8.76996,1.19231,1.79565,-41.0976,7.8659,4.6951,0.00,0.00,0.00,2,S01
720,-8.87291,1.06781,1.92015,-43.4756,6.8293,7.6220,0.00,0.00,0.00,2,S01
740,-8.97586,0.82361,1.98958,-43.5366,5.4878,10.7927,0.00,0.00,0.00,2,S01
760,-9.11951,0.58179,2.25294,-43.9634,4.0244,12.0122,0.00,0.00,0.00,2,S01
780,-9.22965,0.13886,2.35589,-42.9878,1.3415,10.4268,0.00,0.00,0.00,2,S01
800,-9.46189,-0.09098,2.23618,-39.2683,-2.2561,5.0610,0.00,0.00,0.00,2,S01
820,-9.57202,0.21787,2.07098,-37.9878,-6.4024,-2.0122,0.00,0.00,0.00,2,S01
840,-9.36372,0.46926,2.26013,-40.7317,-10.6098,-6.0366,0.00,0.00,0.00,2,S01
860,-9.04051,0.46448,2.48758,-43.1707,-14.4512,-6.0366,0.00,0.00,0.00,2,S01
880,-10.00297,0.31125,2.52588,-42.8659,-16.0976,-4.3902,0.00,0.00,0.00,2,S01
900,-12.02129,-0.14605,1.31681,-36.7073,-17.5000,-5.5488,0.00,0.00,0.00,2,S01
920,-13.17769,0.71587,0.68235,-24.9390,-15.1829,-11.4634,0.00,0.00,0.00,2,S01
940,-12.11945,2.03507,0.27294,-26.1585,-19.3902,-15.9756,0.00,0.00,0.00,2,S01
960,-10.04846,2.45885,-0.29928,-35.1220,-29.1463,-14.2683,0.00,0.00,0.00,2,S01
980,-8.06367,1.99676,-1.87945,-37.9268,-31.2805,-6.9512,0.00,0.00,0.00,2,S01
1000,-7.41963,0.77572,-2.53307,-45.0000,-15.3659,-0.6098,0.00,0.00,0.00,2,S01
1020,-8.55927,0.24660,-0.61531,-50.9756,6.6463,-0.7927,0.00,0.00,0.00,2,S01
1040,-9.79707,0.40223,0.52433,-44.1463,13.4756,0.3659,0.00,0.00,0.00,2,S01
1060,-9.91918,0.92895,0.39265,-31.0976,8.9634,3.4756,0.00,0.00,0.00,2,S01
1080,-9.65103,1.32399,0.64643,-24.2073,5.8537,6.5854,0.00,0.00,0.00,2,S01
1100,-9.15303,1.26893,0.61052,-22.1951,2.0732,8.4756,0.00,0.00,0.00,2,S01
1120,-8.45632,1.03908,0.43814,-20.2439,0.6098,9.3293,0.00,0.00,0.00,2,S01
1140,-8.08761,0.97444,0.50278,-17.0122,4.0244,10.1220,0.00,0.00,0.00,2,S01
1160,-8.28873,1.00556,0.62728,-14.6951,8.3537,11.5244,0.00,0.00,0.00,2,S01
1180,-8.60715,1.27611,0.75657,-13.8415,11.2195,13.4756,0.00,0.00,0.00,2,S01
1200,-8.83460,1.54187,0.69192,-14.3293,11.0976,15.5488,0.00,0.00,0.00,2,S01
1220,-8.99980,1.59933,0.79009,-15.1829,10.5488,16.8293,0.00,0.00,0.00,2,S01
1240,-9.07642,1.55384,0.95289,-14.8171,10.7927,16.9512,0.00,0.00,0.00,2,S01
1260,-9.09557,1.66636,1.01993,-14.4512,11.9512,16.7073,0.00,0.00,0.00,2,S01
1280,-9.00699,1.75495,0.97205,-15.7927,12.1341,16.7683,0.00,0.00,0.00,2,S01
1300,-9.00220,1.66636,1.04866,-17.0122,12.0732,16.4024,0.00,0.00,0.00,2,S01
1320,-8.99980,1.47243,1.03669,-16.0366,11.8902,15.0610,0.00,0.00,0.00,2,S01
1340,-9.07881,1.39343,1.17076,-13.6585,12.0122,12.8049,0.00,0.00,0.00,2,S01
1360,-9.15543,1.52511,1.34794,-12.0732,11.3415,10.7317,0.00,0.00,0.00,2,S01
1380,-9.05248,1.69509,1.45089,-11.5244,9.2073,9.8171,0.00,0.00,0.00,2,S01
1400,-8.77475,1.82199,1.40540,-11.2195,7.2561,9.3293,0.00,0.00,0.00,2,S01
1420,-8.54251,1.83875,1.44610,-11.4634,7.5000,7.5610,0.00,0.00,0.00,2,S01
1440,-8.52575,1.79805,1.50116,-11.0366,8.3537,4.5732,0.00,0.00,0.00,2,S01
1460,-8.62152,1.78847,1.62806,-9.5122,9.3902,1.1585,0.00,0.00,0.00,2,S01
1480,-8.82024,1.84593,1.90818,-8.4146,10.0000,-2.0732,0.00,0.00,0.00,2,S01
1500,-8.91601,2.03028,1.91536,-7.5000,8.2927,-4.1463,0.00,0.00,0.00,2,S01
1520,-8.87291,2.18351,1.47243,-7.6220,6.2805,-5.0000,0.00,0.00,0.00,2,S01
1540,-8.73644,2.32956,0.98402,-9.3902,6.4024,-5.1829,0.00,0.00,0.00,2,S01
1560,-8.95431,2.79403,0.79009,-14.1463,7.0732,-4.8171,0.00,0.00,0.00,2,S01
1580,-9.37569,2.23618,1.53947,-20.3049,4.4512,-1.8293,0.00,0.00,0.00,2,S01
1600,-9.64384,1.28808,2.92093,-16.6463,0.0000,1.8293,0.00,0.00,0.00,2,S01
1620,-9.35654,1.01514,3.40455,7.1951,-6.8902,4.0244,0.00,0.00,0.00,2,S01
1640,-9.84735,2.08535,2.47800,17.5610,-7.2561,3.4146,0.00,0.00,0.00,2,S01
1660,-10.59434,3.35667,1.07021,21.3415,-2.5000,7.9268,0.00,0.00,0.00,2,S01
1680,-11.09713,3.60088,0.44772,17.1341,5.8537,17.4390,0.00,0.00,0.00,2,S01
1700,-10.65180,2.94247,-0.03831,10.4878,7.8659,24.2683,0.00,0.00,0.00,2,S01
1720,-9.86172,1.79326,-0.40941,5.7317,6.3415,22.9878,0.00,0.00,0.00,2,S01
1740,-9.17219,0.81642,-0.80685,8.1707,6.3415,14.0244,0.00,0.00,0.00,2,S01
1760,-8.60476,0.59137,-1.15640,14.6951,6.5854,2.9878,0.00,0.00,0.00,2,S01
1780,-8.52575,0.87388,-0.84515,16.7683,6.6463,-2.9268,0.00,0.00,0.00,2,S01
1800,-8.87531,1.24259,-0.65362,12.6220,4.2073,-1.5244,0.00,0.00,0.00,2,S01
1820,-9.22725,1.61130,-0.75417,2.3780,2.2561,1.0976,0.00,0.00,0.00,2,S01
1840,-9.43316,1.77171,-0.87149,-9.8171,2.2561,1.9512,0.00,0.00,0.00,2,S01
1860,-9.78510,1.59933,-0.41420,-21.3415,2.2561,-0.8537,0.00,0.00,0.00,2,S01
1880,-9.90481,1.46286,-0.20351,-27.9268,-1.2805,-7.0122,0.00,0.00,0.00,2,S01
1900,-9.61033,1.24498,-0.17478,-33.4756,-4.5732,-12.6829,0.00,0.00,0.00,2,S01
1920,-9.36851,1.05105,-0.06943,-37.8659,-5.1829,-16.4024,0.00,0.00,0.00,2,S01
1940,-9.12430,0.98162,0.18435,-40.8537,-4.1463,-17.9878,0.00,0.00,0.00,2,S01
1960,-8.77236,0.86910,0.38307,-41.5244,-2.1951,-16.6463,0.00,0.00,0.00,2,S01
1980,-8.38928,0.71108,0.45250,-40.5488,0.4268,-13.3537,0.00,0.00,0.00,2,S01
2000,-8.35816,0.70629,0.68714,-38.9634,3.1707,-10.0000,0.00,0.00,0.00,2,S01
2020,-8.49942,0.61770,0.75657,-36.8902,4.7561,-6.4634,0.00,0.00,0.00,2,S01
2040,-8.64786,0.45490,0.77572,-33.7195,7.3171,-3.4146,0.00,0.00,0.00,2,S01
2060,-8.87770,0.53391,0.82600,-29.8171,10.2439,-2.4390,0.00,0.00,0.00,2,S01
2080,-9.05248,0.77572,0.85712,-27.6220,11.6463,-2.5610,0.00,0.00,0.00,2,S01
2100,-9.04529,0.95289,0.81163,-27.6220,12.2561,-2.0122,0.00,0.00,0.00,2,S01
2120,-9.13388,1.06542,0.95529,-28.7195,13.9634,-1.0976,0.00,0.00,0.00,2,S01
2140,-9.19852,1.09415,1.05824,-29.8780,14.9390,-0.0610,0.00,0.00,0.00,2,S01
2160,-9.16979,1.01514,1.15161,-31.3415,15.0610,0.6707,0.00,0.00,0.00,2,S01
2180,-9.16500,0.93134,1.36469,-32.5000,14.5732,0.3659,0.00,0.00,0.00,2,S01
2200,-9.10754,0.92656,1.44849,-32.9878,12.5000,-0.7927,0.00,0.00,0.00,2,S01
2220,-8.93756,0.92895,1.56820,-33.4756,10.1220,-1.5244,0.00,0.00,0.00,2,S01
2240,-8.78911,0.94571,1.64960,-33.5366,7.7439,-0.7317,0.00,0.00,0.00,2,S01
2260,-8.76278,0.83558,1.80762,-34.5732,6.0366,0.9146,0.00,0.00,0.00,2,S01
2280,-8.77714,0.73981,1.92015,-33.4146,4.7561,2.8049,0.00,0.00,0.00,2,S01
2300,-8.96629,0.72065,1.82199,-31.2195,3.1098,4.3902,0.00,0.00,0.00,2,S01
2320,-9.17458,0.63446,1.72622,-29.5122,1.7683,4.9390,0.00,0.00,0.00,2,S01
2340,-9.45231,0.34477,1.70946,-27.2561,0.3659,3.2317,0.00,0.00,0.00,2,S01
2360,-9.67257,0.23463,1.70946,-23.5366,-1.9512,0.0000,0.00,0.00,0.00,2,S01
2380,-9.77313,0.58419,2.03507,-22.5610,-5.9146,-3.2317,0.00,0.00,0.00,2,S01
2400,-9.36372,1.23780,2.15478,-26.7683,-11.3415,-5.0610,0.00,0.00,0.00,2,S01
2420,-9.59835,1.42934,2.20267,-33.7805,-13.5976,-5.7927,0.00,0.00,0.00,2,S01
2440,-10.80743,0.68474,1.54905,-34.0854,-13.0488,-8.9634,0.00,0.00,0.00,2,S01
2460,-12.01650,-0.01197,1.06063,-24.8780,-11.5854,-17.2561,0.00,0.00,0.00,2,S01
2480,-11.89918,0.30167,0.40462,-17.3780,-14.9390,-25.9756,0.00,0.00,0.00,2,S01
2500,-10.58237,1.05105,-0.12929,-19.1463,-20.6707,-27.3171,0.00,0.00,0.00,2,S01
2520,-8.93995,1.36709,-0.82121,-23.6585,-23.4756,-21.1585,0.00,0.00,0.00,2,S01
2540,-7.71891,1.02472,-1.63524,-28.1098,-19.6951,-12.5000,0.00,0.00,0.00,2,S01
2560,-7.87692,0.59376,-1.11091,-33.8415,-9.2073,-6.8902,0.00,0.00,0.00,2,S01
2580,-9.00699,0.28252,-0.01197,-33.1707,0.6707,-2.9268,0.00,0.00,0.00,2,S01
2600,-9.91678,0.34955,0.52194,-22.3171,4.8780,-0.3659,0.00,0.00,0.00,2,S01
2620,-10.14184,0.47405,0.68714,-10.5488,3.9634,0.3049,0.00,0.00,0.00,2,S01
2640,-9.87129,0.68235,0.66319,-3.4756,0.0610,0.5488,0.00,0.00,0.00,2,S01
2660,-9.21768,0.79248,0.32801,0.4268,-2.6829,2.9878,0.00,0.00,0.00,2,S01
2680,-8.63828,0.97205,0.22745,3.2927,-0.3659,6.5244,0.00,0.00,0.00,2,S01
2700,-8.49942,1.23301,0.16759,5.3049,3.1098,9.6341,0.00,0.00,0.00,2,S01
2720,-8.70053,1.32399,0.41180,5.0000,6.5244,12.5000,0.00,0.00,0.00,2,S01
2740,-8.82982,1.35512,0.65362,3.9634,8.7805,15.1829,0.00,0.00,0.00,2,S01
2760,-8.82982,1.22583,0.75178,3.1098,10.4268,17.5000,0.00,0.00,0.00,2,S01
2780,-8.83221,1.07739,0.85952,2.3171,11.9512,18.3537,0.00,0.00,0.00,2,S01
2800,-8.98783,1.21386,1.06063,2.6220,11.3415,16.8293,0.00,0.00,0.00,2,S01
2820,-8.91122,1.28569,0.98162,3.7195,10.3659,15.6098,0.00,0.00,0.00,2,S01
2840,-8.80827,1.30963,0.85473,5.1829,10.3659,13.7805,0.00,0.00,0.00,2,S01
2860,-8.76517,1.30005,0.91698,5.6098,11.6463,11.0976,0.00,0.00,0.00,2,S01
2880,-8.85615,1.33118,1.02472,5.4878,12.5000,8.0488,0.00,0.00,0.00,2,S01
2900,-8.93037,1.32878,1.11091,6.0976,12.4390,5.4268,0.00,0.00,0.00,2,S01
2920,-9.03332,1.53468,1.21865,6.9512,12.5000,3.2927,0.00,0.00,0.00,2,S01
2940,-9.14824,1.75256,1.39582,6.5854,12.8049,2.0732,0.00,0.00,0.00,2,S01
2960,-8.98783,1.84832,1.37667,6.2805,12.3171,1.8293,0.00,0.00,0.00,2,S01
2980,-8.74602,1.80762,1.32399,6.1585,11.8902,1.1585,0.00,0.00,0.00,2,S01
3000,-8.72686,1.83635,1.34794,6.5244,11.9512,-0.2439,0.00,0.00,0.00,2,S01
3020,-8.86094,1.83156,1.44131,7.0122,11.5244,-1.4634,0.00,0.00,0.00,2,S01
3040,-8.98065,1.82917,1.54665,7.6829,9.8780,-1.8293,0.00,0.00,0.00,2,S01
3060,-9.05727,2.11169,1.41018,7.8049,6.8293,-1.5244,0.00,0.00,0.00,2,S01
3080,-9.13627,2.62405,0.80445,4.1463,3.9634,-0.6707,0.00,0.00,0.00,2,S01
3100,-9.13867,2.74854,0.70868,-3.4756,2.8659,1.0366,0.00,0.00,0.00,2,S01
3120,-9.33260,1.84593,1.58975,-7.0122,0.0000,2.3780,0.00,0.00,0.00,2,S01
3140,-9.56005,0.76136,2.78685,0.4268,-4.5122,3.2317,0.00,0.00,0.00,2,S01
3160,-9.59357,0.20830,3.34709,13.7805,-8.6585,4.5122,0.00,0.00,0.00,2,S01
3180,-9.47625,0.84515,3.02867,27.5610,-12.1341,4.9390,0.00,0.00,0.00,2,S01
3200,-10.23521,1.97761,1.82199,36.8293,-14.8780,5.8537,0.00,0.00,0.00,2,S01
3220,-11.35809,3.11007,0.37589,39.7561,-13.1098,12.4390,0.00,0.00,0.00,2,S01
3240,-11.31739,3.12922,-0.00958,35.3049,-9.4512,24.5122,0.00,0.00,0.00,2,S01
3260,-10.09395,2.17394,-0.28491,30.3659,-11.7073,32.6829,0.00,0.00,0.00,2,S01
3280,-9.00459,0.42138,-0.91937,33.7805,-12.0732,31.7683,0.00,0.00,0.00,2,S01
3300,-8.78193,-0.32801,-1.00796,45.6707,-8.2317,20.9756,0.00,0.00,0.00,2,S01
3320,-9.66779,0.90980,-0.84276,52.3781,-8.4756,9.8171,0.00,0.00,0.00,2,S01
3340,-10.09156,2.18591,-0.90980,44.9390,-12.6220,6.4024,0.00,0.00,0.00,2,S01
3360,-9.28711,2.91853,-1.11809,29.8171,-14.0854,4.0244,0.00,0.00,0.00,2,S01
3380,-9.03811,3.05740,-1.02711,10.0610,-11.4024,-0.9146,0.00,0.00,0.00,2,S01
3400,-9.49540,2.52109,-0.54348,-7.8049,-10.2439,-9.5122,0.00,0.00,0.00,2,S01
3420,-9.50977,1.69031,-0.26576,-16.4024,-12.1341,-18.5976,0.00,0.00,0.00,2,S01
3440,-9.16500,0.84755,-0.06943,-20.9146,-12.7439,-25.2439,0.00,0.00,0.00,2,S01
3460,-9.05966,0.49560,0.20111,-23.3537,-9.4512,-27.6220,0.00,0.00,0.00,2,S01
3480,-8.83460,0.59376,0.60813,-23.5976,-6.3415,-26.5854,0.00,0.00,0.00,2,S01
3500,-8.52815,1.00796,0.70390,-21.5244,-6.8902,-23.7195,0.00,0.00,0.00,2,S01
3520,-8.28873,1.05345,0.80685,-19.1463,-7.0122,-19.6341,0.00,0.00,0.00,2,S01
3540,-8.28873,0.90261,0.84515,-16.8293,-5.4878,-16.0976,0.00,0.00,0.00,2,S01
3560,-8.48984,0.63925,1.06542,-15.2439,-2.4390,-13.3537,0.00,0.00,0.00,2,S01
3580,-8.68138,0.46687,1.25456,-13.4146,0.3049,-11.5244,0.00,0.00,0.00,2,S01
3600,-8.70532,0.51475,1.22583,-11.5854,2.1951,-10.7927,0.00,0.00,0.00,2,S01
3620,-8.78193,0.64883,1.31442,-10.2439,4.3293,-9.7561,0.00,0.00,0.00,2,S01
3640,-8.91361,0.66798,1.50595,-9.5122,5.6098,-7.6829,0.00,0.00,0.00,2,S01
3660,-8.86812,0.53870,1.67115,-8.7805,5.7927,-5.3049,0.00,0.00,0.00,2,S01
3680,-8.73884,0.34477,1.76213,-7.3780,6.0366,-3.8415,0.00,0.00,0.00,2,S01
3700,-8.71489,0.30167,2.01352,-5.3659,6.9512,-3.7195,0.00,0.00,0.00,2,S01
3720,-8.87291,0.43335,2.26970,-3.4756,6.2195,-3.2927,0.00,0.00,0.00,2,S01
3740,-8.91840,0.60813,2.32716,-2.5000,3.4756,-0.7927,0.00,0.00,0.00,2,S01
3760,-8.86573,0.67516,2.18830,-1.9512,1.4024,3.0488,0.00,0.00,0.00,2,S01
3780,-8.92798,0.66080,1.87705,-3.2317,1.2805,6.0366,0.00,0.00,0.00,2,S01
3800,-9.22486,0.70390,1.71425,-5.8537,1.8293,5.7927,0.00,0.00,0.00,2,S01
3820,-9.66779,0.64404,1.67834,-8.4146,-0.7317,1.3415,0.00,0.00,0.00,2,S01
3840,-10.23521,0.68474,1.75256,-9.8780,-4.5122,-5.3659,0.00,0.00,0.00,2,S01
3860,-11.22641,0.79487,1.96325,-13.7195,-8.4756,-11.6463,0.00,0.00,0.00,2,S01
3880,-11.93510,0.70150,1.29766,-15.0610,-13.2317,-18.1707,0.00,0.00,0.00,2,S01
3900,-11.93270,0.56743,1.06303,-11.2195,-16.5244,-27.0122,0.00,0.00,0.00,2,S01
3920,-10.99178,0.84036,1.03669,-9.7561,-22.7439,-33.2317,0.00,0.00,0.00,2,S01
3940,-9.41879,1.17795,0.52433,-13.1707,-28.1098,-30.1220,0.00,0.00,0.00,2,S01
3960,-7.64469,0.79487,-0.38307,-22.5000,-14.5732,-11.0976,0.00,0.00,0.00,2,S01
3980,-7.90805,0.58897,-0.20351,-24.8780,-5.9756,-6.5244,0.00,0.00,0.00,2,S01
4000,-8.85136,0.73741,0.21548,-22.8049,-1.0366,-5.1220,0.00,0.00,0.00,2,S01
4020,-9.79228,1.05345,0.65362,-16.6463,0.5488,-4.7561,0.00,0.00,0.00,2,S01
4040,-10.06762,1.22823,0.67756,-10.1829,-0.3049,-3.9634,0.00,0.00,0.00,2,S01
4060,-9.84735,1.10373,0.77812,-6.9512,-1.7073,-2.8659,0.00,0.00,0.00,2,S01
4080,-9.39245,0.79009,0.66559,-3.4146,-3.4146,-0.6098,0.00,0.00,0.00,2,S01
4100,-9.07163,0.75896,0.64883,1.8293,-1.7073,2.9268,0.00,0.00,0.00,2,S01
4120,-8.84418,1.01754,0.58419,6.5244,0.1220,7.1341,0.00,0.00,0.00,2,S01
4140,-8.66940,1.33118,0.57940,8.2927,1.2805,10.9756,0.00,0.00,0.00,2,S01
4160,-8.68377,1.60890,0.56503,6.9512,3.6585,13.7805,0.00,0.00,0.00,2,S01
4180,-8.85136,1.70467,0.74220,3.2317,6.8902,15.5488,0.00,0.00,0.00,2,S01
4200,-8.86812,1.60172,1.02472,-0.2439,8.2927,16.5854,0.00,0.00,0.00,2,S01
4220,-8.79151,1.29047,1.15879,-1.5244,7.2561,16.5854,0.00,0.00,0.00,2,S01
4240,-8.89685,1.11809,1.22344,-0.6707,6.5854,15.1220,0.00,0.00,0.00,2,S01
4260,-8.93995,1.16837,1.14203,1.0976,6.5854,13.2927,0.00,0.00,0.00,2,S01
4280,-8.93995,1.33596,1.21147,1.7683,6.8293,11.8293,0.00,0.00,0.00,2,S01
4300,-8.89207,1.53947,1.27850,1.9512,6.7073,10.4268,0.00,0.00,0.00,2,S01
4320,-8.82024,1.71185,1.25696,2.0122,6.7073,9.0244,0.00,0.00,0.00,2,S01
4340,-8.81306,1.69509,1.40300,1.7073,7.1951,7.5000,0.00,0.00,0.00,2,S01
4360,-8.79869,1.57299,1.51553,2.0122,7.5000,6.1585,0.00,0.00,0.00,2,S01
4380,-8.79869,1.48919,1.75016,2.8659,8.1707,4.9390,0.00,0.00,0.00,2,S01
4400,-8.85855,1.49398,2.02310,3.9024,7.9878,3.7805,0.00,0.00,0.00,2,S01
4420,-8.77475,1.56581,2.04944,5.7317,7.0122,2.6220,0.00,0.00,0.00,2,S01
4440,-8.54969,1.66158,1.94170,7.5610,7.0732,1.0366,0.00,0.00,0.00,2,S01
4460,-8.46350,1.76213,1.90818,8.7195,8.4756,-0.7927,0.00,0.00,0.00,2,S01
4480,-8.53772,1.74777,1.90100,9.8171,9.6341,-2.3780,0.00,0.00,0.00,2,S01
4500,-8.73884,1.77889,1.90578,11.2195,9.9390,-3.9634,0.00,0.00,0.00,2,S01
4520,-8.97586,2.20745,1.56341,10.8537,8.6585,-5.0610,0.00,0.00,0.00,2,S01
4540,-9.09557,2.67193,0.69911,7.2561,6.8293,-4.2073,0.00,0.00,0.00,2,S01
4560,-9.39724,2.53546,0.75417,1.5244,6.1585,-1.2805,0.00,0.00,0.00,2,S01
4580,-9.69891,1.50595,2.34392,2.0732,3.2317,2.7439,0.00,0.00,0.00,2,S01
4600,-9.62948,0.59376,3.34231,14.1463,-3.3537,6.1585,0.00,0.00,0.00,2,S01
4620,-9.31823,0.77333,3.52666,30.4878,-6.8902,7.8049,0.00,0.00,0.00,2,S01
4640,-9.58160,1.98000,3.02867,40.0000,-7.9878,7.5610,0.00,0.00,0.00,2,S01
4660,-10.52012,3.33991,1.76453,41.1585,-7.7439,10.2439,0.00,0.00,0.00,2,S01
4680,-11.11867,3.94804,0.92656,35.9146,-3.2317,17.4390,0.00,0.00,0.00,2,S01
4700,-10.81700,3.27527,0.30406,27.8659,-0.5488,24.5732,0.00,0.00,0.00,2,S01
4720,-9.98861,1.93691,0.17717,22.4390,1.8293,25.0610,0.00,0.00,0.00,2,S01
4740,-9.31105,0.73981,-0.06943,24.6341,4.5122,16.8293,0.00,0.00,0.00,2,S01
4760,-8.70771,0.60094,-0.90022,32.9878,4.8171,4.3293,0.00,0.00,0.00,2,S01
4780,-8.47069,1.16837,-1.24020,36.5244,4.8171,-4.2683,0.00,0.00,0.00,2,S01
4800,-8.72447,1.77889,-1.03430,29.6341,3.5366,-5.9146,0.00,0.00,0.00,2,S01
4820,-9.12430,1.83156,-0.91698,16.0366,1.9512,-3.4756,0.00,0.00,0.00,2,S01
4840,-9.41400,1.59454,-0.58658,2.8659,3.1707,-2.9268,0.00,0.00,0.00,2,S01
4860,-9.98861,1.26653,0.11253,-5.6098,2.8049,-5.4268,0.00,0.00,0.00,2,S01
4880,-10.04128,0.95768,0.13168,-9.3902,-2.8659,-9.9390,0.00,0.00,0.00,2,S01
4900,-9.52413,0.85473,0.05267,-11.8902,-6.9512,-15.6707,0.00,0.00,0.00,2,S01
4920,-9.04290,1.03430,0.07422,-14.0244,-7.1341,-20.6098,0.00,0.00,0.00,2,S01
4940,-8.97107,1.20668,0.48123,-16.6463,-4.2683,-22.5610,0.00,0.00,0.00,2,S01
4960,-8.77236,1.09894,0.71826,-17.1951,-2.5610,-21.5244,0.00,0.00,0.00,2,S01
4980,-8.45871,0.90980,0.69671,-15.7317,-2.1341,-18.8415,0.00,0.00,0.00,2,S01
5000,-8.23845,0.73023,0.56503,-14.6341,-0.4878,-15.6707,0.00,0.00,0.00,2,S01
5020,-8.61434,0.69192,0.82839,-14.5732,3.7195,-13.2317,0.00,0.00,0.00,2,S01
5040,-8.97826,0.56264,0.90022,-13.9634,6.1585,-11.1585,0.00,0.00,0.00,2,S01
5060,-9.05966,0.61531,0.76854,-12.7439,6.9512,-9.9390,0.00,0.00,0.00,2,S01
5080,-9.06445,0.76136,0.77333,-12.5000,8.1098,-9.3902,0.00,0.00,0.00,2,S01
5100,-9.11473,0.77572,0.99359,-12.5000,8.6585,-8.5976,0.00,0.00,0.00,2,S01
5120,-9.03572,0.66798,1.31921,-11.4634,6.7073,-6.5854,0.00,0.00,0.00,2,S01
5140,-8.92798,0.60334,1.44370,-11.4024,6.5854,-6.0366,0.00,0.00,0.00,2,S01
5160,-8.85615,0.50996,1.64960,-11.1585,7.1951,-5.8537,0.00,0.00,0.00,2,S01
5180,-8.76278,0.49560,1.96325,-9.8780,7.5000,-5.2439,0.00,0.00,0.00,2,S01
5200,-8.61673,0.61770,2.03747,-8.5366,6.4634,-4.1463,0.00,0.00,0.00,2,S01
5220,-8.61913,0.67277,2.06380,-9.0854,5.6098,-2.6829,0.00,0.00,0.00,2,S01
5240,-8.83460,0.80924,2.23858,-9.0244,4.6951,-0.9146,0.00,0.00,0.00,2,S01
5260,-9.04051,0.89064,2.20027,-8.8415,2.3780,1.8293,0.00,0.00,0.00,2,S01
5280,-9.15064,0.56982,1.84114,-9.2683,0.2439,4.2683,0.00,0.00,0.00,2,S01
5300,-9.32302,0.39504,1.41976,-8.6585,-0.5488,3.9634,0.00,0.00,0.00,2,S01
5320,-9.54329,0.48363,1.42934,-8.9024,-0.9756,1.0976,0.00,0.00,0.00,2,S01
5340,-9.68215,1.01754,2.21703,-13.1707,-3.4756,-1.8293,0.00,0.00,0.00,2,S01
5360,-9.73961,1.34794,2.60489,-20.3659,-7.9878,-2.5610,0.00,0.00,0.00,2,S01
5380,-10.67575,1.05345,2.13802,-24.3902,-9.8171,-4.2073,0.00,0.00,0.00,2,S01
5400,-11.98298,0.33519,1.20668,-20.3659,-7.9268,-10.2439,0.00,0.00,0.00,2,S01
5420,-12.37084,0.32322,0.78051,-15.4878,-8.1098,-18.8415,0.00,0.00,0.00,2,S01
5440,-11.25514,0.52194,0.11253,-14.3293,-16.4024,-22.8049,0.00,0.00,0.00,2,S01
5460,-9.63187,0.71108,-0.20351,-15.0000,-23.4756,-21.6463,0.00,0.00,0.00,2,S01
5480,-8.18817,0.85712,-0.67516,-17.4390,-25.0610,-17.1951,0.00,0.00,0.00,2,S01
5500,-7.35259,1.03430,-1.16358,-19.7561,-18.5366,-11.5244,0.00,0.00,0.00,2,S01
5520,-7.85777,1.11570,-0.94332,-21.9512,-7.3171,-6.7683,0.00,0.00,0.00,2,S01
5540,-9.15064,1.00796,-0.13168,-20.4878,0.6707,-3.2317,0.00,0.00,0.00,2,S01
5560,-10.08198,0.90740,0.43335,-11.6463,1.7683,-0.9756,0.00,0.00,0.00,2,S01
5580,-10.09874,0.87388,0.35913,-1.3415,-1.6463,-0.0610,0.00,0.00,0.00,2,S01
5600,-9.72285,0.84515,0.35195,2.8659,-5.0000,0.3049,0.00,0.00,0.00,2,S01
5620,-9.22246,0.90740,0.21787,4.9390,-6.2805,1.8293,0.00,0.00,0.00,2,S01
5640,-8.82024,1.03190,0.15323,8.3537,-4.0244,5.0000,0.00,0.00,0.00,2,S01
5660,-8.71729,1.18274,0.33040,11.2195,-1.1585,8.9024,0.00,0.00,0.00,2,S01
5680,-8.68138,1.38624,0.41899,12.2561,0.2439,12.2561,0.00,0.00,0.00,2,S01
5700,-8.60715,1.33357,0.58897,11.0976,1.5854,14.2073,0.00,0.00,0.00,2,S01
5720,-8.56406,1.24977,0.99599,9.7561,3.0488,13.3537,0.00,0.00,0.00,2,S01
5740,-8.77714,1.34315,1.20668,9.6341,3.3537,11.0366,0.00,0.00,0.00,2,S01
5760,-8.96389,1.34075,1.22104,10.1829,3.9634,10.4268,0.00,0.00,0.00,2,S01
5780,-8.97347,1.39582,1.03908,10.9756,4.9390,11.1585,0.00,0.00,0.00,2,S01
5800,-8.88009,1.52989,0.95529,10.4268,5.9756,11.5854,0.00,0.00,0.00,2,S01
5820,-8.83460,1.56820,0.90980,9.1463,6.5244,11.0976,0.00,0.00,0.00,2,S01
5840,-8.93516,1.56820,1.11809,8.5366,7.6829,9.4512,0.00,0.00,0.00,2,S01
5860,-9.05248,1.60172,1.31442,8.5366,7.5000,7.4390,0.00,0.00,0.00,2,S01
5880,-8.98304,1.54905,1.44610,8.7195,6.6463,6.1585,0.00,0.00,0.00,2,S01
5900,-8.75320,1.45328,1.51792,9.5732,6.4634,5.0610,0.00,0.00,0.00,2,S01
5920,-8.67659,1.43413,1.63763,11.0976,7.3780,3.5366,0.00,0.00,0.00,2,S01
5940,-8.69335,1.44849,1.68791,12.8659,8.3537,2.1341,0.00,0.00,0.00,2,S01
5960,-8.69574,1.55863,1.72622,14.6951,9.2073,0.1220,0.00,0.00,0.00,2,S01
5980,-8.89925,1.77889,1.88663,16.0366,9.7561,-2.6220,0.00,0.00,0.00,2,S01
6000,-9.07163,1.76692,1.96803,17.1951,8.1098,-5.1220,0.00,0.00,0.00,2,S01
6020,-9.01896,1.58257,1.93451,19.6951,5.5488,-6.3415,0.00,0.00,0.00,2,S01
6040,-8.90164,1.59933,1.86987,22.1951,3.7195,-7.1951,0.00,0.00,0.00,2,S01
6060,-8.87052,1.91057,1.47722,23.3537,2.6829,-7.3171,0.00,0.00,0.00,2,S01
6080,-8.85615,2.16436,1.17316,22.8659,2.1341,-5.7317,0.00,0.00,0.00,2,S01
6100,-8.99980,2.70784,1.14682,20.5488,0.6707,-3.2317,0.00,0.00,0.00,2,S01
6120,-9.26795,2.64320,1.86987,14.6951,-2.6220,0.4268,0.00,0.00,0.00,2,S01
6140,-9.36133,1.96564,2.79643,13.2317,-6.2195,3.9024,0.00,0.00,0.00,2,S01
6160,-9.41640,1.70707,2.86586,20.7927,-7.0732,5.8537,0.00,0.00,0.00,2,S01
6180,-10.09635,2.30562,2.16196,27.1951,-4.6951,8.4756,0.00,0.00,0.00,2,S01
6200,-11.03727,3.19865,1.16358,26.5244,-1.7073,15.6098,0.00,0.00,0.00,2,S01
6220,-11.23359,3.42371,0.42617,20.9756,0.8537,26.7073,0.00,0.00,0.00,2,S01
6240,-10.44830,2.65038,-0.01437,15.1220,1.1585,34.5732,0.00,0.00,0.00,2,S01
6260,-9.73961,1.44849,-0.12450,14.6341,0.6707,32.0732,0.00,0.00,0.00,2,S01
6280,-8.85136,0.94571,-1.26174,29.6341,-5.7927,7.7439,0.00,0.00,0.00,2,S01
6300,-8.67659,1.16358,-1.18992,30.2439,-5.9756,1.4024,0.00,0.00,0.00,2,S01
6320,-8.86094,1.43892,-1.18274,25.0000,-5.7317,0.4878,0.00,0.00,0.00,2,S01
6340,-9.38527,1.82678,-1.13725,14.9390,-3.5976,0.0610,0.00,0.00,0.00,2,S01
6360,-9.60554,1.88663,-0.86670,4.5732,-1.3415,-2.6829,0.00,0.00,0.00,2,S01
6380,-9.97185,1.79805,-0.17238,-4.7561,-1.5854,-7.4390,0.00,0.00,0.00,2,S01
6400,-9.89284,1.51074,-0.15802,-11.2805,-5.6098,-13.5976,0.00,0.00,0.00,2,S01
6420,-9.52892,1.37188,-0.11492,-16.5854,-7.3171,-20.4268,0.00,0.00,0.00,2,S01
6440,-9.14585,1.12767,0.07661,-20.1220,-6.7073,-24.7561,0.00,0.00,0.00,2,S01
6460,-8.97107,0.91219,0.40701,-21.2195,-4.8171,-26.4024,0.00,0.00,0.00,2,S01
6480,-8.75081,0.75657,0.76854,-19.9390,-3.4756,-25.7927,0.00,0.00,0.00,2,S01
6500,-8.41562,0.70868,0.79487,-17.1951,-3.5976,-23.1098,0.00,0.00,0.00,2,S01
6520,-8.37013,1.01035,0.87867,-15.9756,-1.8902,-20.0610,0.00,0.00,0.00,2,S01
6540,-8.52336,1.04627,0.89543,-16.6463,0.6098,-16.3415,0.00,0.00,0.00,2,S01
6560,-8.61434,0.88825,0.93134,-16.6463,3.5976,-12.6220,0.00,0.00,0.00,2,S01
6580,-8.73405,0.80206,0.94332,-15.6707,6.0366,-9.9390,0.00,0.00,0.00,2,S01
6600,-8.92798,0.86431,1.06063,-14.6951,7.9878,-7.6829,0.00,0.00,0.00,2,S01
6620,-8.98065,0.85234,1.13006,-14.0854,8.5976,-5.2439,0.00,0.00,0.00,2,S01
6640,-9.06924,0.75178,1.42934,-13.7195,9.3293,-3.1707,0.00,0.00,0.00,2,S01
6660,-9.13867,0.67756,1.61609,-13.0488,9.3902,-2.4390,0.00,0.00,0.00,2,S01
6680,-9.07881,0.62728,1.76213,-12.0122,9.2683,-3.1707,0.00,0.00,0.00,2,S01
6700,-8.92319,0.64404,1.94649,-10.4878,9.0244,-4.9390,0.00,0.00,0.00,2,S01
6720,-8.71729,0.67995,2.09253,-8.9024,7.8049,-5.9146,0.00,0.00,0.00,2,S01
6740,-8.60476,0.69432,2.16915,-7.1341,6.8902,-4.8171,0.00,0.00,0.00,2,S01
6760,-8.67898,0.83079,2.19548,-6.5244,6.0976,-2.5610,0.00,0.00,0.00,2,S01
6780,-8.81784,0.93613,2.37505,-7.9878,4.6951,-0.1220,0.00,0.00,0.00,2,S01
6800,-8.98065,1.04627,2.26252,-8.2317,2.1341,1.8293,0.00,0.00,0.00,2,S01
6820,-9.06684,0.78290,1.90339,-8.2317,0.3659,2.8659,0.00,0.00,0.00,2,S01
6840,-9.26795,0.31843,1.55863,-6.8293,-0.8537,1.3415,0.00,0.00,0.00,2,S01
6860,-9.65821,0.53870,1.83875,-6.0976,-2.0732,-2.5610,0.00,0.00,0.00,2,S01
6880,-9.74440,1.25935,2.59771,-12.1951,-5.8537,-5.4878,0.00,0.00,0.00,2,S01
6900,-9.27274,1.72622,2.66475,-22.0122,-11.0976,-6.0976,0.00,0.00,0.00,2,S01
6920,-9.67497,1.33357,2.22421,-29.2073,-11.3415,-7.5610,0.00,0.00,0.00,2,S01
6940,-10.84095,0.47166,1.14203,-27.9878,-9.0244,-13.0488,0.00,0.00,0.00,2,S01
6960,-12.08832,0.06943,0.80685,-23.0488,-7.6829,-22.4390,0.00,0.00,0.00,2,S01
6980,-12.04283,0.42138,0.48602,-19.3293,-13.7805,-29.8171,0.00,0.00,0.00,2,S01
7000,-10.96544,1.06063,0.19154,-18.6585,-20.4878,-30.9756,0.00,0.00,0.00,2,S01
7020,-9.61511,1.57538,-0.37350,-21.6463,-24.5732,-24.8171,0.00,0.00,0.00,2,S01
7040,-8.23127,1.04866,-1.05824,-26.9512,-23.2317,-12.0732,0.00,0.00,0.00,2,S01
7060,-7.71891,0.39504,-1.17316,-28.2317,-13.9634,-1.2195,0.00,0.00,0.00,2,S01
7080,-8.15465,0.26336,-0.57700,-22.5610,-2.9878,3.3537,0.00,0.00,0.00,2,S01
7100,-9.11951,0.61531,0.16520,-12.6220,3.2317,3.6585,0.00,0.00,0.00,2,S01
7120,-9.78989,1.01754,0.73023,-5.1220,2.0732,2.5000,0.00,0.00,0.00,2,S01
7140,-9.85214,1.18274,0.65122,-2.6220,-2.9268,2.1951,0.00,0.00,0.00,2,S01
7160,-9.59835,1.13725,0.71826,-2.4390,-4.7561,3.1707,0.00,0.00,0.00,2,S01
7180,-9.10515,1.10133,0.56503,-0.2439,-5.4268,5.3659,0.00,0.00,0.00,2,S01
7200,-8.65265,1.08936,0.50996,2.6829,-4.5122,8.5976,0.00,0.00,0.00,2,S01
7220,-8.50660,1.09415,0.52194,4.5732,-2.2561,11.6463,0.00,0.00,0.00,2,S01
7240,-8.50660,1.12049,0.57221,5.5488,1.2195,13.4756,0.00,0.00,0.00,2,S01
7260,-8.57364,1.17795,0.82361,4.9390,4.7561,13.7805,0.00,0.00,0.00,2,S01
7280,-8.79869,1.27611,1.06542,3.5976,6.2805,12.5000,0.00,0.00,0.00,2,S01
7300,-9.05008,1.38385,1.13964,2.9878,6.2805,11.0976,0.00,0.00,0.00,2,S01
7320,-9.04529,1.38864,1.10373,3.0488,5.6707,10.6707,0.00,0.00,0.00,2,S01
7340,-8.91601,1.34554,0.99120,3.3537,4.6341,10.3659,0.00,0.00,0.00,2,S01
7360,-8.94234,1.41258,1.01035,3.2317,4.8780,9.5122,0.00,0.00,0.00,2,S01
7380,-8.94713,1.54665,1.02711,2.7439,5.7317,8.6585,0.00,0.00,0.00,2,S01
7400,-8.91601,1.58017,1.07739,1.7073,6.7073,7.9878,0.00,0.00,0.00,2,S01
7420,-8.99980,1.45089,1.29287,1.1585,7.6829,7.0122,0.00,0.00,0.00,2,S01
7440,-9.04290,1.31442,1.47004,2.5610,7.6829,5.7317,0.00,0.00,0.00,2,S01
7460,-9.04529,1.47004,1.78129,6.5244,7.2561,4.0854,0.00,0.00,0.00,2,S01
7480,-8.88249,1.52750,1.77889,7.9878,6.4024,3.4756,0.00,0.00,0.00,2,S01
7500,-8.69813,1.52750,1.69988,10.3659,6.7073,1.7683,0.00,0.00,0.00,2,S01
7520,-8.66701,1.56341,1.81959,12.7439,8.2927,-1.1585,0.00,0.00,0.00,2,S01
7540,-8.75799,1.57538,1.94170,14.5122,8.2927,-3.5976,0.00,0.00,0.00,2,S01
7560,-8.85855,1.60651,1.92015,16.0366,6.5244,-4.6951,0.00,0.00,0.00,2,S01
7580,-8.90404,1.75016,1.87227,16.7683,4.7561,-4.9390,0.00,0.00,0.00,2,S01
7600,-8.91122,2.21224,1.73580,15.5488,3.1098,-5.2439,0.00,0.00,0.00,2,S01
7620,-8.89446,2.37265,1.36948,12.6220,2.6829,-4.5122,0.00,0.00,0.00,2,S01
7640,-9.05487,2.51870,1.26653,10.0000,3.8415,-2.9268,0.00,0.00,0.00,2,S01
7660,-9.28232,1.94409,1.94170,7.1951,2.1341,-0.1220,0.00,0.00,0.00,2,S01
7680,-9.41640,1.21865,2.81319,11.2805,-2.3780,2.3171,0.00,0.00,0.00,2,S01
7700,-9.35654,0.96486,3.09570,21.6463,-6.4634,4.0854,0.00,0.00,0.00,2,S01
7720,-9.56962,1.64242,2.86825,30.9146,-7.0122,5.5488,0.00,0.00,0.00,2,S01
7740,-10.39562,2.89938,1.85072,33.4146,-6.3415,9.3293,0.00,0.00,0.00,2,S01
7760,-10.98220,3.71580,1.05584,28.6585,-2.1951,18.1707,0.00,0.00,0.00,2,S01
7780,-10.70448,3.21541,0.59137,21.0366,0.5488,27.1951,0.00,0.00,0.00,2,S01
7800,-10.05565,2.10450,0.41420,16.2195,0.1829,29.0244,0.00,0.00,0.00,2,S01
7820,-9.58160,0.99120,0.03831,18.6585,-1.2805,22.2561,0.00,0.00,0.00,2,S01
7840,-8.94234,0.66080,-0.59855,26.5854,-4.5122,11.3415,0.00,0.00,0.00,2,S01
7860,-8.46590,0.84755,-0.98881,31.9512,-6.8902,3.1098,0.00,0.00,0.00,2,S01
7880,-8.52096,1.36469,-0.89064,30.4268,-6.6463,0.0610,0.00,0.00,0.00,2,S01
7900,-9.15064,1.78129,-1.01514,21.9512,-5.3659,1.2195,0.00,0.00,0.00,2,S01
7920,-9.50737,1.96564,-0.76854,9.9390,-1.2805,0.7317,0.00,0.00,0.00,2,S01
7940,-9.89284,1.86508,-0.06225,0.2439,0.8537,-1.8293,0.00,0.00,0.00,2,S01
7960,-10.04368,1.49638,0.30167,-7.5000,-2.4390,-7.1951,0.00,0.00,0.00,2,S01
7980,-9.67018,1.25935,0.08859,-12.2561,-7.0732,-15.0610,0.00,0.00,0.00,2,S01
8000,-9.25838,1.18752,0.18914,-14.9390,-6.5854,-22.2561,0.00,0.00,0.00,2,S01
8020,-9.07163,1.16598,0.48602,-16.8293,-4.6341,-24.9390,0.00,0.00,0.00,2,S01
8040,-8.87291,1.14922,0.68953,-17.2561,-4.0244,-24.1463,0.00,0.00,0.00,2,S01
8060,-8.48505,1.03908,0.67277,-16.5854,-4.2683,-21.0366,0.00,0.00,0.00,2,S01
8080,-8.33900,1.05345,0.82361,-16.4634,-2.1341,-17.1951,0.00,0.00,0.00,2,S01
8100,-8.51378,1.03430,1.20428,-16.8902,1.3415,-13.4756,0.00,0.00,0.00,2,S01
8120,-8.62631,0.84036,1.22823,-16.8293,3.2927,-10.3659,0.00,0.00,0.00,2,S01
8140,-8.66222,0.76136,1.10612,-15.8537,6.0366,-9.3293,0.00,0.00,0.00,2,S01
8160,-8.76278,0.75657,1.11809,-14.4512,9.2683,-9.2683,0.00,0.00,0.00,2,S01
8180,-8.93037,0.74460,1.22823,-13.0488,10.9756,-8.5366,0.00,0.00,0.00,2,S01
8200,-9.05966,0.67995,1.47962,-12.1341,10.9756,-6.9512,0.00,0.00,0.00,2,S01
8220,-9.00459,0.69192,1.52511,-11.3415,9.4512,-5.4878,0.00,0.00,0.00,2,S01
8240,-8.98544,0.79727,1.59214,-11.2805,9.5122,-5.1220,0.00,0.00,0.00,2,S01
8260,-8.90882,0.80445,1.69270,-11.5854,10.6098,-5.1220,0.00,0.00,0.00,2,S01
8280,-8.76757,0.75896,1.82199,-11.5854,11.5244,-4.8780,0.00,0.00,0.00,2,S01
8300,-8.76757,0.79487,2.08056,-11.8902,11.5244,-3.7805,0.00,0.00,0.00,2,S01
8320,-8.86094,0.69192,2.20267,-13.6585,9.3293,-1.5244,0.00,0.00,0.00,2,S01
8340,-8.87291,0.79727,2.10450,-13.2317,6.5244,0.6098,0.00,0.00,0.00,2,S01
8360,-8.96868,0.90740,2.17633,-13.4756,5.4268,2.5000,0.00,0.00,0.00,2,S01
8380,-9.21768,0.63446,1.93691,-13.4756,4.3293,3.1098,0.00,0.00,0.00,2,S01
8400,-9.50737,0.11492,1.48201,-11.0976,1.7683,0.4878,0.00,0.00,0.00,2,S01
8420,-9.76834,0.20830,1.40300,-7.3171,-0.2439,-3.6585,0.00,0.00,0.00,2,S01
8440,-9.65103,1.02711,2.15478,-10.5488,-2.5610,-6.3415,0.00,0.00,0.00,2,S01
8460,-9.13388,1.84114,2.44927,-20.7927,-6.4634,-5.6098,0.00,0.00,0.00,2,S01
8480,-9.44752,1.75734,2.36787,-31.2805,-6.2805,-4.6951,0.00,0.00,0.00,2,S01
8500,-10.73081,0.91698,1.52989,-33.0488,-4.6341,-7.7439,0.00,0.00,0.00,2,S01
8520,-12.02847,0.18435,1.05105,-27.0732,-3.2317,-15.1220,0.00,0.00,0.00,2,S01
8540,-11.94228,0.41659,0.42377,-22.0732,-7.6829,-22.1341,0.00,0.00,0.00,2,S01
8560,-10.80264,0.88107,-0.13647,-22.5000,-14.2073,-23.5366,0.00,0.00,0.00,2,S01
8580,-9.36372,1.04866,-0.49560,-24.8780,-18.3537,-20.3659,0.00,0.00,0.00,2,S01
8600,-8.08522,0.96965,-1.11091,-27.5000,-19.1463,-13.9634,0.00,0.00,0.00,2,S01
8620,-8.18817,0.64165,-0.74460,-30.6098,-0.3049,-1.7683,0.00,0.00,0.00,2,S01
8640,-9.28471,0.59376,0.15083,-24.0244,5.9756,0.0610,0.00,0.00,0.00,2,S01
8660,-10.03889,0.77812,0.57940,-12.4390,5.4268,-0.4878,0.00,0.00,0.00,2,S01
8680,-9.98143,0.91219,0.53391,-3.8415,1.7073,-1.6463,0.00,0.00,0.00,2,S01
8700,-9.58160,0.97205,0.50278,-0.3049,-0.7317,-1.8293,0.00,0.00,0.00,2,S01
8720,-9.08600,1.03669,0.28491,2.1951,-1.0976,-0.0610,0.00,0.00,0.00,2,S01
8740,-8.73884,1.19710,0.23942,5.3659,1.8902,3.0488,0.00,0.00,0.00,2,S01
8760,-8.63349,1.37188,0.33040,7.3171,5.0000,7.1341,0.00,0.00,0.00,2,S01
8780,-8.71729,1.40300,0.41420,7.1951,7.4390,11.2195,0.00,0.00,0.00,2,S01
8800,-8.81066,1.36469,0.60573,5.4268,9.6951,13.9024,0.00,0.00,0.00,2,S01
8820,-8.90882,1.26893,0.79009,3.1098,10.2439,14.6951,0.00,0.00,0.00,2,S01
8840,-9.05487,1.23541,1.02472,2.1341,9.6341,14.2073,0.00,0.00,0.00,2,S01
8860,-9.06445,1.19710,1.01993,3.0488,7.8659,13.5366,0.00,0.00,0.00,2,S01
8880,-9.01178,1.30723,0.92177,4.3902,6.2805,12.9268,0.00,0.00,0.00,2,S01
8900,-8.89925,1.47004,0.84515,5.0610,5.6098,12.2561,0.00,0.00,0.00,2,S01
8920,-8.89685,1.70228,0.92416,4.2683,5.7927,11.0366,0.00,0.00,0.00,2,S01
8940,-8.93277,1.78368,1.01993,2.8659,6.5244,9.5732,0.00,0.00,0.00,2,S01
8960,-8.92319,1.63285,1.12288,2.5000,7.3171,7.7439,0.00,0.00,0.00,2,S01
8980,-8.86333,1.41497,1.20907,3.7805,8.2317,5.7927,0.00,0.00,0.00,2,S01
9000,-8.86812,1.37188,1.20189,5.5488,9.8780,4.3293,0.00,0.00,0.00,2,S01
9020,-8.86812,1.44131,1.28090,6.5854,11.3415,3.9024,0.00,0.00,0.00,2,S01
9040,-8.94713,1.47483,1.41018,7.0732,11.2805,2.8049,0.00,0.00,0.00,2,S01
9060,-9.09318,1.64242,1.54905,8.8415,9.6341,0.1829,0.00,0.00,0.00,2,S01
9080,-9.16740,1.70228,1.67115,11.1585,5.9756,-2.6220,0.00,0.00,0.00,2,S01
9100,-8.98783,1.61609,1.69988,13.8415,2.0122,-4.3902,0.00,0.00,0.00,2,S01
9120,-8.77954,1.54187,1.63285,16.3415,-0.2439,-5.7927,0.00,0.00,0.00,2,S01
9140,-8.74841,1.70467,1.74298,17.6829,-0.6707,-7.3171,0.00,0.00,0.00,2,S01
9160,-8.88009,2.29604,1.52750,17.5000,-2.1341,-7.8049,0.00,0.00,0.00,2,S01
9180,-8.96389,2.48997,1.15161,15.2439,-3.5366,-6.2195,0.00,0.00,0.00,2,S01
9200,-9.00699,2.64799,0.84994,13.0488,-3.5976,-4.3293,0.00,0.00,0.00,2,S01
9220,-9.22965,2.06859,1.92254,9.5732,-3.5976,-1.9512,0.00,0.00,0.00,2,S01
9240,-9.34696,1.38624,2.70305,14.9390,-7.0122,0.3049,0.00,0.00,0.00,2,S01
9260,-9.45231,1.40779,2.75094,25.4878,-8.6585,2.7439,0.00,0.00,0.00,2,S01
9280,-10.11071,2.27449,1.83396,32.8659,-7.8659,5.9146,0.00,0.00,0.00,2,S01
9300,-11.08276,3.25133,0.69911,32.7439,-3.7805,13.5976,0.00,0.00,0.00,2,S01
9320,-11.19050,3.26090,0.04549,27.5610,0.4268,24.8780,0.00,0.00,0.00,2,S01
9340,-10.37168,2.52828,-0.19632,21.0976,0.0000,31.6463,0.00,0.00,0.00,2,S01
9360,-9.62708,1.44131,-0.42377,18.7195,-1.1585,29.2073,0.00,0.00,0.00,2,S01
9380,-8.98304,0.73023,-0.72784,24.6951,-1.5854,19.0854,0.00,0.00,0.00,2,S01
9400,-8.76038,0.89304,-1.10133,31.2805,-3.7195,8.2317,0.00,0.00,0.00,2,S01
9420,-9.06205,1.37427,-0.72544,29.3293,-6.1585,3.2927,0.00,0.00,0.00,2,S01
9440,-9.46428,1.73101,-0.90740,20.4268,-8.9634,3.6585,0.00,0.00,0.00,2,S01
9460,-9.38766,2.08535,-1.11330,6.6463,-7.1341,2.3780,0.00,0.00,0.00,2,S01
9480,-9.61511,1.97522,-0.61770,-7.4390,-3.3537,-1.2195,0.00,0.00,0.00,2,S01
9500,-9.98382,1.68073,-0.12450,-18.6585,-5.1829,-7.4390,0.00,0.00,0.00,2,S01
9520,-9.68215,1.23541,-0.12929,-24.4512,-9.5122,-13.9024,0.00,0.00,0.00,2,S01
9540,-9.16261,0.98641,-0.08859,-27.5610,-10.0610,-19.6341,0.00,0.00,0.00,2,S01
9560,-9.04769,1.05584,0.12929,-30.1220,-7.7439,-22.8049,0.00,0.00,0.00,2,S01
9580,-8.91122,1.03190,0.47645,-31.5854,-5.8537,-22.4390,0.00,0.00,0.00,2,S01
9600,-8.63589,0.98402,0.76136,-30.9756,-6.0366,-19.3902,0.00,0.00,0.00,2,S01
9620,-8.44196,1.00078,0.83797,-30.3659,-6.4634,-14.9390,0.00,0.00,0.00,2,S01
9640,-8.31506,0.92656,0.79966,-30.0610,-4.5732,-10.1829,0.00,0.00,0.00,2,S01
9660,-8.39407,0.71108,0.73981,-28.7195,-0.1220,-6.6463,0.00,0.00,0.00,2,S01
9680,-8.65504,0.68235,0.75178,-27.1341,4.8171,-5.0000,0.00,0.00,0.00,2,S01
9700,-8.87052,0.82361,0.81882,-26.4024,8.0488,-4.0854,0.00,0.00,0.00,2,S01
9720,-9.00220,0.88346,0.70150,-24.9390,9.7561,-2.7439,0.00,0.00,0.00,2,S01
9740,-9.25598,0.98881,0.89543,-23.4146,11.9512,-1.6463,0.00,0.00,0.00,2,S01
9760,-9.47864,1.09654,1.17795,-23.4756,11.6463,-0.7317,0.00,0.00,0.00,2,S01
9780,-9.21768,1.12049,1.30963,-25.3659,6.1585,-0.4878,0.00,0.00,0.00,2,S01
9800,-9.07163,1.01275,1.46286,-25.9146,5.0000,-0.9146,0.00,0.00,0.00,2,S01
9820,-8.92558,0.96726,1.58257,-25.3659,4.6951,-1.3415,0.00,0.00,0.00,2,S01
9840,-8.79869,0.92895,1.63524,-25.5488,5.2439,-1.4634,0.00,0.00,0.00,2,S01
9860,-8.70532,0.91219,1.81959,-25.9146,6.4024,-1.4024,0.00,0.00,0.00,2,S01
9880,-8.74123,0.90261,1.94170,-24.2073,6.9512,-0.9146,0.00,0.00,0.00,2,S01
9900,-8.92798,0.98881,2.04944,-22.0732,7.3780,0.3659,0.00,0.00,0.00,2,S01
9920,-9.02614,1.13006,2.06620,-21.5244,6.3415,2.2561,0.00,0.00,0.00,2,S01
9940,-9.03093,0.82839,2.01113,-22.8049,4.0244,3.5976,0.00,0.00,0.00,2,S01
9960,-9.19613,0.71826,1.74058,-21.4024,2.0122,3.1098,0.00,0.00,0.00,2,S01
9980,-9.31823,0.72784,1.83156,-21.2805,1.5854,2.4390,0.00,0.00,0.00,2,S01
10000,-9.48822,0.48602,2.00395,-20.0000,-0.9146,1.8293,0.00,0.00,0.00,2,S01
10020,-9.62708,0.57700,2.27689,-16.6463,-4.7561,0.1220,0.00,0.00,0.00,2,S01
10040,-9.40682,1.18752,2.38462,-16.8293,-8.3537,-2.0732,0.00,0.00,0.00,2,S01
10060,-8.80348,1.69988,2.29365,-22.3171,-8.5976,-4.4512,0.00,0.00,0.00,2,S01
10080,-8.61913,1.57060,2.33435,-28.9024,-5.6707,-7.3171,0.00,0.00,0.00,2,S01
10100,-8.84897,1.12049,2.46842,-32.4390,-3.5366,-8.6585,0.00,0.00,0.00,2,S01
10120,-9.73243,0.62489,2.42772,-32.3780,-2.8049,-8.1098,0.00,0.00,0.00,2,S01
10140,-11.14740,0.09577,1.70946,-28.5976,-4.3902,-8.5976,0.00,0.00,0.00,2,S01
10160,-12.15776,0.06704,1.26653,-22.7439,-6.8902,-13.3537,0.00,0.00,0.00,2,S01
10180,-11.84890,0.45490,0.63686,-17.8659,-14.4512,-21.0366,0.00,0.00,0.00,2,S01
10200,-10.37168,1.08218,0.18196,-17.8049,-24.9390,-25.1829,0.00,0.00,0.00,2,S01
10220,-8.48744,1.16119,-0.62728,-22.3171,-33.1707,-21.8293,0.00,0.00,0.00,2,S01
10240,-7.16585,0.85952,-1.22344,-28.9634,-29.9390,-15.6707,0.00,0.00,0.00,2,S01
10260,-7.85538,0.73981,-0.60813,-33.5976,-15.4878,-10.9756,0.00,0.00,0.00,2,S01
10280,-9.24162,0.32322,0.15562,-30.3049,-1.9512,-3.2317,0.00,0.00,0.00,2,S01
10300,-10.26394,0.26815,0.73981,-20.7927,3.9634,2.7439,0.00,0.00,0.00,2,S01
10320,-10.41957,0.30885,0.83797,-11.5244,1.8293,5.6098,0.00,0.00,0.00,2,S01
10340,-9.95270,0.43814,0.58419,-4.0854,-3.1098,5.6707,0.00,0.00,0.00,2,S01
10360,-9.27514,0.58179,0.33279,2.6829,-4.8171,5.7317,0.00,0.00,0.00,2,S01
10380,-8.81545,0.69192,0.28970,8.7195,-3.1707,6.5854,0.00,0.00,0.00,2,S01
10400,-8.59518,0.89543,0.47166,12.6829,0.0610,7.8049,0.00,0.00,0.00,2,S01
10420,-8.51857,1.09415,0.62728,13.9024,3.4756,9.6341,0.00,0.00,0.00,2,S01
10440,-8.45632,1.01754,0.87149,13.0488,6.7073,10.9756,0.00,0.00,0.00,2,S01
10460,-8.56167,1.10133,1.10852,11.5244,9.2683,10.4878,0.00,0.00,0.00,2,S01
10480,-8.84418,1.27372,1.16837,9.3293,10.2439,9.6341,0.00,0.00,0.00,2,S01
10500,-9.03811,1.22104,1.36469,7.6220,10.6098,10.0610,0.00,0.00,0.00,2,S01
10520,-8.97586,1.19710,1.30963,8.4756,9.8780,10.7317,0.00,0.00,0.00,2,S01
10540,-8.85615,1.21625,1.19471,9.2073,9.7561,10.3049,0.00,0.00,0.00,2,S01
10560,-8.80827,1.12527,1.30005,9.6341,11.5854,8.8415,0.00,0.00,0.00,2,S01
10580,-8.94474,1.01275,1.52750,11.0366,13.5366,6.6463,0.00,0.00,0.00,2,S01
10600,-9.12909,0.87628,1.72861,14.0854,13.9634,4.7561,0.00,0.00,0.00,2,S01
10620,-9.16740,0.87149,1.74537,18.7195,12.9878,3.6585,0.00,0.00,0.00,2,S01
10640,-9.09318,1.12049,1.64482,23.1098,11.7683,3.1707,0.00,0.00,0.00,2,S01
10660,-8.98783,1.42694,1.64003,25.0000,11.0976,3.1098,0.00,0.00,0.00,2,S01
10680,-8.86812,1.66876,1.68312,25.1829,10.9756,2.1341,0.00,0.00,0.00,2,S01
10700,-8.76278,1.77650,1.74058,24.8171,10.5488,0.0000,0.00,0.00,0.00,2,S01
10720,-8.71011,1.83396,1.74058,24.6341,10.0000,-2.1951,0.00,0.00,0.00,2,S01
10740,-8.82263,1.82438,1.86508,23.7805,10.2439,-3.9024,0.00,0.00,0.00,2,S01
10760,-8.90882,1.73580,1.92254,22.9268,9.3293,-5.0000,0.00,0.00,0.00,2,S01
10780,-8.96150,1.65679,1.94170,22.2561,7.3780,-5.7927,0.00,0.00,0.00,2,S01
10800,-9.02375,1.93212,1.66397,21.8293,5.2439,-6.0976,0.00,0.00,0.00,2,S01
10820,-8.96868,2.32477,1.07021,20.0000,4.0244,-4.5732,0.00,0.00,0.00,2,S01
10840,-9.22725,2.54743,1.30963,13.9024,4.0244,-1.4634,0.00,0.00,0.00,2,S01
10860,-9.61272,2.02549,2.18351,10.1220,0.1220,2.5610,0.00,0.00,0.00,2,S01
10880,-9.54329,1.20189,2.87783,16.4634,-4.4512,6.4024,0.00,0.00,0.00,2,S01
10900,-9.16500,0.82839,2.86107,28.2927,-6.6463,8.4756,0.00,0.00,0.00,2,S01
10920,-9.03811,1.38624,2.42293,38.5366,-6.1585,8.8415,0.00,0.00,0.00,2,S01
10940,-10.56082,3.28484,1.11330,39.7561,-2.2561,17.5610,0.00,0.00,0.00,2,S01
10960,-10.92235,3.19626,0.87628,31.8902,0.7927,28.6585,0.00,0.00,0.00,2,S01
10980,-10.46266,2.39181,0.64643,24.8171,0.8537,35.4268,0.00,0.00,0.00,2,S01
11000,-10.08438,1.30245,0.35674,22.9878,1.5244,32.0732,0.00,0.00,0.00,2,S01
11020,-9.41879,0.56264,-0.08619,30.3049,2.1951,19.8171,0.00,0.00,0.00,2,S01
11040,-8.74123,0.60573,-0.77093,41.0366,-0.3049,6.0976,0.00,0.00,0.00,2,S01
11060,-8.27436,1.06781,-1.21865,44.8780,-2.8049,-2.1951,0.00,0.00,0.00,2,S01
11080,-8.37252,1.54665,-1.41737,39.6341,-3.2317,-3.0488,0.00,0.00,0.00,2,S01
11100,-9.37809,1.79086,-0.74699,27.8659,-1.4634,-1.8293,0.00,0.00,0.00,2,S01
11120,-10.00058,1.36948,-0.32322,18.7195,-2.3780,-2.0122,0.00,0.00,0.00,2,S01
11140,-10.42914,0.97205,0.27054,14.1463,-3.4146,-3.6585,0.00,0.00,0.00,2,S01
11160,-10.27352,0.85952,0.27773,9.2073,-7.8659,-8.7195,0.00,0.00,0.00,2,S01
11180,-9.62469,1.04866,0.09337,5.5488,-12.1341,-16.7683,0.00,0.00,0.00,2,S01
11200,-9.04769,1.16598,0.01915,4.3293,-11.7683,-24.9390,0.00,0.00,0.00,2,S01
11220,-8.92319,1.04866,0.51236,4.3902,-8.1098,-30.1829,0.00,0.00,0.00,2,S01
11240,-8.78433,0.79487,0.68714,4.8171,-7.5000,-31.2195,0.00,0.00,0.00,2,S01
11260,-8.56167,0.72305,0.77572,4.3902,-8.1098,-29.3293,0.00,0.00,0.00,2,S01
11280,-8.39886,0.75417,0.68235,3.9024,-6.7683,-25.4878,0.00,0.00,0.00,2,S01
11300,-8.41083,0.81882,0.76375,3.6585,-2.4390,-21.8293,0.00,0.00,0.00,2,S01
11320,-8.56645,0.74939,0.85234,3.9024,2.3780,-19.0854,0.00,0.00,0.00,2,S01
11340,-8.75560,0.68714,0.93374,4.5732,5.9146,-17.7439,0.00,0.00,0.00,2,S01
11360,-8.91601,0.63925,0.99838,5.2439,7.8659,-16.9512,0.00,0.00,0.00,2,S01
11380,-8.95431,0.55306,1.16598,5.3659,8.8415,-15.5488,0.00,0.00,0.00,2,S01
11400,-8.95910,0.45011,1.41018,5.4268,9.0854,-13.7195,0.00,0.00,0.00,2,S01
11420,-8.88009,0.29688,1.49638,5.6707,8.4146,-12.0122,0.00,0.00,0.00,2,S01
11440,-8.71968,0.17957,1.64482,6.7683,8.3537,-11.0366,0.00,0.00,0.00,2,S01
11460,-8.58321,0.29209,1.99198,7.8659,8.5976,-10.3049,0.00,0.00,0.00,2,S01
11480,-8.54969,0.39744,2.21224,8.1098,8.1707,-8.2927,0.00,0.00,0.00,2,S01
11500,-8.60955,0.36152,2.17394,7.9268,7.4390,-4.5122,0.00,0.00,0.00,2,S01
11520,-8.84418,0.49321,2.22421,7.3171,6.3415,-0.1829,0.00,0.00,0.00,2,S01
11540,-9.14106,-0.13408,1.84832,7.4390,3.5366,3.9024,0.00,0.00,0.00,2,S01
11560,-9.65582,-0.39504,1.43413,11.0366,1.2805,4.2073,0.00,0.00,0.00,2,S01
11580,-9.84496,-0.10774,1.68552,9.8171,-1.6463,0.1829,0.00,0.00,0.00,2,S01
11600,-9.56723,0.61052,2.20745,4.0854,-8.1707,-4.6951,0.00,0.00,0.00,2,S01
11620,-9.46428,1.07978,2.32716,-3.1707,-14.5122,-6.5244,0.00,0.00,0.00,2,S01
11640,-10.62786,0.75178,1.65439,-9.2683,-19.0854,-7.1341,0.00,0.00,0.00,2,S01
11660,-12.08593,0.40941,0.86431,-8.6585,-20.4878,-10.5488,0.00,0.00,0.00,2,S01
11680,-12.45703,0.90022,0.93853,-9.4512,-22.6220,-17.3780,0.00,0.00,0.00,2,S01
11700,-11.39879,1.49398,0.38547,-14.6951,-31.0366,-21.7073,0.00,0.00,0.00,2,S01
11720,-10.11790,1.84354,-0.47884,-18.5366,-34.3902,-18.2317,0.00,0.00,0.00,2,S01
11740,-9.41400,1.67594,-1.33118,-24.5732,-28.1098,-10.3659,0.00,0.00,0.00,2,S01
11760,-9.00699,1.10612,-0.90740,-29.4512,-16.6463,-3.1098,0.00,0.00,0.00,2,S01
11780,-8.98065,0.39025,-0.20111,-25.7927,-11.0366,-0.1220,0.00,0.00,0.00,2,S01
11800,-9.16261,0.19632,-0.03112,-12.3780,-9.6951,-0.3659,0.00,0.00,0.00,2,S01
11820,-9.20571,0.33758,0.19632,1.8902,-6.5854,-0.3659,0.00,0.00,0.00,2,S01
11840,-9.22486,0.85234,0.47166,12.3780,-3.7805,-0.0610,0.00,0.00,0.00,2,S01
11860,-9.05727,1.30963,0.48123,17.7439,-3.7195,1.9512,0.00,0.00,0.00,2,S01
11880,-8.64786,1.41258,0.40462,19.9390,-4.1463,4.7561,0.00,0.00,0.00,2,S01
11900,-8.31985,1.42455,0.20830,22.1951,-2.7439,6.7073,0.00,0.00,0.00,2,S01
11920,-8.32224,1.52511,0.16759,22.0122,1.4634,8.0488,0.00,0.00,0.00,2,S01
11940,-8.45153,1.61369,0.55545,18.2317,4.6341,9.3293,0.00,0.00,0.00,2,S01
11960,-8.61434,1.71904,0.91698,14.0244,4.2073,10.0000,0.00,0.00,0.00,2,S01
11980,-8.71968,1.58017,1.00078,11.7073,2.3171,10.4878,0.00,0.00,0.00,2,S01
12000,-8.77714,1.40300,0.97444,12.1341,1.8902,10.7927,0.00,0.00,0.00,2,S01
12020,-8.90643,1.39582,1.01514,12.7439,3.1707,10.9756,0.00,0.00,0.00,2,S01
12040,-9.00938,1.43652,1.06542,11.5244,4.3293,11.0366,0.00,0.00,0.00,2,S01
12060,-9.01656,1.55863,0.99120,10.5488,4.7561,10.0000,0.00,0.00,0.00,2,S01
12080,-8.93277,1.60890,0.97923,10.1220,5.0610,8.1707,0.00,0.00,0.00,2,S01
12100,-9.00938,1.55384,1.16837,11.9512,6.9512,3.7805,0.00,0.00,0.00,2,S01
12120,-9.15543,1.53947,1.31921,13.1098,8.2317,3.2317,0.00,0.00,0.00,2,S01
12140,-9.16740,1.58496,1.35033,14.8780,8.1707,3.2927,0.00,0.00,0.00,2,S01
12160,-9.08839,1.73340,1.40540,16.3415,7.2561,3.0488,0.00,0.00,0.00,2,S01
12180,-8.92798,1.79086,1.35991,17.0732,6.3415,2.1341,0.00,0.00,0.00,2,S01
12200,-8.82263,1.86748,1.43892,17.3780,6.8293,0.3659,0.00,0.00,0.00,2,S01
12220,-8.76996,1.92733,1.49638,17.3780,6.8293,-1.5244,0.00,0.00,0.00,2,S01
12240,-8.81545,1.85311,1.59693,16.6463,6.4024,-3.4146,0.00,0.00,0.00,2,S01
12260,-8.82024,1.57778,1.73101,16.2195,5.3659,-5.2439,0.00,0.00,0.00,2,S01
12280,-8.83939,1.84354,1.81241,16.5244,3.4146,-7.0732,0.00,0.00,0.00,2,S01
12300,-8.87531,1.92973,1.57060,14.8171,0.9756,-7.4390,0.00,0.00,0.00,2,S01
12320,-8.93037,1.83635,1.70707,14.2683,-0.1829,-7.2561,0.00,0.00,0.00,2,S01
12340,-8.97347,2.02549,1.36948,13.9634,-1.8902,-6.6463,0.00,0.00,0.00,2,S01
12360,-9.00699,1.83396,1.61848,10.6707,-2.8049,-5.0000,0.00,0.00,0.00,2,S01
12380,-9.10275,1.07021,2.73657,10.7927,-4.6951,-3.3537,0.00,0.00,0.00,2,S01
12400,-9.05248,0.51236,3.38301,19.3293,-8.1098,-2.4390,0.00,0.00,0.00,2,S01
12420,-9.02614,0.61531,3.50751,30.7927,-8.8415,-1.8902,0.00,0.00,0.00,2,S01
12440,-9.64384,1.50835,2.98318,41.3415,-8.4756,-0.7927,0.00,0.00,0.00,2,S01
12460,-10.61589,2.60729,1.66636,46.6463,-6.2195,5.7317,0.00,0.00,0.00,2,S01
12480,-11.24557,3.47878,0.78530,44.0854,-1.0366,17.5610,0.00,0.00,0.00,2,S01
12500,-11.12346,3.16513,0.02155,34.7561,-1.0366,29.2683,0.00,0.00,0.00,2,S01
12520,-9.99100,1.87466,-0.26815,27.9878,-2.9268,33.4756,0.00,0.00,0.00,2,S01
12540,-9.00699,1.00317,-0.77093,30.5488,-4.0854,25.4878,0.00,0.00,0.00,2,S01
12560,-8.56645,1.10852,-1.41737,33.9024,-4.0854,10.8537,0.00,0.00,0.00,2,S01
12580,-8.63349,1.82678,-1.39103,31.0366,-3.9024,0.3049,0.00,0.00,0.00,2,S01
12600,-9.24880,2.29365,-0.93374,21.7073,-4.5122,-1.9512,0.00,0.00,0.00,2,S01
12620,-9.81383,2.31280,-0.84994,11.1585,-4.6951,-1.2805,0.00,0.00,0.00,2,S01
12640,-9.82341,1.96564,-0.59616,2.7439,-3.6585,-3.7805,0.00,0.00,0.00,2,S01
12660,-10.04368,1.46765,0.04788,-3.5976,-4.8780,-9.9390,0.00,0.00,0.00,2,S01
12680,-9.97664,1.19231,0.09577,-5.8537,-9.8171,-18.4146,0.00,0.00,0.00,2,S01
12700,-9.41400,1.19471,0.08619,-7.0122,-12.9268,-24.6341,0.00,0.00,0.00,2,S01
12720,-8.98304,1.28808,0.37589,-9.7561,-12.4390,-27.5610,0.00,0.00,0.00,2,S01
12740,-8.71968,1.29047,0.76614,-11.5854,-9.9390,-27.8659,0.00,0.00,0.00,2,S01
12760,-8.43238,1.32878,0.88346,-10.7317,-8.1707,-26.4634,0.00,0.00,0.00,2,S01
12780,-8.27676,1.27132,0.86670,-10.7317,-6.3415,-22.6220,0.00,0.00,0.00,2,S01
12800,-8.34379,1.20668,1.00796,-11.8293,-2.8659,-17.2561,0.00,0.00,0.00,2,S01
12820,-8.52575,0.99838,1.27611,-13.2927,0.9146,-11.7073,0.00,0.00,0.00,2,S01
12840,-8.56406,0.85473,1.19471,-13.0488,2.7439,-7.3780,0.00,0.00,0.00,2,S01
12860,-8.58561,0.87149,1.08936,-12.7439,5.2439,-5.1829,0.00,0.00,0.00,2,S01
12880,-8.73644,0.90501,1.20668,-13.0488,8.5366,-4.3293,0.00,0.00,0.00,2,S01
12900,-8.98065,0.80685,1.38624,-12.2561,10.9146,-3.8415,0.00,0.00,0.00,2,S01
12920,-9.13867,0.78051,1.60890,-11.0976,11.4024,-4.0244,0.00,0.00,0.00,2,S01
12940,-9.09797,0.84755,1.67594,-9.6341,9.4512,-4.2683,0.00,0.00,0.00,2,S01
12960,-8.91840,0.83558,1.69749,-8.9634,7.9878,-3.9024,0.00,0.00,0.00,2,S01
12980,-8.77954,0.77333,1.82438,-9.0854,8.1707,-3.2317,0.00,0.00,0.00,2,S01
13000,-8.74841,0.80685,2.04944,-9.5122,9.1463,-2.4390,0.00,0.00,0.00,2,S01
13020,-8.79151,0.78769,2.16915,-10.3659,9.6341,-0.9146,0.00,0.00,0.00,2,S01
13040,-8.88488,0.78769,2.04465,-10.4878,9.2073,1.2195,0.00,0.00,0.00,2,S01
13060,-9.03332,0.84036,2.14999,-12.5000,8.3537,3.1098,0.00,0.00,0.00,2,S01
13080,-9.26077,0.88346,2.16675,-14.3293,6.7683,2.8049,0.00,0.00,0.00,2,S01
13100,-9.39485,0.65362,1.94649,-14.4512,4.6341,0.5488,0.00,0.00,0.00,2,S01
13120,-9.48583,0.27294,1.69988,-13.1707,2.6829,-2.6829,0.00,0.00,0.00,2,S01
13140,-9.60314,0.41659,1.87466,-12.5000,1.0976,-6.0366,0.00,0.00,0.00,2,S01
13160,-9.48343,1.14443,2.18830,-17.1951,-1.6463,-7.4390,0.00,0.00,0.00,2,S01
13180,-9.84975,1.54665,2.14520,-25.3659,-4.8171,-7.5000,0.00,0.00,0.00,2,S01
13200,-10.90319,1.05345,1.39821,-27.3780,-6.5244,-10.3049,0.00,0.00,0.00,2,S01
13220,-11.95185,0.52912,0.99359,-21.8902,-6.7073,-18.2927,0.00,0.00,0.00,2,S01
13240,-11.71722,0.64404,0.68953,-17.6829,-10.9756,-26.3415,0.00,0.00,0.00,2,S01
13260,-10.39562,1.13725,0.17717,-19.4512,-17.8659,-27.1951,0.00,0.00,0.00,2,S01
13280,-8.06128,1.32639,-0.84276,-28.1707,-17.1341,-10.9146,0.00,0.00,0.00,2,S01
13300,-7.86256,0.92177,-0.87867,-30.9756,-8.9634,-2.9878,0.00,0.00,0.00,2,S01
13320,-8.60476,0.79487,-0.33519,-30.0610,-1.2805,1.2805,0.00,0.00,0.00,2,S01
13340,-9.49780,0.93134,0.22266,-22.6220,1.9512,2.6220,0.00,0.00,0.00,2,S01
13360,-9.82580,1.13485,0.44053,-12.2561,1.4024,1.7073,0.00,0.00,0.00,2,S01
13380,-9.74679,1.17555,0.63446,-5.9756,-0.9756,-0.4268,0.00,0.00,0.00,2,S01
13400,-9.40203,1.19471,0.55785,-3.2927,-3.7805,-1.2195,0.00,0.00,0.00,2,S01
13420,-8.86812,1.29047,0.39265,-1.8902,-3.7195,0.6098,0.00,0.00,0.00,2,S01
13440,-8.57603,1.36230,0.46448,-0.9146,-1.1585,4.2683,0.00,0.00,0.00,2,S01
13460,-8.59279,1.30245,0.49321,0.7317,1.6463,7.9878,0.00,0.00,0.00,2,S01
13480,-8.69574,1.25935,0.55785,2.5610,5.5488,10.7317,0.00,0.00,0.00,2,S01
13500,-8.76757,1.08936,0.71108,3.1098,9.0244,11.7683,0.00,0.00,0.00,2,S01
13520,-8.84658,0.95768,0.84755,4.2073,10.3049,10.6098,0.00,0.00,0.00,2,S01
13540,-9.03811,1.16119,0.94332,6.1585,10.9146,8.2927,0.00,0.00,0.00,2,S01
13560,-9.18655,1.51553,1.03190,6.4634,10.1829,7.1341,0.00,0.00,0.00,2,S01
13580,-9.08360,1.70228,0.92177,5.4878,7.9878,7.6829,0.00,0.00,0.00,2,S01
13600,-8.86812,1.71425,0.86191,4.5732,6.6463,7.8659,0.00,0.00,0.00,2,S01
13620,-8.83939,1.72143,1.00796,3.5366,6.5854,6.9512,0.00,0.00,0.00,2,S01
13640,-8.93756,1.69270,1.10612,2.8659,7.9268,5.9146,0.00,0.00,0.00,2,S01
13660,-9.03332,1.64960,1.26414,2.6829,9.9390,5.4878,0.00,0.00,0.00,2,S01
13680,-9.00459,1.41018,1.40061,3.2927,10.4268,5.2439,0.00,0.00,0.00,2,S01
13700,-8.86812,1.40061,1.55384,5.3659,8.9634,3.1098,0.00,0.00,0.00,2,S01
13720,-8.71489,1.42694,1.66876,7.3780,7.1341,-0.1829,0.00,0.00,0.00,2,S01
13740,-8.59997,1.62566,1.62087,9.5122,6.0976,-3.2317,0.00,0.00,0.00,2,S01
13760,-8.69574,1.69031,1.64003,11.4634,6.0976,-5.9146,0.00,0.00,0.00,2,S01
13780,-8.95192,1.68791,1.85551,14.3902,5.5488,-8.4146,0.00,0.00,0.00,2,S01
13800,-9.10036,1.57060,1.89142,18.5976,2.5000,-10.1829,0.00,0.00,0.00,2,S01
13820,-9.22965,1.73580,1.95367,21.7683,-0.9146,-11.1585,0.00,0.00,0.00,2,S01
13840,-9.26317,2.19309,1.79326,22.2561,-4.5122,-10.4268,0.00,0.00,0.00,2,S01
13860,-9.04290,2.71502,1.21386,19.9390,-7.3780,-7.5000,0.00,0.00,0.00,2,S01
13880,-8.88967,3.33512,0.69192,14.2683,-7.8049,-3.4756,0.00,0.00,0.00,2,S01
13900,-9.17219,3.05021,1.45089,4.7561,-7.3171,1.8293,0.00,0.00,0.00,2,S01
13920,-9.14585,2.04944,2.44687,2.7439,-9.3293,6.5854,0.00,0.00,0.00,2,S01
13940,-9.34936,1.51314,2.72221,11.0976,-10.6098,8.7805,0.00,0.00,0.00,2,S01
13960,-10.12747,2.09732,1.65439,19.4512,-8.0488,11.2805,0.00,0.00,0.00,2,S01
13980,-10.68532,2.58574,0.45011,20.1829,-1.7073,17.8049,0.00,0.00,0.00,2,S01
14000,-10.91517,2.38702,0.15323,16.4024,3.1098,25.3049,0.00,0.00,0.00,2,S01
14020,-10.63026,1.80523,-0.12450,12.5000,1.8902,28.5366,0.00,0.00,0.00,2,S01
14040,-10.22803,1.33596,-0.42617,11.0976,-1.0976,25.0000,0.00,0.00,0.00,2,S01
14060,-9.71806,1.21865,-0.78290,12.5610,-5.6707,17.5000,0.00,0.00,0.00,2,S01
14080,-9.22007,1.33596,-0.83318,11.9512,-9.6341,10.9146,0.00,0.00,0.00,2,S01
14100,-8.81784,1.46286,-0.56024,6.8293,-10.9756,6.9512,0.00,0.00,0.00,2,S01
14120,-8.69335,1.75016,-0.61292,-2.5000,-9.2073,5.2439,0.00,0.00,0.00,2,S01
14140,-8.82503,1.86269,-0.62489,-17.0732,-4.0244,2.8049,0.00,0.00,0.00,2,S01
14160,-8.95910,1.52032,-0.33998,-30.8537,1.2195,-0.5488,0.00,0.00,0.00,2,S01
14180,-9.27514,1.17555,-0.02155,-40.1829,3.3537,-3.4146,0.00,0.00,0.00,2,S01
14200,-9.43794,0.99599,0.21548,-45.3659,3.4146,-5.5488,0.00,0.00,0.00,2,S01
14220,-9.40203,1.01993,0.30885,-48.5976,2.9878,-6.0366,0.00,0.00,0.00,2,S01
14240,-9.13388,0.93134,0.40462,-51.6463,2.8659,-4.8780,0.00,0.00,0.00,2,S01
14260,-9.07881,0.78290,0.75896,-53.6585,3.7805,-4.7561,0.00,0.00,0.00,2,S01
14280,-8.87052,0.78051,0.72065,-52.9878,3.8415,-5.0610,0.00,0.00,0.00,2,S01
14300,-8.77236,0.94332,0.62489,-53.8415,4.6951,-4.0244,0.00,0.00,0.00,2,S01
14320,-8.94474,1.00796,0.73741,-56.6463,6.7073,-1.5854,0.00,0.00,0.00,2,S01
14340,-8.99502,0.93853,0.78051,-57.6220,7.6829,0.6707,0.00,0.00,0.00,2,S01
14360,-9.09078,0.86431,0.81642,-56.8902,9.4512,1.7683,0.00,0.00,0.00,2,S01
14380,-9.13627,0.88585,0.83797,-56.0366,10.7927,1.8902,0.00,0.00,0.00,2,S01
14400,-9.15064,0.94092,0.83079,-55.4268,11.2805,1.6463,0.00,0.00,0.00,2,S01
14420,-9.14824,0.97205,0.82121,-54.9390,11.8293,1.2805,0.00,0.00,0.00,2,S01
14440,-9.23683,0.87149,0.89304,-54.1463,13.5976,0.3659,0.00,0.00,0.00,2,S01
14460,-9.30147,0.84276,1.08697,-52.5610,14.5732,-0.1220,0.00,0.00,0.00,2,S01
14480,-9.31823,0.89064,1.20907,-50.8537,14.1463,-0.1829,0.00,0.00,0.00,2,S01
14500,-9.30147,0.92656,1.31202,-50.1220,12.3780,-0.3049,0.00,0.00,0.00,2,S01
14520,-9.16740,0.94332,1.31921,-48.4146,10.4878,-0.5488,0.00,0.00,0.00,2,S01
14540,-9.08121,0.90022,1.38145,-45.7317,9.8171,-0.8537,0.00,0.00,0.00,2,S01
14560,-9.05487,0.86431,1.48441,-42.5610,9.0244,-1.2195,0.00,0.00,0.00,2,S01
14580,-9.03332,0.84755,1.56341,-39.3902,7.8659,-1.2195,0.00,0.00,0.00,2,S01
14600,-8.99262,0.80445,1.65679,-36.5854,7.0122,-0.6707,0.00,0.00,0.00,2,S01
14620,-8.94474,0.68953,1.80523,-33.5366,6.8293,-0.0610,0.00,0.00,0.00,2,S01
14640,-8.98783,0.67995,1.95367,-30.3659,6.6463,0.3659,0.00,0.00,0.00,2,S01
14660,-9.06924,0.69432,2.09253,-27.5000,5.5488,1.1585,0.00,0.00,0.00,2,S01
14680,-9.11473,0.64404,1.95367,-24.4512,3.6585,2.0732,0.00,0.00,0.00,2,S01
14700,-9.02375,0.77093,1.88903,-22.1951,2.8049,2.4390,0.00,0.00,0.00,2,S01
14720,-8.87770,0.88346,1.97282,-22.0122,2.4390,2.5000,0.00,0.00,0.00,2,S01
14740,-8.90643,0.95768,2.04704,-21.0976,1.6463,2.8659,0.00,0.00,0.00,2,S01
14760,-8.98544,1.01514,2.05901,-20.6707,0.6707,3.7195,0.00,0.00,0.00,2,S01
14780,-8.95671,0.96247,2.13563,-21.5244,-0.1829,4.4512,0.00,0.00,0.00,2,S01
14800,-8.88249,0.79966,2.26491,-22.5610,-0.9146,4.2073,0.00,0.00,0.00,2,S01
14820,-8.82742,0.65601,2.35111,-22.1341,-0.8537,2.7439,0.00,0.00,0.00,2,S01
14840,-8.72447,0.66319,2.40378,-20.2439,-0.0610,0.8537,0.00,0.00,0.00,2,S01
14860,-8.73165,0.69671,2.60489,-18.7195,0.0610,-0.4268,0.00,0.00,0.00,2,S01
14880,-8.93756,0.78290,2.69827,-17.4390,-0.8537,-1.1585,0.00,0.00,0.00,2,S01
14900,-9.26077,0.59137,2.61686,-16.3415,-1.2805,-1.7683,0.00,0.00,0.00,2,S01
14920,-9.77553,0.55067,2.44448,-13.1707,-1.6463,-3.9024,0.00,0.00,0.00,2,S01
14940,-10.68053,0.53391,2.07817,-10.9756,-3.9634,-7.7439,0.00,0.00,0.00,2,S01
14960,-11.55681,0.66319,1.45089,-8.5366,-6.7683,-14.0854,0.00,0.00,0.00,2,S01
14980,-11.56399,0.94571,1.07978,-6.7683,-10.2439,-21.6463,0.00,0.00,0.00,2,S01
15000,-10.72363,1.59693,0.82361,-8.7195,-17.1951,-25.5488,0.00,0.00,0.00,2,S01
15020,-9.41161,1.75256,0.24900,-14.3293,-22.9878,-22.0732,0.00,0.00,0.00,2,S01
15040,-8.26239,1.16837,-0.28252,-18.5976,-21.2195,-13.1707,0.00,0.00,0.00,2,S01
15060,-7.76918,0.28252,-0.49799,-19.3902,-12.9268,-5.3049,0.00,0.00,0.00,2,S01
15080,-8.26957,-0.09577,-0.15083,-17.5000,-4.0854,-1.6463,0.00,0.00,0.00,2,S01
15100,-9.12430,-0.11971,0.37110,-11.7073,-0.8537,-0.1829,0.00,0.00,0.00,2,S01
15120,-9.83299,0.28970,0.62010,-3.4146,-2.5610,0.5488,0.00,0.00,0.00,2,S01
15140,-10.06283,0.76375,0.61770,3.2317,-4.9390,1.0976,0.00,0.00,0.00,2,S01
15160,-9.93115,0.82600,0.63446,8.2927,-6.2195,1.7073,0.00,0.00,0.00,2,S01
15180,-9.58638,0.67995,0.57700,14.3902,-6.7683,2.6829,0.00,0.00,0.00,2,S01
15200,-9.18176,0.66798,0.52433,20.9756,-5.3049,4.3293,0.00,0.00,0.00,2,S01
15220,-8.91601,0.81403,0.74220,25.9756,-2.5000,6.1585,0.00,0.00,0.00,2,S01
15240,-8.82742,0.98402,0.88107,29.2073,-1.0366,7.7439,0.00,0.00,0.00,2,S01
15260,-8.81306,1.06542,0.92416,31.1585,-0.6098,8.9024,0.00,0.00,0.00,2,S01
15280,-8.70292,1.20189,1.05584,32.1951,0.5488,9.0854,0.00,0.00,0.00,2,S01
15300,-8.59997,1.44131,1.07021,31.5854,2.2561,8.5976,0.00,0.00,0.00,2,S01
15320,-8.60476,1.60172,1.12049,29.4512,4.7561,8.1707,0.00,0.00,0.00,2,S01
15340,-8.67659,1.63285,1.17316,26.8293,7.0122,8.0488,0.00,0.00,0.00,2,S01
15360,-8.76278,1.45328,1.22344,24.2073,8.3537,7.5610,0.00,0.00,0.00,2,S01
15380,-8.80109,1.25935,1.20668,22.7439,9.3293,5.9756,0.00,0.00,0.00,2,S01
15400,-8.89446,1.16358,1.21147,22.0122,10.7927,3.4146,0.00,0.00,0.00,2,S01
15420,-9.03572,1.08697,1.36230,22.1951,12.5610,1.1585,0.00,0.00,0.00,2,S01
15440,-9.18895,1.13246,1.55863,23.7805,13.2317,-0.3659,0.00,0.00,0.00,2,S01
15460,-9.27035,1.18034,1.62566,25.8537,11.5244,-0.9146,0.00,0.00,0.00,2,S01
15480,-9.18176,1.22344,1.59693,28.2317,8.9024,-1.2195,0.00,0.00,0.00,2,S01
15500,-8.95910,1.37188,1.55863,30.6098,7.3780,-1.9512,0.00,0.00,0.00,2,S01
15520,-8.78911,1.55144,1.64003,31.5244,7.1951,-2.9268,0.00,0.00,0.00,2,S01
15540,-8.74602,1.61130,1.77650,31.3415,7.3171,-3.7195,0.00,0.00,0.00,2,S01
15560,-8.78911,1.61848,1.82678,31.2195,7.6220,-4.4512,0.00,0.00,0.00,2,S01
15580,-8.93277,1.68312,1.93451,31.2805,8.1098,-5.4878,0.00,0.00,0.00,2,S01
15600,-9.09557,1.80762,1.90339,31.0366,7.5000,-6.4024,0.00,0.00,0.00,2,S01
15620,-9.02614,2.19788,1.66158,28.3537,5.6707,-6.0976,0.00,0.00,0.00,2,S01
15640,-9.23922,2.68869,1.69270,25.5488,4.2073,-4.8780,0.00,0.00,0.00,2,S01
15660,-9.38048,2.85389,1.30963,20.3659,1.2195,-0.7927,0.00,0.00,0.00,2,S01
15680,-9.40442,2.67432,1.61848,15.3659,0.0000,4.5732,0.00,0.00,0.00,2,S01
15700,-9.22965,2.05901,2.17872,15.1220,-2.8659,8.7195,0.00,0.00,0.00,2,S01
15720,-9.04051,1.41258,2.76291,20.7927,-5.0610,9.9390,0.00,0.00,0.00,2,S01
15740,-9.15543,1.25456,2.88262,29.5732,-5.6707,8.7195,0.00,0.00,0.00,2,S01
15760,-9.78271,1.57778,2.19548,37.4390,-4.8171,8.7805,0.00,0.00,0.00,2,S01
15780,-10.61350,2.33914,1.47004,40.9146,-2.5000,13.6585,0.00,0.00,0.00,2,S01
15800,-11.02769,2.47321,0.77333,39.3293,-1.5244,23.2317,0.00,0.00,0.00,2,S01
15820,-10.19930,1.77171,0.28491,36.1585,-1.9512,30.1829,0.00,0.00,0.00,2,S01
15840,-9.54329,0.88585,0.28970,36.9512,-0.2439,26.0976,0.00,0.00,0.00,2,S01
15860,-9.29908,0.64883,0.07661,44.2683,-1.0976,13.1098,0.00,0.00,0.00,2,S01
15880,-8.90164,0.88825,-0.77333,52.1951,-5.3049,1.0976,0.00,0.00,0.00,2,S01
15900,-8.40365,1.13246,-1.38624,54.6341,-6.8902,-5.6098,0.00,0.00,0.00,2,S01
15920,-8.47787,1.52750,-1.44849,50.4878,-5.1829,-8.2317,0.00,0.00,0.00,2,S01
15940,-9.13148,1.73340,-1.03669,39.5732,-2.6829,-7.6220,0.00,0.00,0.00,2,S01
15960,-9.92875,1.39582,-0.29688,28.1098,-1.4024,-7.3780,0.00,0.00,0.00,2,S01
15980,-10.26394,0.91459,0.42138,22.7439,-3.2317,-10.2439,0.00,0.00,0.00,2,S01
16000,-9.95509,0.66080,0.40941,20.0000,-9.1463,-14.5122,0.00,0.00,0.00,2,S01
16020,-9.39724,1.01993,-0.00239,17.0122,-12.8049,-19.6951,0.00,0.00,0.00,2,S01
16040,-9.20331,1.38864,0.15083,12.0732,-10.6707,-24.8171,0.00,0.00,0.00,2,S01
16060,-9.02614,1.36709,0.45490,7.8659,-8.9024,-27.3780,0.00,0.00,0.00,2,S01
16080,-8.79390,1.14203,0.54348,6.5244,-8.5366,-26.8902,0.00,0.00,0.00,2,S01
16100,-8.55448,1.02472,0.49560,5.7927,-7.8049,-24.6951,0.00,0.00,0.00,2,S01
16120,-8.52815,0.78530,0.71347,4.3293,-4.4512,-21.1585,0.00,0.00,0.00,2,S01
16140,-8.67180,0.57221,0.93613,3.1707,-0.7317,-18.2317,0.00,0.00,0.00,2,S01
16160,-8.81066,0.50757,0.98402,3.4756,1.8902,-16.7683,0.00,0.00,0.00,2,S01
16180,-8.93516,0.57221,0.94332,5.1829,3.5976,-16.6463,0.00,0.00,0.00,2,S01
16200,-8.97107,0.64883,0.99359,6.0366,4.1463,-16.2805,0.00,0.00,0.00,2,S01
16220,-8.94953,0.71108,1.04387,5.3659,4.3902,-14.6341,0.00,0.00,0.00,2,S01
16240,-8.96389,0.62728,1.15879,3.4756,5.2439,-12.8049,0.00,0.00,0.00,2,S01
16260,-9.02853,0.44772,1.34554,2.2561,5.9756,-11.5244,0.00,0.00,0.00,2,S01
16280,-9.03332,0.28491,1.48201,2.1341,5.7317,-11.0366,0.00,0.00,0.00,2,S01
16300,-8.94474,0.16281,1.71904,2.7439,5.3049,-10.6707,0.00,0.00,0.00,2,S01
16320,-8.82263,0.27773,1.99198,3.4146,4.8171,-8.9024,0.00,0.00,0.00,2,S01
16340,-8.75560,0.35434,2.21942,0.8537,3.9024,-5.9146,0.00,0.00,0.00,2,S01
16360,-8.74602,0.39983,2.15718,-0.2439,2.6220,-2.8049,0.00,0.00,0.00,2,S01
16380,-8.89446,0.38307,2.02789,-0.1220,1.4634,0.8537,0.00,0.00,0.00,2,S01
16400,-9.20810,-0.09337,1.89381,0.3659,0.9146,4.2683,0.00,0.00,0.00,2,S01
16420,-9.52174,-0.25857,1.58736,3.1707,-0.3049,4.2683,0.00,0.00,0.00,2,S01
16440,-9.67736,-0.16041,1.49638,3.8415,-2.6220,1.5854,0.00,0.00,0.00,2,S01
16460,-9.81862,0.88107,2.07817,0.1829,-5.9146,-2.3780,0.00,0.00,0.00,2,S01
16480,-10.44830,1.65200,2.16915,-9.9390,-12.0122,-4.3902,0.00,0.00,0.00,2,S01
16500,-11.67892,1.18274,1.08218,-15.7927,-16.0976,-6.9512,0.00,0.00,0.00,2,S01
16520,-12.53125,0.53870,0.84036,-14.1463,-14.5122,-14.4512,0.00,0.00,0.00,2,S01
16540,-11.84412,0.55067,0.48602,-12.9878,-19.8171,-22.5000,0.00,0.00,0.00,2,S01
16560,-9.95509,0.69432,0.01197,-15.5488,-27.3171,-23.2317,0.00,0.00,0.00,2,S01
16580,-8.48984,0.84036,-0.26576,-19.6341,-27.9878,-18.3537,0.00,0.00,0.00,2,S01
16600,-7.93199,1.02472,-0.55067,-22.8659,-21.2805,-12.6220,0.00,0.00,0.00,2,S01
16620,-7.95114,1.16358,-0.57700,-23.1098,-13.0488,-6.9512,0.00,0.00,0.00,2,S01
16640,-8.62152,1.03430,-0.18435,-19.2683,-6.9512,-2.6829,0.00,0.00,0.00,2,S01
16660,-9.43076,0.85712,0.41899,-10.8537,-3.9634,-1.4634,0.00,0.00,0.00,2,S01
16680,-9.71088,0.64404,0.50757,0.2439,-4.3293,-2.6220,0.00,0.00,0.00,2,S01
16700,-9.61990,0.61052,0.41659,9.1463,-5.1829,-4.4512,0.00,0.00,0.00,2,S01
16720,-9.34218,0.88107,0.42617,14.0244,-5.0610,-4.7561,0.00,0.00,0.00,2,S01
16740,-9.06445,1.30245,0.45011,15.9146,-4.3293,-2.3171,0.00,0.00,0.00,2,S01
16760,-8.82742,1.57538,0.36871,17.1341,-3.3537,1.6463,0.00,0.00,0.00,2,S01
16780,-8.60237,1.71185,0.56982,15.9146,2.1951,8.9634,0.00,0.00,0.00,2,S01
16800,-8.62391,1.54905,0.86910,12.5610,3.6585,10.4268,0.00,0.00,0.00,2,S01
16820,-8.78672,1.35751,1.11809,10.1220,4.2073,10.6098,0.00,0.00,0.00,2,S01
16840,-8.99502,1.34315,1.07260,9.8780,4.2073,10.1220,0.00,0.00,0.00,2,S01
16860,-9.01896,1.32160,1.01754,9.9390,4.6951,10.1829,0.00,0.00,0.00,2,S01
16880,-8.97826,1.22583,0.98402,10.3659,5.2439,10.0610,0.00,0.00,0.00,2,S01
16900,-8.98304,1.22104,1.02232,11.4634,5.7927,9.0244,0.00,0.00,0.00,2,S01
16920,-9.08839,1.43413,1.04866,12.5610,6.1585,7.3780,0.00,0.00,0.00,2,S01
16940,-9.20331,1.56820,1.12767,11.9512,6.0366,6.7073,0.00,0.00,0.00,2,S01
16960,-9.12670,1.54905,1.22344,11.0976,5.7927,7.0122,0.00,0.00,0.00,2,S01
16980,-8.99741,1.45567,1.33836,11.1585,5.6707,7.2561,0.00,0.00,0.00,2,S01
17000,-8.91361,1.44131,1.50835,11.6463,5.5488,6.8293,0.00,0.00,0.00,2,S01
17020,-8.76517,1.58257,1.55623,12.2561,5.3659,6.0976,0.00,0.00,0.00,2,S01
17040,-8.63828,1.66636,1.59454,12.1341,5.8537,4.8171,0.00,0.00,0.00,2,S01
17060,-8.62391,1.69031,1.65439,12.0732,6.5244,2.2561,0.00,0.00,0.00,2,S01
17080,-8.70771,1.81241,1.79086,12.7439,6.8293,-1.0366,0.00,0.00,0.00,2,S01
17100,-8.83939,1.90578,1.97761,13.0488,5.7317,-3.7805,0.00,0.00,0.00,2,S01
17120,-8.97347,1.92254,2.04704,13.6585,3.0488,-5.3049,0.00,0.00,0.00,2,S01
17140,-9.04290,2.13563,1.94409,14.1463,0.7317,-5.6098,0.00,0.00,0.00,2,S01
17160,-9.06445,2.40857,1.75734,12.5000,0.0000,-4.5732,0.00,0.00,0.00,2,S01
17180,-8.92558,2.70305,1.26653,8.9024,0.2439,-2.5610,0.00,0.00,0.00,2,S01
17200,-8.94234,3.33512,0.89543,3.1098,1.5854,-0.2439,0.00,0.00,0.00,2,S01
17220,-9.14824,2.65756,1.43413,-6.8293,1.5854,4.3293,0.00,0.00,0.00,2,S01
17240,-9.29669,1.63285,2.55222,-5.3659,-0.1829,8.2927,0.00,0.00,0.00,2,S01
17260,-9.40442,0.98641,3.14598,4.6951,-3.7805,10.7927,0.00,0.00,0.00,2,S01
17280,-9.36851,1.03669,3.26090,15.3049,-6.1585,11.9512,0.00,0.00,0.00,2,S01
17300,-9.86172,1.80523,2.60250,24.3902,-7.8049,12.4390,0.00,0.00,0.00,2,S01
17320,-10.66856,2.90896,1.64003,29.2683,-6.7073,16.5244,0.00,0.00,0.00,2,S01
17340,-11.05163,3.36625,0.79248,27.0732,-4.6341,25.0610,0.00,0.00,0.00,2,S01
17360,-10.37168,2.58574,0.15562,20.5488,-5.0610,31.1585,0.00,0.00,0.00,2,S01
17380,-9.62708,1.47243,-0.00958,18.5976,-4.6951,27.8049,0.00,0.00,0.00,2,S01
17400,-9.04769,1.03908,-0.43096,23.5366,-6.4024,16.2805,0.00,0.00,0.00,2,S01
17420,-8.60476,1.13725,-1.09176,26.8902,-9.7561,5.3049,0.00,0.00,0.00,2,S01
17440,-8.31985,1.52750,-1.28808,25.3049,-9.9390,-0.1829,0.00,0.00,0.00,2,S01
17460,-8.49942,1.90100,-1.14443,18.2317,-7.3780,-0.2439,0.00,0.00,0.00,2,S01
17480,-9.30866,2.05422,-0.69192,7.6829,-3.1707,1.4634,0.00,0.00,0.00,2,S01
17500,-9.80904,1.77171,-0.10056,-0.6098,-1.2195,-0.7317,0.00,0.00,0.00,2,S01
17520,-10.08917,1.50595,0.26576,-5.5488,-3.2927,-4.5122,0.00,0.00,0.00,2,S01
17540,-10.02692,1.34315,0.24421,-10.5488,-7.6220,-9.0244,0.00,0.00,0.00,2,S01
17560,-9.65342,1.28569,0.23703,-15.4268,-11.5854,-15.1829,0.00,0.00,0.00,2,S01
17580,-9.19134,1.26174,0.32322,-16.5854,-12.2561,-20.3659,0.00,0.00,0.00,2,S01
17600,-8.89685,1.10373,0.64643,-16.0976,-9.8171,-23.2317,0.00,0.00,0.00,2,S01
17620,-8.67898,1.11330,0.88107,-15.4268,-7.1951,-23.9024,0.00,0.00,0.00,2,S01
17640,-8.49702,1.26893,0.96247,-15.7927,-5.4878,-21.5244,0.00,0.00,0.00,2,S01
17660,-8.39407,1.24020,0.99120,-16.7683,-2.9878,-16.2805,0.00,0.00,0.00,2,S01
17680,-8.44674,1.17795,1.08218,-17.6829,0.7317,-10.9756,0.00,0.00,0.00,2,S01
17700,-8.51618,1.05345,1.09894,-17.9878,4.3902,-7.1341,0.00,0.00,0.00,2,S01
17720,-8.67898,1.02711,1.08457,-18.0488,8.2927,-5.5488,0.00,0.00,0.00,2,S01
17740,-8.94953,0.98162,1.27850,-18.7195,12.1341,-5.3049,0.00,0.00,0.00,2,S01
17760,-9.14346,0.96007,1.50356,-17.9268,13.2927,-5.5488,0.00,0.00,0.00,2,S01
17780,-9.14106,1.01514,1.62566,-16.1585,11.5244,-5.6707,0.00,0.00,0.00,2,S01
17800,-9.01656,1.00796,1.69509,-15.0610,9.5122,-5.2439,0.00,0.00,0.00,2,S01
17820,-8.87052,0.97683,1.81720,-14.5122,8.7805,-4.7561,0.00,0.00,0.00,2,S01
17840,-8.71729,0.91698,1.93451,-14.0854,9.5122,-4.5122,0.00,0.00,0.00,2,S01
17860,-8.64546,0.86191,2.03986,-13.2927,11.0366,-4.0854,0.00,0.00,0.00,2,S01
17880,-8.71011,1.01035,2.15718,-11.7683,11.8902,-2.3780,0.00,0.00,0.00,2,S01
17900,-8.87291,1.12527,2.37265,-13.2317,10.3049,0.7317,0.00,0.00,0.00,2,S01
17920,-9.06205,1.02951,2.40138,-14.2683,7.0122,3.1098,0.00,0.00,0.00,2,S01
17940,-9.16979,0.85234,2.04944,-13.6585,4.7561,3.5366,0.00,0.00,0.00,2,S01
17960,-9.56484,0.79966,1.67594,-12.5610,2.6829,-3.0488,0.00,0.00,0.00,2,S01
17980,-9.64624,1.18513,1.89860,-15.7927,-1.7073,-5.3049,0.00,0.00,0.00,2,S01
18000,-9.36133,1.91776,2.43011,-23.5976,-5.3659,-4.9390,0.00,0.00,0.00,2,S01
18020,-9.00220,2.33195,2.78924,-35.0610,-6.6463,-2.8659,0.00,0.00,0.00,2,S01
18040,-9.05248,1.70946,2.58095,-44.9390,-4.2073,-1.9512,0.00,0.00,0.00,2,S01
18060,-9.71567,0.67516,1.93212,-46.6463,-0.1220,-5.0000,0.00,0.00,0.00,2,S01
18080,-10.67814,-0.09098,1.41976,-41.5854,2.9268,-12.1951,0.00,0.00,0.00,2,S01
18100,-11.15698,0.04549,1.01754,-34.1463,1.5854,-20.0610,0.00,0.00,0.00,2,S01
18120,-11.01093,0.41899,0.64404,-28.4146,-3.2927,-25.7317,0.00,0.00,0.00,2,S01
18140,-10.31422,1.13725,0.32322,-26.3415,-8.5976,-27.7439,0.00,0.00,0.00,2,S01
18160,-9.22246,1.19231,-0.23224,-27.5610,-11.8902,-22.5610,0.00,0.00,0.00,2,S01
18180,-8.42041,0.71826,-0.58897,-28.9024,-9.2683,-13.2317,0.00,0.00,0.00,2,S01
18200,-8.03255,0.38307,-0.74460,-28.9634,-2.9878,-5.4268,0.00,0.00,0.00,2,S01
18220,-8.19056,0.42617,-0.64643,-25.9756,3.3537,-1.8293,0.00,0.00,0.00,2,S01
18240,-9.00220,0.75178,0.03831,-21.5854,6.5854,-2.3780,0.00,0.00,0.00,2,S01
18260,-9.84975,1.09176,0.53151,-16.5854,3.9024,-3.2317,0.00,0.00,0.00,2,S01
18280,-10.15381,1.21625,0.56264,-11.5854,-0.6098,-2.5610,0.00,0.00,0.00,2,S01
18300,-9.97664,0.96486,0.45490,-6.4634,-3.3537,-1.6463,0.00,0.00,0.00,2,S01
18320,-9.63906,0.80924,0.52433,-1.1585,-3.6585,-0.5488,0.00,0.00,0.00,2,S01
18340,-9.40682,0.94332,0.55545,3.4146,-3.2317,2.5000,0.00,0.00,0.00,2,S01
18360,-9.07163,1.17795,0.57940,6.5854,-1.5854,7.2561,0.00,0.00,0.00,2,S01
18380,-8.62870,1.30005,0.63446,7.3171,0.2439,11.0366,0.00,0.00,0.00,2,S01
18400,-8.41323,1.25456,0.77812,6.1585,2.0122,12.1951,0.00,0.00,0.00,2,S01
18420,-8.53772,1.31442,0.98881,4.5122,4.9390,11.4634,0.00,0.00,0.00,2,S01
18440,-8.75560,1.49398,1.19231,2.1341,7.1951,11.0366,0.00,0.00,0.00,2,S01
18460,-8.89446,1.44849,1.20907,-0.1220,7.5610,11.7683,0.00,0.00,0.00,2,S01
18480,-8.93995,1.29766,1.15879,-0.3659,8.1707,12.0732,0.00,0.00,0.00,2,S01
18500,-8.91361,1.18752,1.01275,0.8537,8.9634,10.8537,0.00,0.00,0.00,2,S01
18520,-8.95192,1.34554,0.97923,1.7683,10.6098,8.8415,0.00,0.00,0.00,2,S01
18540,-9.00699,1.45089,1.05345,0.7317,11.4634,7.1341,0.00,0.00,0.00,2,S01
18560,-9.04290,1.46765,1.13485,-0.0610,11.2805,5.7927,0.00,0.00,0.00,2,S01
18580,-9.16500,1.39821,1.32399,1.1585,11.6463,5.3049,0.00,0.00,0.00,2,S01
18600,-9.29908,1.30245,1.51314,3.2927,11.4634,4.7561,0.00,0.00,0.00,2,S01
18620,-9.27274,1.26174,1.68552,6.1585,10.1829,4.0854,0.00,0.00,0.00,2,S01
18640,-9.09318,1.30005,1.78847,9.5732,8.6585,4.0854,0.00,0.00,0.00,2,S01
18660,-8.84418,1.30963,1.89621,12.8049,7.1951,3.5366,0.00,0.00,0.00,2,S01
18680,-8.64786,1.44131,1.88663,16.3415,6.0976,2.2561,0.00,0.00,0.00,2,S01
18700,-8.59040,1.69509,1.88424,17.5000,6.0976,0.6098,0.00,0.00,0.00,2,S01
18720,-8.58561,1.95846,1.92733,16.2195,6.3415,-1.3415,0.00,0.00,0.00,2,S01
18740,-8.59518,2.08056,1.83875,14.0854,6.2805,-2.9268,0.00,0.00,0.00,2,S01
18760,-8.69574,2.22182,1.86269,12.4390,6.5244,-4.0244,0.00,0.00,0.00,2,S01
18780,-8.84179,2.40617,1.30245,10.3659,6.1585,-3.6585,0.00,0.00,0.00,2,S01
18800,-8.94474,2.15478,1.26653,5.9146,6.7683,-1.6463,0.00,0.00,0.00,2,S01
18820,-9.15303,2.35589,1.24977,3.9634,5.3659,-0.6707,0.00,0.00,0.00,2,S01
18840,-9.55526,2.30322,1.56820,0.5488,2.1341,1.1585,0.00,0.00,0.00,2,S01
18860,-9.74201,1.64721,2.09493,2.0122,-1.5854,4.4512,0.00,0.00,0.00,2,S01
18880,-9.64384,0.99359,2.60010,12.1341,-4.6951,7.3171,0.00,0.00,0.00,2,S01
18900,-9.71567,1.04627,2.31759,25.6098,-7.3780,9.6341,0.00,0.00,0.00,2,S01
18920,-10.02452,1.72622,1.59454,34.7561,-7.9878,14.2683,0.00,0.00,0.00,2,S01
18940,-10.24000,2.63123,1.05584,36.9512,-7.4390,22.5000,0.00,0.00,0.00,2,S01
18960,-10.24479,3.14119,0.74460,33.1707,-7.3780,31.3415,0.00,0.00,0.00,2,S01
18980,-10.15141,2.85149,0.43335,27.3171,-7.6220,35.4878,0.00,0.00,0.00,2,S01
19000,-9.95749,2.13563,0.20351,24.6341,-6.8293,31.3415,0.00,0.00,0.00,2,S01
19020,-9.60314,1.81002,-0.12450,26.4024,-7.6220,19.8171,0.00,0.00,0.00,2,S01
19040,-9.01656,1.72143,-0.66798,27.3780,-10.2439,7.5610,0.00,0.00,0.00,2,S01
19060,-8.45871,1.69509,-1.09176,25.2439,-10.8537,-0.1829,0.00,0.00,0.00,2,S01
19080,-8.36773,1.73101,-1.10852,19.3902,-7.9268,-2.9878,0.00,0.00,0.00,2,S01
19100,-8.74602,1.52750,-0.62249,10.9146,-4.1463,-4.5122,0.00,0.00,0.00,2,S01
19120,-9.45470,1.26414,-0.16759,4.6951,-2.8049,-5.6707,0.00,0.00,0.00,2,S01
19140,-9.98143,1.21147,0.01437,-4.6341,-6.8293,-10.0610,0.00,0.00,0.00,2,S01
19160,-9.68215,1.32160,0.15562,-9.4512,-8.8415,-13.9024,0.00,0.00,0.00,2,S01
19180,-9.43316,1.30005,0.44053,-13.4146,-9.8171,-17.2561,0.00,0.00,0.00,2,S01
19200,-9.11951,1.27611,0.69432,-15.3659,-10.7317,-19.6951,0.00,0.00,0.00,2,S01
19220,-8.80587,1.11570,0.66798,-14.9390,-10.9756,-19.8171,0.00,0.00,0.00,2,S01
19240,-8.57124,0.99599,0.58179,-13.4756,-8.1098,-17.9268,0.00,0.00,0.00,2,S01
19260,-8.48026,0.99838,0.76136,-12.5000,-3.9024,-14.8780,0.00,0.00,0.00,2,S01
19280,-8.59758,1.08697,0.98641,-13.3537,-1.2805,-11.5854,0.00,0.00,0.00,2,S01
19300,-8.66462,1.08697,0.92416,-14.3293,0.1220,-8.7195,0.00,0.00,0.00,2,S01
19320,-8.74602,1.02472,0.78530,-13.9634,3.2317,-7.2561,0.00,0.00,0.00,2,S01
19340,-8.96389,0.93853,0.87149,-12.9268,7.0732,-6.8293,0.00,0.00,0.00,2,S01
19360,-9.19852,1.03190,1.00796,-12.1951,8.9024,-6.6463,0.00,0.00,0.00,2,S01
19380,-9.20092,1.10852,1.08697,-12.8049,8.7805,-6.0976,0.00,0.00,0.00,2,S01
19400,-9.09078,1.10852,1.20907,-13.6585,8.2317,-5.1829,0.00,0.00,0.00,2,S01
19420,-9.10754,1.07260,1.48441,-14.3902,8.0488,-4.8171,0.00,0.00,0.00,2,S01
19440,-9.15064,1.03908,1.68312,-14.3902,7.3171,-5.0000,0.00,0.00,0.00,2,S01
19460,-8.91840,1.03908,1.71904,-13.8415,6.5244,-5.2439,0.00,0.00,0.00,2,S01
19480,-8.76996,0.88107,1.97282,-14.6951,6.9512,-5.1829,0.00,0.00,0.00,2,S01
19500,-8.70771,0.80206,2.17154,-13.4146,6.4024,-5.4268,0.00,0.00,0.00,2,S01
19520,-8.71489,0.77812,2.24337,-10.6707,5.4268,-4.0854,0.00,0.00,0.00,2,S01
19540,-8.82503,0.94332,2.25534,-8.4756,4.3293,-1.4634,0.00,0.00,0.00,2,S01
19560,-9.00459,0.93853,2.26970,-8.7805,2.9878,1.2805,0.00,0.00,0.00,2,S01
19580,-9.23204,0.85234,2.00155,-8.2317,1.4024,2.5610,0.00,0.00,0.00,2,S01
19600,-9.27035,0.96247,1.81480,-8.8415,0.4878,2.2561,0.00,0.00,0.00,2,S01
19620,-9.24641,0.83079,1.64721,-10.4878,-0.8537,1.1585,0.00,0.00,0.00,2,S01
19640,-9.44034,0.90022,2.09014,-10.3659,-2.4390,-1.2195,0.00,0.00,0.00,2,S01
19660,-9.51456,1.33596,2.57856,-12.9268,-6.1585,-2.6829,0.00,0.00,0.00,2,S01
19680,-9.22246,1.59933,2.69827,-19.6951,-9.5732,-3.4756,0.00,0.00,0.00,2,S01
19700,-9.10515,1.16598,2.56419,-26.0366,-9.2683,-5.9146,0.00,0.00,0.00,2,S01
19720,-9.47386,0.53870,2.31998,-27.2561,-7.5000,-10.6098,0.00,0.00,0.00,2,S01
19740,-10.01973,0.29209,1.85790,-25.4878,-7.1341,-15.7927,0.00,0.00,0.00,2,S01
19760,-10.51294,0.14844,1.49159,-22.6220,-8.6585,-21.2805,0.00,0.00,0.00,2,S01
19780,-10.90080,0.10295,1.15401,-17.8049,-12.5000,-27.6220,0.00,0.00,0.00,2,S01
19800,-10.78348,0.49081,0.75178,-13.2927,-17.6220,-31.4024,0.00,0.00,0.00,2,S01
19820,-10.00776,0.91219,0.43574,-13.1098,-20.4268,-28.9024,0.00,0.00,0.00,2,S01
19840,-9.01417,0.74460,0.16041,-16.2195,-20.7927,-21.2805,0.00,0.00,0.00,2,S01
19860,-8.30788,0.57461,-0.14844,-17.2561,-17.6829,-13.1098,0.00,0.00,0.00,2,S01
19880,-7.99424,0.69671,-0.53870,-15.7927,-11.9512,-6.8293,0.00,0.00,0.00,2,S01
19900,-8.42759,0.89543,-0.22266,-14.4512,-4.6951,-3.9634,0.00,0.00,0.00,2,S01
19920,-9.42597,1.07500,0.63686,-12.6220,-0.5488,-3.5366,0.00,0.00,0.00,2,S01
19940,-9.96467,1.23780,1.00556,-9.2073,-2.1341,-3.1707,0.00,0.00,0.00,2,S01
19960,-9.87369,1.10852,0.93853,-5.7927,-4.5732,-2.4390,0.00,0.00,0.00,2,S01
19980,-9.55765,0.87628,0.76854,-1.0366,-4.3902,-1.5854,0.00,0.00,0.00,2,S01
20000,-9.27035,0.87149,0.67756,4.3902,-1.8902,0.9146,0.00,0.00,0.00,2,S01
20020,-9.11473,1.04866,0.80685,7.6220,1.6463,5.0000,0.00,0.00,0.00,2,S01
20040,-8.90882,1.22583,0.89783,8.2927,3.8415,9.4512,0.00,0.00,0.00,2,S01
20060,-8.66940,1.32160,0.92416,7.1951,5.8537,12.7439,0.00,0.00,0.00,2,S01
20080,-8.67419,1.28808,1.21625,5.1829,8.9634,14.2683,0.00,0.00,0.00,2,S01
20100,-8.83221,1.20668,1.52989,3.6585,10.6098,14.5122,0.00,0.00,0.00,2,S01
20120,-8.91601,1.13964,1.68312,3.6585,10.2439,14.3293,0.00,0.00,0.00,2,S01
20140,-8.82263,1.22104,1.59214,4.7561,9.5732,14.2073,0.00,0.00,0.00,2,S01
20160,-8.70771,1.39103,1.33836,5.1829,10.6707,13.5976,0.00,0.00,0.00,2,S01
20180,-8.69095,1.51553,1.32160,3.7195,13.2317,12.5000,0.00,0.00,0.00,2,S01
20200,-8.78911,1.59214,1.47483,2.1951,15.2439,10.7927,0.00,0.00,0.00,2,S01
20220,-8.84658,1.57778,1.57538,1.3415,15.7317,8.9634,0.00,0.00,0.00,2,S01
20240,-8.93756,1.48680,1.68073,1.4024,15.7317,7.6220,0.00,0.00,0.00,2,S01
20260,-9.01656,1.33357,1.87945,2.2561,15.4878,6.2195,0.00,0.00,0.00,2,S01
20280,-8.93516,1.28090,2.01352,5.1829,14.2073,4.2073,0.00,0.00,0.00,2,S01
20300,-8.65504,1.53708,2.33914,12.8659,11.5244,0.1829,0.00,0.00,0.00,2,S01
20320,-8.55448,1.66158,2.39420,15.7317,9.3293,-1.5244,0.00,0.00,0.00,2,S01
20340,-8.57842,1.82678,2.44687,17.3171,8.1707,-3.2317,0.00,0.00,0.00,2,S01
20360,-8.64546,1.95846,2.44927,18.1098,7.3780,-4.7561,0.00,0.00,0.00,2,S01
20380,-8.71489,2.24576,2.20506,18.4756,6.2195,-5.3659,0.00,0.00,0.00,2,S01
20400,-8.71489,2.60729,1.36230,17.2561,5.7317,-4.2683,0.00,0.00,0.00,2,S01
20420,-8.95192,3.17232,0.71108,9.9390,6.8293,-1.6463,0.00,0.00,0.00,2,S01
20440,-9.64145,2.68869,1.59454,0.0610,6.8902,2.7439,0.00,0.00,0.00,2,S01
20460,-9.96946,1.41018,3.20823,2.7439,2.0732,7.5000,0.00,0.00,0.00,2,S01
20480,-9.64624,0.41899,3.25133,19.4512,-3.7195,10.4878,0.00,0.00,0.00,2,S01
20500,-9.47625,0.40462,3.04303,36.8902,-4.2073,11.4024,0.00,0.00,0.00,2,S01
20520,-9.94312,1.37906,1.84114,49.8781,-5.6707,12.9878,0.00,0.00,0.00,2,S01
20540,-10.61589,2.98557,0.94332,54.8171,-4.3902,20.7927,0.00,0.00,0.00,2,S01
20560,-10.86010,3.68707,0.36631,49.3902,-2.9268,34.6341,0.00,0.00,0.00,2,S01
20580,-10.23042,3.03345,-0.08619,38.9634,-3.3537,43.9024,0.00,0.00,0.00,2,S01
20600,-9.59117,1.74777,-0.28252,34.5122,-1.0976,39.2073,0.00,0.00,0.00,2,S01
20620,-9.31584,1.34075,-0.40941,39.2073,2.1951,22.3780,0.00,0.00,0.00,2,S01
20640,-8.89446,1.48680,-1.02472,43.0488,0.3659,5.8537,0.00,0.00,0.00,2,S01
20660,-8.53294,1.98240,-1.41497,40.1220,-0.9756,-2.5000,0.00,0.00,0.00,2,S01
20680,-8.65265,2.28167,-1.33357,26.7683,0.3049,-6.0366,0.00,0.00,0.00,2,S01
20700,-9.00938,1.86987,-0.81163,10.3659,2.4390,-7.7439,0.00,0.00,0.00,2,S01
20720,-9.80186,1.28569,-0.03831,-2.2561,2.5610,-10.2439,0.00,0.00,0.00,2,S01
20740,-10.42435,0.99359,0.28970,-8.9024,-1.8902,-13.9024,0.00,0.00,0.00,2,S01
20760,-10.11550,0.95529,0.22984,-12.4390,-7.5000,-17.3780,0.00,0.00,0.00,2,S01
20780,-9.47146,1.05584,0.14844,-15.6098,-11.6463,-21.2195,0.00,0.00,0.00,2,S01
20800,-9.11712,1.09894,0.46208,-17.7439,-12.0732,-24.2683,0.00,0.00,0.00,2,S01
20820,-8.74841,0.96726,0.60334,-17.1341,-12.0122,-24.5122,0.00,0.00,0.00,2,S01
20840,-8.39647,0.86910,0.65362,-15.2439,-10.1829,-21.7683,0.00,0.00,0.00,2,S01
20860,-8.13789,0.89064,0.58179,-14.6951,-6.7073,-16.9512,0.00,0.00,0.00,2,S01
20880,-8.30549,0.91937,0.68474,-16.0366,-1.1585,-11.9512,0.00,0.00,0.00,2,S01
20900,-8.60476,0.93374,0.89064,-17.0122,3.2927,-8.3537,0.00,0.00,0.00,2,S01
20920,-8.86094,0.90501,0.82121,-17.0732,5.6707,-6.4634,0.00,0.00,0.00,2,S01
20940,-8.92798,1.02232,0.65362,-17.1341,8.1098,-6.2195,0.00,0.00,0.00,2,S01
20960,-9.03572,1.12767,0.73741,-18.4146,10.8537,-6.6463,0.00,0.00,0.00,2,S01
20980,-9.15782,1.08697,0.92416,-19.5122,12.0122,-6.5854,0.00,0.00,0.00,2,S01
21000,-9.19613,0.93374,1.18992,-19.4512,12.0122,-6.1585,0.00,0.00,0.00,2,S01
21020,-9.17937,0.73981,1.29766,-18.3537,11.2805,-5.9756,0.00,0.00,0.00,2,S01
21040,-9.08600,0.68714,1.44610,-16.8293,10.1220,-6.4024,0.00,0.00,0.00,2,S01
21060,-8.84179,0.70868,1.59693,-15.3659,8.4146,-6.5854,0.00,0.00,0.00,2,S01
21080,-8.65504,0.77572,1.90100,-15.0610,7.7439,-6.1585,0.00,0.00,0.00,2,S01
21100,-8.61913,0.73741,2.11169,-14.6951,6.9512,-5.1829,0.00,0.00,0.00,2,S01
21120,-8.75081,0.75417,2.20745,-13.2317,5.9146,-2.8659,0.00,0.00,0.00,2,S01
21140,-8.94474,0.87628,2.21703,-12.6829,4.2073,-0.0610,0.00,0.00,0.00,2,S01
21160,-9.05487,0.84515,2.13563,-13.7805,2.3780,2.6220,0.00,0.00,0.00,2,S01
21180,-9.17937,0.73741,1.88663,-14.1463,0.6098,4.3902,0.00,0.00,0.00,2,S01
21200,-9.24401,0.48842,1.52989,-14.2683,-0.5488,4.8780,0.00,0.00,0.00,2,S01
21220,-9.55287,0.47645,1.79326,-13.9024,-1.9512,2.5610,0.00,0.00,0.00,2,S01
21240,-9.57202,1.09654,2.26491,-17.0122,-5.7317,-1.1585,0.00,0.00,0.00,2,S01
21260,-9.79468,1.44370,2.65038,-25.0610,-9.8780,-4.4512,0.00,0.00,0.00,2,S01
21280,-10.88165,1.10852,1.94170,-28.3537,-12.6220,-9.6951,0.00,0.00,0.00,2,S01
21300,-11.84412,0.32561,1.17076,-23.9634,-12.6829,-17.6829,0.00,0.00,0.00,2,S01
21320,-12.04283,0.30885,0.72784,-18.7805,-15.0610,-25.5488,0.00,0.00,0.00,2,S01
21340,-11.01812,0.78290,0.17478,-17.5610,-22.2561,-27.1341,0.00,0.00,0.00,2,S01
21360,-9.52174,0.98881,-0.33279,-19.0854,-26.3415,-22.3780,0.00,0.00,0.00,2,S01
21380,-8.28394,0.97205,-0.90022,-20.0610,-23.7805,-15.3049,0.00,0.00,0.00,2,S01
21400,-7.64229,0.87388,-1.09415,-22.0122,-15.4268,-8.9024,0.00,0.00,0.00,2,S01
21420,-8.13789,0.86191,-0.74699,-23.7195,-6.3415,-5.2439,0.00,0.00,0.00,2,S01
21440,-9.23204,0.80924,0.15083,-19.4512,0.0000,-3.5366,0.00,0.00,0.00,2,S01
21460,-9.79947,0.78051,0.32082,-7.9878,0.0610,-2.9268,0.00,0.00,0.00,2,S01
21480,-9.69173,0.84755,0.54109,7.8049,-2.4390,-3.7805,0.00,0.00,0.00,2,S01
21500,-9.39724,0.99120,0.50996,10.8537,-4.5122,-2.3171,0.00,0.00,0.00,2,S01
21520,-9.05727,1.14682,0.50039,13.9634,-4.6341,0.6707,0.00,0.00,0.00,2,S01
21540,-8.76278,1.34794,0.45490,16.9512,-3.8415,4.6341,0.00,0.00,0.00,2,S01
21560,-8.63349,1.42934,0.48842,17.9268,-1.4634,8.5976,0.00,0.00,0.00,2,S01
21580,-8.60237,1.43652,0.68953,16.8293,1.4024,10.4878,0.00,0.00,0.00,2,S01
21600,-8.60715,1.34075,0.99120,15.1829,2.5610,10.4268,0.00,0.00,0.00,2,S01
21620,-8.72208,1.36230,0.94571,14.2073,2.3780,9.3902,0.00,0.00,0.00,2,S01
21640,-9.00459,1.49398,1.12527,12.0122,3.2317,8.5976,0.00,0.00,0.00,2,S01
21660,-9.13388,1.54426,1.11330,10.0000,2.5000,8.7805,0.00,0.00,0.00,2,S01
21680,-9.15303,1.58736,1.07500,8.7195,1.5244,9.2683,0.00,0.00,0.00,2,S01
21700,-9.09078,1.57538,0.95768,7.7439,0.7317,9.0854,0.00,0.00,0.00,2,S01
21720,-8.99502,1.52271,0.91459,7.2561,1.0366,7.7439,0.00,0.00,0.00,2,S01
21740,-8.93037,1.46525,1.07978,6.6463,2.8049,6.0976,0.00,0.00,0.00,2,S01
21760,-9.02614,1.40061,1.24977,5.9756,4.3902,4.8171,0.00,0.00,0.00,2,S01
21780,-9.18655,1.37188,1.45567,6.1585,5.4268,4.2683,0.00,0.00,0.00,2,S01
21800,-9.18416,1.41258,1.60651,7.3780,5.0000,4.2073,0.00,0.00,0.00,2,S01
21820,-8.92080,1.40061,1.52032,9.3902,3.9634,4.0854,0.00,0.00,0.00,2,S01
21840,-8.75081,1.35751,1.54905,11.7073,4.6341,2.6829,0.00,0.00,0.00,2,S01
21860,-8.76038,1.45089,1.77410,14.6341,6.0366,-0.0610,0.00,0.00,0.00,2,S01
21880,-8.82263,1.62566,1.93212,16.7683,5.4268,-2.9268,0.00,0.00,0.00,2,S01
21900,-8.85855,1.83875,1.90578,17.6829,3.8415,-5.0000,0.00,0.00,0.00,2,S01
21920,-8.79630,1.93930,1.89860,17.2561,2.8659,-6.4024,0.00,0.00,0.00,2,S01
21940,-8.67419,1.92973,1.94649,16.4634,1.9512,-8.1707,0.00,0.00,0.00,2,S01
21960,-8.68616,1.71904,1.94409,16.4634,1.5854,-9.9390,0.00,0.00,0.00,2,S01
21980,-8.74841,1.69031,1.64960,17.7439,2.1951,-11.0976,0.00,0.00,0.00,2,S01
22000,-9.02375,1.98719,1.58975,16.3415,3.1707,-10.4268,0.00,0.00,0.00,2,S01
22020,-9.28471,2.44448,1.44131,12.3171,1.3415,-7.6829,0.00,0.00,0.00,2,S01
22040,-9.44273,2.24816,1.89381,7.6829,-1.0976,-2.6829,0.00,0.00,0.00,2,S01
22060,-9.31823,1.67834,2.41096,9.2073,-3.7195,2.0122,0.00,0.00,0.00,2,S01
22080,-9.04769,1.56102,2.54264,15.6707,-4.7561,4.8780,0.00,0.00,0.00,2,S01
22100,-9.18176,1.89381,2.42772,20.8537,-3.7805,6.8902,0.00,0.00,0.00,2,S01
22120,-9.64384,2.78924,1.77410,22.3780,-1.6463,10.6707,0.00,0.00,0.00,2,S01
22140,-10.26873,3.58412,1.10612,17.6220,2.3171,18.2927,0.00,0.00,0.00,2,S01
22160,-10.44351,3.41892,0.92895,8.1098,4.5732,27.2561,0.00,0.00,0.00,2,S01
22180,-10.13226,2.61926,0.83797,0.2439,3.6585,30.6707,0.00,0.00,0.00,2,S01
22200,-9.96227,1.71904,0.64883,-1.4024,2.5000,25.6098,0.00,0.00,0.00,2,S01
22220,-9.75398,1.30005,0.41180,2.8659,0.0000,14.9390,0.00,0.00,0.00,2,S01
22240,-9.28950,1.26414,-0.00958,7.8049,-5.3049,6.1585,0.00,0.00,0.00,2,S01
22260,-8.58561,1.25217,-0.42377,9.8171,-9.3902,1.8293,0.00,0.00,0.00,2,S01
22280,-8.13071,1.18274,-0.80206,9.2073,-9.2683,0.4878,0.00,0.00,0.00,2,S01
22300,-8.59040,1.34794,-0.67038,5.9146,-4.5732,0.7317,0.00,0.00,0.00,2,S01
22320,-9.34457,1.53947,-0.26576,0.6707,-0.9146,1.2805,0.00,0.00,0.00,2,S01
22340,-9.67257,1.64721,-0.03591,-4.3293,-0.5488,1.0976,0.00,0.00,0.00,2,S01
22360,-9.90481,1.63045,0.03591,-10.1829,-1.0976,0.0610,0.00,0.00,0.00,2,S01
22380,-9.90242,1.58017,0.19872,-18.5366,-2.9878,-4.2073,0.00,0.00,0.00,2,S01
22400,-9.75158,1.48919,0.45969,-24.8780,-5.6707,-10.6707,0.00,0.00,0.00,2,S01
22420,-9.49301,1.43413,0.59616,-28.4756,-7.5610,-16.2195,0.00,0.00,0.00,2,S01
22440,-9.22965,1.20428,0.70868,-30.6707,-7.6220,-18.3537,0.00,0.00,0.00,2,S01
22460,-8.82263,0.96726,0.69911,-31.0366,-6.8902,-18.3537,0.00,0.00,0.00,2,S01
22480,-8.50899,0.84036,0.91459,-29.6951,-5.1220,-16.2805,0.00,0.00,0.00,2,S01
22500,-8.39168,0.81403,1.10612,-27.5610,-3.2317,-11.9512,0.00,0.00,0.00,2,S01
22520,-8.43717,0.91219,1.21386,-24.6341,-0.2439,-7.5000,0.00,0.00,0.00,2,S01
22540,-8.42280,0.84994,1.05345,-21.2805,3.3537,-4.3293,0.00,0.00,0.00,2,S01
22560,-8.72447,0.88585,1.07260,-18.4756,8.4756,-3.5366,0.00,0.00,0.00,2,S01
22580,-9.06684,1.13006,1.17076,-17.2561,12.1341,-4.3293,0.00,0.00,0.00,2,S01
22600,-9.22486,1.27611,1.24259,-18.2317,13.2927,-4.5122,0.00,0.00,0.00,2,S01
22620,-9.19852,1.23301,1.29047,-20.0610,13.2927,-3.7805,0.00,0.00,0.00,2,S01
22640,-9.17458,1.16837,1.46765,-21.7073,13.2317,-2.8049,0.00,0.00,0.00,2,S01
22660,-9.00220,1.03190,1.83156,-23.5366,12.5000,-1.2805,0.00,0.00,0.00,2,S01
22680,-8.78911,0.98881,1.96564,-23.6585,12.5610,-0.9146,0.00,0.00,0.00,2,S01
22700,-8.57603,0.95050,2.14042,-23.3537,13.1707,-0.0610,0.00,0.00,0.00,2,S01
22720,-8.54012,0.96726,2.32477,-22.8049,13.4756,1.4634,0.00,0.00,0.00,2,S01
22740,-8.63110,0.95529,2.28646,-20.9146,13.0488,3.8415,0.00,0.00,0.00,2,S01
22760,-8.87052,0.94571,2.26731,-18.5976,12.7439,6.2195,0.00,0.00,0.00,2,S01
22780,-9.19373,0.64883,2.12845,-16.2195,11.7683,7.0732,0.00,0.00,0.00,2,S01
22800,-9.56005,0.72784,1.87705,-12.1341,9.3902,4.6951,0.00,0.00,0.00,2,S01
22820,-9.59596,0.72784,1.68312,-10.9756,5.6707,0.7317,0.00,0.00,0.00,2,S01
22840,-9.79228,0.83558,1.99676,-10.1220,0.7317,-3.9024,0.00,0.00,0.00,2,S01
22860,-9.74919,1.64242,2.41096,-12.3780,-5.5488,-7.0732,0.00,0.00,0.00,2,S01
22880,-9.16261,2.34392,2.43490,-23.5366,-10.9756,-7.3171,0.00,0.00,0.00,2,S01
22900,-8.54730,2.23140,2.46842,-36.8902,-11.0366,-7.3171,0.00,0.00,0.00,2,S01
22920,-8.54491,1.32878,2.50194,-44.5122,-8.6585,-8.5366,0.00,0.00,0.00,2,S01
22940,-9.30387,0.42138,2.20985,-44.6951,-6.0366,-10.2439,0.00,0.00,0.00,2,S01
22960,-10.44590,-0.12689,1.48201,-40.6098,-4.6951,-13.3537,0.00,0.00,0.00,2,S01
22980,-11.50414,0.04788,0.98162,-34.9390,-4.8780,-19.6951,0.00,0.00,0.00,2,S01
23000,-11.70286,0.18435,0.45250,-29.5122,-10.6707,-27.0732,0.00,0.00,0.00,2,S01
23020,-10.71166,0.57700,0.30646,-25.2439,-20.1220,-30.8537,0.00,0.00,0.00,2,S01
23040,-9.10036,0.95289,-0.20590,-25.0000,-27.1341,-27.3780,0.00,0.00,0.00,2,S01
23060,-7.78355,1.05345,-0.71108,-29.2683,-23.2927,-18.5976,0.00,0.00,0.00,2,S01
23080,-7.38372,0.57940,-0.96247,-31.3415,-11.5854,-10.1220,0.00,0.00,0.00,2,S01
23100,-8.52096,0.23463,0.31125,-28.7805,2.4390,-6.3415,0.00,0.00,0.00,2,S01
23120,-9.89524,0.41180,1.14443,-19.7561,6.5854,-3.9024,0.00,0.00,0.00,2,S01
23140,-10.35732,0.85712,1.04387,-9.4512,3.2927,-1.3415,0.00,0.00,0.00,2,S01
23160,-10.09635,1.16119,0.62489,-3.3537,0.0000,0.6098,0.00,0.00,0.00,2,S01
23180,-9.60793,1.16358,0.38068,-0.3049,-1.0366,2.3780,0.00,0.00,0.00,2,S01
23200,-9.03093,1.18274,0.27294,2.2561,1.0976,5.2439,0.00,0.00,0.00,2,S01
23220,-8.75799,1.22104,0.46687,2.6220,5.2439,9.1463,0.00,0.00,0.00,2,S01
23240,-8.63589,1.20428,0.62728,0.8537,7.6220,12.9268,0.00,0.00,0.00,2,S01
23260,-8.59518,1.17316,0.86191,-1.0976,9.6951,15.1829,0.00,0.00,0.00,2,S01
23280,-8.73405,1.09176,1.13006,-2.9268,11.6463,15.6707,0.00,0.00,0.00,2,S01
23300,-9.07163,1.05584,1.47722,-4.1463,12.3780,14.6951,0.00,0.00,0.00,2,S01
23320,-9.19613,1.03908,1.50835,-3.4756,11.1585,13.7805,0.00,0.00,0.00,2,S01
23340,-8.98783,1.06063,1.31442,-0.8537,10.1829,13.1098,0.00,0.00,0.00,2,S01
23360,-8.86812,1.18034,1.20668,1.5854,10.7927,11.7683,0.00,0.00,0.00,2,S01
23380,-8.88009,1.27611,1.19471,2.2561,11.2805,9.5732,0.00,0.00,0.00,2,S01
23400,-8.90643,1.29047,1.24020,2.1951,11.2195,7.2561,0.00,0.00,0.00,2,S01
23420,-9.05487,1.24498,1.35751,2.5610,10.9756,5.2439,0.00,0.00,0.00,2,S01
23440,-9.22486,1.18752,1.54187,3.9024,10.3049,4.3902,0.00,0.00,0.00,2,S01
23460,-9.20092,1.43173,1.66636,5.9756,8.6585,4.5122,0.00,0.00,0.00,2,S01
23480,-9.05727,1.58975,1.66397,5.9756,7.1951,5.3049,0.00,0.00,0.00,2,S01
23500,-8.84897,1.70228,1.57060,5.7317,7.4390,5.4268,0.00,0.00,0.00,2,S01
23520,-8.71968,1.65200,1.58975,5.9756,8.7195,4.3902,0.00,0.00,0.00,2,S01
23540,-8.71011,1.50835,1.76213,6.1585,8.5976,2.2561,0.00,0.00,0.00,2,S01
23560,-8.74362,1.44849,1.92494,6.7073,6.9512,-0.3049,0.00,0.00,0.00,2,S01
23580,-8.88249,1.79326,1.98479,6.4024,5.0000,-2.3171,0.00,0.00,0.00,2,S01
23600,-8.85376,1.89621,1.67115,4.8171,3.1707,-2.5610,0.00,0.00,0.00,2,S01
23620,-8.76996,1.62566,1.74058,5.4878,3.4146,-2.7439,0.00,0.00,0.00,2,S01
23640,-8.87770,1.54905,1.77410,8.1098,2.9268,-3.7805,0.00,0.00,0.00,2,S01
23660,-9.12191,1.68312,1.56341,9.0854,1.3415,-3.4146,0.00,0.00,0.00,2,S01
23680,-9.36851,1.54665,1.92733,9.8171,0.2439,-0.4268,0.00,0.00,0.00,2,S01
23700,-9.64384,1.32160,2.48758,14.7561,-2.1341,3.9024,0.00,0.00,0.00,2,S01
23720,-9.89524,1.24977,2.42293,24.5122,-5.6707,8.5976,0.00,0.00,0.00,2,S01
23740,-10.01973,1.63524,1.78129,33.5366,-7.0122,13.5976,0.00,0.00,0.00,2,S01
23760,-10.12268,2.08535,1.14203,36.9512,-6.0976,19.3902,0.00,0.00,0.00,2,S01
23780,-10.03170,2.31759,0.82361,36.3415,-4.6341,26.2195,0.00,0.00,0.00,2,S01
23800,-9.75637,2.35111,0.66319,33.9634,-4.1463,31.5854,0.00,0.00,0.00,2,S01
23820,-9.52174,2.12845,0.39265,27.7439,-4.0244,28.5976,0.00,0.00,0.00,2,S01
23840,-9.55047,2.06380,-0.02873,26.9512,-5.5488,19.9390,0.00,0.00,0.00,2,S01
23860,-9.20331,1.95846,-0.45011,25.9146,-7.3171,10.9146,0.00,0.00,0.00,2,S01
23880,-8.71489,1.86748,-0.84276,23.4146,-8.1098,3.7195,0.00,0.00,0.00,2,S01
23900,-8.31506,1.62327,-1.17555,20.1829,-6.8902,0.1220,0.00,0.00,0.00,2,S01
23920,-8.50660,1.19231,-0.87149,16.9512,-2.2561,-1.6463,0.00,0.00,0.00,2,S01
23940,-9.25359,0.98641,-0.18196,14.6341,0.7927,-4.3902,0.00,0.00,0.00,2,S01
23960,-10.01973,1.13246,0.22745,11.0976,-1.0366,-5.7317,0.00,0.00,0.00,2,S01
23980,-10.08917,1.35272,0.22505,5.9756,-5.0000,-5.3659,0.00,0.00,0.00,2,S01
24000,-9.78031,1.40540,0.33279,0.1220,-8.0488,-7.8049,0.00,0.00,0.00,2,S01
24020,-9.58160,1.42216,0.50518,-4.0244,-9.2683,-12.8049,0.00,0.00,0.00,2,S01
24040,-9.44991,1.33118,0.59137,-5.7927,-9.3293,-17.4390,0.00,0.00,0.00,2,S01
24060,-9.20810,1.20668,0.57461,-7.5610,-8.9634,-19.9390,0.00,0.00,0.00,2,S01
24080,-8.92080,1.04627,0.69192,-9.8171,-8.1098,-19.6341,0.00,0.00,0.00,2,S01
24100,-8.70532,0.98641,0.87628,-11.0366,-6.4634,-17.5000,0.00,0.00,0.00,2,S01
24120,-8.48744,1.02472,1.04148,-10.6707,-4.8171,-14.6341,0.00,0.00,0.00,2,S01
24140,-8.46829,1.07500,1.11570,-10.5488,-2.4390,-11.6463,0.00,0.00,0.00,2,S01
24160,-8.61913,1.07021,1.07021,-9.5122,0.9756,-9.1463,0.00,0.00,0.00,2,S01
24180,-8.89685,1.05345,1.08457,-7.5610,5.3049,-7.2561,0.00,0.00,0.00,2,S01
24200,-9.14585,1.13246,1.12767,-6.8293,8.1707,-5.9756,0.00,0.00,0.00,2,S01
24220,-9.20810,1.22344,1.13485,-8.1707,8.5976,-5.1829,0.00,0.00,0.00,2,S01
24240,-9.17458,1.23301,1.20668,-9.8780,8.1098,-4.8171,0.00,0.00,0.00,2,S01
24260,-9.14585,1.10133,1.31681,-10.5488,7.6829,-4.5732,0.00,0.00,0.00,2,S01
24280,-9.17937,0.91937,1.49398,-10.7927,7.2561,-4.5732,0.00,0.00,0.00,2,S01
24300,-9.11473,0.83079,1.59454,-10.0000,6.8902,-4.8780,0.00,0.00,0.00,2,S01
24320,-9.00938,0.76375,1.76932,-10.1829,6.7073,-5.0000,0.00,0.00,0.00,2,S01
24340,-8.90643,0.74699,1.90818,-9.3293,6.0366,-5.3049,0.00,0.00,0.00,2,S01
24360,-8.93277,0.75896,1.92733,-7.3171,5.7927,-5.1829,0.00,0.00,0.00,2,S01
24380,-8.92558,0.85473,1.89860,-5.3049,6.2805,-4.2683,0.00,0.00,0.00,2,S01
24400,-8.85615,0.82600,2.09253,-5.1220,6.7073,-3.1707,0.00,0.00,0.00,2,S01
24420,-9.08360,0.68235,2.22900,-4.7561,4.8780,-2.7439,0.00,0.00,0.00,2,S01
24440,-9.16261,0.88346,2.14281,-3.7805,2.5610,-2.0122,0.00,0.00,0.00,2,S01
24460,-9.15303,1.08936,2.18591,-6.5244,1.0976,-0.7927,0.00,0.00,0.00,2,S01
24480,-9.17698,1.01993,2.26970,-7.8659,-1.2805,-0.6707,0.00,0.00,0.00,2,S01
24500,-9.14106,1.26414,2.46842,-8.8415,-4.1463,-0.4268,0.00,0.00,0.00,2,S01
24520,-8.82742,1.59693,2.52588,-14.1463,-6.2195,0.4878,0.00,0.00,0.00,2,S01
24540,-9.16500,1.51792,2.43251,-21.5854,-6.0976,0.0610,0.00,0.00,0.00,2,S01
24560,-10.18972,1.01035,1.61848,-24.6951,-5.7927,-4.4512,0.00,0.00,0.00,2,S01
24580,-10.94390,0.56264,1.37667,-23.5366,-5.6098,-14.0244,0.00,0.00,0.00,2,S01
24600,-10.86968,0.39983,1.00078,-21.2195,-12.3780,-25.1220,0.00,0.00,0.00,2,S01
24620,-10.11071,0.78769,0.59616,-19.5732,-20.8537,-31.8293,0.00,0.00,0.00,2,S01
24640,-9.38527,1.05345,0.49081,-21.3415,-24.1463,-30.6707,0.00,0.00,0.00,2,S01
24660,-9.11712,0.99838,0.48842,-21.9512,-21.7073,-24.3293,0.00,0.00,0.00,2,S01
24680,-8.97347,0.61531,0.38547,-20.6098,-16.5854,-16.0976,0.00,0.00,0.00,2,S01
24700,-8.81784,0.27294,0.14126,-18.6585,-11.8902,-8.9024,0.00,0.00,0.00,2,S01
24720,-8.85615,0.18914,0.10774,-15.1829,-7.6220,-5.3659,0.00,0.00,0.00,2,S01
24740,-9.05966,0.32561,0.20830,-8.9634,-5.2439,-5.0610,0.00,0.00,0.00,2,S01
24760,-9.32302,0.66798,0.42138,-1.7683,-4.5122,-5.8537,0.00,0.00,0.00,2,S01
24780,-9.46667,1.08218,0.62249,3.2927,-5.5488,-5.9146,0.00,0.00,0.00,2,S01
24800,-9.50977,1.28808,0.77572,5.8537,-6.8902,-4.4512,0.00,0.00,0.00,2,S01
24820,-9.44273,1.30005,0.88825,8.2317,-6.7683,-1.8293,0.00,0.00,0.00,2,S01
24840,-9.23922,1.33596,0.85712,10.9146,-5.4268,1.6463,0.00,0.00,0.00,2,S01
24860,-9.02614,1.38385,0.90261,12.2561,-2.6829,5.6098,0.00,0.00,0.00,2,S01
24880,-8.81545,1.22344,1.00078,12.7439,0.2439,9.0854,0.00,0.00,0.00,2,S01
24900,-8.79151,1.05345,1.15879,13.4756,3.1707,10.9756,0.00,0.00,0.00,2,S01
24920,-8.91361,0.94571,1.22823,14.3902,5.3659,11.2195,0.00,0.00,0.00,2,S01
24940,-8.96150,1.05345,1.13725,14.9390,7.0732,10.7927,0.00,0.00,0.00,2,S01
24960,-8.95431,1.14922,1.17555,14.3293,8.0488,10.3049,0.00,0.00,0.00,2,S01
24980,-9.07402,1.18992,1.41258,14.7561,7.6829,7.9268,0.00,0.00,0.00,2,S01
25000,-8.96868,1.24738,1.31921,16.5854,6.4634,6.0366,0.00,0.00,0.00,2,S01
25020,-8.96629,1.33357,1.37427,17.3780,6.7683,4.4512,0.00,0.00,0.00,2,S01
25040,-9.02614,1.37906,1.48919,17.5000,7.1951,3.2927,0.00,0.00,0.00,2,S01
25060,-9.09078,1.42694,1.53229,17.9878,6.8293,2.3780,0.00,0.00,0.00,2,S01
25080,-9.08360,1.44849,1.61130,18.7195,6.6463,1.7073,0.00,0.00,0.00,2,S01
25100,-9.08600,1.44610,1.65200,19.3902,6.5854,1.0976,0.00,0.00,0.00,2,S01
25120,-9.09797,1.46046,1.76692,19.8780,6.7683,0.6707,0.00,0.00,0.00,2,S01
25140,-9.00459,1.43892,1.88184,20.7927,6.5854,0.0000,0.00,0.00,0.00,2,S01
25160,-8.83939,1.50595,1.92973,22.0122,5.8537,-1.1585,0.00,0.00,0.00,2,S01
25180,-8.76757,1.64482,1.96325,22.3780,5.2439,-2.3780,0.00,0.00,0.00,2,S01
25200,-8.75799,1.75495,1.98719,21.8902,5.1829,-3.2927,0.00,0.00,0.00,2,S01
25220,-8.65265,1.69270,1.98958,20.8537,5.7317,-3.5366,0.00,0.00,0.00,2,S01
25240,-8.59279,1.75016,1.86029,20.3659,6.2805,-4.0854,0.00,0.00,0.00,2,S01
25260,-8.76996,1.69031,1.94649,18.6585,7.0732,-4.2683,0.00,0.00,0.00,2,S01
25280,-8.88488,1.81002,1.81002,18.7805,6.7683,-4.7561,0.00,0.00,0.00,2,S01
25300,-8.91361,1.77410,1.83156,18.5366,6.1585,-5.0610,0.00,0.00,0.00,2,S01
25320,-8.96150,1.73340,1.81480,19.8780,5.4268,-5.2439,0.00,0.00,0.00,2,S01
25340,-9.09318,1.76932,1.71425,21.2805,4.9390,-4.0244,0.00,0.00,0.00,2,S01
25360,-9.20571,1.73819,1.87705,21.6463,4.0854,-1.5244,0.00,0.00,0.00,2,S01
25380,-9.32542,1.60651,2.34153,22.8659,1.8293,0.9756,0.00,0.00,0.00,2,S01
25400,-9.39245,1.40540,2.70305,27.1951,-1.7073,2.6220,0.00,0.00,0.00,2,S01
25420,-9.40682,1.31202,2.59771,34.5122,-4.3902,3.8415,0.00,0.00,0.00,2,S01
25440,-9.50977,1.57538,2.01352,41.9512,-4.3902,6.2805,0.00,0.00,0.00,2,S01
25460,-9.73004,2.17154,1.42934,45.5488,-2.0122,11.9512,0.00,0.00,0.00,2,S01
25480,-10.12029,2.78924,1.20428,43.2927,0.2439,20.8537,0.00,0.00,0.00,2,S01
25500,-10.20648,2.99275,1.02232,37.8659,1.0366,30.8537,0.00,0.00,0.00,2,S01
25520,-9.87608,2.47082,0.82600,32.8049,1.5854,36.5854,0.00,0.00,0.00,2,S01
25540,-9.62469,1.75734,0.64883,32.3780,3.1098,32.1951,0.00,0.00,0.00,2,S01
25560,-9.65342,1.70707,0.30646,35.7927,2.6829,18.6585,0.00,0.00,0.00,2,S01
25580,-9.31344,1.91297,-0.34237,36.7683,-0.5488,5.5488,0.00,0.00,0.00,2,S01
25600,-8.59997,2.04704,-0.84994,33.7195,-2.5610,-1.5244,0.00,0.00,0.00,2,S01
25620,-7.98466,1.80523,-1.30963,29.8780,-1.6463,-3.0488,0.00,0.00,0.00,2,S01
25640,-8.35337,1.52511,-0.94571,25.8537,2.9268,-3.2927,0.00,0.00,0.00,2,S01
25660,-9.38048,1.40540,-0.19632,22.6220,5.0610,-4.2683,0.00,0.00,0.00,2,S01
25680,-10.10832,1.32399,0.07901,18.7195,2.1341,-4.8171,0.00,0.00,0.00,2,S01
25700,-10.23761,1.44849,-0.04549,12.5000,-2.5000,-6.9512,0.00,0.00,0.00,2,S01
25720,-9.92397,1.49877,-0.02634,5.2439,-6.2805,-11.6463,0.00,0.00,0.00,2,S01
25740,-9.64624,1.47722,0.12210,0.1829,-8.3537,-17.6829,0.00,0.00,0.00,2,S01
25760,-9.41161,1.28569,0.35674,-2.6829,-8.4756,-22.1341,0.00,0.00,0.00,2,S01
25780,-9.15782,1.10612,0.51715,-3.5976,-9.0244,-24.5122,0.00,0.00,0.00,2,S01
25800,-8.78672,1.00796,0.47405,-2.6829,-9.9390,-24.5122,0.00,0.00,0.00,2,S01
25820,-8.54491,1.03430,0.42617,-1.8902,-7.9878,-22.6829,0.00,0.00,0.00,2,S01
25840,-8.54730,1.05584,0.40941,-2.3171,-3.6585,-20.3049,0.00,0.00,0.00,2,S01
25860,-8.68377,1.05345,0.51715,-3.4146,0.3659,-18.3537,0.00,0.00,0.00,2,S01
25880,-8.84179,1.10373,0.60573,-3.9634,2.8049,-16.4634,0.00,0.00,0.00,2,S01
25900,-8.89685,1.04866,0.68714,-4.0244,4.5732,-14.2073,0.00,0.00,0.00,2,S01
25920,-8.93277,0.95529,0.88825,-4.6341,6.7683,-12.2561,0.00,0.00,0.00,2,S01
25940,-8.95910,0.88825,1.09894,-5.4268,8.3537,-11.0976,0.00,0.00,0.00,2,S01
25960,-8.94234,0.76854,1.30484,-5.5488,9.0244,-10.0610,0.00,0.00,0.00,2,S01
25980,-8.98065,0.58658,1.47004,-4.6341,8.8415,-9.4512,0.00,0.00,0.00,2,S01
26000,-8.96868,0.53391,1.58017,-3.0488,8.1707,-9.3902,0.00,0.00,0.00,2,S01
26020,-8.82263,0.53151,1.80762,-1.5244,8.4756,-9.2073,0.00,0.00,0.00,2,S01
26040,-8.69813,0.54827,2.00874,-0.4268,8.9634,-8.5976,0.00,0.00,0.00,2,S01
26060,-8.73644,0.76854,2.14281,0.1829,8.7805,-7.0122,0.00,0.00,0.00,2,S01
26080,-8.82263,1.15879,2.43011,-1.8902,7.2561,-3.9024,0.00,0.00,0.00,2,S01
26100,-8.92558,1.15161,2.30801,-5.9756,3.5976,0.5488,0.00,0.00,0.00,2,S01
26120,-8.94953,0.86670,1.98479,-7.8659,2.5000,4.5732,0.00,0.00,0.00,2,S01
26140,-9.25838,0.28012,1.82678,-8.1707,3.5366,5.3659,0.00,0.00,0.00,2,S01
26160,-10.14663,0.54109,2.12605,-4.1463,-1.2805,-4.2073,0.00,0.00,0.00,2,S01
26180,-10.61589,1.64482,2.10929,-12.2561,-8.7805,-7.7439,0.00,0.00,0.00,2,S01
26200,-10.76672,1.68312,0.99838,-20.6098,-13.2317,-9.4512,0.00,0.00,0.00,2,S01
26220,-11.08994,1.18274,0.73263,-21.8293,-12.3171,-16.4634,0.00,0.00,0.00,2,S01
26240,-11.20008,0.99599,0.57940,-22.0732,-18.4146,-25.7927,0.00,0.00,0.00,2,S01
26260,-10.55125,1.16119,0.24181,-23.6585,-25.8537,-27.8049,0.00,0.00,0.00,2,S01
26280,-9.58638,1.05824,-0.11013,-26.0366,-26.6463,-21.7073,0.00,0.00,0.00,2,S01
26300,-8.80348,0.81403,-0.59376,-26.8293,-21.3415,-12.3171,0.00,0.00,0.00,2,S01
26320,-8.44674,0.64883,-0.70629,-27.5610,-12.5610,-4.3902,0.00,0.00,0.00,2,S01
26340,-8.41323,0.56982,-0.56982,-27.0732,-5.4878,1.4024,0.00,0.00,0.00,2,S01
26360,-8.73165,0.68953,-0.21069,-21.7683,-1.6463,3.1098,0.00,0.00,0.00,2,S01
26380,-9.16261,1.06063,0.11971,-12.3780,-1.8902,1.5244,0.00,0.00,0.00,2,S01
26400,-9.44991,1.31442,0.30885,-4.9390,-4.3902,-0.6098,0.00,0.00,0.00,2,S01
26420,-9.43076,1.30723,0.45011,-0.9146,-6.0366,-1.7073,0.00,0.00,0.00,2,S01
26440,-9.24880,1.27611,0.52912,2.3171,-5.2439,-1.3415,0.00,0.00,0.00,2,S01
26460,-9.12909,1.36230,0.66319,5.0000,-3.2927,0.3659,0.00,0.00,0.00,2,S01
26480,-8.97826,1.49159,0.64643,6.9512,-2.6220,3.6585,0.00,0.00,0.00,2,S01
26500,-8.74362,1.50835,0.48123,8.2317,-2.0732,7.3780,0.00,0.00,0.00,2,S01
26520,-8.58082,1.47722,0.39504,8.8415,0.3659,10.0000,0.00,0.00,0.00,2,S01
26540,-8.69095,1.40540,0.55306,8.2317,3.6585,11.0366,0.00,0.00,0.00,2,S01
26560,-8.96150,1.33836,0.80685,7.5000,4.9390,10.9756,0.00,0.00,0.00,2,S01
26580,-9.11233,1.29766,0.91937,8.7195,4.2073,10.2439,0.00,0.00,0.00,2,S01
26600,-9.13148,1.39821,0.88346,10.5488,3.4146,9.4512,0.00,0.00,0.00,2,S01
26620,-9.00220,1.53229,0.85712,10.4268,3.2927,9.2073,0.00,0.00,0.00,2,S01
26640,-8.88009,1.69270,0.76136,8.4146,4.2073,8.8415,0.00,0.00,0.00,2,S01
26660,-8.88728,1.75495,0.85712,6.1585,6.2195,8.1707,0.00,0.00,0.00,2,S01
26680,-8.93037,1.68791,0.95289,5.6707,7.8659,7.1951,0.00,0.00,0.00,2,S01
26700,-8.97586,1.57538,1.17076,6.8902,9.3293,6.0976,0.00,0.00,0.00,2,S01
26720,-9.11712,1.55623,1.31921,8.9024,9.9390,4.9390,0.00,0.00,0.00,2,S01
26740,-9.17937,1.62806,1.45807,10.7927,9.6951,4.2683,0.00,0.00,0.00,2,S01
26760,-9.01656,1.65679,1.45567,12.1951,8.4146,3.6585,0.00,0.00,0.00,2,S01
26780,-8.84418,1.79565,1.47243,14.0854,7.3780,1.7683,0.00,0.00,0.00,2,S01
26800,-8.80587,1.96564,1.65439,15.5488,6.7683,-0.3659,0.00,0.00,0.00,2,S01
26820,-8.82982,1.95606,1.77650,16.1585,5.7317,-2.0122,0.00,0.00,0.00,2,S01
26840,-8.77475,1.94409,1.84354,17.3780,4.7561,-3.4756,0.00,0.00,0.00,2,S01
26860,-8.78193,1.99437,1.92254,17.6829,3.2317,-5.1220,0.00,0.00,0.00,2,S01
26880,-8.86812,2.14281,2.00155,17.3171,0.7317,-6.7073,0.00,0.00,0.00,2,S01
26900,-8.90404,2.31759,1.90339,16.8902,-1.8293,-7.4390,0.00,0.00,0.00,2,S01
26920,-8.94713,2.39899,1.65439,17.1951,-4.3293,-7.1951,0.00,0.00,0.00,2,S01
26940,-8.97107,2.69827,1.21147,14.0854,-6.2805,-5.7927,0.00,0.00,0.00,2,S01
26960,-9.17219,2.60968,1.29047,8.0488,-7.9268,-2.9268,0.00,0.00,0.00,2,S01
26980,-9.29669,1.75734,2.40617,8.4146,-10.1829,0.7927,0.00,0.00,0.00,2,S01
27000,-9.53611,1.23301,3.15556,18.6585,-14.0854,3.2927,0.00,0.00,0.00,2,S01
27020,-10.47942,1.88184,2.35111,29.3902,-15.2439,6.6463,0.00,0.00,0.00,2,S01
27040,-11.21923,2.90417,1.42694,32.5000,-10.1829,14.7561,0.00,0.00,0.00,2,S01
27060,-11.12107,3.00712,0.79727,29.8171,-7.8659,24.6951,0.00,0.00,0.00,2,S01
27080,-10.33337,2.36787,0.49799,26.6463,-9.0854,28.2927,0.00,0.00,0.00,2,S01
27100,-9.63666,1.55623,0.21069,26.4634,-9.7561,22.1951,0.00,0.00,0.00,2,S01
27120,-9.06684,1.33118,-0.27773,29.8171,-11.6463,10.6707,0.00,0.00,0.00,2,S01
27140,-8.50181,1.56102,-0.67277,30.6098,-13.9634,2.1951,0.00,0.00,0.00,2,S01
27160,-8.12592,1.79326,-0.72544,27.0732,-14.2073,0.7317,0.00,0.00,0.00,2,S01
27180,-8.36055,1.83635,-0.70629,18.4146,-11.7073,1.7683,0.00,0.00,0.00,2,S01
27200,-8.99023,1.67594,-0.53151,6.2195,-6.7073,2.1951,0.00,0.00,0.00,2,S01
27220,-9.72046,1.33118,-0.31364,-5.1829,-3.3537,1.3415,0.00,0.00,0.00,2,S01
27240,-10.10114,1.00317,0.25857,-11.9512,-4.0244,-2.5000,0.00,0.00,0.00,2,S01
27260,-9.92875,0.86431,0.50278,-13.3537,-8.4756,-7.1951,0.00,0.00,0.00,2,S01
27280,-9.49301,0.95768,0.52672,-13.8415,-11.4024,-12.0122,0.00,0.00,0.00,2,S01
27300,-9.24641,1.22823,0.58897,-15.3049,-11.5854,-16.2195,0.00,0.00,0.00,2,S01
27320,-8.99502,1.32878,0.69911,-17.8049,-11.0366,-17.6220,0.00,0.00,0.00,2,S01
27340,-8.59758,1.22104,0.98641,-21.6463,-7.9878,-12.5610,0.00,0.00,0.00,2,S01
27360,-8.54491,1.09415,1.07739,-23.6585,-6.7073,-8.3537,0.00,0.00,0.00,2,S01
27380,-8.55927,0.93134,1.05345,-24.0854,-4.1463,-4.6951,0.00,0.00,0.00,2,S01
27400,-8.73165,0.87867,1.07021,-22.9878,0.2439,-2.8659,0.00,0.00,0.00,2,S01
27420,-8.94713,0.89304,1.20189,-21.5244,4.3902,-2.5610,0.00,0.00,0.00,2,S01
27440,-9.06205,1.05345,1.23301,-20.4268,6.2195,-3.1707,0.00,0.00,0.00,2,S01
27460,-9.10515,1.12288,1.16837,-20.4268,7.1341,-3.4756,0.00,0.00,0.00,2,S01
27480,-9.10036,1.11330,1.21386,-20.7927,8.5366,-3.4146,0.00,0.00,0.00,2,S01
27500,-9.10275,1.15161,1.40300,-21.6463,10.0000,-3.4146,0.00,0.00,0.00,2,S01
27520,-9.08121,1.16837,1.58736,-22.8659,10.1220,-3.1707,0.00,0.00,0.00,2,S01
27540,-8.98544,1.16598,1.71904,-23.9024,9.2683,-2.6829,0.00,0.00,0.00,2,S01
27560,-8.85376,1.15640,1.81720,-24.6951,8.9634,-2.0122,0.00,0.00,0.00,2,S01
27580,-8.75560,1.11091,1.92015,-24.8780,9.5122,-1.0976,0.00,0.00,0.00,2,S01
27600,-8.68138,1.13964,2.05183,-24.3293,10.1220,0.1220,0.00,0.00,0.00,2,S01
27620,-8.58800,1.19950,2.19309,-23.8415,10.4878,1.8902,0.00,0.00,0.00,2,S01
27640,-8.59040,1.18992,2.32477,-23.5976,10.9146,3.6585,0.00,0.00,0.00,2,S01
27660,-8.75560,1.03669,2.37744,-22.7439,11.6463,4.8171,0.00,0.00,0.00,2,S01
27680,-8.97107,0.86670,2.31759,-20.8537,12.3780,5.3049,0.00,0.00,0.00,2,S01
27700,-9.08360,1.23062,2.26491,-20.1220,12.1341,5.0000,0.00,0.00,0.00,2,S01
27720,-9.12430,1.51314,2.30322,-24.2683,9.6951,4.9390,0.00,0.00,0.00,2,S01
27740,-9.25119,1.50835,2.21224,-27.5000,6.4024,4.5122,0.00,0.00,0.00,2,S01
27760,-9.27274,1.38624,2.11408,-29.9390,4.3902,3.9024,0.00,0.00,0.00,2,S01
27780,-9.24880,1.28090,2.35111,-33.8415,3.9634,3.2317,0.00,0.00,0.00,2,S01
27800,-9.17219,1.25456,2.60968,-38.7805,2.7439,1.6463,0.00,0.00,0.00,2,S01
27820,-9.24641,0.99359,2.77727,-43.3537,0.8537,-1.2805,0.00,0.00,0.00,2,S01
27840,-9.68215,0.30406,2.70784,-42.8659,-0.7927,-5.3659,0.00,0.00,0.00,2,S01
27860,-10.24000,-0.34477,2.36308,-35.3049,-2.3171,-10.5488,0.00,0.00,0.00,2,S01
27880,-10.65899,-0.38547,1.91776,-24.7561,-4.8171,-17.2561,0.00,0.00,0.00,2,S01
27900,-10.83137,0.02873,1.56820,-16.6463,-9.6951,-24.1463,0.00,0.00,0.00,2,S01
27920,-10.62307,0.63207,1.01993,-11.7073,-15.6707,-27.9878,0.00,0.00,0.00,2,S01
27940,-10.03170,1.19950,0.64404,-10.7317,-17.6829,-26.4634,0.00,0.00,0.00,2,S01
27960,-9.13627,0.98881,0.41659,-13.9634,-17.0732,-19.8171,0.00,0.00,0.00,2,S01
27980,-8.25760,0.59137,0.02155,-17.3171,-15.3049,-12.2561,0.00,0.00,0.00,2,S01
28000,-7.69975,0.56982,-0.51236,-19.5732,-10.3659,-6.8293,0.00,0.00,0.00,2,S01
28020,-7.82904,0.65601,-0.58179,-20.6098,-2.3780,-4.6341,0.00,0.00,0.00,2,S01
28040,-8.95192,0.98402,0.42856,-19.5122,4.2683,-5.5488,0.00,0.00,0.00,2,S01
28060,-10.14184,1.28329,1.18992,-15.4878,3.4756,-5.9756,0.00,0.00,0.00,2,S01
28080,-10.49857,1.18513,1.22823,-8.9634,-1.5244,-4.5122,0.00,0.00,0.00,2,S01
28100,-10.11550,0.73981,1.02472,-0.5488,-5.1220,-2.5610,0.00,0.00,0.00,2,S01
28120,-9.58878,0.56024,0.71108,8.6585,-6.0366,-0.4878,0.00,0.00,0.00,2,S01
28140,-9.24401,0.69432,0.70868,15.6098,-3.7195,2.9268,0.00,0.00,0.00,2,S01
28160,-8.90882,0.99120,0.76614,20.2439,-1.1585,6.8293,0.00,0.00,0.00,2,S01
28180,-8.64067,1.18752,0.82361,22.5000,0.9756,9.5122,0.00,0.00,0.00,2,S01
28200,-8.55688,1.43892,0.90501,21.9512,3.7805,9.9390,0.00,0.00,0.00,2,S01
28220,-8.64307,1.63763,1.11809,18.5366,7.2561,9.5732,0.00,0.00,0.00,2,S01
28240,-8.73165,1.60890,1.31681,13.8415,9.5732,9.6341,0.00,0.00,0.00,2,S01
28260,-8.81066,1.48680,1.44610,10.4878,11.2805,10.0610,0.00,0.00,0.00,2,S01
28280,-8.82503,1.29047,1.37188,8.7195,11.7683,10.3659,0.00,0.00,0.00,2,S01
28300,-8.84897,1.24020,1.35751,8.5976,12.6829,9.1463,0.00,0.00,0.00,2,S01
28320,-8.93037,1.29287,1.40300,9.1463,13.4146,7.2561,0.00,0.00,0.00,2,S01
28340,-9.00459,1.38145,1.45089,9.7561,13.5366,5.1829,0.00,0.00,0.00,2,S01
28360,-9.04529,1.44370,1.49398,11.3415,13.4146,3.2317,0.00,0.00,0.00,2,S01
28380,-9.07402,1.52271,1.55144,13.1707,12.9268,1.8902,0.00,0.00,0.00,2,S01
28400,-9.02853,1.67834,1.54665,13.9024,12.3780,1.2195,0.00,0.00,0.00,2,S01
28420,-8.93277,1.74298,1.61609,13.5976,12.5000,0.6707,0.00,0.00,0.00,2,S01
28440,-8.81784,1.83875,1.71425,13.6585,12.9878,0.0610,0.00,0.00,0.00,2,S01
28460,-8.79151,1.84832,1.81720,13.5366,12.9878,-0.4268,0.00,0.00,0.00,2,S01
28480,-8.77954,1.80283,1.84114,13.5976,11.8902,-0.8537,0.00,0.00,0.00,2,S01
28500,-8.81784,1.82917,1.94888,12.9878,10.5488,-1.5854,0.00,0.00,0.00,2,S01
28520,-8.76038,1.99437,2.04225,12.0122,6.7683,-3.5366,0.00,0.00,0.00,2,S01
28540,-8.76038,2.09253,1.83875,10.5488,5.4878,-3.9634,0.00,0.00,0.00,2,S01
28560,-8.79630,1.79086,1.72622,11.1585,4.7561,-4.2683,0.00,0.00,0.00,2,S01
28580,-8.97347,1.80044,1.79805,14.8780,4.3902,-4.6951,0.00,0.00,0.00,2,S01
28600,-9.12909,2.28167,1.69749,15.6098,2.7439,-3.7195,0.00,0.00,0.00,2,S01
28620,-9.27035,2.23140,2.01592,12.6220,0.9756,-0.7317,0.00,0.00,0.00,2,S01
28640,-9.24880,1.66636,2.54504,15.2439,-1.3415,2.1951,0.00,0.00,0.00,2,S01
28660,-9.07642,1.29526,2.58334,24.6341,-3.4756,4.0854,0.00,0.00,0.00,2,S01
28680,-9.20331,1.59214,2.37505,32.8049,-3.3537,6.0366,0.00,0.00,0.00,2,S01
28700,-9.76595,2.40138,1.59693,35.5488,-3.1098,10.4268,0.00,0.00,0.00,2,S01
28720,-10.54406,3.53624,0.71108,33.0488,0.3659,20.0000,0.00,0.00,0.00,2,S01
28740,-10.71645,3.81636,0.22027,24.8171,5.5488,33.5366,0.00,0.00,0.00,2,S01
28760,-10.36929,3.06937,0.13886,13.5976,5.9756,41.7683,0.00,0.00,0.00,2,S01
28780,-10.17775,1.86508,0.11253,8.1707,3.8415,37.7439,0.00,0.00,0.00,2,S01
28800,-10.04368,1.42934,-0.05986,11.8293,1.0366,23.0488,0.00,0.00,0.00,2,S01
28820,-9.51695,1.43892,-0.64643,16.3415,-4.0244,7.5610,0.00,0.00,0.00,2,S01
28840,-8.73165,1.46286,-0.95529,18.3537,-7.1341,-2.5000,0.00,0.00,0.00,2,S01
28860,-8.02058,1.49877,-1.35991,17.9878,-7.9268,-5.8537,0.00,0.00,0.00,2,S01
28880,-7.96072,1.45089,-1.14922,12.6829,-4.0854,-5.2439,0.00,0.00,0.00,2,S01
28900,-8.73405,1.14922,-0.53151,5.6098,0.1220,-4.5122,0.00,0.00,0.00,2,S01
28920,-9.73243,1.02472,0.03591,0.7317,0.6707,-4.8780,0.00,0.00,0.00,2,S01
28940,-10.20169,1.19950,-0.01197,-3.4146,-2.3780,-6.1585,0.00,0.00,0.00,2,S01
28960,-10.01973,1.53468,-0.00479,-10.1220,-5.0000,-8.6585,0.00,0.00,0.00,2,S01
28980,-9.74679,1.61369,0.28252,-18.7195,-7.0122,-12.4390,0.00,0.00,0.00,2,S01
29000,-9.44752,1.50835,0.44532,-24.3293,-9.2683,-16.7683,0.00,0.00,0.00,2,S01
29020,-9.05487,1.26893,0.46926,-26.7073,-9.8780,-19.7561,0.00,0.00,0.00,2,S01
29040,-8.87052,1.01754,0.58897,-28.1098,-8.4146,-19.7561,0.00,0.00,0.00,2,S01
29060,-8.64067,0.84994,0.63686,-27.6220,-6.4634,-17.1951,0.00,0.00,0.00,2,S01
29080,-8.53054,0.78530,0.75178,-26.3415,-3.5366,-13.4756,0.00,0.00,0.00,2,S01
29100,-8.60955,0.89543,0.89783,-26.0976,-0.4878,-10.0610,0.00,0.00,0.00,2,S01
29120,-8.69813,1.05105,0.80206,-26.0366,1.2195,-7.2561,0.00,0.00,0.00,2,S01
29140,-8.83939,1.17316,0.79487,-25.6707,3.4146,-4.8780,0.00,0.00,0.00,2,S01
29160,-8.99741,1.11330,0.81163,-25.4268,5.3049,-2.8049,0.00,0.00,0.00,2,S01
29180,-9.15064,0.96007,0.90501,-25.0610,7.4390,-1.6463,0.00,0.00,0.00,2,S01
29200,-9.24162,0.91698,1.07021,-24.4512,9.0244,-1.8293,0.00,0.00,0.00,2,S01
29220,-9.28950,0.96247,1.21865,-23.5976,8.9024,-3.1098,0.00,0.00,0.00,2,S01
29240,-9.17698,0.98881,1.27850,-22.4390,7.6220,-4.3902,0.00,0.00,0.00,2,S01
29260,-9.03093,1.01275,1.39103,-21.2195,6.8293,-5.3049,0.00,0.00,0.00,2,S01
29280,-8.94713,1.04148,1.65200,-21.9512,6.3415,-5.1220,0.00,0.00,0.00,2,S01
29300,-8.83221,1.00078,1.89621,-22.8049,5.6098,-4.2073,0.00,0.00,0.00,2,S01
29320,-8.75081,0.99599,2.08056,-22.5000,5.1220,-2.6220,0.00,0.00,0.00,2,S01
29340,-8.67898,1.06063,2.18591,-22.5610,4.8171,-0.4268,0.00,0.00,0.00,2,S01
29360,-8.73644,1.05584,2.25534,-22.9268,4.5122,1.7683,0.00,0.00,0.00,2,S01
29380,-8.91361,1.03190,2.23618,-22.9268,3.9634,3.9634,0.00,0.00,0.00,2,S01
29400,-8.99502,0.84515,2.13563,-22.6829,3.4146,5.9146,0.00,0.00,0.00,2,S01
29420,-9.06445,0.71587,2.13563,-22.1951,3.1098,6.3415,0.00,0.00,0.00,2,S01
29440,-9.22486,0.76375,2.09253,-22.2561,1.7073,5.3049,0.00,0.00,0.00,2,S01
29460,-9.37809,0.81163,2.03747,-21.7073,-1.3415,3.1098,0.00,0.00,0.00,2,S01
29480,-9.46189,1.09654,2.35829,-22.2561,-4.4512,0.3049,0.00,0.00,0.00,2,S01
29500,-9.30147,1.41018,2.63841,-26.0366,-7.4390,-1.3415,0.00,0.00,0.00,2,S01
29520,-9.26317,1.34315,2.78446,-31.5854,-8.2317,-2.2561,0.00,0.00,0.00,2,S01
29540,-9.77313,0.96486,2.28407,-33.9024,-8.1098,-4.8780,0.00,0.00,0.00,2,S01
29560,-10.53688,0.55545,1.64960,-32.1341,-6.7683,-10.9756,0.00,0.00,0.00,2,S01
29580,-11.28148,0.50039,1.26174,-27.7439,-7.7439,-19.8171,0.00,0.00,0.00,2,S01
29600,-11.25035,0.76614,0.74460,-23.1707,-13.4756,-27.0732,0.00,0.00,0.00,2,S01
29620,-10.42914,1.25935,0.35674,-22.3780,-19.2073,-28.8415,0.00,0.00,0.00,2,S01
29640,-9.26077,1.18274,-0.02394,-26.3415,-22.0122,-23.4756,0.00,0.00,0.00,2,S01
29660,-8.17620,0.54109,-0.36631,-29.8780,-19.7561,-15.4878,0.00,0.00,0.00,2,S01
29680,-8.16183,0.19872,-0.64643,-27.1341,-4.6341,-6.6463,0.00,0.00,0.00,2,S01
29700,-9.03811,0.26576,0.01437,-20.6707,1.1585,-5.8537,0.00,0.00,0.00,2,S01
29720,-9.92157,0.57940,0.54348,-10.9756,1.2195,-6.2195,0.00,0.00,0.00,2,S01
29740,-10.29267,0.89543,0.66319,-2.6220,-2.0732,-5.9756,0.00,0.00,0.00,2,S01
29760,-10.11550,1.03190,0.72784,1.8293,-5.1829,-4.8171,0.00,0.00,0.00,2,S01
29780,-9.68933,1.10612,0.68714,4.5732,-7.1341,-2.5610,0.00,0.00,0.00,2,S01
29800,-9.26556,1.20189,0.65601,7.0732,-6.5854,1.5244,0.00,0.00,0.00,2,S01
29820,-8.91601,1.32160,0.64643,8.9634,-3.7805,7.0732,0.00,0.00,0.00,2,S01
29840,-8.66462,1.26174,0.86431,8.7805,-0.2439,11.9512,0.00,0.00,0.00,2,S01
29860,-8.58321,1.14443,1.04387,8.2317,2.4390,13.8415,0.00,0.00,0.00,2,S01
29880,-8.63589,1.10612,1.14922,8.2317,4.8171,13.1098,0.00,0.00,0.00,2,S01
29900,-8.82742,1.17076,1.43173,7.7439,5.9756,11.0366,0.00,0.00,0.00,2,S01
29920,-8.94234,1.24259,1.48919,7.4390,4.4512,9.2073,0.00,0.00,0.00,2,S01
29940,-8.86333,1.27850,1.23541,8.1098,3.7805,8.3537,0.00,0.00,0.00,2,S01
29960,-8.89685,1.41737,1.00796,7.5610,6.5244,7.7439,0.00,0.00,0.00,2,S01
29980,-9.02375,1.46765,1.01514,5.0610,9.3902,7.4390,0.00,0.00,0.00,2,S01
# DONE 1500 samples in 30.0s
