timestamp,ax,ay,az,gx,gy,gz,mx,my,mz,label,subject_id
0,-9.41161,-0.12210,-0.10056,-0.7317,-0.0610,-1.2195,0.00,0.00,0.00,5,S01
20,-9.40442,-0.15802,-0.09816,-0.8537,-0.1220,-1.3415,0.00,0.00,0.00,5,S01
40,-9.35415,-0.17957,-0.04549,-0.3659,-0.1829,-1.4024,0.00,0.00,0.00,5,S01
60,-9.35415,-0.17957,-0.04549,-0.3659,-0.1829,-1.4024,0.00,0.00,0.00,5,S01
80,-9.35893,-0.15083,-0.04788,-0.3659,-0.3049,-1.3415,0.00,0.00,0.00,5,S01
100,-9.36612,-0.15562,-0.05507,-0.2439,-0.3049,-1.3415,0.00,0.00,0.00,5,S01
120,-9.37569,-0.15323,-0.06943,0.0000,-0.2439,-1.3415,0.00,0.00,0.00,5,S01
140,-9.38288,-0.11492,-0.07422,-0.1220,-0.1220,-1.4024,0.00,0.00,0.00,5,S01
160,-9.39245,-0.12450,-0.08619,-0.4878,-0.3049,-1.5244,0.00,0.00,0.00,5,S01
180,-9.37809,-0.15562,-0.08859,-0.5488,-0.4268,-1.6463,0.00,0.00,0.00,5,S01
200,-9.41640,-0.16041,-0.13408,-0.2439,-0.3049,-1.6463,0.00,0.00,0.00,5,S01
220,-9.44513,-0.12929,-0.17717,-0.4268,-0.3049,-1.3415,0.00,0.00,0.00,5,S01
240,-9.43555,-0.15802,-0.14126,-0.7927,-0.7927,-1.2805,0.00,0.00,0.00,5,S01
260,-9.39006,-0.20351,-0.11971,-0.7927,-1.4634,-1.4024,0.00,0.00,0.00,5,S01
280,-9.37330,-0.23463,-0.05267,-0.7317,-1.9512,-1.5854,0.00,0.00,0.00,5,S01
300,-9.35415,-0.26576,0.00958,-0.4878,-2.1951,-1.7073,0.00,0.00,0.00,5,S01
320,-9.39006,-0.27773,0.04310,-0.1220,-2.2561,-1.8293,0.00,0.00,0.00,5,S01
340,-9.32781,-0.32322,0.07661,0.4878,-2.2561,-2.0122,0.00,0.00,0.00,5,S01
360,-9.28232,-0.32561,0.02155,1.6463,-2.2561,-2.0732,0.00,0.00,0.00,5,S01
380,-9.27514,-0.26815,-0.02155,2.3171,-1.5854,-1.9512,0.00,0.00,0.00,5,S01
400,-9.33260,-0.17238,0.00479,2.3780,-1.0366,-1.8293,0.00,0.00,0.00,5,S01
420,-9.34696,-0.09098,-0.08140,2.1341,-1.0366,-1.7073,0.00,0.00,0.00,5,S01
440,-9.36133,-0.07183,-0.12689,1.4024,-0.4268,-1.5244,0.00,0.00,0.00,5,S01
460,-9.39964,-0.05028,-0.14844,0.5488,0.1220,-1.2805,0.00,0.00,0.00,5,S01
480,-9.41400,-0.05267,-0.13168,-0.5488,-0.2439,-1.2195,0.00,0.00,0.00,5,S01
500,-9.40682,-0.12450,-0.08140,-1.4024,-0.6707,-1.2805,0.00,0.00,0.00,5,S01
520,-9.35654,-0.22745,-0.03831,-1.4634,-0.8537,-1.3415,0.00,0.00,0.00,5,S01
540,-9.31344,-0.22745,0.02394,-0.8537,-1.0366,-1.2805,0.00,0.00,0.00,5,S01
560,-9.21289,-0.11971,0.05507,-0.3659,-1.4634,-0.8537,0.00,0.00,0.00,5,S01
580,-9.26795,-0.02155,0.05986,-0.4268,-1.6463,-0.4268,0.00,0.00,0.00,5,S01
600,-9.46667,0.02873,-0.10534,-0.6707,-1.6463,-0.3659,0.00,0.00,0.00,5,S01
620,-9.44273,0.05028,-0.20830,-0.3659,-1.4634,-0.6098,0.00,0.00,0.00,5,S01
640,-9.34218,0.09337,-0.08859,0.3049,-2.4390,-0.6098,0.00,0.00,0.00,5,S01
660,-9.31584,0.10295,0.12450,0.2439,-4.6341,0.2439,0.00,0.00,0.00,5,S01
680,-9.23922,-0.01197,0.25857,-0.0610,-7.0732,1.4634,0.00,0.00,0.00,5,S01
700,-9.12909,-0.32082,0.19154,2.3780,-6.2195,1.6463,0.00,0.00,0.00,5,S01
720,-9.13148,-0.67038,0.26576,9.1463,-1.2805,1.0366,0.00,0.00,0.00,5,S01
740,-9.32302,-0.69432,0.57461,16.2805,2.9268,0.4268,0.00,0.00,0.00,5,S01
760,-9.39006,-0.33279,0.71347,18.7805,3.3537,0.3659,0.00,0.00,0.00,5,S01
780,-9.36851,0.12210,0.63446,17.0732,2.5610,0.7927,0.00,0.00,0.00,5,S01
800,-9.49540,0.51236,0.56982,9.5122,5.2439,0.4878,0.00,0.00,0.00,5,S01
820,-9.62469,0.51475,0.69432,3.1098,5.3659,-0.3049,0.00,0.00,0.00,5,S01
840,-9.62230,0.37589,0.82121,-3.4756,3.2927,-1.8902,0.00,0.00,0.00,5,S01
860,-9.45231,0.19632,0.80206,-7.7439,0.9756,-3.9634,0.00,0.00,0.00,5,S01
880,-9.32302,-0.00479,0.82600,-10.5488,-0.4878,-5.3659,0.00,0.00,0.00,5,S01
900,-9.28232,-0.11732,0.86191,-12.1951,-1.7683,-5.9146,0.00,0.00,0.00,5,S01
920,-9.23204,-0.16281,0.87867,-13.6585,-3.6585,-5.6707,0.00,0.00,0.00,5,S01
940,-9.17458,-0.13408,0.85473,-15.0610,-5.7317,-4.9390,0.00,0.00,0.00,5,S01
960,-9.11233,-0.12689,0.91219,-15.9756,-7.1341,-3.7805,0.00,0.00,0.00,5,S01
980,-9.10994,-0.16041,1.04387,-16.5244,-8.5976,-2.6220,0.00,0.00,0.00,5,S01
1000,-9.11951,-0.18675,1.12767,-17.4390,-9.8780,-1.5244,0.00,0.00,0.00,5,S01
1020,-9.08121,-0.17478,1.13006,-18.5976,-9.8780,-0.5488,0.00,0.00,0.00,5,S01
1040,-9.00220,-0.08140,1.01754,-19.8780,-8.3537,-0.1829,0.00,0.00,0.00,5,S01
1060,-8.94953,-0.06943,1.13964,-21.8902,-6.4634,0.0000,0.00,0.00,0.00,5,S01
1080,-8.81306,-0.17478,1.00796,-23.8415,-5.8537,0.3049,0.00,0.00,0.00,5,S01
1100,-8.54491,-0.27773,0.57940,-26.0976,-2.5000,0.9756,0.00,0.00,0.00,5,S01
1120,-8.18338,-0.34237,0.24900,-28.5366,3.0488,1.9512,0.00,0.00,0.00,5,S01
1140,-7.61596,-0.31843,-0.27773,-32.0122,8.1707,2.3171,0.00,0.00,0.00,5,S01
1160,-6.84502,-0.43574,-0.72784,-36.7683,14.9390,1.0366,0.00,0.00,0.00,5,S01
1180,-6.00226,-0.55306,-1.12767,-39.9390,22.0732,-2.0732,0.00,0.00,0.00,5,S01
1200,-5.70059,-1.07260,-0.59376,-37.8049,29.3293,-4.0854,0.00,0.00,0.00,5,S01
1220,-5.94480,-0.92656,-0.01676,-31.5854,30.8537,-2.9268,0.00,0.00,0.00,5,S01
1240,-6.16507,-0.77333,0.19872,-26.0976,30.2439,2.8659,0.00,0.00,0.00,5,S01
1260,-6.69658,-1.15640,0.97923,-22.1341,28.9024,6.5854,0.00,0.00,0.00,5,S01
1280,-7.07247,-1.76213,1.46286,-15.3049,20.6098,4.2073,0.00,0.00,0.00,5,S01
1300,-7.29753,-2.16675,1.52271,-4.3902,11.2195,-1.4634,0.00,0.00,0.00,5,S01
1320,-7.10360,-1.43892,0.94092,4.5732,3.3537,-6.6463,0.00,0.00,0.00,5,S01
1340,-6.52899,-0.25139,0.20111,4.0244,-2.7439,-6.6463,0.00,0.00,0.00,5,S01
1360,-6.56251,-0.49799,0.11492,-5.0000,-5.6098,-3.0488,0.00,0.00,0.00,5,S01
1380,-8.29830,-0.56024,-0.49081,-5.9756,-7.0732,-5.0000,0.00,0.00,0.00,5,S01
1400,-10.42675,0.82839,-0.87628,-13.1098,-4.1463,-8.7195,0.00,0.00,0.00,5,S01
1420,-17.32684,-0.08380,-0.40701,-34.6951,-14.7561,-6.8293,0.00,0.00,0.00,5,S01
1440,-22.33072,-0.96965,-0.55067,-7.3171,-12.9878,-42.3171,0.00,0.00,0.00,5,S01
1460,-21.01630,1.60651,-0.27773,35.9756,-5.9146,-73.1098,0.00,0.00,0.00,5,S01
1480,-14.86799,0.76375,-1.53468,31.1585,-36.4024,-29.9390,0.00,0.00,0.00,5,S01
1500,-12.21522,0.85473,-0.03831,-3.3537,-48.4756,24.2683,0.00,0.00,0.00,5,S01
1520,-11.25993,1.48919,0.40941,-36.3415,-34.8780,47.4390,0.00,0.00,0.00,5,S01
1540,-10.73560,1.42455,0.58419,-37.5610,5.4878,37.1341,0.00,0.00,0.00,5,S01
1560,-9.82341,1.76213,-0.06704,-20.5488,22.5000,19.8171,0.00,0.00,0.00,5,S01
1580,-8.46590,1.72143,-0.75896,-10.7927,22.7439,18.2927,0.00,0.00,0.00,5,S01
1600,-6.90009,0.66559,-1.25217,-10.6098,30.3049,25.6098,0.00,0.00,0.00,5,S01
1620,-6.58645,-0.20830,-0.85712,-10.8537,45.3659,25.0000,0.00,0.00,0.00,5,S01
1640,-7.45315,-0.52194,-0.73263,-6.3415,49.0244,15.9146,0.00,0.00,0.00,5,S01
1660,-8.42041,0.06943,-0.80924,-2.3780,35.7317,6.8902,0.00,0.00,0.00,5,S01
1680,-8.93995,0.61770,-0.61052,-7.2561,12.9878,3.7805,0.00,0.00,0.00,5,S01
1700,-8.61434,0.51475,-0.47884,-10.0610,-2.3780,3.7195,0.00,0.00,0.00,5,S01
1720,-8.69095,0.85712,-0.42138,-4.3293,-1.4634,-2.6220,0.00,0.00,0.00,5,S01
1740,-9.14346,1.02472,0.09337,-3.1707,-1.7683,-11.2805,0.00,0.00,0.00,5,S01
1760,-9.23444,0.70868,0.32322,-4.8171,-8.9024,-14.2683,0.00,0.00,0.00,5,S01
1780,-8.86094,0.31843,0.26336,-4.9390,-11.8293,-11.5244,0.00,0.00,0.00,5,S01
1800,-8.48266,0.63207,0.48602,-5.5488,-9.3293,-6.7073,0.00,0.00,0.00,5,S01
1820,-8.83939,0.95768,1.01275,-12.3780,-9.9390,-0.6098,0.00,0.00,0.00,5,S01
1840,-9.36372,0.95289,0.84276,-16.8293,-14.5732,0.9146,0.00,0.00,0.00,5,S01
1860,-9.22725,0.96007,0.02155,-16.2195,-12.9878,-6.0366,0.00,0.00,0.00,5,S01
1880,-8.58321,1.07021,-0.63446,-15.6098,-2.2561,-14.8171,0.00,0.00,0.00,5,S01
1900,-7.60398,1.15401,-0.53151,-17.4390,6.9512,-17.3171,0.00,0.00,0.00,5,S01
1920,-6.31112,1.26653,-0.50278,-16.2805,10.0610,-11.7683,0.00,0.00,0.00,5,S01
1940,-5.35344,0.84755,-0.47166,-17.4390,12.3780,-3.8415,0.00,0.00,0.00,5,S01
1960,-5.38456,0.42138,-0.70629,-17.1341,18.0488,-1.5244,0.00,0.00,0.00,5,S01
1980,-6.14352,0.52912,-0.12210,-14.4512,28.3537,-4.8171,0.00,0.00,0.00,5,S01
2000,-7.72848,1.40540,1.11091,-18.1098,16.7683,-9.4512,0.00,0.00,0.00,5,S01
2020,-7.12514,1.44370,0.18675,-8.7195,7.9268,-11.4024,0.00,0.00,0.00,5,S01
2040,-6.93840,2.09014,0.76614,-7.3780,0.2439,-12.9878,0.00,0.00,0.00,5,S01
2060,-7.51779,2.37984,0.71108,-17.2561,-16.1585,-12.5000,0.00,0.00,0.00,5,S01
2080,-8.03015,1.57299,-1.14922,-15.4878,-17.9268,-8.4756,0.00,0.00,0.00,5,S01
2100,-10.01016,-0.70868,-0.86670,2.6829,-3.7805,0.7317,0.00,0.00,0.00,5,S01
2120,-20.01313,-1.84832,-4.71897,44.3293,-29.4512,20.4878,0.00,0.00,0.00,5,S01
2140,-23.54458,-5.38456,0.00000,31.7683,-26.2195,71.3415,0.00,0.00,0.00,5,S01
2160,-14.73392,0.29209,-1.39343,-6.5854,-56.4634,43.5366,0.00,0.00,0.00,5,S01
2180,-13.04122,2.73418,-1.48201,-5.9146,-63.9634,9.0854,0.00,0.00,0.00,5,S01
2200,-13.04122,2.73418,-1.48201,-5.9146,-63.9634,9.0854,0.00,0.00,0.00,5,S01
2220,-11.51132,0.82121,-0.90501,-24.4512,-49.4512,-2.8659,0.00,0.00,0.00,5,S01
2240,-9.56005,-1.13964,-0.76136,-28.1707,-20.4878,-11.5854,0.00,0.00,0.00,5,S01
2260,-7.35020,-1.62566,-0.98881,-29.3293,2.3171,-20.5488,0.00,0.00,0.00,5,S01
2280,-6.10043,-1.39582,-0.87149,-35.6098,21.0976,-28.7805,0.00,0.00,0.00,5,S01
2300,-6.18422,-1.20668,-0.67277,-35.3659,36.1585,-31.0366,0.00,0.00,0.00,5,S01
2320,-6.97670,-1.16119,-0.50278,-29.5732,46.5244,-26.9512,0.00,0.00,0.00,5,S01
2340,-7.78594,-0.88346,-0.28252,-22.9878,49.1463,-23.1098,0.00,0.00,0.00,5,S01
2360,-8.49942,-0.64165,-0.17238,-18.7195,39.3902,-21.7683,0.00,0.00,0.00,5,S01
2380,-8.70053,-0.95050,0.01197,-17.8049,24.3902,-20.7317,0.00,0.00,0.00,5,S01
2400,-8.89925,-1.35033,0.16759,-10.0610,16.3415,-17.7439,0.00,0.00,0.00,5,S01
2420,-8.97826,-1.57060,0.22027,-0.5488,11.8902,-11.4024,0.00,0.00,0.00,5,S01
2440,-8.44435,-1.28808,0.00239,2.6829,8.2317,-5.6707,0.00,0.00,0.00,5,S01
2460,-7.46512,-1.01275,-0.08140,-0.3049,10.0000,-3.5366,0.00,0.00,0.00,5,S01
2480,-7.01501,-0.88585,0.57461,-3.2317,13.5976,-4.6951,0.00,0.00,0.00,5,S01
2500,-7.60877,-0.84515,1.28569,0.3659,10.4878,-4.6951,0.00,0.00,0.00,5,S01
2520,-8.48744,-0.78051,1.33596,4.0854,0.9756,-1.2195,0.00,0.00,0.00,5,S01
2540,-7.87692,-0.51715,0.05028,7.0732,-1.2195,5.0000,0.00,0.00,0.00,5,S01
2560,-6.36858,-0.93853,-0.24660,3.9634,7.2561,8.9024,0.00,0.00,0.00,5,S01
2580,-5.52342,-1.26414,0.03591,3.8415,13.1098,6.7073,0.00,0.00,0.00,5,S01
2600,-6.01184,-1.16119,0.29688,4.4512,11.2805,0.9146,0.00,0.00,0.00,5,S01
2620,-6.71813,-0.84276,-0.22505,6.4024,5.4878,0.1220,0.00,0.00,0.00,5,S01
2640,-6.84502,-1.02232,-0.04310,10.5488,4.4512,6.7073,0.00,0.00,0.00,5,S01
2660,-6.93840,-1.63524,0.58897,16.5244,4.9390,13.2927,0.00,0.00,0.00,5,S01
2680,-6.81869,-1.69509,0.15802,23.9634,4.3293,13.7195,0.00,0.00,0.00,5,S01
2700,-6.34942,-1.02472,-1.20189,25.4878,3.9024,9.2683,0.00,0.00,0.00,5,S01
2720,-6.47392,-0.45490,-2.53546,20.3049,7.1951,3.9634,0.00,0.00,0.00,5,S01
2740,-7.76200,0.50039,-2.61926,18.2927,10.1220,-2.3171,0.00,0.00,0.00,5,S01
2760,-12.13860,1.19231,-0.39744,2.1951,-6.9512,-2.5000,0.00,0.00,0.00,5,S01
2780,-20.16157,-2.85868,-3.42371,2.5000,-52.1341,-9.0854,0.00,0.00,0.00,5,S01
2800,-22.02905,1.36948,-0.60813,37.6220,-31.8293,-57.0732,0.00,0.00,0.00,5,S01
2820,-17.23107,2.57856,-3.19865,46.9512,-37.2561,-45.9756,0.00,0.00,0.00,5,S01
2840,-13.30937,0.79009,-0.89783,34.7561,-38.9024,7.1951,0.00,0.00,0.00,5,S01
2860,-14.61900,-0.21548,0.50996,-16.8293,-36.9512,30.0000,0.00,0.00,0.00,5,S01
2880,-15.69399,0.86670,1.15640,-19.0244,10.0610,22.0732,0.00,0.00,0.00,5,S01
2900,-13.29021,1.51553,0.35434,-0.2439,28.4146,16.4634,0.00,0.00,0.00,5,S01
2920,-9.85932,1.35512,-0.20590,9.5732,17.1341,21.7073,0.00,0.00,0.00,5,S01
2940,-7.52019,0.54827,-0.59616,7.4390,12.0732,25.2439,0.00,0.00,0.00,5,S01
2960,-6.92643,-0.25379,-0.75896,6.0366,27.0732,23.3537,0.00,0.00,0.00,5,S01
2980,-7.49625,-0.48123,-0.31364,5.5488,42.3780,19.8171,0.00,0.00,0.00,5,S01
3000,-7.71891,-0.27533,0.10295,5.8537,40.6707,17.6220,0.00,0.00,0.00,5,S01
3020,-7.42681,0.24181,0.16759,8.1707,25.1220,16.0366,0.00,0.00,0.00,5,S01
3040,-7.03895,0.78051,-0.30885,12.5610,12.1951,12.3171,0.00,0.00,0.00,5,S01
3060,-6.93121,0.86910,-0.51236,15.0610,11.8902,5.1220,0.00,0.00,0.00,5,S01
3080,-7.16824,0.72544,-0.20351,15.0000,12.9268,-2.9268,0.00,0.00,0.00,5,S01
3100,-7.34781,0.25139,0.22505,15.3049,4.9390,-8.7805,0.00,0.00,0.00,5,S01
3120,-6.72771,0.01915,0.31364,17.2561,-5.1829,-12.0732,0.00,0.00,0.00,5,S01
3140,-5.53300,-0.13408,0.35674,20.1829,-5.5488,-12.8049,0.00,0.00,0.00,5,S01
3160,-4.96797,-0.00239,0.43335,26.4024,2.1341,-14.6341,0.00,0.00,0.00,5,S01
3180,-5.00628,0.49081,0.77572,32.0122,10.3659,-17.2561,0.00,0.00,0.00,5,S01
3200,-4.87220,1.12288,0.17717,38.7805,12.0122,-16.2805,0.00,0.00,0.00,5,S01
3220,-6.13155,2.16915,-0.47166,6.2805,-1.4024,-9.8780,0.00,0.00,0.00,5,S01
3240,-6.13155,2.16915,-0.47166,6.2805,-1.4024,-9.8780,0.00,0.00,0.00,5,S01
3260,-5.93044,1.52511,-0.73981,1.2195,-8.6585,-8.3537,0.00,0.00,0.00,5,S01
3280,-6.61039,2.10450,-0.64404,3.7195,-12.8659,-9.1463,0.00,0.00,0.00,5,S01
3300,-9.31823,2.05183,-1.22823,-5.2439,-23.5976,-3.7805,0.00,0.00,0.00,5,S01
3320,-20.75773,-0.16520,-3.94804,12.2561,-39.8780,14.1463,0.00,0.00,0.00,5,S01
3340,-25.25883,-4.10127,-4.15394,17.0732,-44.6951,53.7805,0.00,0.00,0.00,5,S01
3360,-20.65478,-8.77475,2.08056,-51.0366,-63.6585,75.8537,0.00,0.00,0.00,5,S01
3380,-14.60463,-2.53307,-0.46926,-13.7805,-106.1585,14.1463,0.00,0.00,0.00,5,S01
3400,-14.52562,2.31998,-1.43173,46.0366,-88.8415,-28.1707,0.00,0.00,0.00,5,S01
3420,-13.50090,1.13485,-1.68552,35.1829,-46.8902,-17.3171,0.00,0.00,0.00,5,S01
3440,-12.66293,-1.08936,0.03352,1.7683,-3.9024,-9.5122,0.00,0.00,0.00,5,S01
3460,-10.56322,-2.14760,-0.50278,-0.6098,6.6463,-21.7073,0.00,0.00,0.00,5,S01
3480,-8.90643,-1.41258,-1.03190,-0.4878,16.8293,-34.1463,0.00,0.00,0.00,5,S01
3500,-7.68060,-0.64643,-1.13485,5.4878,36.0366,-28.1098,0.00,0.00,0.00,5,S01
3520,-7.30232,-0.71108,-0.81642,11.8293,51.5244,-16.6463,0.00,0.00,0.00,5,S01
3540,-7.72848,-0.65841,-0.35195,13.4146,48.3537,-13.5976,0.00,0.00,0.00,5,S01
3560,-7.64947,-0.91459,-0.39265,14.3293,33.9024,-11.8902,0.00,0.00,0.00,5,S01
3580,-7.33344,-1.25456,-0.71826,15.8537,24.8780,-9.6341,0.00,0.00,0.00,5,S01
3600,-7.78355,-1.17316,-0.83318,18.2927,24.6341,-7.0732,0.00,0.00,0.00,5,S01
3620,-8.86333,-1.11330,-0.37110,16.4024,25.2439,-2.2561,0.00,0.00,0.00,5,S01
3640,-9.74919,-0.92416,0.33998,13.5976,17.8659,2.1951,0.00,0.00,0.00,5,S01
3660,-9.77553,-0.68953,0.82600,12.5610,1.0976,5.4268,0.00,0.00,0.00,5,S01
3680,-9.07881,-0.53870,0.90501,14.2073,-14.0854,8.1098,0.00,0.00,0.00,5,S01
3700,-8.15705,-0.49560,0.54588,17.7439,-16.4634,8.1098,0.00,0.00,0.00,5,S01
3720,-7.30471,-0.75178,0.11971,18.5366,-7.3780,6.4634,0.00,0.00,0.00,5,S01
3740,-6.81869,-0.91698,-0.54588,17.3171,7.6220,5.0000,0.00,0.00,0.00,5,S01
3760,-6.18662,-0.69192,-0.98402,12.6829,26.2195,3.0488,0.00,0.00,0.00,5,S01
3780,-5.61440,-0.64643,-0.58179,4.8780,39.0854,1.0366,0.00,0.00,0.00,5,S01
3800,-6.20338,-0.44772,0.17717,3.2927,38.5366,-1.2805,0.00,0.00,0.00,5,S01
3820,-6.60800,-0.45250,-0.30885,8.0488,28.2927,0.8537,0.00,0.00,0.00,5,S01
3840,-6.09564,-0.62728,-0.73263,11.9512,23.7805,7.3171,0.00,0.00,0.00,5,S01
3860,-5.45399,-0.98162,-0.33519,12.3171,23.6585,9.8171,0.00,0.00,0.00,5,S01
3880,-5.38456,-1.06303,0.12210,11.5854,16.7683,4.8171,0.00,0.00,0.00,5,S01
3900,-5.57849,-0.47166,-0.67756,9.3902,8.9634,-2.5000,0.00,0.00,0.00,5,S01
3920,-6.00945,-0.10056,-0.52672,2.0122,11.5244,-4.2683,0.00,0.00,0.00,5,S01
3940,-6.95516,-0.94332,0.80445,-5.2439,5.8537,-1.7683,0.00,0.00,0.00,5,S01
3960,-8.37492,-1.53708,-0.52912,-4.2073,-9.5122,-1.8902,0.00,0.00,0.00,5,S01
3980,-9.63906,-0.15323,-2.30801,-7.4390,-11.9512,-8.2927,0.00,0.00,0.00,5,S01
4000,-13.67329,0.45250,-0.98881,-22.8659,-17.8659,-13.4146,0.00,0.00,0.00,5,S01
4020,-18.55746,-1.61609,-3.27287,-5.8537,-43.9024,-29.8780,0.00,0.00,0.00,5,S01
4040,-19.47923,1.35512,-0.73981,33.5366,-30.0610,-65.9756,0.00,0.00,0.00,5,S01
4060,-16.22790,2.33914,-1.78368,37.3780,-45.7927,-42.7439,0.00,0.00,0.00,5,S01
4080,-15.66766,1.21865,0.40941,10.6098,-67.9268,8.3537,0.00,0.00,0.00,5,S01
4100,-16.23987,0.25139,1.00078,-27.0732,-65.7317,26.3415,0.00,0.00,0.00,5,S01
4120,-16.06749,0.82600,0.85952,-26.8902,-25.3049,9.6951,0.00,0.00,0.00,5,S01
4140,-13.45541,1.95606,-0.29928,-13.9024,-12.6220,2.0732,0.00,0.00,0.00,5,S01
4160,-9.78271,2.32477,-1.30963,-8.7195,-12.0122,15.4268,0.00,0.00,0.00,5,S01
4180,-6.71095,0.70150,-1.40540,-10.0610,1.5854,32.1951,0.00,0.00,0.00,5,S01
4200,-6.02381,0.12689,-0.57940,-11.5854,26.8902,30.0000,0.00,0.00,0.00,5,S01
4220,-6.74447,0.06704,-0.51715,-10.2439,44.7561,20.0000,0.00,0.00,0.00,5,S01
4240,-7.27598,0.36871,-0.57940,-8.4756,49.6951,12.9878,0.00,0.00,0.00,5,S01
4260,-7.45554,0.35913,-0.29209,-6.6463,42.6829,8.7195,0.00,0.00,0.00,5,S01
4280,-7.21134,0.21787,-0.72065,-0.2439,30.1220,3.8415,0.00,0.00,0.00,5,S01
4300,-6.52899,0.33279,0.57221,5.7927,1.9512,-22.5000,0.00,0.00,0.00,5,S01
4320,-6.52899,0.33279,0.57221,5.7927,1.9512,-22.5000,0.00,0.00,0.00,5,S01
4340,-5.60722,-0.17238,0.39744,6.2805,-7.1341,-21.0366,0.00,0.00,0.00,5,S01
4360,-5.60722,-0.17238,0.39744,6.2805,-7.1341,-21.0366,0.00,0.00,0.00,5,S01
4380,-5.24091,-0.59137,-0.21308,10.6098,-5.7927,-17.9878,0.00,0.00,0.00,5,S01
4400,-5.13317,-0.27773,-0.65362,20.4268,2.8659,-17.9268,0.00,0.00,0.00,5,S01
4420,-5.71975,1.65918,-0.61531,17.0122,8.8415,-5.3049,0.00,0.00,0.00,5,S01
4440,-6.32069,1.75734,-0.18675,-1.0366,-3.4146,3.5366,0.00,0.00,0.00,5,S01
4460,-6.49068,1.52271,-0.29209,-11.2805,-15.3659,3.7195,0.00,0.00,0.00,5,S01
4480,-6.17465,0.87867,-0.74460,-12.9878,-14.6341,-3.9024,0.00,0.00,0.00,5,S01
4500,-6.63673,1.38624,-1.42934,-4.8171,-7.4390,-9.7561,0.00,0.00,0.00,5,S01
4520,-10.37168,1.13964,-2.31998,0.6098,-10.2439,-3.9634,0.00,0.00,0.00,5,S01
4540,-22.91730,0.77333,-7.59201,20.1829,-42.8049,26.2805,0.00,0.00,0.00,5,S01
4560,-24.63394,-4.74291,0.67756,-29.3293,-46.2195,83.4146,0.00,0.00,0.00,5,S01
4580,-18.33719,-5.38935,-0.49560,-63.1098,-60.3659,77.6829,0.00,0.00,0.00,5,S01
4600,-14.33169,0.16041,0.53391,-24.5122,-69.6951,11.8902,0.00,0.00,0.00,5,S01
4620,-13.58709,2.20027,-0.99599,-5.2439,-80.4878,-23.9024,0.00,0.00,0.00,5,S01
4640,-12.60068,0.49321,-0.01676,-25.4878,-52.1951,-22.6829,0.00,0.00,0.00,5,S01
4660,-11.05642,-1.51553,0.48842,-35.3049,-18.2317,-19.8780,0.00,0.00,0.00,5,S01
4680,-8.83939,-2.04944,0.06225,-33.1707,1.2195,-25.2439,0.00,0.00,0.00,5,S01
4700,-7.14430,-1.39821,-0.13408,-32.3780,19.8780,-28.9634,0.00,0.00,0.00,5,S01
4720,-6.52659,-0.80685,-0.05267,-26.4634,39.9390,-25.8537,0.00,0.00,0.00,5,S01
4740,-6.90248,-0.64643,0.06704,-15.1829,54.2073,-20.7927,0.00,0.00,0.00,5,S01
4760,-7.88171,-0.63925,0.28970,-6.9512,54.7561,-15.6707,0.00,0.00,0.00,5,S01
4780,-8.42759,-0.72305,0.37110,-6.2805,43.9634,-9.8780,0.00,0.00,0.00,5,S01
4800,-8.26718,-0.85712,0.20590,-5.5488,33.9634,-5.7927,0.00,0.00,0.00,5,S01
4820,-8.41562,-0.90261,0.10295,-2.2561,30.3049,-2.0122,0.00,0.00,0.00,5,S01
4840,-9.22965,-1.08457,0.74699,-0.0610,23.9634,2.9878,0.00,0.00,0.00,5,S01
4860,-9.85693,-1.32399,1.36948,-0.1220,6.3415,7.8049,0.00,0.00,0.00,5,S01
4880,-9.58638,-1.39343,1.52032,4.0244,-10.5488,10.1220,0.00,0.00,0.00,5,S01
4900,-8.71729,-1.29526,1.23780,13.3537,-17.2561,9.5732,0.00,0.00,0.00,5,S01
4920,-7.80749,-1.24738,0.64404,21.1585,-15.3049,8.9634,0.00,0.00,0.00,5,S01
4940,-6.90488,-0.91698,-0.26815,22.8049,-7.1341,9.7561,0.00,0.00,0.00,5,S01
4960,-6.37815,-0.68953,-0.55067,19.3902,4.2683,9.6951,0.00,0.00,0.00,5,S01
4980,-6.47632,-0.81882,0.20830,16.6463,9.4512,7.1951,0.00,0.00,0.00,5,S01
5000,-6.43801,-1.29287,0.28730,18.4756,8.1098,2.3171,0.00,0.00,0.00,5,S01
5020,-6.15549,-1.14682,-0.48842,21.5244,11.7073,-2.0732,0.00,0.00,0.00,5,S01
5040,-5.75087,-1.05105,-0.81163,22.3171,18.6585,-3.2927,0.00,0.00,0.00,5,S01
5060,-5.73651,-1.14203,-0.12689,25.6707,20.4268,-3.0488,0.00,0.00,0.00,5,S01
5080,-6.68222,-1.14443,0.95529,28.6585,9.5122,-3.9024,0.00,0.00,0.00,5,S01
5100,-7.19458,-0.84755,0.70390,27.8049,-5.3049,-2.9878,0.00,0.00,0.00,5,S01
5120,-6.57927,-0.48363,0.04549,18.5976,-5.6707,-1.2195,0.00,0.00,0.00,5,S01
5140,-6.56969,-0.46448,1.20668,8.1707,-4.0854,-3.2317,0.00,0.00,0.00,5,S01
5160,-7.10120,-0.90022,1.36230,3.4146,-17.6829,-6.3415,0.00,0.00,0.00,5,S01
5180,-8.00621,-1.57060,-0.93374,3.4756,-19.5122,-8.2927,0.00,0.00,0.00,5,S01
5200,-9.60554,-0.29928,-1.89142,4.1463,-1.7683,-14.8780,0.00,0.00,0.00,5,S01
5220,-15.42345,-1.14922,-0.33998,-2.8659,-0.1829,-20.6707,0.00,0.00,0.00,5,S01
5240,-21.57655,-0.64883,-1.49638,26.4634,-14.2683,-44.6951,0.00,0.00,0.00,5,S01
5260,-20.68590,2.45885,-0.07183,49.3902,-12.0122,-63.5366,0.00,0.00,0.00,5,S01
5280,-14.66688,1.68073,-2.31998,58.9634,-31.0976,-20.0000,0.00,0.00,0.00,5,S01
5300,-13.54400,0.91937,-0.58658,31.9512,-31.0976,20.7927,0.00,0.00,0.00,5,S01
5320,-15.05953,0.75178,0.79966,-3.5366,-8.5976,24.3902,0.00,0.00,0.00,5,S01
5340,-14.77222,1.46046,0.33758,9.8171,26.0976,11.0366,0.00,0.00,0.00,5,S01
5360,-6.38055,1.46046,-1.64482,1.6463,32.1951,28.9024,0.00,0.00,0.00,5,S01
5380,-6.38055,1.46046,-1.64482,1.6463,32.1951,28.9024,0.00,0.00,0.00,5,S01
5400,-5.82509,0.46208,-1.29766,-13.2317,48.4756,24.6341,0.00,0.00,0.00,5,S01
5420,-5.82509,0.46208,-1.29766,-13.2317,48.4756,24.6341,0.00,0.00,0.00,5,S01
5440,-6.63912,0.20351,-0.43096,-21.0366,56.8293,11.4024,0.00,0.00,0.00,5,S01
5460,-7.16585,0.11013,-0.19154,-18.7805,50.7317,3.6585,0.00,0.00,0.00,5,S01
5480,-7.33583,-0.02634,-0.15323,-14.3293,40.3049,0.6707,0.00,0.00,0.00,5,S01
5500,-7.33344,0.07422,-0.48602,-6.0976,28.5976,-2.0122,0.00,0.00,0.00,5,S01
5520,-7.18979,0.04549,-0.44772,-1.5244,19.5732,-5.7927,0.00,0.00,0.00,5,S01
5540,-7.40766,0.13647,-0.11732,1.0366,12.8659,-11.5854,0.00,0.00,0.00,5,S01
5560,-7.66863,0.26815,0.13408,2.5000,3.4756,-16.4634,0.00,0.00,0.00,5,S01
5580,-7.08444,0.40223,-0.13168,1.7073,-4.2683,-18.2927,0.00,0.00,0.00,5,S01
5600,-5.72932,0.70150,-0.71347,3.7805,-0.7317,-18.2317,0.00,0.00,0.00,5,S01
5620,-5.63356,1.83396,-0.53870,-7.4390,20.0000,-5.4878,0.00,0.00,0.00,5,S01
5640,-6.52420,1.36948,-0.28491,-22.8659,13.4756,1.5244,0.00,0.00,0.00,5,S01
5660,-7.21134,1.93930,0.17717,-31.1585,-3.4146,1.2805,0.00,0.00,0.00,5,S01
5680,-8.17620,2.74136,1.51314,-54.6341,-27.1951,-1.0976,0.00,0.00,0.00,5,S01
5700,-9.47864,2.02071,1.37906,-73.7805,-48.7805,-2.6220,0.00,0.00,0.00,5,S01
5720,-9.12430,0.50039,-0.84276,-62.4390,-41.2805,-8.5366,0.00,0.00,0.00,5,S01
5740,-8.29112,-0.14126,-1.97522,-42.7439,-15.1829,-12.1341,0.00,0.00,0.00,5,S01
5760,-7.61596,-1.44131,-3.06458,-25.7927,-5.6098,-1.9512,0.00,0.00,0.00,5,S01
5780,-9.62230,-2.10211,-2.34153,-6.4634,-11.8293,16.8902,0.00,0.00,0.00,5,S01
5800,-19.23502,-1.87227,-4.26407,10.3049,-54.4512,34.6341,0.00,0.00,0.00,5,S01
5820,-20.59253,-1.31202,-1.18274,-22.0732,-48.6585,59.1463,0.00,0.00,0.00,5,S01
5840,-15.98608,-1.05345,-1.10612,-50.4268,-16.2195,57.4390,0.00,0.00,0.00,5,S01
5860,-12.58632,1.54665,0.05746,-45.3659,-28.7805,15.4268,0.00,0.00,0.00,5,S01
5880,-13.96298,0.98402,0.16759,-30.9146,-52.8659,-15.8537,0.00,0.00,0.00,5,S01
5900,-14.93264,-0.94092,0.37110,-30.7317,-39.2073,-23.7805,0.00,0.00,0.00,5,S01
5920,-13.18726,-1.63045,0.45490,-32.0122,-11.3415,-19.3902,0.00,0.00,0.00,5,S01
5940,-10.37168,-1.59693,-0.29688,-31.7683,-5.9146,-17.5610,0.00,0.00,0.00,5,S01
5960,-8.05888,-1.26174,-0.86191,-29.8171,-3.9024,-20.9756,0.00,0.00,0.00,5,S01
5980,-6.55293,-0.80685,-1.13964,-23.2317,7.4390,-21.7683,0.00,0.00,0.00,5,S01
6000,-5.90650,-0.84755,-0.84755,-16.0366,24.1463,-18.4146,0.00,0.00,0.00,5,S01
6020,-6.13394,-0.79487,-0.48363,-9.9390,31.6463,-13.2927,0.00,0.00,0.00,5,S01
6040,-6.72292,-0.90740,-0.16041,-6.6463,30.8537,-7.9268,0.00,0.00,0.00,5,S01
6060,-7.30710,-0.96726,-0.35913,-1.9512,27.3171,-3.3537,0.00,0.00,0.00,5,S01
6080,-7.81228,-1.02711,-0.55306,1.3415,24.0854,1.7073,0.00,0.00,0.00,5,S01
6100,-7.90805,-1.12527,-0.38547,1.2805,19.6341,7.3780,0.00,0.00,0.00,5,S01
6120,-7.19458,-1.20189,-0.33279,0.5488,12.9878,10.7927,0.00,0.00,0.00,5,S01
6140,-6.55054,-0.97683,-0.33998,2.0732,7.6829,9.3293,0.00,0.00,0.00,5,S01
6160,-5.87777,-0.58658,-0.60573,4.4512,6.5244,8.1098,0.00,0.00,0.00,5,S01
6180,-5.25527,-0.73263,-0.24181,4.0854,12.8659,11.7683,0.00,0.00,0.00,5,S01
6200,-5.32710,-1.08457,0.58658,3.5366,19.1463,12.3780,0.00,0.00,0.00,5,S01
6220,-5.35822,-1.39343,0.28252,9.6341,18.8415,4.3902,0.00,0.00,0.00,5,S01
6240,-5.72693,-1.72861,-0.32561,24.9390,17.2561,-6.7073,0.00,0.00,0.00,5,S01
6260,-6.97431,-1.13964,-0.52433,39.3293,10.6707,-11.5854,0.00,0.00,0.00,5,S01
6280,-7.79313,-0.83079,-0.13408,34.4512,-2.9878,-5.1220,0.00,0.00,0.00,5,S01
6300,-7.23288,-0.64883,-0.08859,22.0732,-11.6463,3.8415,0.00,0.00,0.00,5,S01
6320,-6.76841,-0.52672,0.47884,11.8902,-15.1220,3.7195,0.00,0.00,0.00,5,S01
6340,-7.96551,-0.84994,0.27533,7.9878,-24.4512,-5.9146,0.00,0.00,0.00,5,S01
6360,-9.69412,1.17555,-1.06063,6.8293,-23.6585,-18.1098,0.00,0.00,0.00,5,S01
6380,-15.44739,0.66080,0.27533,-12.5610,-15.6098,-18.2317,0.00,0.00,0.00,5,S01
6400,-23.23573,-1.57060,-1.23780,11.4634,-11.2805,-37.2561,0.00,0.00,0.00,5,S01
6420,-16.37634,0.98162,-1.79086,51.2195,-37.9268,-45.7317,0.00,0.00,0.00,5,S01
6440,-11.68610,-0.19154,-0.55306,40.9146,-43.7195,9.6951,0.00,0.00,0.00,5,S01
6460,-11.68610,-0.19154,-0.55306,40.9146,-43.7195,9.6951,0.00,0.00,0.00,5,S01
6480,-12.05481,0.33998,0.73263,5.5488,-20.5488,30.8537,0.00,0.00,0.00,5,S01
6500,-12.53125,1.71425,0.30646,5.9146,24.6951,29.8780,0.00,0.00,0.00,5,S01
6520,-10.93192,2.62405,-0.03591,12.0732,40.2439,27.7439,0.00,0.00,0.00,5,S01
6540,-8.47547,2.48039,-0.43814,9.5732,31.6463,32.4390,0.00,0.00,0.00,5,S01
6560,-6.59603,1.15879,-0.99838,6.7073,29.8780,34.8171,0.00,0.00,0.00,5,S01
6580,-6.37097,-0.27773,-1.26653,7.3171,42.8049,28.0488,0.00,0.00,0.00,5,S01
6600,-7.57765,-0.34955,-1.29047,5.6707,50.1829,14.3293,0.00,0.00,0.00,5,S01
6620,-8.27197,0.16281,-0.71826,-0.7317,45.4878,5.6707,0.00,0.00,0.00,5,S01
6640,-8.02536,0.68474,-0.76614,-1.5854,31.2195,3.4146,0.00,0.00,0.00,5,S01
6660,-7.48188,0.48842,-1.00556,1.8293,22.6220,2.5000,0.00,0.00,0.00,5,S01
6680,-7.17303,0.52194,-0.79727,8.0488,22.0122,-2.3171,0.00,0.00,0.00,5,S01
6700,-7.01741,0.51954,-0.36152,12.7439,20.7317,-8.2317,0.00,0.00,0.00,5,S01
6720,-6.50744,-0.01676,-0.38786,16.5854,15.0610,-10.3049,0.00,0.00,0.00,5,S01
6740,-5.58807,-0.73263,-0.68953,22.5000,11.8902,-10.6098,0.00,0.00,0.00,5,S01
6760,-5.29119,-0.80685,-0.59855,31.0366,17.2561,-13.5976,0.00,0.00,0.00,5,S01
6780,-6.51941,0.13168,0.00000,31.5854,21.8293,-17.8049,0.00,0.00,0.00,5,S01
6800,-7.90326,0.92656,0.14844,25.8537,15.8537,-18.9024,0.00,0.00,0.00,5,S01
6820,-6.78996,2.70066,-0.78769,16.3415,-7.2561,-11.4024,0.00,0.00,0.00,5,S01
6840,-7.00543,2.90656,-0.25379,-8.1098,-24.7561,-6.0366,0.00,0.00,0.00,5,S01
6860,-7.51540,2.00395,-0.38786,-23.9634,-40.1829,-2.0122,0.00,0.00,0.00,5,S01
6880,-7.21852,0.77333,-0.99838,-22.8659,-39.3902,-3.2317,0.00,0.00,0.00,5,S01
6900,-7.43878,0.70390,-2.08535,-13.9024,-27.6829,-5.4878,0.00,0.00,0.00,5,S01
6920,-8.45632,0.09337,-3.18429,-9.2683,-21.4634,0.7317,0.00,0.00,0.00,5,S01
6940,-16.00284,-0.15323,-1.48441,-0.9756,-27.9878,17.9878,0.00,0.00,0.00,5,S01
6960,-22.05539,-0.97205,-5.21457,-1.2805,-56.8902,50.1220,0.00,0.00,0.00,5,S01
6980,-19.89582,-4.31675,1.10373,-59.3902,-48.2927,76.1585,0.00,0.00,0.00,5,S01
7000,-14.91827,-1.21147,-0.68714,-52.3781,-60.0610,36.5244,0.00,0.00,0.00,5,S01
7020,-14.11621,1.78368,-1.29526,-20.6098,-50.9146,-4.1463,0.00,0.00,0.00,5,S01
7040,-13.89595,0.09816,-1.35991,-29.2683,-41.1585,-12.8049,0.00,0.00,0.00,5,S01
7060,-12.50731,-1.60890,-0.34477,-41.9512,-14.5732,-15.5488,0.00,0.00,0.00,5,S01
7080,-10.08917,-2.27210,-0.33040,-37.9878,2.1951,-21.1585,0.00,0.00,0.00,5,S01
7100,-8.01100,-1.84832,-0.81403,-35.0610,13.1098,-26.7683,0.00,0.00,0.00,5,S01
7120,-6.95037,-0.96726,-0.72784,-32.9878,32.3171,-28.5976,0.00,0.00,0.00,5,S01
7140,-6.79714,-0.92656,0.11013,-24.6951,50.9756,-25.4268,0.00,0.00,0.00,5,S01
7160,-7.07487,-1.07260,0.24421,-10.0610,52.4390,-22.9268,0.00,0.00,0.00,5,S01
7180,-7.45794,-0.90980,0.23224,0.7927,43.2317,-19.9390,0.00,0.00,0.00,5,S01
7200,-7.80749,-0.65601,0.27773,2.4390,32.6829,-13.2317,0.00,0.00,0.00,5,S01
7220,-8.19775,-0.40223,0.17478,0.7317,22.1341,-5.3659,0.00,0.00,0.00,5,S01
7240,-8.50660,-0.27533,0.03831,-1.7073,11.4634,3.1098,0.00,0.00,0.00,5,S01
7260,-8.50660,-0.43814,0.28491,-5.6098,4.7561,12.5610,0.00,0.00,0.00,5,S01
7280,-7.93438,-0.72784,0.72784,-8.5976,-1.3415,18.9024,0.00,0.00,0.00,5,S01
7300,-7.08444,-0.67516,0.90740,-7.8659,-10.1829,18.4146,0.00,0.00,0.00,5,S01
7320,-6.14592,-0.56264,0.47166,-4.7561,-14.9390,15.1220,0.00,0.00,0.00,5,S01
7340,-5.22654,-1.16358,0.42617,-2.7439,-7.8659,13.9634,0.00,0.00,0.00,5,S01
7360,-4.88417,-2.03986,0.93853,4.2683,2.6220,12.6829,0.00,0.00,0.00,5,S01
7380,-5.15232,-2.57377,0.59137,19.0854,8.5366,6.9512,0.00,0.00,0.00,5,S01
7400,-5.66947,-1.90339,-0.99838,36.8293,14.8780,1.9512,0.00,0.00,0.00,5,S01
7420,-6.34703,-0.98402,-1.43173,41.8902,24.4512,3.7195,0.00,0.00,0.00,5,S01
7440,-7.59441,-1.00317,0.88346,36.4634,21.3415,8.4146,0.00,0.00,0.00,5,S01
7460,-8.49223,-1.22583,1.88424,38.7805,-1.9512,11.7073,0.00,0.00,0.00,5,S01
7480,-7.65187,0.17238,-3.59609,32.0732,-6.4024,2.6220,0.00,0.00,0.00,5,S01
7500,-9.38048,1.74298,-3.30400,17.6220,15.0000,-12.1341,0.00,0.00,0.00,5,S01
7520,-13.15614,1.75256,-0.19154,-5.7927,1.5854,-24.3902,0.00,0.00,0.00,5,S01
7540,-13.15614,1.75256,-0.19154,-5.7927,1.5854,-24.3902,0.00,0.00,0.00,5,S01
7560,-19.40261,-1.94649,-2.19309,-5.9756,-52.3171,-27.0732,0.00,0.00,0.00,5,S01
7580,-20.03229,-0.24181,-0.68953,25.2439,-42.5000,-54.1463,0.00,0.00,0.00,5,S01
7600,-16.65646,1.26893,-1.02711,33.8415,-36.9512,-48.9634,0.00,0.00,0.00,5,S01
7620,-12.89996,0.29449,-0.41420,34.5732,-34.4512,-8.1707,0.00,0.00,0.00,5,S01
7640,-13.10107,0.80445,0.53630,16.8902,-20.3049,19.8171,0.00,0.00,0.00,5,S01
7660,-12.75870,1.19231,0.70629,4.5732,5.7317,27.9268,0.00,0.00,0.00,5,S01
7680,-11.75553,1.34794,0.30406,9.6341,26.7073,22.5000,0.00,0.00,0.00,5,S01
7700,-10.20169,1.66397,-0.54109,22.3780,30.1220,17.9878,0.00,0.00,0.00,5,S01
7720,-8.35576,1.04387,-1.09415,24.2073,25.0610,22.3171,0.00,0.00,0.00,5,S01
7740,-7.21134,0.26815,-0.98641,23.4756,26.6463,22.5000,0.00,0.00,0.00,5,S01
7760,-7.07965,0.41180,-0.71347,26.0976,31.1585,12.9878,0.00,0.00,0.00,5,S01
7780,-7.16106,0.84755,-0.79966,25.3049,31.7073,3.5366,0.00,0.00,0.00,5,S01
7800,-7.06289,1.01754,-1.22344,18.2317,27.2561,-1.8902,0.00,0.00,0.00,5,S01
7820,-6.66546,0.57700,-1.82917,8.7195,23.1098,-5.5488,0.00,0.00,0.00,5,S01
7840,-6.49068,0.20830,-1.70467,3.9024,24.2683,-11.4024,0.00,0.00,0.00,5,S01
7860,-6.35182,0.31843,-1.15401,7.2561,23.9634,-18.4756,0.00,0.00,0.00,5,S01
7880,-6.12916,-0.00958,-0.80924,13.3537,16.2805,-21.1585,0.00,0.00,0.00,5,S01
7900,-6.18183,-0.40941,-1.13246,22.0122,7.8659,-21.2805,0.00,0.00,0.00,5,S01
7920,-6.17943,-0.11732,-0.83079,27.5000,8.1098,-20.4878,0.00,0.00,0.00,5,S01
7940,-5.91368,0.68714,-0.60813,25.3049,6.7073,-15.3049,0.00,0.00,0.00,5,S01
7960,-5.90889,1.14443,-0.83318,19.0854,2.7439,-6.1585,0.00,0.00,0.00,5,S01
7980,-6.62715,1.58257,-0.69192,10.1220,1.1585,1.2195,0.00,0.00,0.00,5,S01
8000,-7.74045,2.01592,0.19872,-4.5732,-7.5610,3.9024,0.00,0.00,0.00,5,S01
8020,-7.41963,1.22583,-0.80206,-12.3780,-21.3415,-3.3537,0.00,0.00,0.00,5,S01
8040,-7.89847,1.32160,-1.97282,-7.0732,-9.5122,-6.0976,0.00,0.00,0.00,5,S01
8060,-9.27274,0.71826,-3.34470,-9.0854,-2.5000,4.2073,0.00,0.00,0.00,5,S01
8080,-12.56956,-0.30167,-2.52109,-12.1341,-9.2073,19.1463,0.00,0.00,0.00,5,S01
8100,-19.40261,-0.16520,-6.32309,-9.8780,-50.1220,34.1463,0.00,0.00,0.00,5,S01
8120,-18.55506,-2.33435,-0.89783,-48.4146,-52.5000,51.6463,0.00,0.00,0.00,5,S01
8140,-14.32211,-0.92177,0.15562,-71.7683,-55.8537,33.0488,0.00,0.00,0.00,5,S01
8160,-13.24712,1.18752,0.74939,-56.2805,-67.0122,-4.0244,0.00,0.00,0.00,5,S01
8180,-15.02362,-0.07422,0.42138,-43.2317,-57.4390,-12.8049,0.00,0.00,0.00,5,S01
8200,-14.79856,-2.19069,1.23780,-46.3415,-27.2561,-5.9146,0.00,0.00,0.00,5,S01
8220,-12.12663,-3.12683,0.51475,-37.7439,-10.3049,-7.4390,0.00,0.00,0.00,5,S01
8240,-9.66539,-2.07817,-0.32561,-26.1585,5.6098,-19.2073,0.00,0.00,0.00,5,S01
8260,-8.27197,-0.27294,-0.72784,-24.6341,27.9268,-25.8537,0.00,0.00,0.00,5,S01
8280,-7.53455,0.66080,-0.58897,-28.1707,52.3171,-21.5854,0.00,0.00,0.00,5,S01
8300,-7.14909,0.27054,-0.51236,-28.3537,66.3415,-14.0854,0.00,0.00,0.00,5,S01
8320,-7.34302,-0.29688,-0.29688,-24.2073,64.5122,-8.9634,0.00,0.00,0.00,5,S01
8340,-7.52258,-0.67756,-0.57940,-20.7927,51.2805,-2.9878,0.00,0.00,0.00,5,S01
8360,-7.52258,-0.86431,-0.44532,-20.4268,37.6829,3.2927,0.00,0.00,0.00,5,S01
8380,-7.46751,-0.83318,-0.40462,-19.3293,23.2317,8.4756,0.00,0.00,0.00,5,S01
8400,-7.17063,-0.74460,-0.41180,-18.7195,10.9146,12.6829,0.00,0.00,0.00,5,S01
8420,-6.97670,-0.71587,-0.15802,-19.5122,4.6951,15.7317,0.00,0.00,0.00,5,S01
8440,-7.26401,-0.63686,0.04549,-18.9634,2.8049,17.8659,0.00,0.00,0.00,5,S01
8460,-6.84263,-0.72784,-0.25618,-18.5366,6.9512,22.6220,0.00,0.00,0.00,5,S01
8480,-6.39012,-1.04627,0.02634,-20.2439,18.1707,27.0122,0.00,0.00,0.00,5,S01
8500,-6.38773,-1.68791,0.76854,-20.0610,22.9878,25.0000,0.00,0.00,0.00,5,S01
8520,-6.35421,-2.28886,0.97444,-12.6829,16.6463,16.0366,0.00,0.00,0.00,5,S01
8540,-8.29351,-1.23541,-0.79248,17.6829,20.6098,6.2805,0.00,0.00,0.00,5,S01
8560,-8.29351,-1.23541,-0.79248,17.6829,20.6098,6.2805,0.00,0.00,0.00,5,S01
8580,-9.39245,-1.92494,0.96007,30.8537,27.6829,15.6707,0.00,0.00,0.00,5,S01
8600,-10.01973,-2.56898,2.58334,35.6707,6.8293,18.1707,0.00,0.00,0.00,5,S01
8620,-9.69891,-2.17394,2.16196,39.4512,-21.2805,8.5976,0.00,0.00,0.00,5,S01
8640,-8.64307,-0.80685,0.82839,39.4512,-23.6585,-1.5244,0.00,0.00,0.00,5,S01
8660,-7.88889,0.05028,-0.89304,32.1341,-10.4878,-6.8293,0.00,0.00,0.00,5,S01
8680,-7.44836,0.61052,-2.32238,17.9878,1.9512,-12.7439,0.00,0.00,0.00,5,S01
8700,-8.14507,1.10852,-2.24337,-3.1098,7.8659,-24.3902,0.00,0.00,0.00,5,S01
8720,-14.71476,-0.90501,-0.27054,-14.3293,-4.0244,-36.8293,0.00,0.00,0.00,5,S01
8740,-22.46719,-2.17394,-1.18034,21.4024,-39.3902,-63.4756,0.00,0.00,0.00,5,S01
8760,-22.09369,0.72544,-3.84269,76.5854,-54.6341,-75.4878,0.00,0.00,0.00,5,S01
8780,-16.60139,0.04549,-3.99353,86.5244,-67.3781,-35.3659,0.00,0.00,0.00,5,S01
8800,-12.42351,-0.97444,-1.61130,77.3171,-80.1220,7.2561,0.00,0.00,0.00,5,S01
8820,-9.42358,-1.45567,-1.11570,67.3781,-64.6341,27.9268,0.00,0.00,0.00,5,S01
8840,-8.27915,-0.61052,-1.04148,74.9390,0.2439,27.1951,0.00,0.00,0.00,5,S01
8860,-7.41484,-0.05986,-1.79086,91.1585,48.3537,29.8171,0.00,0.00,0.00,5,S01
8880,-6.88094,0.00000,-3.04303,111.7683,73.1707,37.0122,0.00,0.00,0.00,5,S01
8900,-6.77559,-0.29928,-3.02388,123.7195,91.5244,39.1463,0.00,0.00,0.00,5,S01
8920,-7.47949,0.84276,-2.57616,124.7561,88.9634,28.5366,0.00,0.00,0.00,5,S01
8940,-8.06607,1.84354,-2.50673,111.8293,59.6341,20.6707,0.00,0.00,0.00,5,S01
8960,-8.40844,2.06620,-2.13084,92.0732,24.5122,17.4390,0.00,0.00,0.00,5,S01
8980,-8.20493,2.00155,-1.75016,73.7805,-2.6829,15.0610,0.00,0.00,0.00,5,S01
9000,-7.62553,1.38385,-1.11809,63.2927,-8.7805,13.3537,0.00,0.00,0.00,5,S01
9020,-7.84580,0.47166,-0.42617,65.0610,-2.4390,8.8415,0.00,0.00,0.00,5,S01
9040,-8.93756,0.11971,0.50039,64.2683,-6.9512,0.3659,0.00,0.00,0.00,5,S01
9060,-9.33739,0.62728,0.57461,58.5976,-18.9634,-7.3780,0.00,0.00,0.00,5,S01
9080,-9.24880,1.16358,0.13408,55.9756,-18.2317,-8.0488,0.00,0.00,0.00,5,S01
9100,-9.85214,1.16119,0.54109,54.2683,-9.8780,-1.0976,0.00,0.00,0.00,5,S01
9120,-10.30704,1.23301,0.56982,52.6220,-12.8049,9.1463,0.00,0.00,0.00,5,S01
9140,-9.82102,0.82121,0.83079,50.9146,-19.0854,15.6098,0.00,0.00,0.00,5,S01
9160,-9.20810,0.45250,1.64960,50.3659,-18.0488,16.7683,0.00,0.00,0.00,5,S01
9180,-9.62469,0.22266,1.39821,54.6341,-10.8537,16.5244,0.00,0.00,0.00,5,S01
9200,-11.59033,0.55067,-1.87945,64.8171,-1.0366,21.1585,0.00,0.00,0.00,5,S01
9220,-12.78264,2.01831,-4.81235,62.3171,20.4878,36.2195,0.00,0.00,0.00,5,S01
9240,-10.42196,-3.01669,-3.62003,39.7561,10.9146,59.0244,0.00,0.00,0.00,5,S01
9260,-9.61990,-3.66792,-5.13796,69.6341,-14.1463,40.6707,0.00,0.00,0.00,5,S01
9280,-10.54646,-1.00317,-5.68384,81.8902,-12.3780,16.0976,0.00,0.00,0.00,5,S01
9300,-10.93192,0.70629,-4.79798,64.7561,-8.2317,1.5244,0.00,0.00,0.00,5,S01
9320,-10.42675,0.30167,-3.62003,46.8902,-12.8659,-7.1951,0.00,0.00,0.00,5,S01
9340,-9.55287,-0.96965,-3.24893,43.5366,-14.6951,-14.4512,0.00,0.00,0.00,5,S01
9360,-8.83700,-1.28090,-3.01669,45.4878,-7.9878,-21.9512,0.00,0.00,0.00,5,S01
9380,-8.43238,-0.68714,-2.59771,48.9024,1.1585,-26.7073,0.00,0.00,0.00,5,S01
9400,-8.10437,-0.40701,-1.98000,51.3415,7.0732,-25.7317,0.00,0.00,0.00,5,S01
9420,-8.02536,-0.45729,-1.93691,56.0976,9.5122,-22.1951,0.00,0.00,0.00,5,S01
9440,-7.95593,-0.55067,-2.04944,62.4390,15.0610,-19.5122,0.00,0.00,0.00,5,S01
9460,-7.99663,-0.54348,-1.95367,69.0244,18.4756,-17.1951,0.00,0.00,0.00,5,S01
9480,-8.17859,-0.33519,-1.93451,74.1463,15.8537,-13.5366,0.00,0.00,0.00,5,S01
9500,-8.30309,-0.15083,-1.93212,75.0000,11.4024,-8.5976,0.00,0.00,0.00,5,S01
9520,-8.49223,-0.13168,-1.71185,72.5000,8.1098,-4.0854,0.00,0.00,0.00,5,S01
9540,-8.73165,-0.24421,-1.48201,70.0610,5.0610,-0.5488,0.00,0.00,0.00,5,S01
9560,-8.99980,-0.22266,-1.52032,67.8659,0.8537,1.2195,0.00,0.00,0.00,5,S01
9580,-9.02375,-0.13168,-1.05824,63.4146,-1.2195,3.5366,0.00,0.00,0.00,5,S01
9600,-9.22486,-0.18435,0.27294,55.7927,-7.9878,6.6463,0.00,0.00,0.00,5,S01
9620,-9.22486,-0.18435,0.27294,55.7927,-7.9878,6.6463,0.00,0.00,0.00,5,S01
9640,-9.47146,-0.09816,0.93134,52.2561,-11.5244,7.0732,0.00,0.00,0.00,5,S01
9660,-9.44991,-0.23224,1.44610,47.5610,-15.4268,8.4756,0.00,0.00,0.00,5,S01
9680,-8.94234,-1.10852,0.89064,45.6707,-20.2439,10.4878,0.00,0.00,0.00,5,S01
9700,-8.50420,-1.48201,-0.85234,50.8537,-17.0122,13.0488,0.00,0.00,0.00,5,S01
9720,-9.10036,-1.25217,-1.60890,51.7683,-7.8049,18.0488,0.00,0.00,0.00,5,S01
9740,-10.54646,-0.56982,-0.10295,48.7195,-10.0000,20.1220,0.00,0.00,0.00,5,S01
9760,-11.23359,0.88825,0.14126,38.7195,-29.6341,13.9634,0.00,0.00,0.00,5,S01
9780,-10.95108,0.60334,-1.52750,26.0976,-40.6707,3.6585,0.00,0.00,0.00,5,S01
9800,-10.02692,-1.15401,-3.62003,19.6951,-33.0488,-7.9268,0.00,0.00,0.00,5,S01
9820,-9.29190,-3.20105,-2.85628,10.6707,-20.6707,-21.0976,0.00,0.00,0.00,5,S01
9840,-10.00776,-3.08852,-1.97761,14.9390,-21.4024,-30.6707,0.00,0.00,0.00,5,S01
9860,-11.54484,-1.71425,-2.63123,31.5244,-16.9512,-25.8537,0.00,0.00,0.00,5,S01
9880,-12.16733,-0.77812,-2.63123,47.6829,-4.0854,-10.3659,0.00,0.00,0.00,5,S01
9900,-11.02051,-0.67756,-2.32238,53.7195,-12.3780,7.7439,0.00,0.00,0.00,5,S01
9920,-9.20571,-1.13964,-2.42772,59.6951,-23.2927,19.6951,0.00,0.00,0.00,5,S01
9940,-8.05409,-1.29047,-2.11887,70.0610,-11.8293,22.4390,0.00,0.00,0.00,5,S01
9960,-7.89368,-1.58257,-1.61848,85.0000,1.4024,22.3171,0.00,0.00,0.00,5,S01
9980,-8.09480,-1.76213,-1.95367,103.6585,4.9390,21.3415,0.00,0.00,0.00,5,S01
10000,-8.43238,-1.42934,-2.24097,117.0732,6.0976,22.8049,0.00,0.00,0.00,5,S01
10020,-8.40125,-0.37350,-2.59771,120.9146,3.7195,26.3415,0.00,0.00,0.00,5,S01
10040,-8.46111,0.52194,-2.44209,117.3781,-0.7927,28.5976,0.00,0.00,0.00,5,S01
10060,-8.89446,0.59137,-1.91776,114.7561,-4.0854,25.7317,0.00,0.00,0.00,5,S01
10080,-8.98544,0.27773,-1.91297,117.9268,-6.4634,19.5122,0.00,0.00,0.00,5,S01
10100,-8.55209,0.25618,-1.88424,117.7439,-6.4024,14.1463,0.00,0.00,0.00,5,S01
10120,-8.35816,0.68714,-1.95367,112.8049,-3.7805,11.4024,0.00,0.00,0.00,5,S01
10140,-9.01656,1.04387,-1.46046,102.5000,2.8049,11.3415,0.00,0.00,0.00,5,S01
10160,-9.61511,1.22104,-0.87149,91.0366,4.8171,11.9512,0.00,0.00,0.00,5,S01
10180,-9.45949,0.62728,-0.07901,81.7073,0.6098,11.0976,0.00,0.00,0.00,5,S01
10200,-8.71729,0.00958,-0.05028,76.9512,-4.2683,8.9024,0.00,0.00,0.00,5,S01
10220,-8.24084,-0.37350,-0.05507,73.1707,-1.0976,7.5000,0.00,0.00,0.00,5,S01
10240,-8.74602,-0.40223,0.08859,68.5976,4.0854,7.3780,0.00,0.00,0.00,5,S01
10260,-9.20331,-0.29449,0.43814,63.1707,4.9390,8.0488,0.00,0.00,0.00,5,S01
10280,-9.58160,-0.06704,0.71347,59.5732,-2.9268,6.5854,0.00,0.00,0.00,5,S01
10300,-9.40203,0.88825,0.25379,58.7805,-13.1098,3.4146,0.00,0.00,0.00,5,S01
10320,-9.50737,2.31759,-0.86670,52.8049,-16.5244,2.6220,0.00,0.00,0.00,5,S01
10340,-10.02213,2.66235,-0.61292,37.5610,-13.5366,7.3171,0.00,0.00,0.00,5,S01
10360,-10.07720,1.41018,1.22344,23.9024,-21.4024,11.2805,0.00,0.00,0.00,5,S01
10380,-9.37330,-0.61770,2.51391,24.0244,-33.9634,9.8171,0.00,0.00,0.00,5,S01
10400,-9.28471,-2.03747,2.51631,40.6707,-28.1098,4.6951,0.00,0.00,0.00,5,S01
10420,-11.17613,-1.54426,-0.22984,59.5732,-13.2927,3.1707,0.00,0.00,0.00,5,S01
10440,-12.53843,0.78769,-2.57616,62.8659,13.0488,18.5976,0.00,0.00,0.00,5,S01
10460,-10.02452,-0.31125,-3.44765,47.0122,22.2561,36.7073,0.00,0.00,0.00,5,S01
10480,-9.00699,-1.01754,-4.28083,60.9756,-1.8293,19.2683,0.00,0.00,0.00,5,S01
10500,-9.59596,-0.17717,-4.85065,71.5244,-13.6585,1.6463,0.00,0.00,0.00,5,S01
10520,-10.29507,0.65362,-4.15633,62.5610,-12.6829,-11.2805,0.00,0.00,0.00,5,S01
10540,-10.21127,0.42377,-2.92811,52.5000,-13.2317,-18.7195,0.00,0.00,0.00,5,S01
10560,-9.76834,-0.35434,-2.44448,53.1707,-17.0122,-24.5122,0.00,0.00,0.00,5,S01
10580,-9.14824,-1.01993,-1.96803,59.6951,-15.3049,-31.3415,0.00,0.00,0.00,5,S01
10600,-8.43477,-1.11330,-1.97043,69.8781,-9.8171,-35.9756,0.00,0.00,0.00,5,S01
10620,-8.15465,-0.52194,-2.29843,76.0366,-1.7683,-36.5244,0.00,0.00,0.00,5,S01
10640,-8.16902,0.09337,-2.30562,74.3293,6.5854,-34.3902,0.00,0.00,0.00,5,S01
10660,-7.99663,0.20590,-2.16436,69.2683,9.1463,-30.4268,0.00,0.00,0.00,5,S01
10680,-7.97269,0.06225,-1.96564,65.9146,7.9878,-27.0122,0.00,0.00,0.00,5,S01
10700,-8.20014,-0.06225,-1.59693,63.2927,6.5244,-23.1707,0.00,0.00,0.00,5,S01
10720,-8.59279,-0.28970,-1.13725,59.6951,4.6341,-18.3537,0.00,0.00,0.00,5,S01
10740,-8.73644,-0.51954,-0.88346,57.1341,1.9512,-14.2073,0.00,0.00,0.00,5,S01
10760,-8.65025,-0.63925,-0.63686,55.2439,-0.7317,-10.4878,0.00,0.00,0.00,5,S01
10780,-8.74602,-0.56743,-0.54109,53.0488,-2.6829,-6.7073,0.00,0.00,0.00,5,S01
10800,-9.10275,-0.38547,-0.19872,49.2073,-3.3537,-2.8659,0.00,0.00,0.00,5,S01
10820,-9.28471,-0.25139,0.41659,44.6951,-6.2805,1.2805,0.00,0.00,0.00,5,S01
10840,-9.31584,-0.18675,1.00796,39.8780,-11.5244,4.9390,0.00,0.00,0.00,5,S01
10860,-9.15064,-0.12929,1.45089,33.9634,-16.0366,6.5244,0.00,0.00,0.00,5,S01
10880,-8.73884,-0.14605,1.30005,26.9512,-19.2073,6.2805,0.00,0.00,0.00,5,S01
10900,-8.20253,-0.18196,0.56503,20.1829,-17.9268,5.9756,0.00,0.00,0.00,5,S01
10920,-8.48505,-0.78290,-0.18435,15.0000,-8.5976,7.6220,0.00,0.00,0.00,5,S01
10940,-9.35654,-1.77889,-0.81163,18.5366,3.7805,10.9756,0.00,0.00,0.00,5,S01
10960,-10.79785,-2.39899,0.41659,26.0976,5.7317,10.6707,0.00,0.00,0.00,5,S01
10980,-12.11227,-1.27132,0.73263,28.3537,-11.0976,2.1951,0.00,0.00,0.00,5,S01
11000,-12.78983,-0.05746,-1.11809,21.7683,-23.3537,-8.1707,0.00,0.00,0.00,5,S01
11020,-12.65814,-0.69432,-2.15239,14.2073,-17.7439,-20.6098,0.00,0.00,0.00,5,S01
11040,-11.27190,-1.15161,-2.41814,13.4146,-15.9146,-35.0610,0.00,0.00,0.00,5,S01
11060,-8.76996,-1.20189,-2.34871,10.9756,-20.6707,-41.2195,0.00,0.00,0.00,5,S01
11080,-6.81869,-0.96965,-2.61926,8.2927,-23.1098,-35.1829,0.00,0.00,0.00,5,S01
11100,-7.54652,-1.54665,-2.20506,7.5000,-14.6951,-26.1585,0.00,0.00,0.00,5,S01
11120,-9.59835,-2.62644,-1.14682,21.2805,-1.2805,-18.5366,0.00,0.00,0.00,5,S01
11140,-10.43393,-3.08373,-1.27850,48.0488,2.9878,-10.9756,0.00,0.00,0.00,5,S01
11160,-10.07959,-2.56419,-1.80523,70.6707,1.2195,-2.9268,0.00,0.00,0.00,5,S01
11180,-9.46189,-1.40540,-2.62405,84.4512,-1.7683,6.1585,0.00,0.00,0.00,5,S01
11200,-9.12191,-0.16041,-2.94008,87.6220,0.7927,15.6707,0.00,0.00,0.00,5,S01
11220,-9.07402,0.71587,-2.36787,82.8049,5.7927,21.5854,0.00,0.00,0.00,5,S01
11240,-8.98544,1.08936,-1.90339,76.8902,6.2805,23.1098,0.00,0.00,0.00,5,S01
11260,-8.93756,1.16837,-1.33596,70.3659,8.1098,23.3537,0.00,0.00,0.00,5,S01
11280,-8.83700,1.09654,-1.19710,64.4512,8.0488,22.5610,0.00,0.00,0.00,5,S01
11300,-8.86094,0.80924,-0.87628,55.9146,8.7195,21.2195,0.00,0.00,0.00,5,S01
11320,-8.85376,0.52672,-0.49560,49.8171,8.7805,19.5122,0.00,0.00,0.00,5,S01
11340,-8.64546,0.43335,-0.31843,45.1829,6.2805,16.5244,0.00,0.00,0.00,5,S01
11360,-8.47547,0.42138,-0.18914,41.0976,5.2439,12.9268,0.00,0.00,0.00,5,S01
11380,-8.47547,0.39504,-0.03112,37.6220,7.0122,9.6341,0.00,0.00,0.00,5,S01
11400,-8.47069,0.35434,0.08859,34.3902,8.7195,6.6463,0.00,0.00,0.00,5,S01
11420,-8.71489,0.20111,0.39025,31.7683,10.9756,3.9024,0.00,0.00,0.00,5,S01
11440,-9.09797,0.05267,0.91698,29.2683,10.8537,1.2805,0.00,0.00,0.00,5,S01
11460,-9.53132,0.00239,1.35033,28.2927,6.4024,-1.1585,0.00,0.00,0.00,5,S01
11480,-9.58399,0.18675,1.38624,28.3537,-2.3780,-2.2561,0.00,0.00,0.00,5,S01
11500,-9.10275,0.27773,1.11091,27.8659,-9.3902,-0.9756,0.00,0.00,0.00,5,S01
11520,-9.02614,0.59616,0.65362,28.5366,-12.2561,1.6463,0.00,0.00,0.00,5,S01
11540,-9.51216,1.32160,0.08859,25.5488,-11.9512,5.7927,0.00,0.00,0.00,5,S01
11560,-9.06445,0.91698,0.29209,18.9634,-12.9268,10.8537,0.00,0.00,0.00,5,S01
11580,-9.36372,0.50278,0.08380,21.7683,-14.6951,11.7073,0.00,0.00,0.00,5,S01
11600,-11.86566,0.46448,-1.73819,30.4878,-12.1341,14.2073,0.00,0.00,0.00,5,S01
11620,-12.68927,-0.71587,-2.84431,34.6951,-0.9146,28.7195,0.00,0.00,0.00,5,S01
11640,-11.22162,-2.07817,-2.42293,37.0122,4.3293,43.3537,0.00,0.00,0.00,5,S01
11660,-9.39245,-2.99993,-1.70946,51.2805,-6.4024,39.3293,0.00,0.00,0.00,5,S01
11680,-9.10754,0.66319,-3.24175,82.3171,-8.3537,9.8171,0.00,0.00,0.00,5,S01
11700,-10.52012,2.48758,-2.73178,66.5244,-0.1829,4.1463,0.00,0.00,0.00,5,S01
11720,-10.76672,1.73819,-1.82917,42.6220,1.0976,-1.2195,0.00,0.00,0.00,5,S01
11740,-10.11071,-0.14126,-1.58017,30.3049,-1.5854,-9.3293,0.00,0.00,0.00,5,S01
11760,-9.45710,-1.36230,-1.61848,28.7195,-1.1585,-18.2317,0.00,0.00,0.00,5,S01
11780,-8.91361,-1.43652,-1.56820,32.1341,1.2805,-24.6951,0.00,0.00,0.00,5,S01
11800,-8.35576,-1.01275,-1.70946,35.6707,3.4756,-26.6463,0.00,0.00,0.00,5,S01
11820,-8.27436,-0.64165,-1.86029,37.9878,7.5610,-26.0366,0.00,0.00,0.00,5,S01
11840,-8.48984,-0.50039,-1.70946,38.9634,11.7683,-23.7195,0.00,0.00,0.00,5,S01
11860,-8.85136,-0.70629,-1.31681,39.2683,12.6220,-20.7317,0.00,0.00,0.00,5,S01
11880,-8.92319,-0.82361,-1.24738,40.9756,9.3293,-18.3537,0.00,0.00,0.00,5,S01
11900,-8.93756,-0.77812,-1.19231,40.9146,7.2561,-15.5488,0.00,0.00,0.00,5,S01
11920,-8.77236,-0.50996,-1.19710,39.6951,7.0122,-13.2317,0.00,0.00,0.00,5,S01
11940,-8.75560,-0.10774,-1.09894,35.6707,5.8537,-10.3049,0.00,0.00,0.00,5,S01
11960,-9.09318,0.06943,-0.62489,27.6829,2.8659,-6.7683,0.00,0.00,0.00,5,S01
11980,-9.21049,0.00239,-0.30646,19.9390,-2.0122,-4.1463,0.00,0.00,0.00,5,S01
12000,-8.87052,-0.23224,-0.00958,13.9024,-5.6098,-2.4390,0.00,0.00,0.00,5,S01
12020,-8.42759,-0.43096,0.30167,9.8780,-8.1098,-1.2805,0.00,0.00,0.00,5,S01
12040,-7.98706,-0.37589,0.38307,6.5244,-9.3902,-0.1829,0.00,0.00,0.00,5,S01
12060,-7.81946,-0.03112,0.22984,0.5488,-9.9390,0.3049,0.00,0.00,0.00,5,S01
12080,-7.88889,0.09816,0.04549,-8.2927,-12.8659,1.6463,0.00,0.00,0.00,5,S01
12100,-7.37414,-0.17957,-0.34716,-14.6951,-16.8902,4.6951,0.00,0.00,0.00,5,S01
12120,-6.15549,-0.66798,-0.78051,-18.7195,-14.0854,7.1341,0.00,0.00,0.00,5,S01
12140,-4.89375,-1.43892,-0.53630,-21.4634,-4.2073,7.1951,0.00,0.00,0.00,5,S01
12160,-4.54419,-1.75734,-0.05986,-17.2561,4.6951,3.2927,0.00,0.00,0.00,5,S01
12180,-5.22654,-1.68073,0.26815,-8.5366,10.0000,-2.4390,0.00,0.00,0.00,5,S01
12200,-6.02381,-0.80206,-0.44053,-1.1585,12.3171,-2.9268,0.00,0.00,0.00,5,S01
12220,-6.12676,-0.14126,-0.69192,-7.5000,15.8537,2.9268,0.00,0.00,0.00,5,S01
12240,-5.83467,-0.15562,-0.09337,-18.9634,14.8780,7.3171,0.00,0.00,0.00,5,S01
12260,-5.69341,-0.31843,-0.71108,-26.0366,7.9268,5.1220,0.00,0.00,0.00,5,S01
12280,-7.12514,-1.19231,-1.44849,-33.9634,4.3293,-0.6707,0.00,0.00,0.00,5,S01
12300,-10.11550,-0.68714,-2.73178,-32.3780,-0.8537,-10.9146,0.00,0.00,0.00,5,S01
12320,-13.89116,1.22583,-0.96247,-37.2561,-15.0610,-16.3415,0.00,0.00,0.00,5,S01
12340,-19.00757,-0.47405,-3.84748,-35.7317,-58.9024,-10.3049,0.00,0.00,0.00,5,S01
12360,-19.95807,0.22745,-0.74939,-5.6098,-51.2195,-29.4512,0.00,0.00,0.00,5,S01
12380,-17.09221,2.64559,-0.60094,9.6951,-49.2683,-41.8902,0.00,0.00,0.00,5,S01
12400,-13.92947,1.76453,-0.91698,16.8293,-55.9146,-15.9146,0.00,0.00,0.00,5,S01
12420,-14.36282,0.63207,0.33998,1.4634,-38.6585,12.0122,0.00,0.00,0.00,5,S01
12440,-14.39394,0.39265,0.71347,-1.9512,-5.7317,17.9878,0.00,0.00,0.00,5,S01
12460,-12.90235,1.39103,-0.18196,14.7561,15.8537,12.0732,0.00,0.00,0.00,5,S01
12480,-10.62786,2.02071,-0.59855,25.3659,20.9146,13.9024,0.00,0.00,0.00,5,S01
12500,-8.30309,1.63285,-0.94332,27.8049,20.8537,19.0854,0.00,0.00,0.00,5,S01
12520,-7.01262,0.08619,-1.06781,22.5610,25.9756,19.6951,0.00,0.00,0.00,5,S01
12540,-7.29513,-0.11253,-0.33758,16.4634,37.5000,15.4878,0.00,0.00,0.00,5,S01
12560,-7.39808,0.36871,0.00718,15.6098,42.0732,12.3171,0.00,0.00,0.00,5,S01
12580,-7.11557,0.75657,-0.43574,16.4024,36.5244,8.4146,0.00,0.00,0.00,5,S01
12600,-7.28556,0.59376,-0.79009,15.1220,32.1951,2.0732,0.00,0.00,0.00,5,S01
12620,-8.05649,0.46926,-0.65841,18.9634,30.1829,-4.5732,0.00,0.00,0.00,5,S01
12640,-8.59279,0.53870,-0.58179,28.0488,22.6829,-8.3537,0.00,0.00,0.00,5,S01
12660,-8.39407,1.01514,-0.70868,31.5854,10.7317,-9.8780,0.00,0.00,0.00,5,S01
12680,-8.17380,1.40540,-0.46208,24.6341,4.5122,-9.4512,0.00,0.00,0.00,5,S01
12700,-8.28873,1.31681,-0.10774,16.1585,7.5610,-7.7439,0.00,0.00,0.00,5,S01
12720,-8.30549,1.11091,-0.22027,12.2561,12.5000,-5.6707,0.00,0.00,0.00,5,S01
12740,-7.72609,1.08218,-0.51236,8.9024,15.4268,-3.3537,0.00,0.00,0.00,5,S01
12760,-6.40688,0.85473,-0.28252,3.2927,15.0610,1.8902,0.00,0.00,0.00,5,S01
12780,-6.40688,0.85473,-0.28252,3.2927,15.0610,1.8902,0.00,0.00,0.00,5,S01
12800,-6.29914,0.96007,-0.00239,2.0122,11.4634,1.7683,0.00,0.00,0.00,5,S01
12820,-6.54575,0.99359,0.03112,-4.1463,6.9512,-2.6220,0.00,0.00,0.00,5,S01
12840,-6.50265,1.16119,-0.46926,-6.2805,6.4634,-12.0732,0.00,0.00,0.00,5,S01
12860,-6.71574,1.76213,-0.43814,-10.0000,8.5366,-20.7927,0.00,0.00,0.00,5,S01
12880,-7.75721,2.25055,-0.01437,-22.7439,1.9512,-22.4390,0.00,0.00,0.00,5,S01
12900,-8.86333,1.72861,-0.13886,-52.9878,-20.9756,-14.0244,0.00,0.00,0.00,5,S01
12920,-8.04931,1.09894,-0.22266,-55.6707,-21.5854,-13.2927,0.00,0.00,0.00,5,S01
12940,-7.57286,0.90740,-0.42617,-55.4878,-22.6829,-12.0732,0.00,0.00,0.00,5,S01
12960,-8.11156,0.80445,-1.74537,-51.5854,-21.9512,-4.8171,0.00,0.00,0.00,5,S01
12980,-10.91038,-0.32801,-1.69509,-43.7195,-16.5854,5.6707,0.00,0.00,0.00,5,S01
13000,-19.11531,-1.00556,-6.41407,-9.8171,-28.6585,21.1585,0.00,0.00,0.00,5,S01
13020,-19.84075,-2.38462,-2.79882,-31.7073,-14.4512,51.5244,0.00,0.00,0.00,5,S01
13040,-15.34683,-3.11725,0.27533,-71.7683,-31.6463,50.4268,0.00,0.00,0.00,5,S01
13060,-11.60470,-0.22745,-1.22104,-43.1098,-61.0976,4.1463,0.00,0.00,0.00,5,S01
13080,-12.89996,0.22505,0.08380,-13.7805,-45.3659,-22.9268,0.00,0.00,0.00,5,S01
13100,-13.15135,-1.47004,-0.27294,-7.5610,-25.1829,-21.0366,0.00,0.00,0.00,5,S01
13120,-12.39718,-2.23379,0.34237,-5.7317,-3.9634,-18.4756,0.00,0.00,0.00,5,S01
13140,-10.29746,-2.23618,-0.10534,5.0610,9.3902,-18.9634,0.00,0.00,0.00,5,S01
13160,-8.91361,-1.18752,-1.02472,12.1951,19.7561,-23.7805,0.00,0.00,0.00,5,S01
13180,-8.20014,-0.11732,-1.05345,14.3293,30.2439,-23.1707,0.00,0.00,0.00,5,S01
13200,-7.87932,-0.03112,-0.68953,14.8171,32.9268,-17.7439,0.00,0.00,0.00,5,S01
13220,-7.65187,-0.11253,-0.71108,16.0366,27.1951,-12.5000,0.00,0.00,0.00,5,S01
13240,-7.51061,-0.25379,-0.58897,16.1585,23.5976,-8.4756,0.00,0.00,0.00,5,S01
13260,-7.63990,-0.55067,-0.49560,17.8659,21.1585,-4.6951,0.00,0.00,0.00,5,S01
13280,-7.91762,-0.86670,-0.39744,21.4634,18.9024,0.2439,0.00,0.00,0.00,5,S01
13300,-8.20253,-1.09415,-0.09337,26.0366,17.7439,5.0000,0.00,0.00,0.00,5,S01
13320,-8.20972,-0.99838,0.20351,29.8171,14.5732,9.5732,0.00,0.00,0.00,5,S01
13340,-7.79313,-0.58419,0.17717,28.5976,7.8659,11.8902,0.00,0.00,0.00,5,S01
13360,-7.48427,0.18435,0.00000,21.5244,-0.2439,11.2805,0.00,0.00,0.00,5,S01
13380,-7.05092,0.53391,-0.04549,9.6951,-7.9878,10.3659,0.00,0.00,0.00,5,S01
13400,-6.22014,-0.11971,0.28491,1.5244,-12.1341,10.6707,0.00,0.00,0.00,5,S01
13420,-5.23373,-1.02232,-0.17957,2.9268,-10.0610,10.6707,0.00,0.00,0.00,5,S01
13440,-4.40773,-1.44849,-0.42138,1.9512,-0.2439,7.9268,0.00,0.00,0.00,5,S01
13460,-4.31435,-1.94409,0.40941,4.7561,4.4512,2.1341,0.00,0.00,0.00,5,S01
13480,-5.21457,-1.68552,0.59855,19.5122,-0.2439,-4.1463,0.00,0.00,0.00,5,S01
13500,-5.93762,-1.02951,-0.17957,29.6951,-2.0732,-3.9024,0.00,0.00,0.00,5,S01
13520,-5.65510,-0.72784,-1.13725,26.5854,4.6951,1.5854,0.00,0.00,0.00,5,S01
13540,-5.68144,-0.88825,-0.91937,16.1585,12.6829,3.2927,0.00,0.00,0.00,5,S01
13560,-8.16183,-1.47483,-1.16358,9.7561,5.5488,-4.4512,0.00,0.00,0.00,5,S01
13580,-12.54801,0.04549,-3.00712,11.0976,-8.8415,-21.0366,0.00,0.00,0.00,5,S01
13600,-17.81047,2.34153,-1.95846,4.1463,-20.4878,-25.4268,0.00,0.00,0.00,5,S01
13620,-20.25016,1.25456,-4.19464,7.8049,-44.8171,-14.1463,0.00,0.00,0.00,5,S01
13640,-18.43296,3.90015,0.23463,3.6585,-46.3415,-23.7195,0.00,0.00,0.00,5,S01
13660,-14.08269,3.26330,-0.49799,-19.1463,-79.7561,-10.3659,0.00,0.00,0.00,5,S01
13680,-13.91271,0.69192,1.00556,-34.0854,-58.6585,8.9634,0.00,0.00,0.00,5,S01
13700,-15.31092,0.28970,1.38864,-39.4512,-15.3049,5.1829,0.00,0.00,0.00,5,S01
13720,-14.16170,0.69432,0.49081,-19.6951,1.5854,3.9024,0.00,0.00,0.00,5,S01
13740,-11.47541,1.20907,-0.46448,-6.8293,1.8293,11.3415,0.00,0.00,0.00,5,S01
13760,-8.93756,1.26653,-1.13964,-5.0610,6.8293,19.8171,0.00,0.00,0.00,5,S01
13780,-7.85059,1.20668,-1.34554,-6.2805,23.0488,20.7927,0.00,0.00,0.00,5,S01
13800,-7.73567,1.28569,-1.11091,-8.7195,38.4756,15.3659,0.00,0.00,0.00,5,S01
13820,-8.29830,0.73023,-0.58419,-13.5976,30.4268,9.2683,0.00,0.00,0.00,5,S01
13840,-8.29830,0.73023,-0.58419,-13.5976,30.4268,9.2683,0.00,0.00,0.00,5,S01
13860,-7.79552,0.49321,-0.76136,-12.8049,16.2805,10.2439,0.00,0.00,0.00,5,S01
13880,-7.24007,0.68714,-0.95529,-9.6341,12.0732,8.1707,0.00,0.00,0.00,5,S01
13900,-7.25683,0.78769,-0.93134,-5.7927,14.8780,0.5488,0.00,0.00,0.00,5,S01
13920,-7.83383,0.55785,-0.62728,-3.9024,14.7561,-9.8780,0.00,0.00,0.00,5,S01
13940,-8.28154,0.25857,-0.26815,-0.9756,10.6098,-17.9268,0.00,0.00,0.00,5,S01
13960,-8.56167,0.07183,0.16281,4.3902,6.6463,-21.2805,0.00,0.00,0.00,5,S01
13980,-9.09078,0.13168,0.50518,10.1829,4.8171,-20.3049,0.00,0.00,0.00,5,S01
14000,-8.95910,-0.05028,0.39744,15.3049,3.7195,-16.0366,0.00,0.00,0.00,5,S01
14020,-8.01339,-0.06704,0.00958,20.7927,4.3902,-13.4146,0.00,0.00,0.00,5,S01
14040,-7.11557,0.48363,-0.36152,23.6585,7.8049,-13.4146,0.00,0.00,0.00,5,S01
14060,-6.20338,1.14682,-0.58419,22.2561,13.6585,-11.6463,0.00,0.00,0.00,5,S01
14080,-5.60961,1.18752,-0.78769,19.5122,19.0854,-7.5000,0.00,0.00,0.00,5,S01
14100,-5.67905,1.78847,-0.93613,15.1829,22.6829,-4.0244,0.00,0.00,0.00,5,S01
14120,-7.03895,1.76692,0.04310,-12.1341,9.7561,-6.2805,0.00,0.00,0.00,5,S01
14140,-7.19218,1.45328,-0.49799,-18.0488,2.9268,-15.7927,0.00,0.00,0.00,5,S01
14160,-7.43878,1.79086,0.35913,-19.6341,0.7927,-22.0122,0.00,0.00,0.00,5,S01
14180,-8.33182,2.34871,2.01352,-36.8902,-19.8171,-20.0000,0.00,0.00,0.00,5,S01
14200,-8.88728,2.20506,1.41258,-54.0244,-44.3902,-16.0976,0.00,0.00,0.00,5,S01
14220,-8.63110,1.25935,-1.56581,-48.9634,-33.2317,-14.6951,0.00,0.00,0.00,5,S01
14240,-9.02853,-0.62728,-1.74777,-31.4634,-2.8659,-11.5244,0.00,0.00,0.00,5,S01
14260,-13.75469,-1.98000,-1.38624,-9.6341,-6.4634,-1.7683,0.00,0.00,0.00,5,S01
14280,-19.75935,-2.04225,-5.35822,6.6463,-42.9268,26.5244,0.00,0.00,0.00,5,S01
14300,-18.05467,-3.45723,-0.01915,-28.4756,-43.9634,62.2561,0.00,0.00,0.00,5,S01
14320,-13.44105,-1.78129,-0.88585,-41.8902,-46.4634,46.9512,0.00,0.00,0.00,5,S01
14340,-13.38598,1.03190,-0.96486,-19.1463,-31.0976,7.0732,0.00,0.00,0.00,5,S01
14360,-14.23832,1.21625,-1.00317,-20.0610,-23.2317,-12.4390,0.00,0.00,0.00,5,S01
14380,-13.37162,-0.03591,-0.17957,-35.3659,-15.9146,-16.8293,0.00,0.00,0.00,5,S01
14400,-11.43231,-1.50116,-0.04310,-40.3049,-9.6341,-19.0244,0.00,0.00,0.00,5,S01
14420,-9.35893,-2.28407,-0.17717,-40.4878,-3.6585,-21.9512,0.00,0.00,0.00,5,S01
14440,-8.03973,-2.02549,-0.07661,-38.2927,5.2439,-23.0488,0.00,0.00,0.00,5,S01
14460,-7.19458,-1.37188,0.04070,-31.8902,15.3659,-18.8415,0.00,0.00,0.00,5,S01
14480,-6.92643,-0.77812,-0.01676,-24.2073,24.5122,-13.2927,0.00,0.00,0.00,5,S01
14500,-6.83305,-0.41420,-0.09577,-20.6707,28.8415,-7.7439,0.00,0.00,0.00,5,S01
14520,-7.01741,-0.29449,0.04549,-20.2439,27.0732,-1.0976,0.00,0.00,0.00,5,S01
14540,-7.06289,-0.45250,0.04070,-18.4146,23.5976,5.7317,0.00,0.00,0.00,5,S01
14560,-6.99586,-0.51475,-0.33279,-16.4634,22.5610,11.0976,0.00,0.00,0.00,5,S01
14580,-7.88171,-0.38068,0.04549,-18.0488,24.3902,14.8171,0.00,0.00,0.00,5,S01
14600,-8.73165,-0.29209,0.48363,-22.5610,16.8293,19.3902,0.00,0.00,0.00,5,S01
14620,-7.92241,-0.50757,0.34716,-25.3049,4.0854,23.9024,0.00,0.00,0.00,5,S01
14640,-6.42364,-1.21625,0.26815,-22.1341,1.8902,24.8171,0.00,0.00,0.00,5,S01
14660,-5.84185,-1.67115,1.04148,-10.6098,9.0854,22.0122,0.00,0.00,0.00,5,S01
14680,-5.69581,-2.07098,1.41737,2.8049,13.2927,17.8049,0.00,0.00,0.00,5,S01
14700,-5.78200,-2.06859,0.12210,18.2927,14.4512,10.9146,0.00,0.00,0.00,5,S01
14720,-6.05972,-1.18513,-1.96803,34.0244,24.4512,4.5122,0.00,0.00,0.00,5,S01
14740,-6.17225,-0.86670,-2.06141,39.0854,41.3415,1.7683,0.00,0.00,0.00,5,S01
14760,-7.02938,-1.03908,-0.32561,39.4512,44.5732,-1.2805,0.00,0.00,0.00,5,S01
14780,-8.10916,-0.63925,0.91459,38.9634,25.3049,-5.7927,0.00,0.00,0.00,5,S01
14800,-7.88171,0.20590,0.60573,32.2561,0.1220,-7.0122,0.00,0.00,0.00,5,S01
14820,-7.35020,0.03591,-1.61848,21.7683,-9.5122,-9.0244,0.00,0.00,0.00,5,S01
14840,-9.60793,0.51715,-4.53222,21.7683,6.4024,-14.5122,0.00,0.00,0.00,5,S01
14860,-15.33007,0.73263,-1.08218,18.0488,-15.6707,-16.2195,0.00,0.00,0.00,5,S01
14880,-15.33007,0.73263,-1.08218,18.0488,-15.6707,-16.2195,0.00,0.00,0.00,5,S01
14900,-17.71949,0.43096,-2.54743,7.4390,-89.3293,-7.3780,0.00,0.00,0.00,5,S01
14920,-16.20875,2.33674,-0.80206,2.5610,-73.1707,-7.0732,0.00,0.00,0.00,5,S01
14940,-14.01326,1.99437,-0.69192,-2.6829,-42.6220,4.3902,0.00,0.00,0.00,5,S01
14960,-14.94940,1.26893,0.44772,-13.2927,-22.3171,11.1585,0.00,0.00,0.00,5,S01
14980,-15.23670,1.36230,0.25857,-22.9268,-10.4268,8.3537,0.00,0.00,0.00,5,S01
15000,-13.71638,1.89860,-0.50278,-25.3659,-3.4146,9.2683,0.00,0.00,0.00,5,S01
15020,-11.41795,2.58095,-1.24020,-30.3049,5.5488,14.0854,0.00,0.00,0.00,5,S01
15040,-9.03332,2.33435,-1.43652,-37.6829,14.8171,20.6098,0.00,0.00,0.00,5,S01
15060,-7.55131,1.07021,-1.77410,-39.4512,20.0000,21.1585,0.00,0.00,0.00,5,S01
15080,-7.41005,0.50996,-1.23062,-36.5854,26.9512,11.0976,0.00,0.00,0.00,5,S01
15100,-7.76440,0.68235,-0.78051,-35.3049,30.2439,2.1341,0.00,0.00,0.00,5,S01
15120,-7.81228,0.69911,-0.59855,-36.0976,29.2683,1.0366,0.00,0.00,0.00,5,S01
15140,-7.58004,0.33758,-0.66080,-34.6951,24.9390,1.8902,0.00,0.00,0.00,5,S01
15160,-7.28316,-0.01676,-0.69911,-28.8415,18.7805,-1.5854,0.00,0.00,0.00,5,S01
15180,-7.27598,-0.22266,-0.52433,-19.6951,12.9878,-7.9878,0.00,0.00,0.00,5,S01
15200,-7.58004,-0.02634,-0.40941,-10.0000,6.4634,-14.4512,0.00,0.00,0.00,5,S01
15220,-7.45794,0.14365,-0.07901,-1.0366,2.0732,-17.0732,0.00,0.00,0.00,5,S01
15240,-6.78038,0.09577,0.09577,10.3659,-1.0366,-16.7073,0.00,0.00,0.00,5,S01
15260,-6.01663,0.06464,0.25139,21.4024,-3.8415,-15.0610,0.00,0.00,0.00,5,S01
15280,-5.48033,-0.13647,0.26097,30.5488,-4.3902,-12.3171,0.00,0.00,0.00,5,S01
15300,-5.55934,-0.77812,-0.04070,39.0854,-1.1585,-9.8171,0.00,0.00,0.00,5,S01
15320,-6.15549,-0.19393,-0.93613,48.4146,5.6707,-14.2073,0.00,0.00,0.00,5,S01
15340,-7.27358,3.34709,-0.72305,25.3659,9.6341,-13.4756,0.00,0.00,0.00,5,S01
15360,-8.45632,4.04859,0.36631,2.6220,-3.1098,-4.2683,0.00,0.00,0.00,5,S01
15380,-9.33020,4.16591,1.39582,-23.9024,-28.9024,0.4878,0.00,0.00,0.00,5,S01
15400,-8.70771,3.03585,0.70150,-40.6098,-47.9878,-4.9390,0.00,0.00,0.00,5,S01
15420,-8.69335,1.49398,-1.17555,-33.7805,-35.6707,-15.9146,0.00,0.00,0.00,5,S01
15440,-9.62230,-1.28808,-1.25696,-15.4878,-14.5732,-13.7805,0.00,0.00,0.00,5,S01
15460,-13.74511,-4.03423,-0.44532,15.4878,-19.6341,2.3780,0.00,0.00,0.00,5,S01
15480,-20.49676,-3.77326,-5.45639,49.0854,-45.3659,28.4146,0.00,0.00,0.00,5,S01
15500,-19.19910,-3.33512,-0.76854,9.3902,-32.7439,70.9756,0.00,0.00,0.00,5,S01
15520,-13.52245,-0.83558,-1.83875,-19.0244,-47.7439,71.5244,0.00,0.00,0.00,5,S01
15540,-11.02530,1.67834,-1.14443,-10.3049,-43.9024,32.5000,0.00,0.00,0.00,5,S01
15560,-12.91911,1.08457,-0.92177,-14.9390,-43.1098,-10.6707,0.00,0.00,0.00,5,S01
15580,-13.88398,-0.43814,0.15562,-24.8780,-32.8049,-27.8659,0.00,0.00,0.00,5,S01
15600,-11.45625,-1.07500,-0.39504,-28.2317,-25.7927,-22.6220,0.00,0.00,0.00,5,S01
15620,-8.70292,-1.20668,-0.75178,-35.1829,-20.3049,-17.1951,0.00,0.00,0.00,5,S01
15640,-7.66145,-0.59616,-0.57940,-43.5366,-5.5488,-17.1951,0.00,0.00,0.00,5,S01
15660,-7.40048,-0.54348,0.13408,-44.6951,13.4756,-16.8293,0.00,0.00,0.00,5,S01
15680,-7.58004,-0.98881,0.50518,-35.3659,25.4268,-16.6463,0.00,0.00,0.00,5,S01
15700,-7.54413,-1.29047,0.52433,-24.2683,28.8415,-12.6220,0.00,0.00,0.00,5,S01
15720,-7.66623,-1.23541,0.58897,-17.3780,30.0000,-7.5000,0.00,0.00,0.00,5,S01
15740,-8.27676,-0.95289,0.70868,-11.6463,32.6829,-4.8171,0.00,0.00,0.00,5,S01
15760,-9.01896,-0.78530,0.79487,-5.4268,31.8293,-1.4634,0.00,0.00,0.00,5,S01
15780,-9.21049,-0.85712,0.89543,-0.9756,24.5732,4.7561,0.00,0.00,0.00,5,S01
15800,-9.05248,-0.81163,1.18513,1.7073,13.5976,11.2805,0.00,0.00,0.00,5,S01
15820,-8.81545,-0.56264,0.97683,3.1098,3.6585,15.3659,0.00,0.00,0.00,5,S01
15840,-8.48266,-0.29688,0.75417,2.1341,-0.2439,15.3049,0.00,0.00,0.00,5,S01
15860,-7.85538,-0.16281,0.35913,0.0000,-0.1220,11.4024,0.00,0.00,0.00,5,S01
15880,-7.14669,-0.16041,-0.36631,-5.2439,5.6098,6.5244,0.00,0.00,0.00,5,S01
15900,-6.21535,-0.52433,-0.92656,-12.1341,17.9268,2.1341,0.00,0.00,0.00,5,S01
15920,-4.16112,-1.54187,-1.07500,-14.2073,37.3780,-10.6098,0.00,0.00,0.00,5,S01
15940,-5.52582,-1.94409,1.65439,-0.7927,37.3780,-17.0732,0.00,0.00,0.00,5,S01
15960,-5.52582,-1.94409,1.65439,-0.7927,37.3780,-17.0732,0.00,0.00,0.00,5,S01
15980,-8.00861,-1.81241,2.74615,17.3171,11.0976,-14.2683,0.00,0.00,0.00,5,S01
16000,-8.84179,-1.30723,0.33758,36.7073,-4.8780,1.4024,0.00,0.00,0.00,5,S01
16020,-8.20253,-1.06542,-0.29688,44.6341,14.1463,17.7439,0.00,0.00,0.00,5,S01
16040,-7.92720,-1.18034,0.49560,42.6829,15.9146,19.5732,0.00,0.00,0.00,5,S01
16060,-8.04931,-1.35272,1.16837,44.5122,-10.7927,6.5854,0.00,0.00,0.00,5,S01
16080,-7.87214,-0.76614,1.56820,48.9634,-34.0244,-6.5854,0.00,0.00,0.00,5,S01
16100,-8.02536,-0.02634,-0.48363,53.1098,-31.4634,-9.6951,0.00,0.00,0.00,5,S01
16120,-9.85693,0.70150,-3.28006,52.3171,-0.3049,-11.2805,0.00,0.00,0.00,5,S01
16140,-11.84412,1.30723,-2.51631,43.7195,25.9146,-17.5000,0.00,0.00,0.00,5,S01
16160,-13.31176,1.07978,-1.16119,30.1829,0.6098,-19.8171,0.00,0.00,0.00,5,S01
16180,-14.79856,0.73023,-0.30167,16.9512,-54.0854,-15.6098,0.00,0.00,0.00,5,S01
16200,-15.94059,-0.36871,-1.34794,15.6707,-65.9146,-14.8171,0.00,0.00,0.00,5,S01
16220,-15.38514,0.82839,-0.34237,32.2561,-19.5122,-24.7561,0.00,0.00,0.00,5,S01
16240,-13.70920,2.03028,-0.63686,31.5854,-10.7317,-16.4024,0.00,0.00,0.00,5,S01
16260,-12.79222,1.82438,0.06225,10.1220,-15.4268,7.8049,0.00,0.00,0.00,5,S01
16280,-12.33253,1.48441,0.15083,-5.7317,-4.3902,21.5854,0.00,0.00,0.00,5,S01
16300,-11.62864,1.36230,-0.45729,-11.6463,16.2805,18.9634,0.00,0.00,0.00,5,S01
16320,-10.18733,1.19710,-1.11091,-10.0000,27.4390,16.3415,0.00,0.00,0.00,5,S01
16340,-8.50181,0.49321,-1.40540,-5.4878,27.2561,19.8780,0.00,0.00,0.00,5,S01
16360,-7.70454,0.00718,-1.19471,-0.6098,27.8659,19.0244,0.00,0.00,0.00,5,S01
16380,-7.73567,-0.08140,-0.90980,4.7561,35.5488,10.7927,0.00,0.00,0.00,5,S01
16400,-8.05888,0.00000,-0.72305,9.0244,42.8659,2.8049,0.00,0.00,0.00,5,S01
16420,-8.04452,0.06704,-0.63686,11.2195,40.2439,-1.5854,0.00,0.00,0.00,5,S01
16440,-7.94875,-0.05507,-0.70150,13.0488,29.5122,-5.7317,0.00,0.00,0.00,5,S01
16460,-7.82425,-0.23463,-0.81882,18.0488,20.6707,-11.7683,0.00,0.00,0.00,5,S01
16480,-7.10360,-0.02873,-0.89543,25.9756,17.1341,-17.7439,0.00,0.00,0.00,5,S01
16500,-6.22253,0.04310,-0.56264,33.1098,17.0122,-18.7195,0.00,0.00,0.00,5,S01
16520,-6.43561,-0.37110,0.00958,37.1341,14.7561,-16.7683,0.00,0.00,0.00,5,S01
16540,-6.75404,0.22745,0.17717,49.1463,2.8049,-23.4756,0.00,0.00,0.00,5,S01
16560,-6.34224,1.57060,0.18435,46.2195,0.7317,-24.2073,0.00,0.00,0.00,5,S01
16580,-6.38773,2.61207,-0.22027,32.8049,-2.1341,-17.0122,0.00,0.00,0.00,5,S01
16600,-6.86178,3.05021,-0.74699,9.9390,-4.3902,-5.6098,0.00,0.00,0.00,5,S01
16620,-7.51779,2.81558,-0.84994,-14.0854,-5.1829,0.9146,0.00,0.00,0.00,5,S01
16640,-8.18817,2.48279,-0.09337,-28.3537,-8.2927,1.2195,0.00,0.00,0.00,5,S01
16660,-8.64307,1.81241,0.73741,-41.9512,-17.5000,-0.5488,0.00,0.00,0.00,5,S01
16680,-8.07325,0.91219,0.08619,-42.7439,-22.9878,-3.3537,0.00,0.00,0.00,5,S01
16700,-8.24802,0.29209,-1.96803,-30.9756,-19.6341,-3.1098,0.00,0.00,0.00,5,S01
16720,-9.05727,-1.10612,-2.05662,-20.4878,-15.6707,6.0976,0.00,0.00,0.00,5,S01
16740,-15.14811,-1.47962,-0.33758,-6.6463,-32.9268,17.0122,0.00,0.00,0.00,5,S01
16760,-20.64760,-1.13485,-5.43484,1.7683,-53.7805,41.5244,0.00,0.00,0.00,5,S01
16780,-18.74181,-3.18429,-0.22027,-49.5122,-17.7439,74.0854,0.00,0.00,0.00,5,S01
16800,-13.83609,-1.91297,-1.56341,-62.5000,-33.9634,52.8659,0.00,0.00,0.00,5,S01
16820,-12.95263,0.34955,-0.61292,-43.6585,-33.3537,10.2439,0.00,0.00,0.00,5,S01
16840,-14.33409,0.65601,-1.19710,-35.7927,-29.3902,-12.5000,0.00,0.00,0.00,5,S01
16860,-13.25191,-1.05345,0.03831,-35.8537,-18.4146,-17.5000,0.00,0.00,0.00,5,S01
16880,-10.40999,-2.45166,-0.06704,-28.7805,-15.1220,-21.7683,0.00,0.00,0.00,5,S01
16900,-7.75482,-1.91057,-0.85712,-19.5732,-7.1951,-27.8659,0.00,0.00,0.00,5,S01
16920,-7.06768,-0.49560,-0.90501,-21.5854,12.4390,-29.3293,0.00,0.00,0.00,5,S01
16940,-7.46751,-0.05986,0.27773,-23.9634,35.4268,-24.8780,0.00,0.00,0.00,5,S01
16960,-8.03973,-0.60813,0.30406,-9.2073,32.9878,-11.6463,0.00,0.00,0.00,5,S01
16980,-8.03973,-0.60813,0.30406,-9.2073,32.9878,-11.6463,0.00,0.00,0.00,5,S01
17000,-8.17620,-0.68474,0.21308,-8.8415,25.7317,-5.2439,0.00,0.00,0.00,5,S01
17020,-8.26000,-0.65841,0.27533,-8.3537,19.5732,-1.3415,0.00,0.00,0.00,5,S01
17040,-8.23366,-0.57221,0.12210,-6.7073,11.5244,1.8902,0.00,0.00,0.00,5,S01
17060,-8.41562,-0.54827,0.39265,-8.1098,4.7561,5.0000,0.00,0.00,0.00,5,S01
17080,-8.54969,-0.59855,0.77812,-10.5488,-2.8659,8.1098,0.00,0.00,0.00,5,S01
17100,-8.00861,-0.91937,0.56024,-10.4268,-11.8293,10.2439,0.00,0.00,0.00,5,S01
17120,-6.65588,-1.35751,0.07901,-8.6585,-13.0488,9.0244,0.00,0.00,0.00,5,S01
17140,-5.19542,-1.83396,-0.28970,-5.4878,-2.5610,5.7927,0.00,0.00,0.00,5,S01
17160,-4.71418,-1.68791,-0.33519,2.3780,12.8049,2.3171,0.00,0.00,0.00,5,S01
17180,-5.66229,-1.16119,-0.16999,11.2195,22.0122,1.8293,0.00,0.00,0.00,5,S01
17200,-6.44998,-1.67594,0.47405,18.7195,23.1707,6.5244,0.00,0.00,0.00,5,S01
17220,-6.95755,-2.19548,0.69911,34.3293,19.2683,10.0000,0.00,0.00,0.00,5,S01
17240,-7.41005,-1.91776,-0.00239,48.9024,15.6707,8.5366,0.00,0.00,0.00,5,S01
17260,-7.82904,-0.89783,-0.63207,55.0000,13.0488,6.9512,0.00,0.00,0.00,5,S01
17280,-8.31985,0.15083,-0.05028,51.0976,5.1829,8.9024,0.00,0.00,0.00,5,S01
17300,-8.87052,-0.08380,1.07978,42.8049,-8.4146,12.1951,0.00,0.00,0.00,5,S01
17320,-9.00220,-0.44772,0.85234,40.9756,-18.2317,10.1220,0.00,0.00,0.00,5,S01
17340,-9.01896,-1.40540,0.78769,40.0610,-20.7317,1.4024,0.00,0.00,0.00,5,S01
17360,-9.94791,-1.38864,-1.74537,48.1098,-20.6098,-14.0854,0.00,0.00,0.00,5,S01
17380,-11.37246,0.61052,-2.40378,46.7683,-7.2561,-30.4268,0.00,0.00,0.00,5,S01
17400,-13.50569,2.50912,-0.88825,28.9634,-14.5122,-32.3171,0.00,0.00,0.00,5,S01
17420,-17.57823,0.91937,-2.44927,13.2317,-48.6585,-26.4024,0.00,0.00,0.00,5,S01
17440,-17.89905,0.86431,-1.04387,18.3537,-37.1341,-38.4146,0.00,0.00,0.00,5,S01
17460,-13.72117,-0.18675,-0.87867,18.4146,-35.9146,-31.8293,0.00,0.00,0.00,5,S01
17480,-12.21522,-0.77333,-0.07661,12.5610,-39.4512,-9.8171,0.00,0.00,0.00,5,S01
17500,-13.13220,-0.05746,0.74460,-1.1585,-22.4390,12.8049,0.00,0.00,0.00,5,S01
17520,-12.90235,0.46926,0.71108,-5.5488,1.4024,21.6463,0.00,0.00,0.00,5,S01
17540,-11.61906,1.15161,0.31364,1.4634,11.2805,16.0366,0.00,0.00,0.00,5,S01
17560,-9.56005,1.44610,-0.51954,11.6463,11.2195,16.0366,0.00,0.00,0.00,5,S01
17580,-7.80510,0.92656,-0.98162,15.1829,17.1951,22.1951,0.00,0.00,0.00,5,S01
17600,-6.90488,0.26336,-0.92416,15.9146,28.3537,22.2561,0.00,0.00,0.00,5,S01
17620,-7.31429,0.50278,-0.33758,13.2317,34.0244,13.0488,0.00,0.00,0.00,5,S01
17640,-7.80749,0.82600,0.04549,10.0610,30.2439,1.9512,0.00,0.00,0.00,5,S01
17660,-7.87692,0.82121,0.10295,8.7195,20.8537,-6.0976,0.00,0.00,0.00,5,S01
17680,-7.72609,0.49560,-0.12210,10.0610,10.7927,-12.5000,0.00,0.00,0.00,5,S01
17700,-7.55131,-0.05028,-0.13408,15.3049,5.9146,-18.1707,0.00,0.00,0.00,5,S01
17720,-6.90009,-0.34477,-0.34477,26.4634,4.3902,-23.9024,0.00,0.00,0.00,5,S01
17740,-5.87537,-0.02873,-0.44053,39.6951,7.8049,-27.3171,0.00,0.00,0.00,5,S01
17760,-4.62799,0.48842,-0.64404,50.0610,24.5732,-19.2683,0.00,0.00,0.00,5,S01
17780,-4.40773,0.88825,-0.99838,56.0976,40.5488,-13.1098,0.00,0.00,0.00,5,S01
17800,-5.22654,1.92733,-0.64165,49.2073,53.1098,-6.0976,0.00,0.00,0.00,5,S01
17820,-7.69975,2.65038,0.25379,19.7561,43.9634,0.8537,0.00,0.00,0.00,5,S01
17840,-9.39724,2.99993,0.08859,-12.0122,14.2683,3.2927,0.00,0.00,0.00,5,S01
17860,-9.11951,2.80840,0.27773,-26.5244,-9.6951,0.6098,0.00,0.00,0.00,5,S01
17880,-8.42998,2.13323,0.30406,-33.9024,-27.0122,-1.6463,0.00,0.00,0.00,5,S01
17900,-8.30309,1.57778,0.00958,-39.5122,-36.8902,-0.9146,0.00,0.00,0.00,5,S01
17920,-9.06924,1.36469,-2.15718,-44.2073,-35.1220,2.2561,0.00,0.00,0.00,5,S01
17940,-10.12987,-0.62728,-2.14281,-39.4512,-17.9878,11.7073,0.00,0.00,0.00,5,S01
17960,-15.71793,-2.13563,0.55545,-24.0244,-27.7439,22.9268,0.00,0.00,0.00,5,S01
17980,-21.39219,-3.63200,-3.22499,-9.0244,-78.3537,40.8537,0.00,0.00,0.00,5,S01
18000,-17.85117,-4.88896,2.28886,-23.7805,-70.4878,59.1463,0.00,0.00,0.00,5,S01
18020,-12.31338,-0.65601,-1.26893,-10.0610,-73.6585,31.2805,0.00,0.00,0.00,5,S01
18040,-11.55681,1.62566,-1.12767,9.2073,-40.6707,2.6829,0.00,0.00,0.00,5,S01
18060,-12.31099,0.30885,-1.02232,-0.4268,-9.5732,-7.4390,0.00,0.00,0.00,5,S01
18080,-12.32774,-1.12767,-0.44053,-13.1707,17.6829,-14.7561,0.00,0.00,0.00,5,S01
18100,-10.81461,-1.97761,-0.67277,-18.8415,31.7683,-19.5122,0.00,0.00,0.00,5,S01
18120,-9.56484,-1.60172,-0.84755,-21.0366,38.2317,-24.5122,0.00,0.00,0.00,5,S01
18140,-8.87052,-1.02232,-0.80685,-19.5122,43.9634,-23.2317,0.00,0.00,0.00,5,S01
18160,-8.51378,-1.11330,-0.45490,-14.7561,46.7073,-17.0732,0.00,0.00,0.00,5,S01
18180,-8.57364,-1.62566,0.10774,-9.0244,39.8780,-11.8293,0.00,0.00,0.00,5,S01
18200,-8.61913,-1.79565,0.41180,-2.0732,27.0122,-8.2317,0.00,0.00,0.00,5,S01
18220,-8.34858,-1.28569,0.11971,7.1951,19.0244,-6.7073,0.00,0.00,0.00,5,S01
18240,-8.36295,-0.69432,-0.09098,15.4878,17.1341,-5.1220,0.00,0.00,0.00,5,S01
18260,-8.52575,-0.52194,-0.16999,19.6951,14.6951,-0.7927,0.00,0.00,0.00,5,S01
18280,-8.51139,-0.65362,-0.04310,19.9390,11.1585,5.1220,0.00,0.00,0.00,5,S01
18300,-8.44196,-0.64404,0.27054,18.8415,7.0122,9.5122,0.00,0.00,0.00,5,S01
18320,-8.37731,-0.50757,0.49799,17.3171,3.0488,12.8659,0.00,0.00,0.00,5,S01
18340,-8.47308,-0.34477,0.58419,17.9268,1.8902,15.8537,0.00,0.00,0.00,5,S01
18360,-8.34140,-0.37828,0.66559,17.0122,0.7317,16.9512,0.00,0.00,0.00,5,S01
18380,-8.30788,-0.51475,0.71826,13.9634,-2.6829,13.8415,0.00,0.00,0.00,5,S01
18400,-8.12592,-0.69911,0.51475,10.2439,-6.7683,8.1098,0.00,0.00,0.00,5,S01
18420,-7.43400,-0.91219,-0.17238,8.2317,-6.0976,4.0854,0.00,0.00,0.00,5,S01
18440,-6.10043,-1.05345,-0.95289,5.3659,3.7195,1.4024,0.00,0.00,0.00,5,S01
18460,-4.75967,-1.38864,-1.20189,5.0610,20.9146,-0.8537,0.00,0.00,0.00,5,S01
18480,-4.46040,-1.40300,-0.73981,11.1585,35.1220,-3.9024,0.00,0.00,0.00,5,S01
18500,-5.38935,-0.62728,-0.53870,17.0732,38.5976,-4.3902,0.00,0.00,0.00,5,S01
18520,-6.13394,-0.16041,-0.79248,16.2195,36.7683,1.7073,0.00,0.00,0.00,5,S01
18540,-6.58645,-0.35434,-0.05028,13.8415,35.5488,8.8415,0.00,0.00,0.00,5,S01
18560,-7.48667,-1.22344,1.71664,13.2927,22.1951,9.9390,0.00,0.00,0.00,5,S01
18580,-8.43956,-1.27850,1.62087,18.7805,-3.9024,4.5732,0.00,0.00,0.00,5,S01
18600,-8.35337,-1.03430,-0.61770,21.5244,-15.6098,1.6463,0.00,0.00,0.00,5,S01
18620,-8.34858,-0.58658,-3.75650,17.8049,-0.6098,-0.5488,0.00,0.00,0.00,5,S01
18640,-9.82102,0.18196,-3.97916,20.9146,22.0732,-10.6098,0.00,0.00,0.00,5,S01
18660,-14.20001,1.39103,-1.30005,21.6463,2.5610,-25.1829,0.00,0.00,0.00,5,S01
18680,-18.71787,0.99838,-2.16915,18.4146,-68.8415,-32.2561,0.00,0.00,0.00,5,S01
18700,-16.93419,1.45807,-1.71185,26.0976,-84.4512,-38.1098,0.00,0.00,0.00,5,S01
18720,-13.85046,1.54426,-0.98402,26.3415,-58.7195,-25.6098,0.00,0.00,0.00,5,S01
18740,-13.70920,1.16119,0.01437,13.3537,-48.4146,-2.7439,0.00,0.00,0.00,5,S01
18760,-15.38514,1.41018,-0.23942,-2.2561,-31.1585,9.4512,0.00,0.00,0.00,5,S01
18780,-14.80335,1.43652,-0.21548,-7.8659,-7.1341,7.6220,0.00,0.00,0.00,5,S01
18800,-12.85447,1.96803,-0.95289,-6.3415,0.1220,2.8049,0.00,0.00,0.00,5,S01
18820,-10.19212,1.63524,-1.37188,-0.6707,3.8415,9.7561,0.00,0.00,0.00,5,S01
18840,-7.42681,0.39983,-1.62327,6.2195,7.3780,19.1463,0.00,0.00,0.00,5,S01
18860,-6.21535,-0.04070,-1.23301,11.2805,16.9512,18.3537,0.00,0.00,0.00,5,S01
18880,-6.84742,-0.08140,-0.44053,11.5854,26.5244,12.2561,0.00,0.00,0.00,5,S01
18900,-7.18021,-0.34237,0.13408,14.4512,27.9878,8.7195,0.00,0.00,0.00,5,S01
18920,-6.79714,-0.09337,-0.05267,20.4268,24.6951,4.5732,0.00,0.00,0.00,5,S01
18940,-6.12676,-0.02634,-0.61052,26.0976,23.9024,-3.0488,0.00,0.00,0.00,5,S01
18960,-6.08606,0.09816,-0.48602,28.7195,25.0610,-10.1220,0.00,0.00,0.00,5,S01
18980,-5.77481,0.50996,0.79727,25.0610,5.4268,-12.6829,0.00,0.00,0.00,5,S01
19000,-5.39653,1.29287,0.52912,29.0854,-5.1220,-14.7561,0.00,0.00,0.00,5,S01
19020,-6.71334,1.99916,1.57060,15.7317,-9.1463,-15.1220,0.00,0.00,0.00,5,S01
19040,-8.17380,2.18830,1.38385,-1.7683,-18.0488,-11.7683,0.00,0.00,0.00,5,S01
19060,-7.10838,2.80122,-2.08056,-15.9756,5.4268,-9.9390,0.00,0.00,0.00,5,S01
19080,-7.10838,2.80122,-2.08056,-15.9756,5.4268,-9.9390,0.00,0.00,0.00,5,S01
19100,-7.42681,2.45885,-0.27533,-39.6341,12.6220,-4.8171,0.00,0.00,0.00,5,S01
19120,-7.25204,1.25696,0.25857,-53.0488,4.7561,0.7317,0.00,0.00,0.00,5,S01
19140,-8.03255,0.85473,-1.17555,-45.6707,9.0854,4.2683,0.00,0.00,0.00,5,S01
19160,-8.99741,-1.01035,-2.15239,-31.8293,15.0610,12.6220,0.00,0.00,0.00,5,S01
19180,-9.78031,-2.64080,-1.32878,-16.8902,2.3780,16.7073,0.00,0.00,0.00,5,S01
19200,-16.39549,-3.55539,1.46765,2.8049,-38.0488,12.3780,0.00,0.00,0.00,5,S01
19220,-21.15995,-1.20189,-4.28562,33.6585,-78.5366,26.7683,0.00,0.00,0.00,5,S01
19240,-17.15685,-0.90501,-1.14682,-15.7317,-53.9634,59.6951,0.00,0.00,0.00,5,S01
19260,-11.62624,1.05105,-0.42377,-47.7439,-59.8171,49.0854,0.00,0.00,0.00,5,S01
19280,-11.26232,0.43096,0.66080,-52.3171,-57.1951,6.7073,0.00,0.00,0.00,5,S01
19300,-12.75631,-2.26731,1.02472,-41.7073,-35.1829,-27.6829,0.00,0.00,0.00,5,S01
19320,-12.20325,-3.59849,0.41180,-21.5854,2.1341,-34.0854,0.00,0.00,0.00,5,S01
19340,-10.69250,-2.86825,-0.02155,-12.0732,30.4268,-28.9024,0.00,0.00,0.00,5,S01
19360,-9.54329,-1.51792,-0.25618,-12.9878,40.2439,-27.8049,0.00,0.00,0.00,5,S01
19380,-8.71968,-0.27773,-0.54109,-15.2439,41.4634,-30.3659,0.00,0.00,0.00,5,S01
19400,-8.06607,-0.29209,-0.33519,-15.4268,39.5732,-26.4024,0.00,0.00,0.00,5,S01
19420,-7.21612,-0.96007,-0.10534,-14.3902,32.2561,-14.6341,0.00,0.00,0.00,5,S01
19440,-6.73728,-0.55306,0.10774,-12.3780,23.5976,-3.1098,0.00,0.00,0.00,5,S01
19460,-6.28957,-0.36871,-0.14844,-12.5000,20.1829,4.9390,0.00,0.00,0.00,5,S01
19480,-5.93283,-0.85712,-0.18914,-4.8171,26.7683,8.7805,0.00,0.00,0.00,5,S01
19500,-5.62877,-1.35512,-0.10295,3.4146,29.2073,12.6220,0.00,0.00,0.00,5,S01
19520,-5.44441,-1.21865,-0.10295,3.8415,24.5732,16.2805,0.00,0.00,0.00,5,S01
19540,-6.37097,-0.74699,0.44293,3.5976,17.6829,19.2683,0.00,0.00,0.00,5,S01
19560,-7.87214,-1.03669,1.32878,7.2561,4.2683,25.7927,0.00,0.00,0.00,5,S01
19580,-8.07085,-2.09014,1.39343,14.6341,-8.2317,34.8171,0.00,0.00,0.00,5,S01
19600,-8.16902,-2.97120,1.04627,24.2073,1.2805,36.2805,0.00,0.00,0.00,5,S01
19620,-8.71729,-3.40455,1.47004,38.7195,10.1829,27.7439,0.00,0.00,0.00,5,S01
19640,-8.78433,-3.02148,1.54905,56.7073,-1.2195,15.9146,0.00,0.00,0.00,5,S01
19660,-7.80989,-1.91297,1.10133,69.6341,-7.2561,6.0976,0.00,0.00,0.00,5,S01
19680,-7.15866,-0.45250,0.48363,70.2439,1.3415,-1.3415,0.00,0.00,0.00,5,S01
19700,-7.20894,0.04310,0.01915,57.0732,8.1707,-7.0122,0.00,0.00,0.00,5,S01
19720,-8.12592,-0.24900,-1.91057,42.3171,10.4268,-14.2073,0.00,0.00,0.00,5,S01
19740,-9.42118,0.95768,-2.34392,28.7195,20.1829,-20.7927,0.00,0.00,0.00,5,S01
19760,-13.03403,0.57221,-0.65601,18.2317,11.7683,-17.8659,0.00,0.00,0.00,5,S01
19780,-19.95088,-2.09732,-3.86903,30.9756,-29.6341,-23.2927,0.00,0.00,0.00,5,S01
19800,-21.82315,-1.56341,-3.52187,80.6098,-32.3780,-50.7927,0.00,0.00,0.00,5,S01
19820,-17.68836,-0.60094,-3.85466,119.4512,-36.5244,-39.5122,0.00,0.00,0.00,5,S01
19840,-13.33810,-0.11971,-2.84431,117.5000,-59.9390,2.9268,0.00,0.00,0.00,5,S01
19860,-11.47541,0.60334,-2.23140,87.6829,-75.9146,36.7683,0.00,0.00,0.00,5,S01
19880,-10.89362,1.32399,-1.63285,76.7683,-32.9878,38.1707,0.00,0.00,0.00,5,S01
19900,-10.06283,1.86748,-2.23140,87.6220,16.4024,25.3049,0.00,0.00,0.00,5,S01
19920,-8.50899,1.24977,-2.20985,92.3781,33.5366,20.7317,0.00,0.00,0.00,5,S01
19940,-6.93121,-0.03831,-2.11647,96.0366,31.1585,19.5732,0.00,0.00,0.00,5,S01
19960,-6.15549,-0.24900,-1.47722,102.6829,29.9390,11.0366,0.00,0.00,0.00,5,S01
19980,-6.34463,0.40941,-1.69031,106.5854,29.9390,1.5244,0.00,0.00,0.00,5,S01
20000,-7.22331,1.11330,-1.58975,97.3171,31.2195,0.3659,0.00,0.00,0.00,5,S01
20020,-8.10677,1.03430,-0.63446,82.1951,29.1463,6.2195,0.00,0.00,0.00,5,S01
20040,-8.61913,0.95529,-0.01915,76.5244,20.6707,11.2805,0.00,0.00,0.00,5,S01
20060,-8.42280,0.98402,0.12210,74.4512,10.7317,12.9268,0.00,0.00,0.00,5,S01
20080,-8.13071,1.05345,0.60094,70.6707,1.7073,7.3171,0.00,0.00,0.00,5,S01
20100,-8.21690,1.29287,0.56743,67.5000,-5.0000,-3.2927,0.00,0.00,0.00,5,S01
20120,-10.07001,1.33836,0.87388,34.5732,-0.9146,-7.3780,0.00,0.00,0.00,5,S01
20140,-10.07001,1.33836,0.87388,34.5732,-0.9146,-7.3780,0.00,0.00,0.00,5,S01
20160,-9.82102,1.54426,0.36871,26.5244,-7.6220,-4.8780,0.00,0.00,0.00,5,S01
20180,-10.03649,0.82600,0.94810,20.5488,-4.5122,-0.7927,0.00,0.00,0.00,5,S01
20200,-9.96227,-0.70629,2.58334,27.1951,-6.1585,5.0610,0.00,0.00,0.00,5,S01
20220,-9.41879,-1.77650,3.70862,44.2683,-13.5976,6.8293,0.00,0.00,0.00,5,S01
20240,-9.70131,-1.91057,2.52109,65.7927,-15.4268,5.7317,0.00,0.00,0.00,5,S01
20260,-11.56399,-0.44772,-1.89621,85.6098,-3.3537,8.9024,0.00,0.00,0.00,5,S01
20280,-12.70842,1.99198,-4.64954,83.7195,31.5854,26.4634,0.00,0.00,0.00,5,S01
20300,-11.69089,1.29047,-4.80277,55.5488,49.2683,47.8659,0.00,0.00,0.00,5,S01
20320,-10.25915,-0.72784,-4.09169,42.1951,22.6220,50.5488,0.00,0.00,0.00,5,S01
20340,-9.32781,-1.90818,-4.57053,52.6829,-14.3293,38.1707,0.00,0.00,0.00,5,S01
20360,-9.87129,-0.38786,-4.99909,63.5976,-12.5000,20.6098,0.00,0.00,0.00,5,S01
20380,-10.40520,1.01514,-4.03662,52.8049,5.1220,7.1341,0.00,0.00,0.00,5,S01
20400,-9.99340,1.13485,-3.23696,35.0610,0.7317,-4.3902,0.00,0.00,0.00,5,S01
20420,-8.76996,0.65122,-2.68390,21.6463,-10.0610,-15.9146,0.00,0.00,0.00,5,S01
20440,-7.84819,-0.00958,-2.19069,16.0976,-7.7439,-25.0610,0.00,0.00,0.00,5,S01
20460,-7.86495,-0.29928,-1.76213,18.2317,2.9878,-31.0366,0.00,0.00,0.00,5,S01
20480,-8.45632,-0.45969,-1.43413,22.6829,11.4634,-31.8902,0.00,0.00,0.00,5,S01
20500,-8.55448,-0.87388,-1.43652,26.4634,14.4512,-27.3171,0.00,0.00,0.00,5,S01
20520,-8.30788,-1.06063,-1.81720,33.1707,15.9146,-22.5000,0.00,0.00,0.00,5,S01
20540,-8.25281,-0.78769,-2.09493,40.8537,17.9878,-19.1463,0.00,0.00,0.00,5,S01
20560,-8.49702,-0.60573,-1.98479,44.8171,17.0732,-14.4512,0.00,0.00,0.00,5,S01
20580,-8.80587,-0.55545,-1.64482,46.8293,12.1951,-8.2317,0.00,0.00,0.00,5,S01
20600,-8.99502,-0.51236,-1.34794,46.5244,7.0732,-2.2561,0.00,0.00,0.00,5,S01
20620,-9.21768,-0.47645,-1.07021,45.4878,4.8780,0.9146,0.00,0.00,0.00,5,S01
20640,-9.25598,-0.29449,-1.01514,46.9512,1.4024,0.9756,0.00,0.00,0.00,5,S01
20660,-9.04529,-0.06225,-0.80685,45.8537,-3.9634,1.0366,0.00,0.00,0.00,5,S01
20680,-8.80109,0.04310,-0.45729,41.0976,-8.5366,2.8049,0.00,0.00,0.00,5,S01
20700,-8.72447,0.03831,-0.21787,36.2805,-9.1463,4.7561,0.00,0.00,0.00,5,S01
20720,-8.61434,0.05746,-0.16999,32.1341,-7.3780,4.8780,0.00,0.00,0.00,5,S01
20740,-8.81066,0.24181,0.00718,27.1341,-5.4878,4.3293,0.00,0.00,0.00,5,S01
20760,-9.17219,0.33519,0.30167,19.4512,-6.5854,4.0854,0.00,0.00,0.00,5,S01
20780,-9.14346,-0.89064,0.20590,15.9756,-9.1463,5.0000,0.00,0.00,0.00,5,S01
20800,-9.19134,-1.58257,-0.97923,27.3780,-7.1341,7.0122,0.00,0.00,0.00,5,S01
20820,-9.94791,-1.27372,-0.38547,33.5366,-3.5366,8.5366,0.00,0.00,0.00,5,S01
20840,-10.72842,0.52433,0.62728,28.4146,-16.2805,5.3659,0.00,0.00,0.00,5,S01
20860,-11.29824,1.39343,-0.22266,14.2073,-27.9268,-1.8902,0.00,0.00,0.00,5,S01
20880,-12.35169,0.75178,-2.35111,7.4390,-21.9512,-10.7927,0.00,0.00,0.00,5,S01
20900,-12.09551,-1.20428,-3.34231,-0.3659,-13.0488,-23.6585,0.00,0.00,0.00,5,S01
20920,-10.50576,-2.09732,-3.16753,-4.5122,-16.7683,-38.5976,0.00,0.00,0.00,5,S01
20940,-8.33900,-1.75974,-3.01669,0.2439,-27.9878,-42.1951,0.00,0.00,0.00,5,S01
20960,-7.82425,-1.42455,-2.82995,5.0000,-32.0122,-33.2927,0.00,0.00,0.00,5,S01
20980,-9.26556,-1.82438,-1.66397,13.0488,-22.0122,-19.8780,0.00,0.00,0.00,5,S01
21000,-10.17296,-2.40138,-1.23541,32.5000,-13.4756,-6.5854,0.00,0.00,0.00,5,S01
21020,-9.35415,-2.30562,-1.61848,57.8659,-7.4390,2.6220,0.00,0.00,0.00,5,S01
21040,-8.42998,-1.38864,-2.42533,75.1829,-1.3415,8.9634,0.00,0.00,0.00,5,S01
21060,-8.45153,-0.31364,-2.70066,81.9512,5.6098,15.5488,0.00,0.00,0.00,5,S01
21080,-9.20092,0.06943,-2.31759,82.9268,9.0244,21.8902,0.00,0.00,0.00,5,S01
21100,-9.70849,-0.05028,-1.72143,85.1220,7.9268,24.6341,0.00,0.00,0.00,5,S01
21120,-9.50019,-0.23463,-1.54665,91.6463,4.4512,25.6098,0.00,0.00,0.00,5,S01
21140,-9.20810,0.00000,-1.57778,95.5488,-0.9756,26.8902,0.00,0.00,0.00,5,S01
21160,-8.17380,1.03908,-0.83558,86.2195,-2.2561,24.3293,0.00,0.00,0.00,5,S01
21180,-8.17380,1.03908,-0.83558,86.2195,-2.2561,24.3293,0.00,0.00,0.00,5,S01
21200,-8.17380,1.03908,-0.83558,86.2195,-2.2561,24.3293,0.00,0.00,0.00,5,S01
21220,-8.15465,1.27611,-0.57221,77.9268,-0.2439,18.9634,0.00,0.00,0.00,5,S01
21240,-8.52575,1.37906,-0.53870,69.9390,2.9878,14.0854,0.00,0.00,0.00,5,S01
21260,-8.75799,1.26893,-0.29928,59.8781,5.1220,10.3049,0.00,0.00,0.00,5,S01
21280,-8.76757,0.93134,-0.05986,51.0976,3.6585,5.6707,0.00,0.00,0.00,5,S01
21300,-8.87770,0.57461,0.25379,45.6098,3.1707,0.8537,0.00,0.00,0.00,5,S01
21320,-8.99741,0.32082,0.52194,42.0122,4.6341,-1.5244,0.00,0.00,0.00,5,S01
21340,-9.08360,0.03352,0.63686,40.8537,3.5366,-1.4024,0.00,0.00,0.00,5,S01
21360,-9.12670,-0.47645,0.97444,42.8659,0.1829,0.3659,0.00,0.00,0.00,5,S01
21380,-9.44273,-0.25139,0.56982,47.3171,-8.7195,-0.6707,0.00,0.00,0.00,5,S01
21400,-10.18493,2.78446,-0.15802,33.1707,-18.6585,0.7317,0.00,0.00,0.00,5,S01
21420,-10.03170,1.57060,0.99838,19.6951,-23.1098,7.9878,0.00,0.00,0.00,5,S01
21440,-9.97424,-0.46926,2.52109,26.7683,-28.2317,12.1341,0.00,0.00,0.00,5,S01
21460,-10.52491,-2.28886,2.14042,43.4756,-29.5122,12.1341,0.00,0.00,0.00,5,S01
21480,-12.78025,-2.17394,-0.81163,64.0244,-14.5732,15.3659,0.00,0.00,0.00,5,S01
21500,-14.11142,-0.45490,-2.82755,76.6463,11.1585,34.9390,0.00,0.00,0.00,5,S01
21520,-11.31500,-1.05584,-3.14119,70.3659,15.7317,58.8415,0.00,0.00,0.00,5,S01
21540,-7.77158,-1.95367,-3.30160,72.9268,3.9024,58.2927,0.00,0.00,0.00,5,S01
21560,-6.25365,-0.76136,-5.09007,87.0122,1.0976,40.0000,0.00,0.00,0.00,5,S01
21580,-7.79073,2.05422,-5.75806,82.1341,15.6707,20.4268,0.00,0.00,0.00,5,S01
21600,-9.69173,3.02388,-4.66151,53.3537,21.4634,5.5488,0.00,0.00,0.00,5,S01
21620,-10.29746,1.24020,-2.65278,28.9634,3.2927,-8.2927,0.00,0.00,0.00,5,S01
21640,-10.01016,-0.97205,-1.72143,24.4512,-20.7927,-20.8537,0.00,0.00,0.00,5,S01
21660,-9.25838,-2.03268,-1.67834,31.5854,-22.7439,-32.5610,0.00,0.00,0.00,5,S01
21680,-8.75560,-1.62327,-1.31681,41.2195,-14.0244,-40.6707,0.00,0.00,0.00,5,S01
21700,-8.51139,-0.98162,-1.24020,45.3659,-10.1829,-38.7195,0.00,0.00,0.00,5,S01
21720,-8.56167,-0.39265,-0.94332,44.8780,-4.5732,-32.4390,0.00,0.00,0.00,5,S01
21740,-8.55448,-0.18914,-0.88346,48.4146,1.2805,-29.5732,0.00,0.00,0.00,5,S01
21760,-8.46350,-0.07661,-1.14203,53.8415,2.9268,-28.6585,0.00,0.00,0.00,5,S01
21780,-8.65265,0.11492,-0.99599,52.5000,1.5854,-26.5244,0.00,0.00,0.00,5,S01
21800,-8.97826,-0.04070,-0.70390,48.0488,1.8293,-23.2927,0.00,0.00,0.00,5,S01
21820,-8.99023,-0.33279,-0.45969,47.0122,3.5366,-20.4268,0.00,0.00,0.00,5,S01
21840,-8.77714,-0.45969,-0.50996,46.4634,2.8049,-17.8049,0.00,0.00,0.00,5,S01
21860,-8.72208,-0.33758,-0.46687,45.1829,4.2683,-14.1463,0.00,0.00,0.00,5,S01
21880,-8.83460,-0.24900,-0.38068,42.7439,6.4024,-8.8415,0.00,0.00,0.00,5,S01
21900,-8.78911,-0.38068,-0.22984,38.6585,7.9878,-3.8415,0.00,0.00,0.00,5,S01
21920,-8.54969,-0.71587,0.04788,36.4024,9.8171,-1.2805,0.00,0.00,0.00,5,S01
21940,-8.48744,-1.00317,0.27533,36.7683,12.2561,-0.6707,0.00,0.00,0.00,5,S01
21960,-8.88488,-0.95050,0.24900,37.7439,15.0610,0.0610,0.00,0.00,0.00,5,S01
21980,-9.67976,-0.49560,0.35913,34.5122,14.5732,2.3171,0.00,0.00,0.00,5,S01
22000,-9.89763,-0.27054,0.44053,26.1585,7.6220,5.6098,0.00,0.00,0.00,5,S01
22020,-9.22486,-0.83797,-0.11492,23.3537,1.8293,6.9512,0.00,0.00,0.00,5,S01
22040,-9.13627,-1.10373,-0.56743,27.8049,3.9024,5.1829,0.00,0.00,0.00,5,S01
22060,-10.16099,-0.67516,0.33758,28.0488,1.1585,1.7683,0.00,0.00,0.00,5,S01
22080,-11.06839,0.97205,1.65439,18.5366,-13.6585,-3.7195,0.00,0.00,0.00,5,S01
22100,-10.84813,1.76453,1.82917,2.3780,-26.5244,-6.4024,0.00,0.00,0.00,5,S01
22120,-10.61110,0.48602,0.81882,-7.1341,-27.6829,-3.3537,0.00,0.00,0.00,5,S01
22140,-11.35570,-1.92254,-1.93930,-11.1585,-20.0610,-2.9878,0.00,0.00,0.00,5,S01
22160,-11.43471,-3.70383,-3.16992,-8.4146,-1.8293,-14.4512,0.00,0.00,0.00,5,S01
22180,-10.07480,-2.78685,-3.06697,4.9390,4.2073,-31.7683,0.00,0.00,0.00,5,S01
22200,-8.64067,-0.88107,-2.81079,18.7805,-4.9390,-39.8171,0.00,0.00,0.00,5,S01
22220,-10.15860,0.02634,-2.00155,20.8537,-21.7073,-21.4024,0.00,0.00,0.00,5,S01
22240,-10.51773,-1.01275,-1.47004,22.6220,-24.2683,-8.4146,0.00,0.00,0.00,5,S01
22260,-10.51773,-1.01275,-1.47004,22.6220,-24.2683,-8.4146,0.00,0.00,0.00,5,S01
22280,-9.49301,-1.88903,-1.76213,39.0854,-20.6098,1.2805,0.00,0.00,0.00,5,S01
22300,-8.57842,-1.94649,-2.09971,55.7927,-11.2805,8.3537,0.00,0.00,0.00,5,S01
22320,-8.39407,-1.27132,-2.17394,66.6463,-1.2805,14.2683,0.00,0.00,0.00,5,S01
22340,-8.88249,-0.65841,-1.77171,71.2805,5.3659,18.8415,0.00,0.00,0.00,5,S01
22360,-9.11473,-0.14365,-1.82438,75.9146,4.7561,21.4024,0.00,0.00,0.00,5,S01
22380,-9.01178,0.01437,-1.29287,77.5000,4.6341,24.2683,0.00,0.00,0.00,5,S01
22400,-8.77475,0.12929,-1.29287,79.3293,2.8659,25.0610,0.00,0.00,0.00,5,S01
22420,-8.63589,-0.03112,-1.07500,77.3781,4.2073,23.7805,0.00,0.00,0.00,5,S01
22440,-8.95671,-0.27294,-0.94092,76.5854,8.5976,21.5244,0.00,0.00,0.00,5,S01
22460,-8.94474,-0.19872,-0.65122,72.8049,8.7805,20.8537,0.00,0.00,0.00,5,S01
22480,-8.65504,0.20590,-0.41659,68.1707,4.6951,19.3902,0.00,0.00,0.00,5,S01
22500,-8.45153,0.59616,-0.26336,60.9146,0.6098,16.5244,0.00,0.00,0.00,5,S01
22520,-8.58561,0.67516,0.00000,53.2927,-0.1829,12.9878,0.00,0.00,0.00,5,S01
22540,-8.66940,0.63446,0.32082,47.8049,0.8537,9.4512,0.00,0.00,0.00,5,S01
22560,-8.52336,0.50039,0.59376,43.5976,3.5366,7.3171,0.00,0.00,0.00,5,S01
22580,-8.66701,0.31843,0.79727,41.7073,6.7683,5.6707,0.00,0.00,0.00,5,S01
22600,-8.95431,0.16999,0.89783,42.0122,7.1951,4.0854,0.00,0.00,0.00,5,S01
22620,-9.59117,0.53391,1.18752,43.4756,-1.0366,0.6098,0.00,0.00,0.00,5,S01
22640,-10.11550,0.83797,0.93613,45.1829,-10.5488,-1.0976,0.00,0.00,0.00,5,S01
22660,-9.54329,1.41976,0.00239,44.1463,-19.1463,0.3049,0.00,0.00,0.00,5,S01
22680,-8.92798,1.50356,-0.03831,37.0732,-20.0610,4.1463,0.00,0.00,0.00,5,S01
22700,-8.65504,0.62968,1.07500,35.6707,-17.7439,8.9024,0.00,0.00,0.00,5,S01
22720,-8.81066,-0.41180,2.01592,45.6707,-15.9756,11.5854,0.00,0.00,0.00,5,S01
22740,-10.61828,-0.92416,0.96007,61.5244,-13.1707,11.2195,0.00,0.00,0.00,5,S01
22760,-13.10825,0.47405,-2.34392,71.8293,-2.0732,15.9756,0.00,0.00,0.00,5,S01
22780,-13.69723,1.52989,-3.21541,62.6829,14.6341,34.3293,0.00,0.00,0.00,5,S01
22800,-11.80102,0.04070,-2.55701,48.0488,7.5610,49.5122,0.00,0.00,0.00,5,S01
22820,-9.39485,-1.96085,-2.63841,61.5244,-8.2927,44.6341,0.00,0.00,0.00,5,S01
22840,-8.67419,-1.36709,-4.20901,87.9268,-14.0244,28.2927,0.00,0.00,0.00,5,S01
22860,-9.82341,0.90022,-4.11563,85.3659,-7.1951,15.1220,0.00,0.00,0.00,5,S01
22880,-10.41717,1.99437,-3.19626,64.2683,-1.9512,6.5854,0.00,0.00,0.00,5,S01
22900,-9.81144,1.12288,-2.41096,49.0854,-3.6585,-4.0854,0.00,0.00,0.00,5,S01
22920,-8.82742,-0.10056,-2.03747,43.8415,-8.4756,-15.8537,0.00,0.00,0.00,5,S01
22940,-8.16423,-0.63686,-1.82917,42.9878,-8.0488,-25.1829,0.00,0.00,0.00,5,S01
22960,-7.90565,-0.28970,-1.67355,41.8293,-3.8415,-30.7317,0.00,0.00,0.00,5,S01
22980,-8.11156,0.11013,-1.47004,39.0854,1.7683,-31.6463,0.00,0.00,0.00,5,S01
23000,-8.47069,0.33040,-1.20668,36.6463,7.1951,-29.5732,0.00,0.00,0.00,5,S01
23020,-8.69335,0.14605,-1.15401,34.6341,6.1585,-26.7683,0.00,0.00,0.00,5,S01
23040,-8.83221,-0.07661,-1.05345,32.4390,1.6463,-22.9268,0.00,0.00,0.00,5,S01
23060,-9.01896,-0.41420,-0.74939,31.0976,-0.4268,-18.1707,0.00,0.00,0.00,5,S01
23080,-9.17698,-0.67277,-0.54109,32.5610,-0.6707,-13.9024,0.00,0.00,0.00,5,S01
23100,-9.11712,-0.75896,-0.39504,32.7439,-2.8659,-10.4878,0.00,0.00,0.00,5,S01
23120,-9.04051,-0.62249,-0.35195,32.3780,-4.2683,-8.0488,0.00,0.00,0.00,5,S01
23140,-9.10994,-0.24181,-0.40701,29.4512,-4.5122,-6.3415,0.00,0.00,0.00,5,S01
23160,-9.18416,0.22505,-0.49081,22.3780,-6.0366,-6.0976,0.00,0.00,0.00,5,S01
23180,-9.31105,0.56743,-0.19393,11.5854,-10.8537,-7.1951,0.00,0.00,0.00,5,S01
23200,-9.19373,0.39983,0.31603,1.4024,-21.5244,-8.4146,0.00,0.00,0.00,5,S01
23220,-8.22648,-0.38307,0.66559,-4.0854,-34.0244,-9.0854,0.00,0.00,0.00,5,S01
23240,-6.64630,-1.11809,0.36152,-3.0488,-37.8049,-9.3293,0.00,0.00,0.00,5,S01
23260,-5.09726,-1.13006,-0.38307,-1.2195,-28.0488,-8.7195,0.00,0.00,0.00,5,S01
23280,-3.73495,-0.99599,0.38547,-6.5854,3.5976,-6.1585,0.00,0.00,0.00,5,S01
23300,-4.00789,-1.13246,0.43814,6.4634,7.0122,-6.9512,0.00,0.00,0.00,5,S01
23320,-4.00789,-1.13246,0.43814,6.4634,7.0122,-6.9512,0.00,0.00,0.00,5,S01
23340,-4.40773,-0.65362,-0.80924,19.0854,16.2195,-4.6951,0.00,0.00,0.00,5,S01
23360,-5.20978,-0.00718,-1.47243,17.1341,34.0244,2.1951,0.00,0.00,0.00,5,S01
23380,-6.32309,0.10774,-0.31843,4.9390,38.6585,9.6951,0.00,0.00,0.00,5,S01
23400,-7.23767,-0.90980,1.49638,-4.8171,18.4756,12.3780,0.00,0.00,0.00,5,S01
23420,-7.86735,-1.91057,1.86748,1.0976,-10.3049,7.0732,0.00,0.00,0.00,5,S01
23440,-8.69574,-2.11647,-0.65601,11.8293,-20.8537,-0.7927,0.00,0.00,0.00,5,S01
23460,-10.47224,0.50996,-3.95522,13.5366,-4.0244,-7.8659,0.00,0.00,0.00,5,S01
23480,-13.09628,3.35428,-2.38941,-14.5122,10.6098,-5.7927,0.00,0.00,0.00,5,S01
23500,-18.25100,0.09816,-5.25048,-39.3902,-16.7073,-2.3780,0.00,0.00,0.00,5,S01
23520,-19.94609,-0.67995,-1.07260,-10.2439,-8.9024,-42.3780,0.00,0.00,0.00,5,S01
23540,-17.80568,2.27210,-0.12210,20.6707,-33.1098,-65.2439,0.00,0.00,0.00,5,S01
23560,-12.33732,1.68552,-1.33118,24.6341,-65.7317,-23.7195,0.00,0.00,0.00,5,S01
23580,-11.73638,0.60573,0.32801,6.0976,-50.5488,19.3293,0.00,0.00,0.00,5,S01
23600,-12.89996,-0.15323,0.88346,-6.3415,-2.3171,29.3293,0.00,0.00,0.00,5,S01
23620,-13.89834,0.02634,0.38068,7.5000,35.7317,16.7073,0.00,0.00,0.00,5,S01
23640,-12.96460,1.44610,-0.61292,23.7805,32.8049,9.6951,0.00,0.00,0.00,5,S01
23660,-10.52730,2.45885,-0.81403,18.1707,15.2439,17.1951,0.00,0.00,0.00,5,S01
23680,-7.80031,2.02549,-1.35033,7.8659,12.6829,25.6098,0.00,0.00,0.00,5,S01
23700,-6.56969,0.90740,-1.06781,-1.0366,27.5610,22.1951,0.00,0.00,0.00,5,S01
23720,-7.53695,0.53870,-0.41659,-9.3293,40.3049,9.8171,0.00,0.00,0.00,5,S01
23740,-7.91523,0.29449,-0.17717,-12.3171,40.4878,4.1463,0.00,0.00,0.00,5,S01
23760,-7.54174,0.11253,-0.21548,-7.0122,31.6463,1.2195,0.00,0.00,0.00,5,S01
23780,-7.21134,0.30406,-0.62010,3.4146,17.1341,-6.4024,0.00,0.00,0.00,5,S01
23800,-6.93840,0.44053,-0.32801,6.9512,6.8293,-12.6829,0.00,0.00,0.00,5,S01
23820,-6.67264,0.29928,0.26336,7.3171,0.4878,-16.4024,0.00,0.00,0.00,5,S01
23840,-6.04057,0.41659,-0.24181,19.6951,0.3659,-27.0732,0.00,0.00,0.00,5,S01
23860,-6.55054,1.73819,0.25139,13.9024,4.8780,-26.2805,0.00,0.00,0.00,5,S01
23880,-7.11078,1.32878,0.90261,-6.0976,-4.6951,-14.8780,0.00,0.00,0.00,5,S01
23900,-7.31668,0.37828,-0.12689,-11.2195,-16.1585,-5.8537,0.00,0.00,0.00,5,S01
23920,-7.18261,0.65122,-0.96726,-8.6585,-11.2195,-6.7683,0.00,0.00,0.00,5,S01
23940,-7.32386,1.85072,0.22745,-18.9024,-4.0244,-9.4512,0.00,0.00,0.00,5,S01
23960,-7.57525,2.29365,0.37350,-33.3537,-6.0976,-5.9756,0.00,0.00,0.00,5,S01
23980,-7.65426,2.15239,-0.04310,-38.2317,3.0488,-2.0732,0.00,0.00,0.00,5,S01
24000,-7.39808,1.29526,-0.13647,-41.8293,13.1098,-2.6220,0.00,0.00,0.00,5,S01
24020,-7.86016,1.30005,-0.92177,-38.7195,10.9756,-5.0610,0.00,0.00,0.00,5,S01
24040,-8.86333,0.55306,-2.29365,-39.3293,3.5366,1.1585,0.00,0.00,0.00,5,S01
24060,-10.30943,-0.92656,-2.40138,-32.7439,0.5488,11.4634,0.00,0.00,0.00,5,S01
24080,-17.71949,-1.77171,-3.45244,-10.3049,-19.0854,19.6951,0.00,0.00,0.00,5,S01
24100,-19.79526,-2.86586,-3.76847,2.1951,-35.9756,42.0122,0.00,0.00,0.00,5,S01
24120,-15.43063,-2.46842,-0.62968,-37.3780,-37.8049,50.4878,0.00,0.00,0.00,5,S01
24140,-11.73159,0.40462,-0.78530,-40.4268,-64.5122,23.4756,0.00,0.00,0.00,5,S01
24160,-13.56794,1.39103,-0.54588,-20.5488,-56.8902,-8.5366,0.00,0.00,0.00,5,S01
24180,-14.49689,0.23224,-0.37110,-19.8171,-38.3537,-18.2927,0.00,0.00,0.00,5,S01
24200,-12.24634,-1.62327,0.27294,-22.9268,-31.0366,-16.4024,0.00,0.00,0.00,5,S01
24220,-9.68933,-2.79882,0.08619,-15.9756,-24.8171,-18.9024,0.00,0.00,0.00,5,S01
24240,-8.64546,-2.21464,-0.19154,-8.2317,-8.2927,-22.5000,0.00,0.00,0.00,5,S01
24260,-8.34858,-1.08457,-0.09098,-2.1341,11.2805,-20.3049,0.00,0.00,0.00,5,S01
24280,-8.39647,-0.61292,0.34716,6.0976,23.8415,-14.8780,0.00,0.00,0.00,5,S01
24300,-8.37492,-0.18675,0.59137,10.8537,24.9390,-9.1463,0.00,0.00,0.00,5,S01
24320,-7.06768,-1.48441,-0.49321,29.8171,24.2683,2.2561,0.00,0.00,0.00,5,S01
24340,-7.06768,-1.48441,-0.49321,29.8171,24.2683,2.2561,0.00,0.00,0.00,5,S01
24360,-7.20176,-1.04148,-0.64643,31.8902,31.1585,6.1585,0.00,0.00,0.00,5,S01
24380,-7.49385,-0.41180,-0.69671,27.9268,35.2439,9.1463,0.00,0.00,0.00,5,S01
24400,-8.22408,-0.12450,0.01676,20.7927,30.0000,10.3659,0.00,0.00,0.00,5,S01
24420,-8.80827,-0.19393,0.95529,14.2683,10.4268,10.1829,0.00,0.00,0.00,5,S01
24440,-8.05888,-0.61531,0.82600,12.9268,-9.7561,9.8171,0.00,0.00,0.00,5,S01
24460,-6.48350,-0.90740,0.33758,12.6829,-16.7073,8.2317,0.00,0.00,0.00,5,S01
24480,-5.51145,-1.00078,0.23703,12.5610,-13.0488,3.6585,0.00,0.00,0.00,5,S01
24500,-5.68384,-1.12288,0.22984,15.1829,-3.2317,-1.2195,0.00,0.00,0.00,5,S01
24520,-6.38294,-1.39821,0.03352,22.3780,10.0000,-0.1220,0.00,0.00,0.00,5,S01
24540,-7.33105,-1.46286,1.14203,27.1341,22.3171,4.6341,0.00,0.00,0.00,5,S01
24560,-7.78355,-1.53468,1.42694,30.6098,20.7927,8.2317,0.00,0.00,0.00,5,S01
24580,-7.72609,-1.89621,1.07739,34.9390,14.1463,7.7439,0.00,0.00,0.00,5,S01
24600,-7.21612,-1.62087,0.04070,39.3293,11.2195,2.2561,0.00,0.00,0.00,5,S01
24620,-6.93600,-0.76136,-0.83079,33.9024,15.4268,-4.9390,0.00,0.00,0.00,5,S01
24640,-7.72369,-0.39265,-0.26815,22.4390,15.8537,-11.2195,0.00,0.00,0.00,5,S01
24660,-9.45470,-0.80924,-1.52032,16.0366,3.5366,-19.9390,0.00,0.00,0.00,5,S01
24680,-12.08354,0.24181,-2.18351,18.0488,-6.4634,-31.4634,0.00,0.00,0.00,5,S01
24700,-13.76187,2.11647,-1.13964,13.5366,-30.4268,-31.1585,0.00,0.00,0.00,5,S01
24720,-16.43380,2.43251,-1.75734,-1.9512,-68.2927,-19.0854,0.00,0.00,0.00,5,S01
24740,-17.58302,1.24259,-1.31442,2.2561,-52.8049,-20.3659,0.00,0.00,0.00,5,S01
24760,-15.47612,1.19471,-0.32082,13.4146,-40.6098,-26.9512,0.00,0.00,0.00,5,S01
24780,-12.06438,0.64404,-0.23703,16.2195,-55.3659,-10.3659,0.00,0.00,0.00,5,S01
24800,-11.51850,0.89064,-0.01915,11.4634,-40.4878,12.1341,0.00,0.00,0.00,5,S01
24820,-12.03326,1.49877,0.23224,6.7073,-8.7805,17.8659,0.00,0.00,0.00,5,S01
24840,-11.51850,1.95367,-0.22027,9.2073,8.0488,10.1220,0.00,0.00,0.00,5,S01
24860,-10.06522,2.10690,-0.84994,13.1707,10.1220,7.6829,0.00,0.00,0.00,5,S01
24880,-8.97107,1.99437,-1.39103,13.1098,12.8049,11.3415,0.00,0.00,0.00,5,S01
24900,-8.38210,1.68791,-1.18992,7.0732,22.5610,11.6463,0.00,0.00,0.00,5,S01
24920,-8.07085,1.36709,-0.53870,-1.0976,28.6585,8.0488,0.00,0.00,0.00,5,S01
24940,-8.35098,0.83318,0.04310,-6.0366,24.8780,3.2317,0.00,0.00,0.00,5,S01
24960,-8.37731,0.29928,0.20351,-7.5000,16.8293,-0.4878,0.00,0.00,0.00,5,S01
24980,-7.93438,0.38307,0.10534,-7.2561,14.2073,-4.0244,0.00,0.00,0.00,5,S01
25000,-7.68778,0.51715,0.06225,-5.0000,15.4878,-8.9634,0.00,0.00,0.00,5,S01
25020,-7.94875,0.32561,0.16999,-1.5244,13.5366,-13.7195,0.00,0.00,0.00,5,S01
25040,-7.84580,0.29449,0.28252,3.6585,7.2561,-17.1341,0.00,0.00,0.00,5,S01
25060,-6.12676,0.76854,-0.02873,12.5000,3.5976,-19.6951,0.00,0.00,0.00,5,S01
25080,-5.63834,0.65841,0.01197,13.0488,9.9390,-14.5732,0.00,0.00,0.00,5,S01
25100,-5.20978,0.21069,-0.10295,14.8171,16.7683,-5.5488,0.00,0.00,0.00,5,S01
25120,-5.86819,0.35195,-0.36392,15.6098,18.7195,-0.5488,0.00,0.00,0.00,5,S01
25140,-7.48427,1.58975,0.08859,4.6951,12.3780,-1.8293,0.00,0.00,0.00,5,S01
25160,-8.63110,2.73178,0.18675,-15.1829,-1.6463,-3.2317,0.00,0.00,0.00,5,S01
25180,-8.23127,2.82995,-0.55067,-24.4512,-5.9756,-3.7195,0.00,0.00,0.00,5,S01
25200,-7.63511,2.61686,0.09098,-32.6220,-4.0854,-3.4146,0.00,0.00,0.00,5,S01
25220,-7.73088,1.84832,1.00556,-47.1951,-15.7927,-3.1098,0.00,0.00,0.00,5,S01
25240,-8.79151,1.55144,0.86910,-52.2561,-22.5610,-4.2073,0.00,0.00,0.00,5,S01
25260,-9.95030,0.82121,-0.84515,-49.6341,-18.1098,-1.8293,0.00,0.00,0.00,5,S01
25280,-10.45787,-0.48363,-1.94170,-36.7683,-11.5244,5.7927,0.00,0.00,0.00,5,S01
25300,-12.66772,-1.88663,-0.54348,-25.1829,-18.3537,12.5610,0.00,0.00,0.00,5,S01
25320,-19.38106,-2.65756,-2.25773,-1.0366,-56.0976,25.5488,0.00,0.00,0.00,5,S01
25340,-18.80167,-2.05901,0.63207,-7.4390,-56.8902,52.9878,0.00,0.00,0.00,5,S01
25360,-13.71159,-0.37110,0.23703,-36.2195,-55.7927,55.5488,0.00,0.00,0.00,5,S01
25380,-12.20325,1.24020,0.21548,-39.5122,-35.3659,-8.4756,0.00,0.00,0.00,5,S01
25400,-12.20325,1.24020,0.21548,-39.5122,-35.3659,-8.4756,0.00,0.00,0.00,5,S01
25420,-12.94305,-0.86670,0.83318,-43.9024,-26.4024,-18.7195,0.00,0.00,0.00,5,S01
25440,-11.18571,-2.25294,0.51236,-44.5732,-18.1707,-15.6098,0.00,0.00,0.00,5,S01
25460,-8.99502,-2.50433,0.17957,-42.1341,-6.3415,-14.2073,0.00,0.00,0.00,5,S01
25480,-7.86256,-1.56581,-0.09337,-38.2927,9.8171,-16.7073,0.00,0.00,0.00,5,S01
25500,-7.73806,-0.79248,0.23703,-35.3049,28.5366,-16.5854,0.00,0.00,0.00,5,S01
25520,-7.76918,-0.65841,0.60573,-31.8293,38.0488,-11.4024,0.00,0.00,0.00,5,S01
25540,-7.53934,-0.79727,0.72305,-26.8293,38.9634,-4.0244,0.00,0.00,0.00,5,S01
25560,-7.57286,-0.97444,0.84994,-19.6951,39.3293,1.4024,0.00,0.00,0.00,5,S01
25580,-8.15465,-0.74220,0.53151,-7.8049,39.4512,2.0122,0.00,0.00,0.00,5,S01
25600,-8.85376,-0.65601,0.23463,0.1220,39.0244,1.8902,0.00,0.00,0.00,5,S01
25620,-9.14824,-0.64165,0.36631,0.1829,33.6585,4.6341,0.00,0.00,0.00,5,S01
25640,-8.86812,-0.86191,0.64883,-1.2195,21.8293,11.4024,0.00,0.00,0.00,5,S01
25660,-8.32943,-0.84994,0.46208,1.1585,9.2683,15.9146,0.00,0.00,0.00,5,S01
25680,-7.56328,-0.63925,0.04070,2.0732,5.0000,13.9634,0.00,0.00,0.00,5,S01
25700,-6.67264,-0.79966,-0.15802,4.2073,12.4390,8.8415,0.00,0.00,0.00,5,S01
25720,-6.10521,-1.06303,0.08140,8.5976,21.4024,4.8171,0.00,0.00,0.00,5,S01
25740,-5.50906,-1.04387,-0.05986,12.4390,27.5610,1.8293,0.00,0.00,0.00,5,S01
25760,-5.13796,-0.51954,-0.56743,13.5976,35.0000,-0.8537,0.00,0.00,0.00,5,S01
25780,-6.45237,-0.77333,0.09337,15.9756,40.4268,-1.2805,0.00,0.00,0.00,5,S01
25800,-8.53054,-1.02711,0.96486,26.9512,32.0122,5.2439,0.00,0.00,0.00,5,S01
25820,-9.25598,-1.04387,0.28012,33.1098,18.9634,16.9512,0.00,0.00,0.00,5,S01
25840,-7.76679,-0.57940,-1.01993,25.9756,18.7195,24.5122,0.00,0.00,0.00,5,S01
25860,-6.07648,-0.58179,-0.64643,15.4878,22.0122,19.6951,0.00,0.00,0.00,5,S01
25880,-6.30633,-0.54588,0.19393,14.5732,12.8659,4.3293,0.00,0.00,0.00,5,S01
25900,-7.90326,-0.71587,1.36469,20.0610,-1.5854,-5.8537,0.00,0.00,0.00,5,S01
25920,-8.74841,-1.23541,0.09816,24.8780,-8.9634,-3.9634,0.00,0.00,0.00,5,S01
25940,-9.99579,-0.44532,-2.41336,25.0000,0.1829,-5.1220,0.00,0.00,0.00,5,S01
25960,-11.32936,1.68073,-1.60412,11.4634,6.3415,-14.6951,0.00,0.00,0.00,5,S01
25980,-13.43626,2.43011,0.03831,-8.3537,-21.4634,-18.3537,0.00,0.00,0.00,5,S01
26000,-18.30128,1.00317,-1.97282,-10.6098,-52.1341,-20.6707,0.00,0.00,0.00,5,S01
26020,-19.68513,0.52912,-1.02472,7.6829,-27.6829,-38.1098,0.00,0.00,0.00,5,S01
26040,-16.49844,0.79009,-0.68714,19.3293,-34.4512,-37.8049,0.00,0.00,0.00,5,S01
26060,-12.39239,-0.28730,-0.66798,23.9634,-49.0854,-9.9390,0.00,0.00,0.00,5,S01
26080,-11.68849,0.10295,0.11013,27.2561,-28.9634,12.6220,0.00,0.00,0.00,5,S01
26100,-11.43950,0.76375,0.02155,31.7683,-1.4634,16.7683,0.00,0.00,0.00,5,S01
26120,-10.63026,1.40300,-0.62728,39.6341,14.2073,10.2439,0.00,0.00,0.00,5,S01
26140,-9.09797,2.26731,-1.56341,44.6951,20.9756,8.4756,0.00,0.00,0.00,5,S01
26160,-7.53695,2.11647,-1.82438,41.3415,24.1463,14.3902,0.00,0.00,0.00,5,S01
26180,-7.06050,1.41258,-1.96325,37.6829,28.3537,14.8171,0.00,0.00,0.00,5,S01
26200,-7.48427,0.88825,-1.69749,35.4878,37.8049,8.3537,0.00,0.00,0.00,5,S01
26220,-8.34858,0.53630,-1.27372,31.9512,40.9146,3.2927,0.00,0.00,0.00,5,S01
26240,-8.71011,0.41659,-1.24020,29.2073,32.9878,2.5000,0.00,0.00,0.00,5,S01
26260,-8.67180,0.01437,-1.41258,27.0732,18.2317,-2.5000,0.00,0.00,0.00,5,S01
26280,-8.48984,-0.38786,-1.66636,33.5366,15.9146,-6.4024,0.00,0.00,0.00,5,S01
26300,-8.46590,-0.38068,-1.53708,44.5732,16.7073,-7.1951,0.00,0.00,0.00,5,S01
26320,-9.14585,0.26336,-1.00317,51.7073,14.6341,-4.2073,0.00,0.00,0.00,5,S01
26340,-10.30704,1.21625,0.11971,48.9634,5.9756,0.2439,0.00,0.00,0.00,5,S01
26360,-10.44830,1.41737,0.45729,41.2195,-10.4268,3.5976,0.00,0.00,0.00,5,S01
26380,-9.50977,1.03669,-0.01437,36.8293,-19.5122,0.3049,0.00,0.00,0.00,5,S01
26400,-8.38689,0.65122,-0.46448,33.2927,-15.7317,-8.2927,0.00,0.00,0.00,5,S01
26420,-7.74045,0.52912,-0.77093,30.5488,-5.1829,-13.2927,0.00,0.00,0.00,5,S01
26440,-7.30710,0.51715,-1.30963,27.3171,15.4268,-7.9878,0.00,0.00,0.00,5,S01
26460,-7.30710,0.51715,-1.30963,27.3171,15.4268,-7.9878,0.00,0.00,0.00,5,S01
26480,-6.71813,0.70629,-1.52511,26.4024,20.5488,-3.8415,0.00,0.00,0.00,5,S01
26500,-6.11240,1.27611,-1.70228,21.7073,23.4756,-0.3659,0.00,0.00,0.00,5,S01
26520,-6.34224,2.74136,-1.31921,9.3902,24.8780,1.3415,0.00,0.00,0.00,5,S01
26540,-7.34781,3.46920,-0.55067,-15.1220,16.5244,4.6341,0.00,0.00,0.00,5,S01
26560,-7.83622,2.84192,0.10295,-34.6951,-1.2195,9.1463,0.00,0.00,0.00,5,S01
26580,-7.44118,1.69749,0.18196,-42.1341,-20.4878,7.4390,0.00,0.00,0.00,5,S01
26600,-6.72531,1.21386,-0.28970,-40.9756,-29.2073,-4.3293,0.00,0.00,0.00,5,S01
26620,-6.53617,1.67834,-0.25618,-43.2927,-25.9756,-16.2805,0.00,0.00,0.00,5,S01
26640,-7.38611,2.54504,0.49321,-55.2439,-24.9390,-16.4634,0.00,0.00,0.00,5,S01
26660,-7.64708,2.17394,0.20590,-68.1098,-31.5244,-9.1463,0.00,0.00,0.00,5,S01
26680,-7.63032,1.70946,-0.77572,-68.1707,-30.2439,-5.1220,0.00,0.00,0.00,5,S01
26700,-8.65504,1.13485,-2.91374,-69.5122,-22.0122,-2.0122,0.00,0.00,0.00,5,S01
26720,-9.91918,-1.34315,-1.99198,-66.4024,-14.0854,3.4756,0.00,0.00,0.00,5,S01
26740,-15.44499,-2.25055,0.33279,-44.0854,-36.0366,4.7561,0.00,0.00,0.00,5,S01
26760,-20.94687,-2.94487,-1.90100,-25.6707,-78.9024,15.9146,0.00,0.00,0.00,5,S01
26780,-18.23424,-3.22738,2.10211,-40.5488,-71.2195,39.4512,0.00,0.00,0.00,5,S01
26800,-13.01967,-0.14365,-0.60094,-32.3780,-81.0366,25.5488,0.00,0.00,0.00,5,S01
26820,-11.81539,1.46765,0.19154,-15.4268,-61.7073,3.4756,0.00,0.00,0.00,5,S01
26840,-12.01171,0.20830,0.09337,-16.3415,-36.9512,-5.9756,0.00,0.00,0.00,5,S01
26860,-12.30620,-1.54905,0.65841,-20.1829,-7.3780,-11.1585,0.00,0.00,0.00,5,S01
26880,-11.41316,-2.29125,0.57461,-11.0976,9.4512,-18.6585,0.00,0.00,0.00,5,S01
26900,-9.98143,-1.08457,-0.12450,-4.9390,16.5244,-26.8293,0.00,0.00,0.00,5,S01
26920,-8.79630,0.48123,-0.48123,-8.3537,26.0976,-27.4390,0.00,0.00,0.00,5,S01
26940,-7.97509,0.79727,-0.36392,-15.6098,35.9146,-22.3171,0.00,0.00,0.00,5,S01
26960,-7.85059,-0.20590,0.15802,-19.7561,35.9146,-16.8293,0.00,0.00,0.00,5,S01
26980,-7.96790,-1.16598,0.51475,-20.0000,27.8659,-11.0976,0.00,0.00,0.00,5,S01
27000,-7.87453,-1.30005,0.37828,-15.0610,22.7439,-7.4390,0.00,0.00,0.00,5,S01
27020,-7.62314,-1.04387,0.23463,-9.6951,19.5732,-4.7561,0.00,0.00,0.00,5,S01
27040,-7.54174,-0.74699,0.02155,-7.1951,14.5732,0.0610,0.00,0.00,0.00,5,S01
27060,-7.12993,-0.77572,0.08380,-7.5000,10.6707,6.6463,0.00,0.00,0.00,5,S01
27080,-5.82030,-1.14443,0.16041,-8.1098,7.9878,10.2439,0.00,0.00,0.00,5,S01
27100,-5.42766,-0.80206,-0.04070,-6.4024,8.8415,7.3171,0.00,0.00,0.00,5,S01
27120,-6.16746,-0.06225,-0.84276,-5.0000,15.5488,7.5610,0.00,0.00,0.00,5,S01
27140,-6.61278,-0.47166,-0.28012,-9.7561,25.3659,16.2805,0.00,0.00,0.00,5,S01
27160,-7.07487,-1.41497,1.01514,-7.6220,25.6707,19.6341,0.00,0.00,0.00,5,S01
27180,-7.21852,-2.25294,0.59616,4.7561,17.3171,13.4756,0.00,0.00,0.00,5,S01
27200,-6.16507,-2.74854,-0.18675,17.9268,14.5122,3.2317,0.00,0.00,0.00,5,S01
27220,-5.49230,-1.79565,-0.93613,32.7439,17.2561,-9.7561,0.00,0.00,0.00,5,S01
27240,-6.80911,-0.44532,0.35434,34.7561,15.6098,-15.3659,0.00,0.00,0.00,5,S01
27260,-8.80827,-0.07183,1.73580,30.1220,-1.3415,-7.4390,0.00,0.00,0.00,5,S01
27280,-8.84897,-0.69671,-0.09816,27.0732,-12.3171,6.2805,0.00,0.00,0.00,5,S01
27300,-8.40844,-1.04866,-2.34871,16.6463,2.2561,6.8293,0.00,0.00,0.00,5,S01
27320,-9.55047,0.34477,-1.65679,6.4634,15.1829,-14.0854,0.00,0.00,0.00,5,S01
27340,-12.18649,1.71904,0.47166,-2.2561,-8.4756,-34.2073,0.00,0.00,0.00,5,S01
27360,-17.17122,-0.24660,-2.55701,3.4146,-55.0000,-32.8049,0.00,0.00,0.00,5,S01
27380,-18.15044,-0.76614,-1.24977,29.8780,-27.8659,-45.9146,0.00,0.00,0.00,5,S01
27400,-16.25184,1.60412,-0.84515,41.4634,-3.7195,-46.5854,0.00,0.00,0.00,5,S01
27420,-13.75708,1.16598,-1.41258,36.3415,-16.2805,-6.0976,0.00,0.00,0.00,5,S01
27440,-14.52562,0.77093,0.25379,9.6951,-22.5000,26.8902,0.00,0.00,0.00,5,S01
27460,-14.47295,0.94571,0.46926,-4.8171,-7.2561,31.8902,0.00,0.00,0.00,5,S01
27480,-11.29106,3.11964,-1.00317,6.6463,18.8415,11.8293,0.00,0.00,0.00,5,S01
27500,-8.51378,2.61447,-1.43652,1.8293,18.7805,18.5366,0.00,0.00,0.00,5,S01
27520,-6.68701,1.22583,-1.76453,-5.9756,32.5610,25.1220,0.00,0.00,0.00,5,S01
27540,-6.82587,0.54588,-0.87628,-12.8659,52.8049,22.4390,0.00,0.00,0.00,5,S01
27560,-7.75003,0.42617,-0.47405,-13.9024,52.9878,11.8902,0.00,0.00,0.00,5,S01
27580,-8.32943,0.20830,-0.13647,-12.7439,34.3293,2.5610,0.00,0.00,0.00,5,S01
27600,-7.92720,0.03591,-0.80445,-9.2073,12.8659,-2.0732,0.00,0.00,0.00,5,S01
27620,-7.33823,-0.11253,-1.21147,-4.1463,7.9268,-6.8293,0.00,0.00,0.00,5,S01
27640,-7.59201,-0.10774,-0.82121,2.9268,8.5976,-17.1951,0.00,0.00,0.00,5,S01
27660,-8.13310,0.11732,-0.62249,9.1463,5.6098,-26.4634,0.00,0.00,0.00,5,S01
27680,-8.23845,0.17238,-0.45250,9.8171,3.9634,-27.1341,0.00,0.00,0.00,5,S01
27700,-8.27915,0.14126,-0.25379,9.8780,2.9268,-24.3902,0.00,0.00,0.00,5,S01
27720,-8.33422,0.35674,-0.51954,12.9878,1.7073,-21.1585,0.00,0.00,0.00,5,S01
27740,-7.68778,0.80924,-1.11570,16.0976,4.4512,-15.3659,0.00,0.00,0.00,5,S01
27760,-6.79474,1.43173,-1.37906,15.9146,10.9146,-8.1707,0.00,0.00,0.00,5,S01
27780,-6.84502,2.28407,-1.01993,10.3049,14.8171,-0.6707,0.00,0.00,0.00,5,S01
27800,-6.95755,2.00395,-0.51236,0.6098,9.0854,6.7683,0.00,0.00,0.00,5,S01
27820,-6.78517,1.76213,-0.15802,-5.7927,-0.6707,11.2195,0.00,0.00,0.00,5,S01
27840,-7.04614,1.91057,0.59137,-17.7439,-12.1951,10.6098,0.00,0.00,0.00,5,S01
27860,-7.46751,1.92973,0.39744,-30.0610,-22.5000,5.0610,0.00,0.00,0.00,5,S01
27880,-8.01818,2.44687,0.79487,-39.4512,-21.2805,-3.7805,0.00,0.00,0.00,5,S01
27900,-8.41562,2.25773,0.88346,-52.6220,-22.0732,-11.2195,0.00,0.00,0.00,5,S01
27920,-8.11634,1.42934,-0.37350,-56.3415,-16.5244,-16.8293,0.00,0.00,0.00,5,S01
27940,-7.10360,0.39504,-1.19231,-55.9756,0.1829,-19.0244,0.00,0.00,0.00,5,S01
27960,-7.73088,0.83318,-1.04148,-57.6220,10.5488,-14.6951,0.00,0.00,0.00,5,S01
27980,-10.59913,1.05345,0.33998,-74.1463,-1.2195,0.3049,0.00,0.00,0.00,5,S01
28000,-12.45224,-0.96726,1.20907,-81.0976,-30.0000,16.0366,0.00,0.00,0.00,5,S01
28020,-14.59266,-1.55863,0.18914,-54.6951,-39.8780,11.8293,0.00,0.00,0.00,5,S01
28040,-17.88229,-1.38864,-5.56412,-25.7927,-26.1585,11.2805,0.00,0.00,0.00,5,S01
28060,-17.59259,-1.58257,-2.13563,-36.8902,8.5976,24.6951,0.00,0.00,0.00,5,S01
28080,-13.94862,-1.22823,-2.18591,-57.8049,-17.6220,17.7439,0.00,0.00,0.00,5,S01
28100,-11.01812,-0.87628,-2.19788,-45.9146,-45.1220,-4.5122,0.00,0.00,0.00,5,S01
28120,-10.93432,-1.15640,-1.62806,-30.4878,-42.4390,-22.7439,0.00,0.00,0.00,5,S01
28140,-10.89601,-1.84114,-1.15161,-22.8659,-17.7439,-23.9634,0.00,0.00,0.00,5,S01
28160,-10.27831,-1.78607,-0.77093,-16.7683,3.6585,-18.5976,0.00,0.00,0.00,5,S01
28180,-9.41640,-1.24498,-0.90740,-16.0976,9.7561,-14.8171,0.00,0.00,0.00,5,S01
28200,-8.72926,-0.41180,-0.89304,-17.1951,13.2927,-14.2073,0.00,0.00,0.00,5,S01
28220,-8.44914,-0.30406,-0.49081,-15.3659,15.8537,-14.5732,0.00,0.00,0.00,5,S01
28240,-8.48266,-0.80206,-0.19154,-12.8049,13.2317,-12.9878,0.00,0.00,0.00,5,S01
28260,-8.29591,-1.35272,-0.02634,-9.3293,10.2439,-7.8659,0.00,0.00,0.00,5,S01
28280,-8.03255,-1.35033,-0.27054,-3.1098,9.9390,-1.8902,0.00,0.00,0.00,5,S01
28300,-7.95593,-1.14922,-0.48123,1.8902,11.5854,2.8049,0.00,0.00,0.00,5,S01
28320,-7.97269,-1.08697,-0.59616,6.0366,12.2561,5.8537,0.00,0.00,0.00,5,S01
28340,-8.05170,-1.14203,-0.42138,8.4146,12.0122,8.0488,0.00,0.00,0.00,5,S01
28360,-8.10198,-1.04148,-0.15802,10.9146,9.2073,10.0000,0.00,0.00,0.00,5,S01
28380,-7.85538,-0.82361,0.10534,12.1341,4.5122,12.9268,0.00,0.00,0.00,5,S01
28400,-7.12993,-0.64643,0.10295,11.4634,0.6098,16.1585,0.00,0.00,0.00,5,S01
28420,-6.16986,-0.30406,-0.22505,8.1098,2.3780,17.0122,0.00,0.00,0.00,5,S01
28440,-5.96396,0.24181,-0.38786,2.1951,10.6098,15.4268,0.00,0.00,0.00,5,S01
28460,-6.21535,0.55545,-0.97444,-4.8171,18.7195,15.4268,0.00,0.00,0.00,5,S01
28480,-6.38773,-0.63207,-0.02155,-11.4024,25.0000,17.3780,0.00,0.00,0.00,5,S01
28500,-7.10599,-1.93451,1.65439,-4.3293,18.3537,14.6341,0.00,0.00,0.00,5,S01
28520,-7.35499,-1.87705,1.17795,10.3049,4.2073,8.4756,0.00,0.00,0.00,5,S01
28540,-7.31668,-0.24660,-0.63925,28.7805,12.1951,4.3902,0.00,0.00,0.00,5,S01
28560,-7.31668,-0.24660,-0.63925,28.7805,12.1951,4.3902,0.00,0.00,0.00,5,S01
28580,-8.34379,-1.23062,1.16119,30.7317,11.0366,8.8415,0.00,0.00,0.00,5,S01
28600,-8.78911,-1.75256,0.50278,36.9512,-4.6951,10.5488,0.00,0.00,0.00,5,S01
28620,-8.80348,-1.44370,-1.98240,37.2561,-8.7195,2.6220,0.00,0.00,0.00,5,S01
28640,-10.26873,-0.43096,-2.77488,42.1951,3.2317,-11.7683,0.00,0.00,0.00,5,S01
28660,-11.81299,0.41180,-1.20907,51.0366,-6.9512,-20.4878,0.00,0.00,0.00,5,S01
28680,-14.45858,0.30167,0.22505,45.9146,-49.5122,-15.3659,0.00,0.00,0.00,5,S01
28700,-17.10418,2.15239,-0.48602,45.6707,-19.3293,-21.1585,0.00,0.00,0.00,5,S01
28720,-14.47056,2.90656,-1.41258,27.1341,-27.4390,-8.1707,0.00,0.00,0.00,5,S01
28740,-13.17529,2.32956,-0.56982,1.9512,-31.1585,11.1585,0.00,0.00,0.00,5,S01
28760,-13.10586,1.68552,0.10295,-17.5610,-18.7195,18.8415,0.00,0.00,0.00,5,S01
28780,-12.48576,1.53708,0.05746,-24.0854,-2.0122,15.3049,0.00,0.00,0.00,5,S01
28800,-10.90559,1.72622,-0.44053,-21.2195,7.3780,10.9756,0.00,0.00,0.00,5,S01
28820,-8.76757,0.93374,-0.63207,-15.0000,11.7073,12.5610,0.00,0.00,0.00,5,S01
28840,-7.45794,-0.04310,-0.82121,-5.6707,19.6951,14.6951,0.00,0.00,0.00,5,S01
28860,-7.30471,-0.39744,-0.70390,3.4146,32.9268,14.3293,0.00,0.00,0.00,5,S01
28880,-7.59920,-0.37589,-0.46687,6.4024,40.3659,11.9512,0.00,0.00,0.00,5,S01
28900,-7.52258,0.20590,-0.54348,8.5976,38.9024,8.4146,0.00,0.00,0.00,5,S01
28920,-7.20415,0.42856,-0.81163,9.8171,35.8537,6.0976,0.00,0.00,0.00,5,S01
28940,-6.97192,0.19632,-1.18034,13.3537,35.0000,1.7073,0.00,0.00,0.00,5,S01
28960,-7.24007,-0.05746,-0.92177,21.0366,33.2927,-6.8293,0.00,0.00,0.00,5,S01
28980,-7.29513,0.02155,-0.83079,32.1951,21.2805,-16.8293,0.00,0.00,0.00,5,S01
29000,-6.55054,0.01676,-0.80445,41.0976,5.0000,-20.9146,0.00,0.00,0.00,5,S01
29020,-6.00466,-0.20111,-0.98641,43.3537,-5.0000,-17.4390,0.00,0.00,0.00,5,S01
29040,-5.92086,-0.10056,-0.95768,43.5366,-1.2195,-13.4756,0.00,0.00,0.00,5,S01
29060,-6.22014,0.90501,-0.58419,41.0976,8.5366,-10.9756,0.00,0.00,0.00,5,S01
29080,-6.54814,1.64242,-0.58179,33.9024,12.3780,-6.0366,0.00,0.00,0.00,5,S01
29100,-7.02459,2.08774,-0.46448,24.3902,9.6341,0.6707,0.00,0.00,0.00,5,S01
29120,-7.83383,2.16675,0.00239,6.0366,-4.9390,5.6098,0.00,0.00,0.00,5,S01
29140,-8.32703,1.64482,-0.56264,-10.5488,-23.6585,4.2073,0.00,0.00,0.00,5,S01
29160,-8.30309,1.87227,-0.30885,-15.4878,-25.9756,-3.5976,0.00,0.00,0.00,5,S01
29180,-8.44674,2.48279,1.32639,-28.3537,-33.4756,-8.1707,0.00,0.00,0.00,5,S01
29200,-8.73884,2.54504,0.32322,-42.3780,-51.0976,-5.8537,0.00,0.00,0.00,5,S01
29220,-9.39245,0.92177,-2.99993,-42.2561,-36.3415,2.5000,0.00,0.00,0.00,5,S01
29240,-10.05565,-2.00155,-2.80122,-30.6707,-1.8293,9.9390,0.00,0.00,0.00,5,S01
29260,-14.73392,-2.78685,-1.74537,-12.1951,-8.5976,8.3537,0.00,0.00,0.00,5,S01
29280,-19.62527,-2.01113,-2.30083,-1.3415,-51.3415,14.2683,0.00,0.00,0.00,5,S01
29300,-17.27895,-0.60573,1.19231,-25.5488,-63.5366,32.5610,0.00,0.00,0.00,5,S01
29320,-13.96298,2.34153,-0.85473,-28.1707,-61.7073,25.1220,0.00,0.00,0.00,5,S01
29340,-13.43865,2.00874,-0.24181,-22.0122,-39.8171,11.2195,0.00,0.00,0.00,5,S01
29360,-13.06755,-0.27773,-0.11253,-26.5244,-29.2073,-0.5488,0.00,0.00,0.00,5,S01
29380,-11.49696,-2.11887,-0.02873,-26.1585,-15.1220,-13.3537,0.00,0.00,0.00,5,S01
29400,-9.76116,-2.24097,-0.02873,-17.6829,2.6220,-24.3902,0.00,0.00,0.00,5,S01
29420,-8.57124,-0.96007,-0.37350,-8.8415,15.9756,-28.9024,0.00,0.00,0.00,5,S01
29440,-8.20014,0.06225,-0.24421,-8.7805,27.9878,-23.9024,0.00,0.00,0.00,5,S01
29460,-8.28633,-0.19154,0.21787,-12.5000,33.9024,-15.8537,0.00,0.00,0.00,5,S01
29480,-8.25042,-0.95050,0.40223,-10.3049,31.1585,-9.8780,0.00,0.00,0.00,5,S01
29500,-7.94636,-1.23062,0.16759,-2.9878,28.0488,-6.4024,0.00,0.00,0.00,5,S01
29520,-7.69018,-1.04387,-0.00479,2.2561,25.4268,-5.0000,0.00,0.00,0.00,5,S01
29540,-7.87692,-0.67038,0.00479,5.0610,22.8659,-2.8659,0.00,0.00,0.00,5,S01
29560,-7.97987,-0.58897,0.18675,6.3415,18.6585,1.8293,0.00,0.00,0.00,5,S01
29580,-8.03973,-0.25618,0.40941,1.0366,-1.2805,8.6585,0.00,0.00,0.00,5,S01
29600,-8.03973,-0.25618,0.40941,1.0366,-1.2805,8.6585,0.00,0.00,0.00,5,S01
29620,-7.75961,-0.81163,0.30885,-2.0122,-12.3780,11.5854,0.00,0.00,0.00,5,S01
29640,-6.96473,-1.71664,0.41899,-1.0976,-10.9756,12.8659,0.00,0.00,0.00,5,S01
29660,-6.29914,-1.68552,-0.09098,6.9512,0.8537,9.9390,0.00,0.00,0.00,5,S01
29680,-5.59285,-1.80283,-0.23703,12.9268,14.0244,6.3415,0.00,0.00,0.00,5,S01
29700,-5.18345,-2.55461,0.32082,26.1585,25.1220,4.0244,0.00,0.00,0.00,5,S01
29720,-6.15070,-2.38223,0.25618,49.0854,28.8415,1.2195,0.00,0.00,0.00,5,S01
29740,-7.49385,-1.25456,-0.68953,62.0732,28.1707,3.1098,0.00,0.00,0.00,5,S01
29760,-7.38132,-0.10056,-1.18274,55.3659,32.0122,10.4878,0.00,0.00,0.00,5,S01
29780,-7.42442,0.05746,0.43096,40.3659,34.7561,12.9268,0.00,0.00,0.00,5,S01
29800,-8.26718,-0.29688,1.42934,35.8537,14.9390,4.4512,0.00,0.00,0.00,5,S01
29820,-8.48505,-0.62728,-0.18675,36.6463,-8.4146,-4.9390,0.00,0.00,0.00,5,S01
29840,-9.07881,-0.01676,-2.65038,34.8780,-4.5732,-11.8293,0.00,0.00,0.00,5,S01
29860,-10.58955,1.10133,-2.44687,30.7927,8.9634,-18.2927,0.00,0.00,0.00,5,S01
29880,-12.68687,1.83635,-0.73981,29.0854,-9.1463,-19.1463,0.00,0.00,0.00,5,S01
29900,-15.78018,-0.01197,-1.91297,52.1951,-32.8049,-21.4634,0.00,0.00,0.00,5,S01
29920,-14.64773,2.78685,-1.37427,63.6585,-11.3415,-28.0488,0.00,0.00,0.00,5,S01
29940,-14.69561,3.32555,-0.83558,39.7561,-24.9390,-10.8537,0.00,0.00,0.00,5,S01
29960,-15.35402,2.29604,-0.09337,15.7317,-22.8659,11.3415,0.00,0.00,0.00,5,S01
29980,-14.31972,1.55863,-0.22027,7.6220,-8.0488,11.0366,0.00,0.00,0.00,5,S01
# DONE 1500 samples in 30.0s
