timestamp,ax,ay,az,gx,gy,gz,mx,my,mz,label,subject_id
0,-9.35415,0.43814,0.72544,0.0610,0.0610,-1.2805,0.00,0.00,0.00,6,S01
20,-9.32302,0.47884,0.72305,-0.4268,-0.1220,-1.3415,0.00,0.00,0.00,6,S01
40,-9.31823,0.45011,0.71826,-0.6098,0.0610,-1.4634,0.00,0.00,0.00,6,S01
60,-9.34218,0.42138,0.73502,-0.3659,0.4878,-1.4634,0.00,0.00,0.00,6,S01
80,-9.34696,0.40941,0.72065,-0.3659,0.3659,-1.3415,0.00,0.00,0.00,6,S01
100,-9.31584,0.41420,0.72784,-0.4268,-0.1220,-1.2805,0.00,0.00,0.00,6,S01
120,-9.30147,0.41420,0.72065,-0.3659,-0.3049,-1.2195,0.00,0.00,0.00,6,S01
140,-9.31105,0.41420,0.72065,-0.0610,-0.0610,-1.2195,0.00,0.00,0.00,6,S01
160,-9.31584,0.43574,0.70868,0.0000,0.1220,-1.3415,0.00,0.00,0.00,6,S01
180,-9.29669,0.44053,0.67995,-0.2439,0.3049,-1.5244,0.00,0.00,0.00,6,S01
200,-9.29190,0.42138,0.69432,-0.3659,0.5488,-1.5854,0.00,0.00,0.00,6,S01
220,-9.32781,0.38307,0.71826,0.0000,0.7317,-1.5244,0.00,0.00,0.00,6,S01
240,-9.34457,0.40223,0.72065,0.4268,0.6098,-1.4634,0.00,0.00,0.00,6,S01
260,-9.31344,0.45969,0.69911,0.2439,0.3049,-1.5244,0.00,0.00,0.00,6,S01
280,-9.28711,0.47166,0.68953,0.0000,0.3659,-1.5854,0.00,0.00,0.00,6,S01
300,-9.29669,0.44053,0.71587,0.1829,0.7317,-1.5854,0.00,0.00,0.00,6,S01
320,-9.32781,0.39983,0.71108,0.6098,1.0366,-1.5244,0.00,0.00,0.00,6,S01
340,-9.32542,0.44053,0.67516,0.7927,1.1585,-1.5244,0.00,0.00,0.00,6,S01
360,-9.28711,0.45250,0.70868,0.4268,1.2195,-1.6463,0.00,0.00,0.00,6,S01
380,-9.28711,0.43096,0.66798,0.7317,1.3415,-1.7073,0.00,0.00,0.00,6,S01
400,-9.32781,0.43096,0.70150,1.1585,2.1951,-1.7073,0.00,0.00,0.00,6,S01
420,-9.34457,0.45490,0.73263,1.1585,2.4390,-1.6463,0.00,0.00,0.00,6,S01
440,-9.30387,0.47884,0.65362,0.9146,2.1341,-1.7073,0.00,0.00,0.00,6,S01
460,-9.29190,0.45729,0.63686,0.5488,2.5610,-1.7683,0.00,0.00,0.00,6,S01
480,-9.31823,0.41420,0.64643,0.7317,3.1707,-1.7683,0.00,0.00,0.00,6,S01
500,-9.33020,0.42856,0.62728,1.0366,2.9878,-1.7073,0.00,0.00,0.00,6,S01
520,-9.34218,0.45011,0.62728,0.6707,2.4390,-1.5854,0.00,0.00,0.00,6,S01
540,-9.34218,0.45250,0.63925,0.0610,1.8902,-1.5244,0.00,0.00,0.00,6,S01
560,-9.33978,0.44053,0.61531,-0.0610,1.7683,-1.5244,0.00,0.00,0.00,6,S01
580,-9.33739,0.43814,0.60334,-0.0610,1.9512,-1.5244,0.00,0.00,0.00,6,S01
600,-9.33499,0.44532,0.62010,-0.3049,2.0122,-1.4024,0.00,0.00,0.00,6,S01
620,-9.32302,0.44772,0.61770,-0.6098,1.6463,-1.2805,0.00,0.00,0.00,6,S01
640,-9.32063,0.43335,0.62968,-0.6098,1.4634,-1.2195,0.00,0.00,0.00,6,S01
660,-9.33260,0.40462,0.62249,-0.3659,1.4024,-1.1585,0.00,0.00,0.00,6,S01
680,-9.33020,0.40941,0.60813,-0.3659,1.2805,-1.2195,0.00,0.00,0.00,6,S01
700,-9.30626,0.41659,0.60094,-0.3659,1.2195,-1.3415,0.00,0.00,0.00,6,S01
720,-9.32063,0.40701,0.59137,-0.1829,1.3415,-1.3415,0.00,0.00,0.00,6,S01
740,-9.33978,0.41420,0.59855,0.0610,1.4024,-1.3415,0.00,0.00,0.00,6,S01
760,-9.34936,0.45250,0.58897,-0.0610,1.2195,-1.3415,0.00,0.00,0.00,6,S01
780,-9.31823,0.46926,0.60094,-0.4268,0.9756,-1.4024,0.00,0.00,0.00,6,S01
800,-9.31105,0.44532,0.59376,-0.4878,0.9756,-1.4634,0.00,0.00,0.00,6,S01
820,-9.32781,0.41180,0.59376,-0.3049,1.3415,-1.3415,0.00,0.00,0.00,6,S01
840,-9.35175,0.42617,0.60094,-0.3049,1.4024,-1.2195,0.00,0.00,0.00,6,S01
860,-9.34218,0.44053,0.58897,-0.7927,1.0366,-1.2195,0.00,0.00,0.00,6,S01
880,-9.31344,0.42856,0.59616,-0.9146,0.7927,-1.2805,0.00,0.00,0.00,6,S01
900,-9.31823,0.38068,0.64643,-0.4878,0.7317,-1.3415,0.00,0.00,0.00,6,S01
920,-9.35175,0.38307,0.58897,0.1829,0.6098,-1.1585,0.00,0.00,0.00,6,S01
940,-9.31105,0.42138,0.60094,0.1220,0.6098,-0.9146,0.00,0.00,0.00,6,S01
960,-9.28711,0.42856,0.59137,0.1220,0.6098,-0.7927,0.00,0.00,0.00,6,S01
980,-9.28232,0.41180,0.57461,0.6098,0.5488,-0.9146,0.00,0.00,0.00,6,S01
1000,-9.29669,0.37110,0.59855,1.0366,0.7927,-0.9756,0.00,0.00,0.00,6,S01
1020,-9.31344,0.35913,0.63207,1.7683,1.0366,-0.7317,0.00,0.00,0.00,6,S01
1040,-9.31105,0.38547,0.59855,2.0122,0.6707,-0.3049,0.00,0.00,0.00,6,S01
1060,-9.33020,0.40941,0.58658,1.8293,0.3049,0.1220,0.00,0.00,0.00,6,S01
1080,-9.34696,0.44293,0.64165,1.5854,0.3049,0.2439,0.00,0.00,0.00,6,S01
1100,-9.37091,0.45011,0.62489,1.5244,0.3659,0.0610,0.00,0.00,0.00,6,S01
1120,-9.38766,0.45729,0.61292,1.3415,0.5488,-0.4268,0.00,0.00,0.00,6,S01
1140,-9.35654,0.45729,0.58897,1.0976,0.5488,-0.8537,0.00,0.00,0.00,6,S01
1160,-9.33260,0.44772,0.57940,0.6707,0.3659,-1.1585,0.00,0.00,0.00,6,S01
1180,-9.32302,0.41899,0.59137,0.3659,0.3049,-1.2805,0.00,0.00,0.00,6,S01
1200,-9.29429,0.39744,0.57700,0.4268,0.3659,-1.2805,0.00,0.00,0.00,6,S01
1220,-9.30866,0.40701,0.60094,0.3049,0.7317,-1.2805,0.00,0.00,0.00,6,S01
1240,-9.30626,0.39744,0.59855,0.0610,1.2195,-1.3415,0.00,0.00,0.00,6,S01
1260,-9.32063,0.39265,0.59376,0.2439,1.4634,-1.5244,0.00,0.00,0.00,6,S01
1280,-9.35654,0.52672,0.59616,0.0610,1.2805,-1.7683,0.00,0.00,0.00,6,S01
1300,-9.34218,0.53151,0.62249,-0.9756,1.4024,-2.1951,0.00,0.00,0.00,6,S01
1320,-9.30387,0.46448,0.59616,-1.2805,2.0122,-2.5000,0.00,0.00,0.00,6,S01
1340,-9.30626,0.38786,0.59616,-1.3415,2.9268,-2.5610,0.00,0.00,0.00,6,S01
1360,-9.30626,0.34716,0.60813,-1.2805,3.2317,-2.3171,0.00,0.00,0.00,6,S01
1380,-9.32302,0.39983,0.62010,-1.0976,3.1707,-2.0122,0.00,0.00,0.00,6,S01
1400,-9.31823,0.44532,0.62010,-1.2805,2.9878,-1.8293,0.00,0.00,0.00,6,S01
1420,-9.31105,0.41180,0.55067,-1.1585,2.8049,-1.8293,0.00,0.00,0.00,6,S01
1440,-9.33978,0.41659,0.53151,-0.8537,3.0488,-1.8293,0.00,0.00,0.00,6,S01
1460,-9.35175,0.46926,0.61531,-1.3415,3.2317,-1.6463,0.00,0.00,0.00,6,S01
1480,-9.34696,0.46448,0.59137,-1.2805,2.4390,-1.6463,0.00,0.00,0.00,6,S01
1500,-9.32302,0.44053,0.51954,-0.9146,2.1341,-1.7683,0.00,0.00,0.00,6,S01
1520,-9.32063,0.42617,0.55067,-1.1585,2.6220,-1.7683,0.00,0.00,0.00,6,S01
1540,-9.31105,0.39504,0.56982,-1.0976,2.4390,-1.6463,0.00,0.00,0.00,6,S01
1560,-9.32542,0.37589,0.54588,-0.6707,2.1341,-1.4634,0.00,0.00,0.00,6,S01
1580,-9.36372,0.44772,0.50996,-0.4878,1.8293,-1.1585,0.00,0.00,0.00,6,S01
1600,-9.39724,0.52433,0.50996,-1.1585,1.2805,-0.9146,0.00,0.00,0.00,6,S01
1620,-9.38048,0.51954,0.46926,-1.8902,0.7317,-1.2195,0.00,0.00,0.00,6,S01
1640,-9.35175,0.46448,0.47884,-1.9512,1.0366,-1.6463,0.00,0.00,0.00,6,S01
1660,-9.33499,0.41420,0.47884,-1.8293,1.2805,-1.8293,0.00,0.00,0.00,6,S01
1680,-9.31105,0.38786,0.46448,-2.0122,1.0976,-1.7683,0.00,0.00,0.00,6,S01
1700,-9.29429,0.36152,0.47166,-1.8902,0.9756,-1.3415,0.00,0.00,0.00,6,S01
1720,-9.32542,0.40941,0.49799,-1.5854,1.0976,-0.9756,0.00,0.00,0.00,6,S01
1740,-9.32542,0.45250,0.45250,-1.5854,1.1585,-1.0976,0.00,0.00,0.00,6,S01
1760,-9.29908,0.43096,0.37828,-1.6463,1.6463,-1.5854,0.00,0.00,0.00,6,S01
1780,-9.30147,0.39265,0.36152,-1.4634,2.1951,-2.0122,0.00,0.00,0.00,6,S01
1800,-9.30387,0.38068,0.35674,-1.2195,2.1951,-1.9512,0.00,0.00,0.00,6,S01
1820,-9.29429,0.36392,0.40462,-1.0366,1.9512,-1.7073,0.00,0.00,0.00,6,S01
1840,-9.28232,0.33519,0.43814,-0.4878,2.0122,-1.2805,0.00,0.00,0.00,6,S01
1860,-9.34696,0.39025,0.40223,0.1829,2.4390,-0.7927,0.00,0.00,0.00,6,S01
1880,-9.59117,0.54109,0.40701,-0.7927,2.5000,-0.6707,0.00,0.00,0.00,6,S01
1900,-9.67497,0.57221,0.29209,-2.5000,0.9756,-1.8293,0.00,0.00,0.00,6,S01
1920,-9.51695,0.52672,0.10295,-2.8659,0.4268,-3.7195,0.00,0.00,0.00,6,S01
1940,-9.39724,0.39744,0.15083,-3.4756,1.7683,-4.8780,0.00,0.00,0.00,6,S01
1960,-9.41400,0.31603,0.26097,-4.0244,1.8293,-4.5122,0.00,0.00,0.00,6,S01
1980,-9.38288,0.26815,0.35674,-4.3902,0.7927,-3.2317,0.00,0.00,0.00,6,S01
2000,-9.31344,0.16041,0.40223,-3.9634,0.4878,-2.2561,0.00,0.00,0.00,6,S01
2020,-9.24162,0.18196,0.26815,-2.0122,1.2195,-2.3171,0.00,0.00,0.00,6,S01
2040,-9.20810,0.30167,0.13168,-0.7927,2.6829,-2.7439,0.00,0.00,0.00,6,S01
2060,-9.21528,0.35674,0.17238,-0.6707,3.4756,-2.9268,0.00,0.00,0.00,6,S01
2080,-9.22965,0.38307,0.22266,-0.7317,3.4146,-2.8049,0.00,0.00,0.00,6,S01
2100,-9.25598,0.42617,0.25139,-1.0366,3.1707,-2.4390,0.00,0.00,0.00,6,S01
2120,-9.49301,0.41899,0.44532,-1.8293,2.7439,-2.1951,0.00,0.00,0.00,6,S01
2140,-9.69412,0.33998,0.58658,-2.2561,1.3415,-2.0732,0.00,0.00,0.00,6,S01
2160,-9.41640,0.31843,0.27773,-1.5244,0.1220,-2.2561,0.00,0.00,0.00,6,S01
2180,-9.16261,0.39983,0.05267,-1.2195,1.9512,-2.9268,0.00,0.00,0.00,6,S01
2200,-9.08600,0.50518,0.00239,-2.1951,3.4146,-2.8049,0.00,0.00,0.00,6,S01
2220,-9.22725,0.52194,0.15323,-4.0244,2.7439,-2.0732,0.00,0.00,0.00,6,S01
2240,-9.35654,0.45490,0.22745,-5.0000,1.1585,-1.2195,0.00,0.00,0.00,6,S01
2260,-9.38527,0.39744,0.16041,-4.6341,0.7317,-0.7927,0.00,0.00,0.00,6,S01
2280,-9.47146,0.44053,0.11732,-4.6341,1.3415,-0.6098,0.00,0.00,0.00,6,S01
2300,-9.51695,0.45011,0.12929,-5.7927,0.7927,-0.5488,0.00,0.00,0.00,6,S01
2320,-9.44034,0.39744,0.17717,-6.4024,-0.4268,-1.0976,0.00,0.00,0.00,6,S01
2340,-9.42118,0.27533,0.22505,-4.7561,-1.0366,-1.8293,0.00,0.00,0.00,6,S01
2360,-9.53611,0.32322,0.28491,-2.8049,-2.0122,-2.0732,0.00,0.00,0.00,6,S01
2380,-9.52653,0.32561,0.20351,-3.2927,-3.9634,-2.9878,0.00,0.00,0.00,6,S01
2400,-9.17458,0.28730,0.04788,-4.5122,-3.2317,-7.3780,0.00,0.00,0.00,6,S01
2420,-9.17458,0.28730,0.04788,-4.5122,-3.2317,-7.3780,0.00,0.00,0.00,6,S01
2440,-9.16740,-0.26336,0.19393,-3.0488,-1.4634,-8.8415,0.00,0.00,0.00,6,S01
2460,-9.21049,-0.13408,0.22505,0.6707,-1.3415,-8.1707,0.00,0.00,0.00,6,S01
2480,-9.22486,0.23463,0.19872,2.0122,-1.9512,-5.3659,0.00,0.00,0.00,6,S01
2500,-9.36612,0.33519,0.20351,1.6463,-0.6707,-4.0244,0.00,0.00,0.00,6,S01
2520,-9.41400,0.35913,0.30646,3.6585,0.1220,-4.9390,0.00,0.00,0.00,6,S01
2540,-9.34218,0.39983,0.24900,4.3293,-0.9756,-4.3902,0.00,0.00,0.00,6,S01
2560,-9.29908,0.44532,0.18435,3.5976,-0.9146,-3.6585,0.00,0.00,0.00,6,S01
2580,-9.32302,0.50278,0.25857,2.2561,0.1829,-3.2317,0.00,0.00,0.00,6,S01
2600,-9.34696,0.42377,0.34237,1.2195,0.0610,-2.9268,0.00,0.00,0.00,6,S01
2620,-9.33499,0.28730,0.32082,1.4634,-1.0366,-2.8049,0.00,0.00,0.00,6,S01
2640,-9.25598,0.23224,0.27054,1.8293,-1.4024,-2.3171,0.00,0.00,0.00,6,S01
2660,-9.27993,0.20830,0.23703,1.8293,-0.9756,-1.6463,0.00,0.00,0.00,6,S01
2680,-9.38766,0.26336,0.20590,1.0976,-0.4878,-0.6707,0.00,0.00,0.00,6,S01
2700,-9.34457,0.30167,0.14844,-0.0610,-0.7317,-0.3049,0.00,0.00,0.00,6,S01
2720,-9.39964,0.15802,0.20830,-0.3659,0.3659,-0.7317,0.00,0.00,0.00,6,S01
2740,-9.41161,0.06943,0.19393,0.8537,0.9756,-1.7073,0.00,0.00,0.00,6,S01
2760,-9.37809,0.04788,0.12929,1.9512,0.7317,-2.1341,0.00,0.00,0.00,6,S01
2780,-9.29429,0.01197,0.28252,2.0732,1.1585,-1.7683,0.00,0.00,0.00,6,S01
2800,-9.32063,-0.01197,0.46687,2.2561,2.0732,-1.1585,0.00,0.00,0.00,6,S01
2820,-9.37569,-0.05507,0.45729,3.1707,3.3537,-2.3780,0.00,0.00,0.00,6,S01
2840,-9.37809,-0.04310,0.26576,4.6951,4.2683,-4.4512,0.00,0.00,0.00,6,S01
2860,-9.39006,0.02634,0.17717,5.4268,4.7561,-5.3659,0.00,0.00,0.00,6,S01
2880,-9.42118,0.09337,0.22266,4.9390,5.3049,-4.6341,0.00,0.00,0.00,6,S01
2900,-9.33020,0.04070,0.31364,3.6585,5.7927,-2.9268,0.00,0.00,0.00,6,S01
2920,-9.23922,-0.13886,0.45250,3.4146,6.0976,-1.4634,0.00,0.00,0.00,6,S01
2940,-9.14106,-0.32801,0.53151,5.4268,6.5854,-0.4268,0.00,0.00,0.00,6,S01
2960,-9.23444,-0.34716,0.50039,7.9878,6.2195,-0.3659,0.00,0.00,0.00,6,S01
2980,-9.34696,-0.22745,0.47884,9.2073,6.1585,-0.5488,0.00,0.00,0.00,6,S01
3000,-9.45231,-0.13886,0.39265,9.8171,6.7683,-0.3049,0.00,0.00,0.00,6,S01
3020,-9.50977,-0.11253,0.27533,10.6098,7.3171,-0.5488,0.00,0.00,0.00,6,S01
3040,-9.49301,-0.20351,0.19393,11.4024,6.5244,-1.5854,0.00,0.00,0.00,6,S01
3060,-9.49780,-0.35195,0.16759,12.9878,5.6707,-2.8659,0.00,0.00,0.00,6,S01
3080,-9.50498,-0.39744,0.11013,14.8171,5.1829,-3.8415,0.00,0.00,0.00,6,S01
3100,-9.44034,-0.27294,0.09577,15.9756,4.1463,-4.5122,0.00,0.00,0.00,6,S01
3120,-9.33978,-0.03112,0.03831,15.4268,3.5976,-5.1829,0.00,0.00,0.00,6,S01
3140,-9.35893,0.01915,0.12450,13.7805,4.6341,-5.4878,0.00,0.00,0.00,6,S01
3160,-9.37330,-0.00479,0.19632,12.6220,5.9146,-5.6707,0.00,0.00,0.00,6,S01
3180,-9.36612,0.03112,0.16999,11.3415,6.5854,-5.6707,0.00,0.00,0.00,6,S01
3200,-9.30866,0.21308,0.20830,8.6585,6.5244,-4.5122,0.00,0.00,0.00,6,S01
3220,-9.27274,0.35674,0.22266,3.9024,6.1585,-2.1341,0.00,0.00,0.00,6,S01
3240,-9.35654,0.29449,0.13886,-0.6707,7.0732,-0.3659,0.00,0.00,0.00,6,S01
3260,-9.48343,0.19872,0.02634,-3.4146,8.9024,0.0610,0.00,0.00,0.00,6,S01
3280,-9.43076,0.03112,-0.08859,-5.0610,9.3902,0.3659,0.00,0.00,0.00,6,S01
3300,-9.24162,-0.12689,-0.08140,-5.8537,8.6585,0.8537,0.00,0.00,0.00,6,S01
3320,-9.28950,-0.16520,0.05507,-6.5854,9.1463,1.0366,0.00,0.00,0.00,6,S01
3340,-9.46189,-0.17957,0.02873,-8.1707,10.6098,0.3049,0.00,0.00,0.00,6,S01
3360,-9.37091,-0.23942,-0.32801,-10.0000,12.0122,-0.9756,0.00,0.00,0.00,6,S01
3380,-9.24162,-0.28970,-0.55785,-11.1585,14.3902,-2.1341,0.00,0.00,0.00,6,S01
3400,-9.26077,-0.35195,-0.37110,-10.4268,15.8537,-2.6829,0.00,0.00,0.00,6,S01
3420,-9.23683,-0.44293,-0.07183,-7.7439,15.0610,-2.6829,0.00,0.00,0.00,6,S01
3440,-9.21289,-0.47405,-0.03831,-4.3293,13.9634,-2.3780,0.00,0.00,0.00,6,S01
3460,-9.23683,-0.42377,-0.21069,-1.4634,13.7805,-1.7683,0.00,0.00,0.00,6,S01
3480,-9.41161,-0.37110,-0.40462,0.7927,13.8415,-1.3415,0.00,0.00,0.00,6,S01
3500,-9.58399,-0.33279,-0.41899,2.7439,13.1707,-0.9756,0.00,0.00,0.00,6,S01
3520,-9.52174,-0.25139,-0.47645,4.5122,10.6098,0.0000,0.00,0.00,0.00,6,S01
3540,-9.29429,-0.03591,-0.75896,4.9390,7.9268,1.6463,0.00,0.00,0.00,6,S01
3560,-9.29908,0.15323,-1.05105,3.0488,7.0122,3.1707,0.00,0.00,0.00,6,S01
3580,-9.48583,0.18435,-1.39821,-0.0610,6.7073,3.6585,0.00,0.00,0.00,6,S01
3600,-9.56484,-0.01676,-1.62566,-1.8293,6.2805,3.1098,0.00,0.00,0.00,6,S01
3620,-9.68455,-0.42617,-1.39343,-0.3049,4.0244,2.5610,0.00,0.00,0.00,6,S01
3640,-9.76355,-0.64643,-1.03430,4.5732,-1.7073,3.3537,0.00,0.00,0.00,6,S01
3660,-9.07402,-0.73263,-0.99599,8.7805,-8.1098,4.2683,0.00,0.00,0.00,6,S01
3680,-8.67659,-0.27294,-1.17555,12.1951,-7.8049,2.8049,0.00,0.00,0.00,6,S01
3700,-8.88488,0.31125,-1.23541,12.2561,-0.1220,1.1585,0.00,0.00,0.00,6,S01
3720,-9.28950,0.69432,-1.47004,10.3659,8.2927,1.5854,0.00,0.00,0.00,6,S01
3740,-9.41879,0.94571,-1.74298,6.6463,14.2683,4.3293,0.00,0.00,0.00,6,S01
3760,-9.13627,1.11809,-2.10450,-1.4024,16.7683,7.2561,0.00,0.00,0.00,6,S01
3780,-8.78193,1.64242,-1.92733,-24.2683,23.1707,0.7927,0.00,0.00,0.00,6,S01
3800,-8.97826,1.71664,-1.77889,-31.6463,28.1098,-3.9634,0.00,0.00,0.00,6,S01
3820,-8.81066,1.38624,-1.52032,-38.2927,37.1951,-4.8171,0.00,0.00,0.00,6,S01
3840,-8.59040,0.39025,-0.67516,-42.4390,51.6463,-4.6951,0.00,0.00,0.00,6,S01
3860,-9.14824,-0.35195,0.60094,-38.0488,63.5976,-7.2561,0.00,0.00,0.00,6,S01
3880,-9.63427,-0.53391,0.99120,-24.0244,60.4878,-9.8171,0.00,0.00,0.00,6,S01
3900,-9.40442,-0.07422,0.47166,-8.7195,42.7439,-8.1098,0.00,0.00,0.00,6,S01
3920,-9.22725,0.25379,-0.24421,2.3171,27.6220,-4.4512,0.00,0.00,0.00,6,S01
3940,-9.89045,0.61292,-1.13006,13.5976,21.7073,-5.3049,0.00,0.00,0.00,6,S01
3960,-10.72124,1.17795,-1.61609,19.3293,18.7805,-5.7317,0.00,0.00,0.00,6,S01
3980,-10.41238,1.18034,-1.40300,15.6098,12.0732,-1.0366,0.00,0.00,0.00,6,S01
4000,-9.67736,0.82600,-1.10133,11.5244,1.7073,2.0122,0.00,0.00,0.00,6,S01
4020,-9.33978,0.75417,-1.10133,11.7073,-5.6707,1.7073,0.00,0.00,0.00,6,S01
4040,-9.35175,0.62728,-1.13964,12.9878,-6.7683,2.1341,0.00,0.00,0.00,6,S01
4060,-9.61511,0.42377,-1.20907,15.0000,-8.9634,4.0854,0.00,0.00,0.00,6,S01
4080,-9.80186,0.20111,-1.53229,16.0366,-15.0000,6.5854,0.00,0.00,0.00,6,S01
4100,-9.95030,0.05507,-1.51553,16.4024,-17.3780,8.1098,0.00,0.00,0.00,6,S01
4120,-9.91439,0.09337,-1.31681,18.0488,-18.5976,7.8659,0.00,0.00,0.00,6,S01
4140,-9.61033,0.18196,-1.39343,19.9390,-22.4390,6.8902,0.00,0.00,0.00,6,S01
4160,-9.12909,0.37589,-1.62806,21.0976,-23.4146,7.3780,0.00,0.00,0.00,6,S01
4180,-9.07881,0.72544,-1.87705,19.5732,-21.4634,9.7561,0.00,0.00,0.00,6,S01
4200,-9.45949,0.53630,-1.52989,15.4268,-21.0976,13.1707,0.00,0.00,0.00,6,S01
4220,-9.54089,-0.00479,-1.30963,13.2317,-27.0732,14.6341,0.00,0.00,0.00,6,S01
4240,-9.33978,-0.61531,-1.16358,13.2927,-32.5000,11.6463,0.00,0.00,0.00,6,S01
4260,-9.03093,-0.92416,-1.11091,15.7927,-31.9512,7.3171,0.00,0.00,0.00,6,S01
4280,-8.69574,-0.77093,-1.07978,19.2683,-28.1707,4.6341,0.00,0.00,0.00,6,S01
4300,-8.58800,-0.41180,-0.80206,19.2683,-25.1829,3.3537,0.00,0.00,0.00,6,S01
4320,-8.60955,-0.47166,-0.84515,18.0488,-24.3293,2.6829,0.00,0.00,0.00,6,S01
4340,-8.77475,-0.65362,-1.35991,20.7317,-21.0976,2.3780,0.00,0.00,0.00,6,S01
4360,-8.86573,-0.54109,-1.81480,22.7439,-14.5122,2.7439,0.00,0.00,0.00,6,S01
4380,-8.60715,-0.03831,-2.57137,20.6098,-8.3537,2.0732,0.00,0.00,0.00,6,S01
4400,-8.24324,0.75417,-3.00712,13.4146,-1.4634,-0.7927,0.00,0.00,0.00,6,S01
4420,-8.27676,1.53947,-2.67432,0.9756,2.6829,-4.0854,0.00,0.00,0.00,6,S01
4440,-8.57124,1.71664,-2.34871,-8.3537,0.9756,-3.9634,0.00,0.00,0.00,6,S01
4460,-8.62152,1.14682,-1.92254,-12.0732,1.2195,1.3415,0.00,0.00,0.00,6,S01
4480,-8.58800,-0.14844,-0.90022,-13.8415,4.0854,4.5122,0.00,0.00,0.00,6,S01
4500,-8.77714,-0.63207,-0.06464,-6.8902,1.6463,-1.3415,0.00,0.00,0.00,6,S01
4520,-9.19373,0.15562,0.53151,4.0854,-4.6341,-8.4146,0.00,0.00,0.00,6,S01
4540,-9.09797,0.80445,0.56264,15.1220,-7.9268,-5.0610,0.00,0.00,0.00,6,S01
4560,-8.93756,0.90261,0.16041,28.1098,-1.6463,4.2073,0.00,0.00,0.00,6,S01
4580,-8.87291,1.04627,-0.23463,36.5244,8.7195,10.6707,0.00,0.00,0.00,6,S01
4600,-8.42998,1.45567,-0.45729,34.8171,14.8780,12.9878,0.00,0.00,0.00,6,S01
4620,-7.92720,1.92973,-0.36631,30.3659,18.0488,13.9634,0.00,0.00,0.00,6,S01
4640,-7.49625,2.04704,-0.31843,27.0732,19.0854,15.7927,0.00,0.00,0.00,6,S01
4660,-7.75961,2.14999,0.26576,22.6829,21.5854,16.9512,0.00,0.00,0.00,6,S01
4680,-8.01100,1.60172,0.87628,16.8293,21.8293,17.1951,0.00,0.00,0.00,6,S01
4700,-8.03973,0.57700,-0.00718,16.7073,18.9634,13.9634,0.00,0.00,0.00,6,S01
4720,-8.85615,0.15323,-0.19393,22.9268,20.4268,6.5854,0.00,0.00,0.00,6,S01
4740,-9.46907,0.98881,0.51475,23.5366,14.1463,0.9146,0.00,0.00,0.00,6,S01
4760,-9.48104,1.40540,1.40779,17.8659,-5.4268,-0.7317,0.00,0.00,0.00,6,S01
4780,-9.04290,0.45969,0.50039,20.1220,-18.4146,-3.2927,0.00,0.00,0.00,6,S01
4800,-8.71250,-0.10056,-0.17717,33.4756,-7.8049,-8.5366,0.00,0.00,0.00,6,S01
4820,-8.49702,0.90740,-0.41180,40.3659,2.0122,-10.5488,0.00,0.00,0.00,6,S01
4840,-9.19613,2.63841,1.24738,31.0976,-0.5488,-6.7683,0.00,0.00,0.00,6,S01
4860,-9.46667,2.45885,1.63045,20.7927,-5.8537,0.5488,0.00,0.00,0.00,6,S01
4880,-9.06924,0.66080,0.56024,28.5366,6.2195,4.3902,0.00,0.00,0.00,6,S01
4900,-8.59518,-0.17478,-0.05507,35.8537,19.3902,2.5000,0.00,0.00,0.00,6,S01
4920,-9.40682,0.83797,0.63925,38.3537,20.1829,3.1707,0.00,0.00,0.00,6,S01
4940,-11.14740,2.52588,2.59053,31.5244,15.7317,6.5244,0.00,0.00,0.00,6,S01
4960,-9.96706,1.89621,0.85712,40.3659,14.4512,12.9268,0.00,0.00,0.00,6,S01
4980,-7.80270,0.40941,-0.21787,59.5122,24.5122,14.5732,0.00,0.00,0.00,6,S01
5000,-7.46033,-0.52433,0.34237,63.1098,28.9634,9.6951,0.00,0.00,0.00,6,S01
5020,-10.63504,4.82671,2.56419,37.6220,31.2195,-2.5000,0.00,0.00,0.00,6,S01
5040,-8.73165,3.99113,1.93212,49.3902,40.2439,7.4390,0.00,0.00,0.00,6,S01
5060,-9.26795,3.84748,4.17309,48.6585,31.0366,12.5000,0.00,0.00,0.00,6,S01
5080,-12.00213,4.97994,7.24246,41.5244,17.8659,12.9878,0.00,0.00,0.00,6,S01
5100,-12.92869,7.43400,5.84664,54.2683,31.6463,12.8659,0.00,0.00,0.00,6,S01
5120,-11.19289,7.03895,6.47871,56.7073,39.1463,18.9024,0.00,0.00,0.00,6,S01
5140,-9.01178,4.80037,5.91128,61.7683,23.3537,21.8902,0.00,0.00,0.00,6,S01
5160,-8.08282,4.49870,2.86586,66.5244,16.4024,14.5732,0.00,0.00,0.00,6,S01
5180,-8.53294,5.46836,0.29209,56.2805,22.5000,-1.0976,0.00,0.00,0.00,6,S01
5200,-8.03494,4.39575,-1.58975,52.3781,33.7805,-10.1829,0.00,0.00,0.00,6,S01
5220,-6.12916,2.32477,-1.97043,57.7439,38.7805,-12.6829,0.00,0.00,0.00,6,S01
5240,-4.05817,1.20668,-1.35991,62.0732,13.1707,-7.0732,0.00,0.00,0.00,6,S01
5260,-2.44448,0.74460,-1.72861,67.8659,-43.2927,6.0976,0.00,0.00,0.00,6,S01
5280,-1.86748,-0.48123,-3.40695,66.6463,-101.0976,10.9146,0.00,0.00,0.00,6,S01
5300,-1.33596,-0.79487,-3.88100,54.1463,-134.2683,4.6341,0.00,0.00,0.00,6,S01
5320,-0.65122,0.20830,-3.24654,30.4268,-148.5976,1.0366,0.00,0.00,0.00,6,S01
5340,-0.25139,-0.90980,-3.17471,5.3049,-164.3902,7.5610,0.00,0.00,0.00,6,S01
5360,-0.30167,-1.49159,-4.28562,-5.2439,-173.1098,8.9634,0.00,0.00,0.00,6,S01
5380,-0.20351,-1.33596,-4.59687,-10.0000,-163.1707,6.5854,0.00,0.00,0.00,6,S01
5400,-0.14844,-1.13485,-4.49631,-22.5000,-145.0610,3.4146,0.00,0.00,0.00,6,S01
5420,-0.06225,-2.24337,-4.63996,-48.5366,-130.0610,1.7683,0.00,0.00,0.00,6,S01
5440,-0.65122,-3.69425,-5.23133,-78.2927,-113.8415,-1.5244,0.00,0.00,0.00,6,S01
5460,-1.36709,-4.13957,-5.86101,-100.0610,-87.9878,-2.0122,0.00,0.00,0.00,6,S01
5480,-1.25935,-6.89530,-6.71813,-121.8293,-62.3171,11.8293,0.00,0.00,0.00,6,S01
5500,-4.95360,-1.37667,-21.66992,-142.6829,-22.4390,23.0488,0.00,0.00,0.00,6,S01
5520,-29.61867,-3.95522,-15.10262,-303.4756,94.9390,5.0000,0.00,0.00,0.00,6,S01
5540,-45.35576,-25.63951,13.09389,-429.6342,346.4634,-33.5976,0.00,0.00,0.00,6,S01
5560,-37.47165,-16.10579,10.74518,-217.1951,336.2195,-47.8659,0.00,0.00,0.00,6,S01
5580,-26.03694,-3.24893,4.08930,-90.1829,157.0732,-39.5732,0.00,0.00,0.00,6,S01
5600,-14.99249,6.27999,2.19788,-119.0854,25.6098,-17.6220,0.00,0.00,0.00,6,S01
5620,-7.45076,0.33758,0.65362,-152.2561,-61.2195,62.4390,0.00,0.00,0.00,6,S01
5640,-6.04775,-12.90714,-7.74045,-87.0122,-127.5000,87.0732,0.00,0.00,0.00,6,S01
5660,-15.92623,-6.69658,-12.16733,-113.0488,-94.6951,-43.9634,0.00,0.00,0.00,6,S01
5680,-22.71140,-0.34955,-3.82354,-113.2927,86.2195,-74.8781,0.00,0.00,0.00,6,S01
5700,-19.24459,3.20344,-3.30639,-93.9024,97.3781,-0.1220,0.00,0.00,0.00,6,S01
5720,-14.72674,5.04698,-5.02304,-112.5610,-15.3049,48.3537,0.00,0.00,0.00,6,S01
5740,-11.75792,1.53468,-6.90727,-125.2439,-79.6341,68.4756,0.00,0.00,0.00,6,S01
5760,-11.13064,-0.33998,-6.89770,-111.7073,-70.1220,48.8415,0.00,0.00,0.00,6,S01
5780,-8.88488,-1.21625,-4.18506,-75.3049,-18.9024,25.0000,0.00,0.00,0.00,6,S01
5800,-4.78601,-0.47405,-0.74699,-45.8537,7.3171,16.4634,0.00,0.00,0.00,6,S01
5820,-3.03345,1.40300,-0.63925,-22.6829,2.1341,21.5854,0.00,0.00,0.00,6,S01
5840,-6.31830,2.76530,-0.99838,-3.9634,15.7317,15.1829,0.00,0.00,0.00,6,S01
5860,-8.99262,3.66552,0.87628,2.1951,39.1463,-3.0488,0.00,0.00,0.00,6,S01
5880,-9.07642,3.68228,2.23618,9.8171,15.1829,-15.1829,0.00,0.00,0.00,6,S01
5900,-8.02297,-0.29209,-0.84515,17.6220,-43.2317,-2.1341,0.00,0.00,0.00,6,S01
5920,-6.74447,-0.18675,-2.57616,25.4878,-71.4024,11.0976,0.00,0.00,0.00,6,S01
5940,-9.04769,2.53307,-4.14197,21.4634,-40.2439,12.1951,0.00,0.00,0.00,6,S01
5960,-12.00932,3.88340,-3.70862,9.5122,0.3659,20.8537,0.00,0.00,0.00,6,S01
5980,-13.29500,1.94888,-1.95606,-26.9512,-4.7561,29.1463,0.00,0.00,0.00,6,S01
6000,-12.30141,-1.64003,-1.27372,-45.1829,-31.4024,25.1220,0.00,0.00,0.00,6,S01
6020,-11.16895,0.33040,-2.48997,-34.6341,-34.3902,12.3171,0.00,0.00,0.00,6,S01
6040,-12.06438,3.83791,-2.79643,-35.0610,-23.7195,5.5488,0.00,0.00,0.00,6,S01
6060,-12.63420,2.45885,-2.34871,-45.4878,-16.6463,14.8171,0.00,0.00,0.00,6,S01
6080,-12.81616,-0.96965,-0.61052,-46.0366,-9.5122,22.1951,0.00,0.00,0.00,6,S01
6100,-12.03565,-0.52912,-0.74220,-33.1098,-5.6098,21.5854,0.00,0.00,0.00,6,S01
6120,-11.65258,2.86347,-1.01993,-24.2683,-0.6098,21.4024,0.00,0.00,0.00,6,S01
6140,-11.61906,3.42371,-0.97444,-31.0366,4.5122,27.2561,0.00,0.00,0.00,6,S01
6160,-11.27669,1.80044,-0.82361,-36.8902,14.6951,30.7317,0.00,0.00,0.00,6,S01
6180,-11.51372,0.22984,-0.21308,-32.5000,25.5488,23.0488,0.00,0.00,0.00,6,S01
6200,-11.64061,0.64883,0.12210,-15.8537,21.7073,11.7073,0.00,0.00,0.00,6,S01
6220,-11.44907,2.64559,0.11971,-8.4756,12.5000,2.6829,0.00,0.00,0.00,6,S01
6240,-11.34373,4.01029,-0.52672,-9.8780,6.6463,-7.0122,0.00,0.00,0.00,6,S01
6260,-10.97263,2.49715,-1.46525,-24.8171,-5.6098,-9.5122,0.00,0.00,0.00,6,S01
6280,-10.01016,1.77171,-1.98479,-17.6829,-3.2317,-9.8780,0.00,0.00,0.00,6,S01
6300,-9.22246,2.27689,-2.44209,-3.1707,9.5732,-10.3049,0.00,0.00,0.00,6,S01
6320,-9.51216,2.81798,-2.43969,4.4512,28.9634,-7.1951,0.00,0.00,0.00,6,S01
6340,-10.19930,3.06218,-1.90578,4.4512,39.8171,-4.3293,0.00,0.00,0.00,6,S01
6360,-10.15141,2.61926,-1.45328,-0.2439,32.7439,-5.3049,0.00,0.00,0.00,6,S01
6380,-9.55526,2.14042,-0.99120,-3.5976,17.6220,-10.6707,0.00,0.00,0.00,6,S01
6400,-9.01896,1.93930,-0.88346,-4.0854,4.3902,-16.9512,0.00,0.00,0.00,6,S01
6420,-8.43238,1.86029,-0.87149,-2.8659,-1.5854,-21.2195,0.00,0.00,0.00,6,S01
6440,-8.11634,1.88903,-0.94571,-0.6098,-0.5488,-21.8293,0.00,0.00,0.00,6,S01
6460,-8.37731,1.78607,-0.91219,-0.6707,3.5976,-17.8049,0.00,0.00,0.00,6,S01
6480,-8.65743,1.54665,-0.84994,-1.9512,6.8902,-12.6220,0.00,0.00,0.00,6,S01
6500,-8.46590,1.05105,-0.63207,-1.0976,5.6707,-9.0854,0.00,0.00,0.00,6,S01
6520,-8.08282,0.89304,-0.50039,4.3902,2.1341,-8.7195,0.00,0.00,0.00,6,S01
6540,-8.33182,1.38864,-0.45490,11.0366,0.4878,-11.0976,0.00,0.00,0.00,6,S01
6560,-8.66940,1.72622,-0.35195,13.1098,-2.7439,-12.9268,0.00,0.00,0.00,6,S01
6580,-8.81306,1.26893,-0.28491,11.4024,-9.7561,-13.7195,0.00,0.00,0.00,6,S01
6600,-8.70053,0.48602,-0.20111,11.3415,-16.0366,-14.0244,0.00,0.00,0.00,6,S01
6620,-8.74841,0.75178,-0.21787,14.6951,-18.3537,-15.3049,0.00,0.00,0.00,6,S01
6640,-9.26795,1.41258,-0.35195,15.0610,-21.4634,-16.5854,0.00,0.00,0.00,6,S01
6660,-9.33739,1.19950,-0.19632,11.0976,-27.6829,-16.2805,0.00,0.00,0.00,6,S01
6680,-8.49223,0.24900,-0.24660,11.7073,-31.7683,-13.5366,0.00,0.00,0.00,6,S01
6700,-8.56645,-0.21787,-0.01915,17.5610,-27.0122,-11.2805,0.00,0.00,0.00,6,S01
6720,-9.22725,-0.10295,-0.16520,22.8659,-19.5122,-10.1829,0.00,0.00,0.00,6,S01
6740,-9.69891,0.30885,-0.24900,25.9756,-13.9024,-12.9878,0.00,0.00,0.00,6,S01
6760,-9.72046,0.39744,-0.26576,30.6707,-12.1341,-16.5854,0.00,0.00,0.00,6,S01
6780,-9.62469,-0.02155,-0.17238,36.8902,-10.5488,-17.6220,0.00,0.00,0.00,6,S01
6800,-9.63187,-0.10774,-0.11253,42.0122,-8.3537,-18.1707,0.00,0.00,0.00,6,S01
6820,-9.65821,0.41899,-0.31364,44.2073,-7.5610,-17.9268,0.00,0.00,0.00,6,S01
6840,-9.52174,0.91937,-0.05267,45.1220,-7.3171,-15.2439,0.00,0.00,0.00,6,S01
6860,-9.38288,1.13246,0.33279,43.4146,-10.9146,-12.0732,0.00,0.00,0.00,6,S01
6880,-9.25119,0.54348,0.58179,40.4268,-16.5244,-9.7561,0.00,0.00,0.00,6,S01
6900,-9.16500,-0.22984,0.58419,39.7561,-20.3659,-10.1220,0.00,0.00,0.00,6,S01
6920,-9.10754,-0.43096,0.62968,41.5244,-20.9146,-13.7805,0.00,0.00,0.00,6,S01
6940,-9.17458,-0.18435,0.56264,41.5244,-22.9268,-16.7073,0.00,0.00,0.00,6,S01
6960,-9.31584,-0.15562,0.56982,35.4878,-26.4024,-17.1951,0.00,0.00,0.00,6,S01
6980,-9.54089,-0.84755,0.58897,27.1341,-28.1098,-18.7805,0.00,0.00,0.00,6,S01
7000,-9.86172,-1.44610,0.81163,24.2683,-26.9512,-23.1098,0.00,0.00,0.00,6,S01
7020,-10.22085,-1.52032,0.86191,26.6463,-25.4268,-26.0366,0.00,0.00,0.00,6,S01
7040,-10.23282,-1.35991,0.63446,28.9024,-23.9634,-26.7683,0.00,0.00,0.00,6,S01
7060,-9.98382,-1.02232,0.54348,27.7439,-19.8780,-26.8293,0.00,0.00,0.00,6,S01
7080,-10.02931,-0.56024,0.54827,22.9268,-14.3293,-25.2439,0.00,0.00,0.00,6,S01
7100,-10.25437,-0.38786,0.74699,15.6098,-9.9390,-21.9512,0.00,0.00,0.00,6,S01
7120,-10.20409,-0.57940,1.08457,10.6707,-6.8293,-17.0732,0.00,0.00,0.00,6,S01
7140,-9.79468,-0.83079,1.42934,10.3049,-4.9390,-10.7317,0.00,0.00,0.00,6,S01
7160,-9.28711,-0.89064,1.47004,11.0976,-3.5976,-4.9390,0.00,0.00,0.00,6,S01
7180,-9.17937,-0.70629,1.46286,10.6098,-0.8537,-1.1585,0.00,0.00,0.00,6,S01
7200,-9.21528,-0.44053,1.32160,8.4756,1.9512,1.0976,0.00,0.00,0.00,6,S01
7220,-9.24641,-0.66798,1.38145,6.1585,4.8171,3.6585,0.00,0.00,0.00,6,S01
7240,-8.95192,-1.32160,1.59454,5.1829,5.7317,4.6951,0.00,0.00,0.00,6,S01
7260,-8.76757,-1.36709,1.65918,6.1585,5.4878,3.1098,0.00,0.00,0.00,6,S01
7280,-8.82742,-1.04387,1.52750,7.3780,5.4268,1.9512,0.00,0.00,0.00,6,S01
7300,-8.86573,-0.84515,1.52989,5.9756,5.1829,2.3780,0.00,0.00,0.00,6,S01
7320,-8.89685,-0.71347,1.61848,2.6829,4.2073,2.9878,0.00,0.00,0.00,6,S01
7340,-8.99980,-0.62728,1.56581,-1.0976,2.8659,3.9634,0.00,0.00,0.00,6,S01
7360,-9.09797,-0.53870,1.52271,-3.6585,1.1585,5.0000,0.00,0.00,0.00,6,S01
7380,-9.05727,-0.55067,1.51792,-5.0000,-1.7683,5.7317,0.00,0.00,0.00,6,S01
7400,-9.11951,-0.61052,1.47483,-5.0610,-4.6341,6.5244,0.00,0.00,0.00,6,S01
7420,-9.28232,-0.54348,1.27611,-4.3293,-6.1585,6.4634,0.00,0.00,0.00,6,S01
7440,-9.36851,-0.39025,1.08936,-3.5366,-6.5244,5.7317,0.00,0.00,0.00,6,S01
7460,-9.43555,-0.31843,1.00078,-3.3537,-5.6707,4.6341,0.00,0.00,0.00,6,S01
7480,-9.54568,-0.32082,0.89783,-2.1951,-4.0854,3.4756,0.00,0.00,0.00,6,S01
7500,-9.65342,-0.10295,1.06542,1.4634,-2.8049,1.0976,0.00,0.00,0.00,6,S01
7520,-9.70609,-0.00239,1.14682,3.2317,-1.8902,0.0000,0.00,0.00,0.00,6,S01
7540,-9.69173,0.03831,1.14203,5.1829,-1.5244,-1.0976,0.00,0.00,0.00,6,S01
7560,-9.49540,0.06464,1.14203,7.0122,-2.5000,-2.5000,0.00,0.00,0.00,6,S01
7580,-9.26556,0.16281,1.11330,8.9024,-3.0488,-3.3537,0.00,0.00,0.00,6,S01
7600,-9.16261,0.25139,1.14922,8.8415,-1.7073,-3.4146,0.00,0.00,0.00,6,S01
7620,-9.09557,0.11013,1.30963,7.8049,0.1220,-3.0488,0.00,0.00,0.00,6,S01
7640,-9.04290,-0.02155,1.42934,8.5366,0.7317,-3.3537,0.00,0.00,0.00,6,S01
7660,-9.05008,0.04070,1.50595,10.2439,-0.0610,-4.1463,0.00,0.00,0.00,6,S01
7680,-9.10036,0.06704,1.55623,10.6098,-1.8902,-4.9390,0.00,0.00,0.00,6,S01
7700,-9.11233,0.00479,1.51074,10.6098,-3.1707,-5.5488,0.00,0.00,0.00,6,S01
7720,-9.13388,-0.00479,1.43173,10.7927,-3.9024,-6.4634,0.00,0.00,0.00,6,S01
7740,-9.15543,-0.10295,1.35272,10.3049,-4.2073,-7.0732,0.00,0.00,0.00,6,S01
7760,-9.22725,-0.22266,1.29287,9.7561,-3.5366,-7.4390,0.00,0.00,0.00,6,S01
7780,-9.32781,-0.21787,1.24020,9.3293,-2.2561,-7.6220,0.00,0.00,0.00,6,S01
7800,-9.44034,-0.18196,1.21147,8.3537,-1.5854,-7.5000,0.00,0.00,0.00,6,S01
7820,-9.43076,-0.22745,1.23780,6.6463,-2.0732,-6.8293,0.00,0.00,0.00,6,S01
7840,-9.42118,-0.34477,1.36709,4.8171,-2.2561,-5.6098,0.00,0.00,0.00,6,S01
7860,-9.39964,-0.39983,1.35033,3.4756,-1.8293,-4.0854,0.00,0.00,0.00,6,S01
7880,-9.42597,-0.39983,1.36709,2.3171,-1.4634,-3.1707,0.00,0.00,0.00,6,S01
7900,-9.40921,-0.48602,1.42934,0.9146,-2.1951,-3.0488,0.00,0.00,0.00,6,S01
7920,-9.29190,-0.59137,1.45807,-0.1829,-3.3537,-3.2317,0.00,0.00,0.00,6,S01
7940,-9.20571,-0.56264,1.47004,-0.6707,-3.1707,-3.6585,0.00,0.00,0.00,6,S01
7960,-9.22725,-0.55067,1.47962,-1.0366,-2.2561,-3.9634,0.00,0.00,0.00,6,S01
7980,-9.20331,-0.66080,1.51074,-1.2805,-1.7683,-3.5366,0.00,0.00,0.00,6,S01
8000,-9.15782,-0.70868,1.47962,-1.2195,-1.4634,-3.1707,0.00,0.00,0.00,6,S01
8020,-9.12670,-0.57700,1.41737,-1.4634,-1.0366,-3.0488,0.00,0.00,0.00,6,S01
8040,-9.13388,-0.47884,1.39821,-2.5610,-0.7317,-2.8659,0.00,0.00,0.00,6,S01
8060,-9.11951,-0.49799,1.48680,-3.5976,-0.4878,-2.5000,0.00,0.00,0.00,6,S01
8080,-9.08360,-0.56503,1.59693,-3.6585,-0.4878,-2.3780,0.00,0.00,0.00,6,S01
8100,-9.13148,-0.43814,1.59454,-2.6829,-1.0366,-2.7439,0.00,0.00,0.00,6,S01
8120,-9.21049,-0.27773,1.52750,-2.3780,-1.8902,-3.1098,0.00,0.00,0.00,6,S01
8140,-9.25119,-0.30646,1.44849,-2.5610,-2.8049,-3.1707,0.00,0.00,0.00,6,S01
8160,-9.17698,-0.34716,1.37427,-1.7683,-3.1098,-2.7439,0.00,0.00,0.00,6,S01
8180,-9.19373,-0.28730,1.39821,-1.4634,-2.6220,-2.5610,0.00,0.00,0.00,6,S01
8200,-9.34218,-0.31843,1.41497,-1.6463,-2.1341,-2.5610,0.00,0.00,0.00,6,S01
8220,-9.33978,-0.40701,1.40779,-1.0976,-2.6220,-2.7439,0.00,0.00,0.00,6,S01
8240,-9.21768,-0.37110,1.40061,-0.1220,-3.3537,-3.4756,0.00,0.00,0.00,6,S01
8260,-9.19373,-0.35674,1.40779,0.9146,-2.7439,-3.9634,0.00,0.00,0.00,6,S01
8280,-9.27035,-0.33998,1.37188,2.0122,-0.8537,-3.9634,0.00,0.00,0.00,6,S01
8300,-9.25838,-0.32322,1.40779,2.3171,0.1220,-4.0244,0.00,0.00,0.00,6,S01
8320,-9.19373,-0.27533,1.48441,2.1951,-0.2439,-4.2073,0.00,0.00,0.00,6,S01
8340,-9.15543,-0.31364,1.56341,1.8293,-0.2439,-3.9024,0.00,0.00,0.00,6,S01
8360,-9.24401,-0.51236,1.58736,1.8293,0.0000,-3.6585,0.00,0.00,0.00,6,S01
8380,-9.21049,-0.60813,1.58975,2.4390,-1.3415,-3.9634,0.00,0.00,0.00,6,S01
8400,-9.12909,-0.54588,1.51314,2.8049,-3.2317,-4.4512,0.00,0.00,0.00,6,S01
8420,-9.08600,-0.48123,1.48441,2.3780,-4.0244,-4.3902,0.00,0.00,0.00,6,S01
8440,-9.13148,-0.59137,1.57778,1.8902,-2.7439,-3.9634,0.00,0.00,0.00,6,S01
8460,-9.16261,-0.75178,1.65439,1.8293,-1.1585,-3.4146,0.00,0.00,0.00,6,S01
8480,-9.20810,-0.81163,1.67115,2.0122,-0.3659,-3.1098,0.00,0.00,0.00,6,S01
8500,-9.30866,-0.77093,1.72143,2.0732,0.0610,-3.4146,0.00,0.00,0.00,6,S01
8520,-9.34218,-0.83558,1.67594,1.9512,0.3659,-3.4146,0.00,0.00,0.00,6,S01
8540,-9.30147,-0.85234,1.52511,2.0732,0.7927,-3.5366,0.00,0.00,0.00,6,S01
8560,-9.18655,-0.67756,1.44610,1.8902,1.0366,-3.9634,0.00,0.00,0.00,6,S01
8580,-9.13627,-0.53151,1.46286,0.6707,1.2195,-3.6585,0.00,0.00,0.00,6,S01
8600,-9.10754,-0.48602,1.52511,-1.3415,1.7073,-1.8293,0.00,0.00,0.00,6,S01
8620,-9.08839,-0.54348,1.58975,-3.5366,2.0122,0.5488,0.00,0.00,0.00,6,S01
8640,-9.02853,-0.61052,1.64003,-4.9390,1.1585,2.0122,0.00,0.00,0.00,6,S01
8660,-9.04290,-0.60094,1.69031,-5.3659,0.2439,2.3171,0.00,0.00,0.00,6,S01
8680,-9.13148,-0.62249,1.62806,-4.8780,-0.3049,1.6463,0.00,0.00,0.00,6,S01
8700,-9.20331,-0.59137,1.56102,-3.9024,-0.6098,0.9756,0.00,0.00,0.00,6,S01
8720,-9.22007,-0.54827,1.50835,-3.7195,-1.4024,0.9146,0.00,0.00,0.00,6,S01
8740,-9.21049,-0.54827,1.49877,-4.2073,-2.2561,1.2195,0.00,0.00,0.00,6,S01
8760,-9.25838,-0.56264,1.51792,-4.9390,-3.1098,1.3415,0.00,0.00,0.00,6,S01
8780,-9.22725,-0.56503,1.50595,-4.7561,-3.3537,0.9146,0.00,0.00,0.00,6,S01
8800,-9.24641,-0.46926,1.49398,-4.4512,-2.8049,0.3659,0.00,0.00,0.00,6,S01
8820,-9.25838,-0.38547,1.54665,-4.8171,-2.1951,0.0000,0.00,0.00,0.00,6,S01
8840,-9.26556,-0.43335,1.66397,-5.4268,-1.9512,-0.1220,0.00,0.00,0.00,6,S01
8860,-9.20331,-0.52672,1.71664,-5.0000,-1.7073,-0.0610,0.00,0.00,0.00,6,S01
8880,-9.20092,-0.50518,1.67115,-3.3537,-1.0976,0.0610,0.00,0.00,0.00,6,S01
8900,-9.25359,-0.39744,1.62806,-2.5000,-1.6463,0.0610,0.00,0.00,0.00,6,S01
8920,-9.21768,-0.37350,1.65439,-2.9268,-2.9878,-0.1220,0.00,0.00,0.00,6,S01
8940,-9.15064,-0.42377,1.60412,-3.1098,-3.7805,-0.1220,0.00,0.00,0.00,6,S01
8960,-9.08360,-0.42617,1.53947,-2.2561,-4.2683,-0.0610,0.00,0.00,0.00,6,S01
8980,-9.08839,-0.40223,1.64721,-1.4024,-3.5976,0.8537,0.00,0.00,0.00,6,S01
9000,-9.12670,-0.45011,1.76213,-1.9512,-2.5000,2.2561,0.00,0.00,0.00,6,S01
9020,-9.14824,-0.62728,1.85072,-3.4146,-1.7073,2.7439,0.00,0.00,0.00,6,S01
9040,-9.12191,-0.77812,1.82199,-3.4756,-1.4024,1.7683,0.00,0.00,0.00,6,S01
9060,-9.13627,-0.69671,1.72622,-2.0732,-1.1585,0.0610,0.00,0.00,0.00,6,S01
9080,-9.20810,-0.52433,1.67355,-1.2195,-1.0366,-0.9146,0.00,0.00,0.00,6,S01
9100,-9.24880,-0.42138,1.69031,-1.6463,-1.0366,-0.8537,0.00,0.00,0.00,6,S01
9120,-9.20092,-0.41659,1.69749,-2.6220,-1.2805,-0.4268,0.00,0.00,0.00,6,S01
9140,-9.10994,-0.47405,1.76453,-2.6829,-1.3415,-0.3049,0.00,0.00,0.00,6,S01
9160,-9.09797,-0.47884,1.77171,-1.3415,-1.2805,-0.1829,0.00,0.00,0.00,6,S01
9180,-9.14346,-0.39504,1.74298,-0.0610,-1.0366,-0.0610,0.00,0.00,0.00,6,S01
9200,-9.16740,-0.33998,1.69749,0.0610,-0.9146,-0.1220,0.00,0.00,0.00,6,S01
9220,-9.16979,-0.37110,1.69270,-0.3049,-0.6098,-0.2439,0.00,0.00,0.00,6,S01
9240,-9.17458,-0.43814,1.73340,-0.1829,-0.2439,-0.3049,0.00,0.00,0.00,6,S01
9260,-9.15782,-0.47166,1.74298,0.2439,-0.1829,-0.1829,0.00,0.00,0.00,6,S01
9280,-9.11951,-0.42138,1.75256,0.4268,0.4268,0.1220,0.00,0.00,0.00,6,S01
9300,-9.15064,-0.39983,1.74777,-0.1829,1.8902,0.3659,0.00,0.00,0.00,6,S01
9320,-9.18176,-0.46208,1.71185,-1.3415,2.9268,0.4878,0.00,0.00,0.00,6,S01
9340,-9.18416,-0.51715,1.72143,-2.4390,3.1098,0.2439,0.00,0.00,0.00,6,S01
9360,-9.16979,-0.52194,1.75016,-2.5610,2.8659,-0.1220,0.00,0.00,0.00,6,S01
9380,-9.18176,-0.49081,1.74777,-2.0122,3.2317,-0.1220,0.00,0.00,0.00,6,S01
9400,-9.20810,-0.42377,1.73580,-2.3171,3.7805,0.0000,0.00,0.00,0.00,6,S01
9420,-9.21768,-0.40462,1.73819,-3.1707,3.4146,-0.1220,0.00,0.00,0.00,6,S01
9440,-9.16740,-0.51236,1.77171,-3.1098,2.8049,-0.3659,0.00,0.00,0.00,6,S01
9460,-9.20092,-0.54109,1.74777,-1.2805,2.7439,-0.6098,0.00,0.00,0.00,6,S01
9480,-9.22246,-0.39983,1.71904,0.6098,2.6220,-0.9756,0.00,0.00,0.00,6,S01
9500,-9.20331,-0.29449,1.65439,0.6707,2.3780,-1.0976,0.00,0.00,0.00,6,S01
9520,-9.14824,-0.30646,1.62327,0.0000,2.3780,-1.1585,0.00,0.00,0.00,6,S01
9540,-9.12670,-0.31843,1.57538,-0.0610,2.9878,-1.3415,0.00,0.00,0.00,6,S01
9560,-9.24880,-0.36152,1.60412,-0.4878,3.1707,-1.7683,0.00,0.00,0.00,6,S01
9580,-9.37091,-0.37589,1.67594,-1.1585,3.1707,-1.9512,0.00,0.00,0.00,6,S01
9600,-9.40442,-0.34955,1.57778,-0.7317,3.8415,-2.1341,0.00,0.00,0.00,6,S01
9620,-9.68933,-0.33279,1.27372,-0.0610,4.8171,-2.6829,0.00,0.00,0.00,6,S01
9640,-9.99340,-0.46926,1.15640,-0.9146,6.1585,-2.6829,0.00,0.00,0.00,6,S01
9660,-10.33337,-0.57940,1.00796,-1.5244,9.7561,-2.1341,0.00,0.00,0.00,6,S01
9680,-10.77870,-0.45490,0.77093,-2.0732,16.7073,-1.5854,0.00,0.00,0.00,6,S01
9700,-11.26232,-0.36871,0.54109,-3.0488,24.8171,-0.5488,0.00,0.00,0.00,6,S01
9720,-11.58554,-0.42617,0.33519,-4.0244,30.6707,0.9146,0.00,0.00,0.00,6,S01
9740,-11.69807,-0.46926,0.37828,-5.1829,35.5488,2.1951,0.00,0.00,0.00,6,S01
9760,-11.74356,-0.35913,0.39504,-7.0732,40.5488,3.3537,0.00,0.00,0.00,6,S01
9780,-11.80581,-0.45011,0.23224,-8.7805,46.1585,5.3659,0.00,0.00,0.00,6,S01
9800,-11.83693,-0.57940,0.25618,-8.6585,51.6463,6.0366,0.00,0.00,0.00,6,S01
9820,-11.54005,-0.66798,-0.03112,-6.4024,57.1341,5.1829,0.00,0.00,0.00,6,S01
9840,-11.50653,-0.74939,-0.14126,-4.3293,62.7439,4.3902,0.00,0.00,0.00,6,S01
9860,-11.68131,-0.73023,-0.51475,-5.7927,64.0854,3.4146,0.00,0.00,0.00,6,S01
9880,-11.87285,-0.60334,-0.69192,-7.3780,62.7439,0.7927,0.00,0.00,0.00,6,S01
9900,-11.60948,-0.44532,-0.62728,-4.8171,61.2195,-3.2927,0.00,0.00,0.00,6,S01
9920,-11.04685,-0.48842,-0.62249,-1.6463,62.0732,-8.4146,0.00,0.00,0.00,6,S01
9940,-10.81461,-0.72544,-0.56503,-2.0732,63.9024,-12.6829,0.00,0.00,0.00,6,S01
9960,-11.10670,-0.79248,-0.40701,-1.2805,63.3537,-14.0244,0.00,0.00,0.00,6,S01
9980,-11.14980,-0.37110,-0.79727,2.9878,61.2805,-14.4512,0.00,0.00,0.00,6,S01
10000,-10.56561,-0.25857,-0.83797,-4.2683,57.9268,-14.4512,0.00,0.00,0.00,6,S01
10020,-10.43393,-0.60334,-0.60813,-8.8415,53.9634,-14.5122,0.00,0.00,0.00,6,S01
10040,-10.46745,-0.83079,-0.75896,-7.9268,51.7683,-14.9390,0.00,0.00,0.00,6,S01
10060,-10.44111,-0.65362,-1.35512,-3.9634,51.1585,-16.4634,0.00,0.00,0.00,6,S01
10080,-10.56322,-0.41899,-1.35991,-3.1098,48.9024,-19.6951,0.00,0.00,0.00,6,S01
10100,-10.12268,-0.51475,-1.52271,-5.3049,42.0122,-20.6707,0.00,0.00,0.00,6,S01
10120,-9.40442,-0.84036,-1.66158,-7.0122,37.7439,-21.1585,0.00,0.00,0.00,6,S01
10140,-9.01417,-1.00796,-2.30562,-3.2927,36.8902,-21.8902,0.00,0.00,0.00,6,S01
10160,-8.89925,-0.76854,-2.69587,-0.9146,38.1707,-21.9512,0.00,0.00,0.00,6,S01
10180,-8.73884,-0.65601,-2.62644,-2.5610,41.2805,-21.2805,0.00,0.00,0.00,6,S01
10200,-8.71250,-0.87628,-2.60968,-3.4146,43.5366,-18.9634,0.00,0.00,0.00,6,S01
10220,-8.97107,-0.91459,-2.67193,-4.5122,43.1707,-15.3659,0.00,0.00,0.00,6,S01
10240,-9.19852,-0.71108,-2.63123,-5.1220,40.8537,-13.4756,0.00,0.00,0.00,6,S01
10260,-8.96389,-0.65122,-2.64559,-4.4512,34.3293,-13.5976,0.00,0.00,0.00,6,S01
10280,-8.49223,-0.81642,-2.55701,-5.7927,25.4878,-13.7805,0.00,0.00,0.00,6,S01
10300,-8.38210,-0.90740,-2.47082,-7.0732,18.1098,-12.5610,0.00,0.00,0.00,6,S01
10320,-8.75320,-1.22823,-2.55701,-8.1707,12.1341,-10.6098,0.00,0.00,0.00,6,S01
10340,-9.28950,-1.22823,-2.35589,-9.6341,6.9512,-10.6707,0.00,0.00,0.00,6,S01
10360,-9.09078,-1.09654,-2.51631,-8.7805,1.0366,-11.7073,0.00,0.00,0.00,6,S01
10380,-8.77954,-1.06063,-2.13563,-5.7927,-7.3780,-12.9268,0.00,0.00,0.00,6,S01
10400,-8.85855,-0.93374,-1.92973,-2.1951,-20.7317,-13.2927,0.00,0.00,0.00,6,S01
10420,-8.92080,-0.55067,-1.86748,-2.1341,-32.2561,-12.7439,0.00,0.00,0.00,6,S01
10440,-8.55927,-0.05267,-1.91536,-6.5854,-39.3902,-10.9756,0.00,0.00,0.00,6,S01
10460,-8.34619,0.06464,-1.61130,-13.9634,-45.5488,-8.5976,0.00,0.00,0.00,6,S01
10480,-8.29591,0.00479,-1.18992,-20.3659,-54.0854,-5.1829,0.00,0.00,0.00,6,S01
10500,-7.73088,0.01915,-1.37906,-26.2195,-61.5244,0.7927,0.00,0.00,0.00,6,S01
10520,-7.54652,-0.15083,-0.66798,-37.0122,-62.4390,7.0122,0.00,0.00,0.00,6,S01
10540,-7.27837,0.02155,-0.80924,-46.4634,-66.8902,8.2927,0.00,0.00,0.00,6,S01
10560,-6.63912,-0.27294,-1.33118,-52.6829,-66.8293,11.1585,0.00,0.00,0.00,6,S01
10580,-6.59842,-0.37589,-1.51314,-55.3659,-63.1098,11.8293,0.00,0.00,0.00,6,S01
10600,-6.98149,-0.43096,-1.69031,-57.8049,-64.8781,10.6098,0.00,0.00,0.00,6,S01
10620,-7.41724,0.34237,-1.51074,-62.5000,-64.9390,9.2683,0.00,0.00,0.00,6,S01
10640,-7.46991,0.59855,-1.73101,-69.3902,-62.3781,10.9146,0.00,0.00,0.00,6,S01
10660,-7.47470,0.31364,-2.12845,-76.0366,-58.4146,14.0854,0.00,0.00,0.00,6,S01
10680,-7.57286,-0.20351,-2.46124,-85.3659,-53.9634,15.7927,0.00,0.00,0.00,6,S01
10700,-7.71891,0.00718,-2.31519,-96.6463,-49.2683,14.9390,0.00,0.00,0.00,6,S01
10720,-7.42921,0.36392,-2.40617,-108.7195,-47.6829,16.2195,0.00,0.00,0.00,6,S01
10740,-7.25204,0.21548,-2.42293,-114.8171,-43.5976,19.4512,0.00,0.00,0.00,6,S01
10760,-7.66145,-0.23463,-2.40378,-114.2683,-33.1707,21.7683,0.00,0.00,0.00,6,S01
10780,-8.17141,-0.90501,-2.18112,-110.9146,-21.8902,22.5610,0.00,0.00,0.00,6,S01
10800,-8.31746,-1.22823,-2.17872,-105.8537,-15.2439,20.5488,0.00,0.00,0.00,6,S01
10820,-8.45153,-1.21386,-2.35350,-100.6098,-13.1098,16.2195,0.00,0.00,0.00,6,S01
10840,-8.84658,-0.79248,-2.12366,-97.1951,-10.1220,10.3659,0.00,0.00,0.00,6,S01
10860,-8.95910,-0.36152,-1.39103,-96.7683,-9.5732,5.9146,0.00,0.00,0.00,6,S01
10880,-8.63110,-0.12450,-1.23780,-97.0122,-12.3780,4.6341,0.00,0.00,0.00,6,S01
10900,-8.55448,-0.22745,-1.10852,-96.8902,-10.3659,4.9390,0.00,0.00,0.00,6,S01
10920,-8.96150,-0.48602,-0.71347,-96.4024,-5.3049,5.0610,0.00,0.00,0.00,6,S01
10940,-9.18895,-0.66798,-0.41899,-95.6707,-3.6585,5.6707,0.00,0.00,0.00,6,S01
10960,-8.78911,-0.70629,-0.31603,-93.7805,-4.2073,7.7439,0.00,0.00,0.00,6,S01
10980,-8.44914,-0.49799,-0.53870,-91.2195,-2.0122,10.6707,0.00,0.00,0.00,6,S01
11000,-8.79630,-0.37350,-0.54827,-90.3659,5.0610,12.8659,0.00,0.00,0.00,6,S01
11020,-9.27753,-0.64883,-0.42377,-88.1707,9.7561,14.0244,0.00,0.00,0.00,6,S01
11040,-9.12430,-1.04148,-0.24421,-83.4146,9.4512,14.0854,0.00,0.00,0.00,6,S01
11060,-8.80109,-1.05345,-0.32801,-78.0488,9.5122,13.2317,0.00,0.00,0.00,6,S01
11080,-8.95431,-0.80445,-0.68235,-73.6585,13.6585,12.3780,0.00,0.00,0.00,6,S01
11100,-9.71328,-0.19872,-0.81642,-72.9878,17.8659,12.7439,0.00,0.00,0.00,6,S01
11120,-9.75637,0.64404,-1.24738,-75.8537,16.8293,13.9634,0.00,0.00,0.00,6,S01
11140,-9.45710,1.34075,-1.10373,-81.9512,13.4756,15.2439,0.00,0.00,0.00,6,S01
11160,-9.59357,1.35751,-1.10133,-87.6220,9.3902,14.3293,0.00,0.00,0.00,6,S01
11180,-9.72285,0.86191,-1.69749,-88.6585,7.8049,9.8780,0.00,0.00,0.00,6,S01
11200,-9.98382,0.21308,-1.72622,-89.2683,9.7561,2.4390,0.00,0.00,0.00,6,S01
11220,-9.85453,0.13647,-1.86987,-90.1829,8.1707,-4.3293,0.00,0.00,0.00,6,S01
11240,-8.95431,0.42617,-2.29365,-95.9146,5.7927,-7.4390,0.00,0.00,0.00,6,S01
11260,-9.01178,0.71826,-2.11169,-100.3049,9.7561,-6.4634,0.00,0.00,0.00,6,S01
11280,-9.11473,0.91459,-2.11887,-103.4146,11.3415,-5.0000,0.00,0.00,0.00,6,S01
11300,-9.21528,1.21625,-2.25534,-104.8781,11.8902,-3.2317,0.00,0.00,0.00,6,S01
11320,-8.94713,0.67038,-2.42533,-106.8293,12.6829,0.3659,0.00,0.00,0.00,6,S01
11340,-9.34696,-0.69911,-1.87705,-110.3049,16.7683,5.3049,0.00,0.00,0.00,6,S01
11360,-9.21768,0.25618,-1.59933,-106.5854,26.0366,15.9146,0.00,0.00,0.00,6,S01
11380,-8.69095,0.68235,-1.06781,-103.5976,27.8049,16.9512,0.00,0.00,0.00,6,S01
11400,-8.96150,1.59693,-0.63686,-100.0610,19.8780,6.5854,0.00,0.00,0.00,6,S01
11420,-9.48583,2.31519,-0.89064,-92.7439,15.6707,-3.5366,0.00,0.00,0.00,6,S01
11440,-9.89045,2.22421,-0.60094,-93.4146,15.1220,-7.5610,0.00,0.00,0.00,6,S01
11460,-9.90481,1.91297,-0.57700,-95.1829,11.7073,-6.3415,0.00,0.00,0.00,6,S01
11480,-9.55765,1.54905,-0.63686,-96.8902,9.9390,-3.7195,0.00,0.00,0.00,6,S01
11500,-9.42118,1.28808,-0.29688,-99.5122,11.0976,-1.3415,0.00,0.00,0.00,6,S01
11520,-9.35654,1.07021,-0.20351,-100.6098,10.4268,-0.0610,0.00,0.00,0.00,6,S01
11540,-9.32063,1.07021,-0.08380,-99.5732,10.9146,0.7927,0.00,0.00,0.00,6,S01
11560,-9.32781,1.14682,-0.21787,-96.8902,10.7317,1.8293,0.00,0.00,0.00,6,S01
11580,-9.34696,1.15879,-0.28730,-93.1098,10.2439,2.8049,0.00,0.00,0.00,6,S01
11600,-9.34218,1.14682,-0.30406,-88.1098,9.9390,2.0732,0.00,0.00,0.00,6,S01
11620,-9.28950,1.09894,-0.36871,-82.5610,9.3902,0.3659,0.00,0.00,0.00,6,S01
11640,-9.25838,1.13725,-0.45729,-77.7439,8.0488,-1.4634,0.00,0.00,0.00,6,S01
11660,-9.18416,1.44131,-0.62968,-74.0244,5.4878,-2.8049,0.00,0.00,0.00,6,S01
11680,-9.07881,1.74537,-0.81642,-72.0732,2.9268,-3.7195,0.00,0.00,0.00,6,S01
11700,-9.14106,1.80044,-0.80206,-71.9512,1.5854,-4.3293,0.00,0.00,0.00,6,S01
11720,-9.03811,1.69270,-0.71108,-72.0122,0.4878,-4.8780,0.00,0.00,0.00,6,S01
11740,-8.74362,1.64482,-1.02232,-71.8293,0.0000,-6.5244,0.00,0.00,0.00,6,S01
11760,-8.67898,1.73340,-1.05105,-74.2683,1.8902,-9.3293,0.00,0.00,0.00,6,S01
11780,-8.92080,1.77410,-0.63686,-76.4634,4.8780,-12.4390,0.00,0.00,0.00,6,S01
11800,-8.97347,1.76932,-0.42377,-75.1220,5.4878,-14.8780,0.00,0.00,0.00,6,S01
11820,-9.01178,1.93451,-0.50039,-72.4390,5.3659,-16.8293,0.00,0.00,0.00,6,S01
11840,-9.11712,1.87945,-0.21308,-71.5244,5.1220,-17.0122,0.00,0.00,0.00,6,S01
11860,-9.15303,1.76213,-0.02873,-68.2927,2.8049,-15.7927,0.00,0.00,0.00,6,S01
11880,-9.18416,1.84593,0.02394,-63.7805,0.6098,-14.6951,0.00,0.00,0.00,6,S01
11900,-9.26077,1.93691,0.24421,-60.9146,-0.2439,-14.3902,0.00,0.00,0.00,6,S01
11920,-9.15064,1.87705,0.33040,-57.1951,-1.0976,-14.1463,0.00,0.00,0.00,6,S01
11940,-9.00459,1.82438,0.34237,-52.4390,-1.3415,-13.5976,0.00,0.00,0.00,6,S01
11960,-8.89446,1.72622,0.44293,-48.5976,-1.5244,-12.9268,0.00,0.00,0.00,6,S01
11980,-8.92080,1.62566,0.67756,-43.8415,-2.1951,-12.9878,0.00,0.00,0.00,6,S01
12000,-9.29190,1.69509,0.82839,-37.6829,-5.5488,-14.2073,0.00,0.00,0.00,6,S01
12020,-9.97185,1.73580,0.74699,-32.3171,-11.5854,-15.0000,0.00,0.00,0.00,6,S01
12040,-10.60392,2.00155,-0.54588,-28.2927,-16.0366,-13.6585,0.00,0.00,0.00,6,S01
12060,-11.62146,1.64482,-1.21625,-27.3171,-15.8537,-9.5122,0.00,0.00,0.00,6,S01
12080,-10.69250,0.89543,-1.37188,-29.8171,-17.2561,-1.6463,0.00,0.00,0.00,6,S01
12100,-9.25359,0.33998,-1.18992,-29.7561,-21.2195,2.7439,0.00,0.00,0.00,6,S01
12120,-8.69335,-0.05986,-0.94571,-26.8902,-23.5366,4.0244,0.00,0.00,0.00,6,S01
12140,-9.11473,0.06704,-0.94332,-22.6829,-18.9634,4.6341,0.00,0.00,0.00,6,S01
12160,-9.60075,0.35434,-0.87628,-25.4268,-15.7927,3.8415,0.00,0.00,0.00,6,S01
12180,-9.74201,0.39983,-1.00317,-33.6585,-15.6098,1.0366,0.00,0.00,0.00,6,S01
12200,-9.93115,0.11971,-0.85234,-42.9878,-13.9024,-3.2317,0.00,0.00,0.00,6,S01
12220,-10.03649,-0.29209,-0.44532,-50.4268,-14.8171,-8.2317,0.00,0.00,0.00,6,S01
12240,-9.68215,-0.66080,-0.45729,-54.6341,-19.2683,-13.1098,0.00,0.00,0.00,6,S01
12260,-9.27274,-0.86431,-0.58419,-57.2561,-20.0000,-17.0732,0.00,0.00,0.00,6,S01
12280,-8.87531,-0.98402,-0.63207,-58.0488,-16.5854,-19.2683,0.00,0.00,0.00,6,S01
12300,-8.75799,-0.88346,-0.52194,-56.3415,-11.8293,-20.1220,0.00,0.00,0.00,6,S01
12320,-8.82263,-0.81403,-0.45490,-52.9878,-7.0122,-20.0000,0.00,0.00,0.00,6,S01
12340,-8.93516,-0.79487,-0.30646,-49.9390,-3.1098,-18.9634,0.00,0.00,0.00,6,S01
12360,-9.12430,-0.67277,-0.15802,-48.5976,-1.0366,-17.3171,0.00,0.00,0.00,6,S01
12380,-9.23204,-0.53870,-0.08619,-48.4756,0.0610,-15.3659,0.00,0.00,0.00,6,S01
12400,-9.19852,-0.48123,-0.07422,-48.5976,0.9146,-14.1463,0.00,0.00,0.00,6,S01
12420,-9.26317,-0.33998,-0.03831,-48.5976,2.1951,-14.6341,0.00,0.00,0.00,6,S01
12440,-9.27035,-0.24660,-0.13886,-49.8781,3.2317,-15.4878,0.00,0.00,0.00,6,S01
12460,-9.30147,-0.28730,-0.11492,-50.7927,4.0244,-15.3049,0.00,0.00,0.00,6,S01
12480,-9.27274,-0.35434,-0.01676,-51.0976,4.3902,-13.5976,0.00,0.00,0.00,6,S01
12500,-9.07881,-0.62010,-0.04310,-49.5122,9.1463,-9.9390,0.00,0.00,0.00,6,S01
12520,-9.27035,-0.62010,0.02394,-49.3902,12.5610,-9.1463,0.00,0.00,0.00,6,S01
12540,-9.32542,-0.73502,0.15562,-49.2073,13.4756,-8.3537,0.00,0.00,0.00,6,S01
12560,-9.23683,-0.79248,0.33279,-46.9512,12.6829,-7.5610,0.00,0.00,0.00,6,S01
12580,-9.06684,-0.79248,0.35434,-44.5732,12.2561,-6.8293,0.00,0.00,0.00,6,S01
12600,-8.99502,-0.73981,0.30885,-43.1098,13.7195,-6.2195,0.00,0.00,0.00,6,S01
12620,-9.06445,-0.70150,0.33519,-42.2561,16.0366,-5.3659,0.00,0.00,0.00,6,S01
12640,-9.21289,-0.70629,0.38786,-40.9146,16.5244,-4.1463,0.00,0.00,0.00,6,S01
12660,-9.33020,-0.69911,0.43814,-39.1463,15.0000,-3.3537,0.00,0.00,0.00,6,S01
12680,-9.36612,-0.76614,0.59376,-38.4146,12.8049,-2.9268,0.00,0.00,0.00,6,S01
12700,-9.31823,-0.97444,0.63925,-36.7073,10.3659,-2.9268,0.00,0.00,0.00,6,S01
12720,-9.41640,-0.97444,0.54109,-33.1098,8.2927,-2.8659,0.00,0.00,0.00,6,S01
12740,-9.46189,-0.76375,0.71587,-31.9512,5.7927,-1.7683,0.00,0.00,0.00,6,S01
12760,-9.30866,-0.71587,0.78530,-32.0732,2.5610,-0.5488,0.00,0.00,0.00,6,S01
12780,-9.16740,-0.63686,0.60573,-30.9146,0.9756,0.1829,0.00,0.00,0.00,6,S01
12800,-9.19852,-0.49321,0.48363,-31.4024,1.3415,1.1585,0.00,0.00,0.00,6,S01
12820,-9.36612,-0.37828,0.54588,-32.9268,1.6463,2.3780,0.00,0.00,0.00,6,S01
12840,-9.51695,-0.48123,0.99359,-34.1463,0.6098,3.4146,0.00,0.00,0.00,6,S01
12860,-9.49780,-0.50278,1.18752,-33.8415,-2.8049,2.9878,0.00,0.00,0.00,6,S01
12880,-9.11712,-0.50996,1.00796,-34.0854,-5.1220,1.5244,0.00,0.00,0.00,6,S01
12900,-8.82263,-0.61052,0.76375,-34.4512,-3.1098,0.2439,0.00,0.00,0.00,6,S01
12920,-9.02614,-0.74699,0.50278,-33.8415,-0.1220,0.3659,0.00,0.00,0.00,6,S01
12940,-9.33260,-0.81163,0.18435,-32.9878,1.4024,1.3415,0.00,0.00,0.00,6,S01
12960,-10.06283,-0.93613,-0.42377,-32.3780,2.9268,1.5854,0.00,0.00,0.00,6,S01
12980,-10.65659,-1.00317,-0.90740,-29.9390,5.7927,-0.4878,0.00,0.00,0.00,6,S01
13000,-10.80743,-1.16119,-1.40300,-25.2439,7.9268,-5.6707,0.00,0.00,0.00,6,S01
13020,-10.21127,-0.91219,-1.56820,-20.3049,9.0854,-12.6829,0.00,0.00,0.00,6,S01
13040,-9.31105,-0.28970,-1.51314,-20.0610,10.3049,-15.9756,0.00,0.00,0.00,6,S01
13060,-8.67898,0.45729,-1.76213,-27.1951,11.2195,-12.2561,0.00,0.00,0.00,6,S01
13080,-8.84897,-0.04070,-2.02789,-36.8902,14.2073,-5.3659,0.00,0.00,0.00,6,S01
13100,-9.41640,-1.14682,-1.58017,-37.3171,18.5976,-2.3171,0.00,0.00,0.00,6,S01
13120,-9.65821,-1.24020,-1.37427,-28.5366,16.0976,-3.4756,0.00,0.00,0.00,6,S01
13140,-9.67736,-0.84276,-1.58736,-20.6707,6.7683,-4.3902,0.00,0.00,0.00,6,S01
13160,-9.67018,-0.29688,-1.75256,-16.4634,-0.0610,-3.3537,0.00,0.00,0.00,6,S01
13180,-9.68933,0.34716,-1.60172,-15.2439,-0.3659,-2.1951,0.00,0.00,0.00,6,S01
13200,-9.63187,0.55545,-1.39821,-14.5122,1.5854,-0.9146,0.00,0.00,0.00,6,S01
13220,-9.51695,0.44293,-1.29766,-13.5976,1.6463,1.4024,0.00,0.00,0.00,6,S01
13240,-9.46907,0.25857,-1.36948,-12.5000,0.8537,4.5732,0.00,0.00,0.00,6,S01
13260,-9.51216,0.10295,-1.53947,-10.5488,1.0976,7.6829,0.00,0.00,0.00,6,S01
13280,-9.40682,0.09577,-1.73819,-7.5610,1.8293,10.1829,0.00,0.00,0.00,6,S01
13300,-9.23204,0.13886,-1.90578,-5.6098,1.0366,11.4634,0.00,0.00,0.00,6,S01
13320,-9.16500,0.21548,-1.82917,-4.6341,-0.0610,11.7073,0.00,0.00,0.00,6,S01
13340,-9.30626,0.45011,-1.43892,-4.7561,-1.2195,10.9146,0.00,0.00,0.00,6,S01
13360,-9.36612,0.63446,-1.11091,-6.8293,-3.1098,9.6341,0.00,0.00,0.00,6,S01
13380,-9.15303,0.49081,-1.00078,-7.6220,-3.1098,8.4146,0.00,0.00,0.00,6,S01
13400,-8.99502,-0.00479,-0.79966,-4.3902,-1.1585,7.0732,0.00,0.00,0.00,6,S01
13420,-8.98783,-0.26815,-0.95050,2.7439,-1.2195,5.8537,0.00,0.00,0.00,6,S01
13440,-9.05727,-0.29928,-0.80685,9.7561,-0.8537,5.5488,0.00,0.00,0.00,6,S01
13460,-9.17937,-0.14365,-0.45011,16.8293,-0.7927,6.4634,0.00,0.00,0.00,6,S01
13480,-9.70609,0.56264,0.09577,21.0976,-4.5732,6.2805,0.00,0.00,0.00,6,S01
13500,-10.07001,1.08218,0.48363,19.8171,-13.2927,3.3537,0.00,0.00,0.00,6,S01
13520,-9.58878,1.06063,0.32322,19.3902,-22.3780,-0.8537,0.00,0.00,0.00,6,S01
13540,-9.14824,0.99120,0.04070,21.4634,-25.6707,-5.0610,0.00,0.00,0.00,6,S01
13560,-9.43794,0.77572,-0.23942,22.3780,-25.3659,-7.0732,0.00,0.00,0.00,6,S01
13580,-9.79468,0.11732,-0.52433,24.6951,-24.8780,-6.5244,0.00,0.00,0.00,6,S01
13600,-9.63187,-0.51236,-0.89783,31.1585,-22.8659,-6.4634,0.00,0.00,0.00,6,S01
13620,-8.96868,-0.41899,-1.16598,34.6951,-20.9146,-6.5244,0.00,0.00,0.00,6,S01
13640,-8.71968,0.03352,-1.24020,32.7439,-18.2317,-3.5976,0.00,0.00,0.00,6,S01
13660,-9.07402,0.13408,-1.30723,27.6829,-14.0244,0.0000,0.00,0.00,0.00,6,S01
13680,-9.44273,0.02634,-1.23062,20.4878,-8.8415,0.9146,0.00,0.00,0.00,6,S01
13700,-9.82102,-0.05746,-0.81642,7.8659,-6.4024,-2.5610,0.00,0.00,0.00,6,S01
13720,-10.03649,-0.26576,-0.52433,-6.4634,-10.7317,-7.5610,0.00,0.00,0.00,6,S01
13740,-9.66300,-0.94332,-0.16041,-20.4878,-14.2683,-11.6463,0.00,0.00,0.00,6,S01
13760,-9.50498,-1.25217,-0.09337,-22.6829,-12.1341,-11.7073,0.00,0.00,0.00,6,S01
13780,-9.46667,-1.48919,0.12210,-23.8415,-11.5854,-11.1585,0.00,0.00,0.00,6,S01
13800,-9.28711,-1.65200,0.12210,-23.7805,-13.7195,-10.3049,0.00,0.00,0.00,6,S01
13820,-9.02853,-1.65439,-0.12689,-20.9756,-15.0610,-9.4512,0.00,0.00,0.00,6,S01
13840,-8.92798,-1.42216,-0.15802,-17.8049,-15.0000,-8.7195,0.00,0.00,0.00,6,S01
13860,-8.73884,-1.15161,-0.24181,-17.0122,-15.0610,-7.2561,0.00,0.00,0.00,6,S01
13880,-8.82982,-0.81163,-0.16041,-17.3780,-12.7439,-6.0976,0.00,0.00,0.00,6,S01
13900,-8.85855,-0.55067,-0.46926,-17.9268,-9.6951,-5.9756,0.00,0.00,0.00,6,S01
13920,-8.77475,-0.52672,-0.71347,-16.4634,-1.8902,-5.9756,0.00,0.00,0.00,6,S01
13940,-9.22486,-0.61531,-0.37350,-14.3293,7.6220,-6.3415,0.00,0.00,0.00,6,S01
13960,-9.70609,-0.79009,0.05267,-14.5732,7.0122,-6.7073,0.00,0.00,0.00,6,S01
13980,-9.68694,-1.08697,0.14605,-16.5244,-2.7439,-7.7439,0.00,0.00,0.00,6,S01
14000,-9.38288,-1.29287,-0.01915,-14.7561,-10.1829,-8.5976,0.00,0.00,0.00,6,S01
14020,-9.11712,-1.50835,0.07661,-9.5732,-10.1220,-8.5976,0.00,0.00,0.00,6,S01
14040,-9.10036,-1.28569,0.11492,-3.4756,-6.7683,-8.1098,0.00,0.00,0.00,6,S01
14060,-9.19852,-1.05105,0.22266,-2.3171,-5.2439,-6.0976,0.00,0.00,0.00,6,S01
14080,-9.61272,-1.04387,0.36392,-2.3171,-5.0610,-2.6220,0.00,0.00,0.00,6,S01
14100,-9.86172,-0.97923,-0.05267,-1.2805,-6.0976,1.7683,0.00,0.00,0.00,6,S01
14120,-9.67976,-0.86910,-0.11492,-2.8049,-3.8415,5.3049,0.00,0.00,0.00,6,S01
14140,-9.49540,-0.81403,-0.10295,-6.0366,-2.8659,5.6098,0.00,0.00,0.00,6,S01
14160,-9.25598,-0.84515,-0.03831,-8.5976,-4.6951,4.0244,0.00,0.00,0.00,6,S01
14180,-9.07163,-0.71347,0.00239,-10.2439,-7.1341,2.3171,0.00,0.00,0.00,6,S01
14200,-9.00220,-0.64404,0.12929,-12.5610,-7.0732,2.0732,0.00,0.00,0.00,6,S01
14220,-9.01417,-0.77093,0.25139,-14.6951,-4.4512,2.6220,0.00,0.00,0.00,6,S01
14240,-9.12909,-0.93134,0.39983,-16.4634,-2.2561,2.6220,0.00,0.00,0.00,6,S01
14260,-9.27993,-1.09894,0.59376,-17.6220,-2.8049,2.4390,0.00,0.00,0.00,6,S01
14280,-9.45470,-1.11091,0.71347,-18.0488,-5.3659,2.3780,0.00,0.00,0.00,6,S01
14300,-9.41400,-1.11330,0.85234,-17.1951,-7.8659,2.0732,0.00,0.00,0.00,6,S01
14320,-9.27274,-1.14922,0.99599,-14.2683,-8.2317,1.1585,0.00,0.00,0.00,6,S01
14340,-9.17219,-1.13964,1.03430,-9.3293,-6.8293,0.4268,0.00,0.00,0.00,6,S01
14360,-9.05248,-1.08218,0.96486,-4.4512,-5.2439,0.4268,0.00,0.00,0.00,6,S01
14380,-8.98544,-0.89064,0.74939,-0.0610,-3.2927,0.8537,0.00,0.00,0.00,6,S01
14400,-9.06205,-0.82361,0.76854,3.4146,-0.9756,2.0732,0.00,0.00,0.00,6,S01
14420,-9.12430,-0.92656,0.78530,6.3415,-0.9146,3.9634,0.00,0.00,0.00,6,S01
14440,-9.33020,-0.88107,0.61770,8.7805,-1.1585,5.0610,0.00,0.00,0.00,6,S01
14460,-9.47386,-0.78769,0.63207,10.3049,-0.7317,5.1220,0.00,0.00,0.00,6,S01
14480,-9.55047,-0.70629,0.56982,11.2805,-0.5488,4.2073,0.00,0.00,0.00,6,S01
14500,-9.58399,-0.76136,0.51954,12.8049,-1.0366,2.9878,0.00,0.00,0.00,6,S01
14520,-9.46667,-0.80924,0.52194,14.0854,-1.6463,1.6463,0.00,0.00,0.00,6,S01
14540,-9.30147,-0.76614,0.45490,14.8780,-1.7073,0.6098,0.00,0.00,0.00,6,S01
14560,-9.24162,-0.61052,0.40941,14.8780,-0.1829,0.1829,0.00,0.00,0.00,6,S01
14580,-9.27514,-0.48363,0.50757,14.1463,1.4634,0.3049,0.00,0.00,0.00,6,S01
14600,-9.32781,-0.48123,0.60813,13.3537,1.7683,0.7317,0.00,0.00,0.00,6,S01
14620,-9.41161,-0.63207,0.57700,13.7805,1.9512,1.2195,0.00,0.00,0.00,6,S01
14640,-9.38048,-0.74220,0.50039,15.4268,2.8049,1.4634,0.00,0.00,0.00,6,S01
14660,-9.29908,-0.62249,0.43335,17.0732,3.8415,1.3415,0.00,0.00,0.00,6,S01
14680,-9.22725,-0.41420,0.47884,17.7439,4.5732,1.2805,0.00,0.00,0.00,6,S01
14700,-9.19613,-0.21787,0.42377,17.9268,5.2439,1.3415,0.00,0.00,0.00,6,S01
14720,-9.34218,0.00000,0.26576,16.5244,6.4024,1.0976,0.00,0.00,0.00,6,S01
14740,-9.58638,0.05507,0.23942,12.9878,7.3780,0.4878,0.00,0.00,0.00,6,S01
14760,-9.62469,-0.12689,0.32561,9.6341,7.3780,-0.1220,0.00,0.00,0.00,6,S01
14780,-9.41640,-0.33519,0.31843,8.1707,6.4024,-0.9756,0.00,0.00,0.00,6,S01
14800,-9.10515,-0.45490,0.23703,8.1098,6.2195,-1.8902,0.00,0.00,0.00,6,S01
14820,-9.04051,-0.59855,0.29688,9.0854,8.2317,-2.5610,0.00,0.00,0.00,6,S01
14840,-9.36372,-0.68235,0.33519,10.6098,10.3659,-3.2317,0.00,0.00,0.00,6,S01
14860,-9.49301,-0.76614,0.36392,12.8659,10.5488,-4.5732,0.00,0.00,0.00,6,S01
14880,-9.28232,-0.72544,0.26336,16.8293,9.5732,-7.0732,0.00,0.00,0.00,6,S01
14900,-9.06684,-0.68714,0.18675,21.2195,10.4268,-8.6585,0.00,0.00,0.00,6,S01
14920,-8.99741,-0.66319,0.18435,25.2439,12.1341,-8.3537,0.00,0.00,0.00,6,S01
14940,-9.14824,-0.68953,0.32322,29.0244,13.2317,-7.3780,0.00,0.00,0.00,6,S01
14960,-9.44034,-0.73023,0.53630,33.2927,13.2317,-6.4634,0.00,0.00,0.00,6,S01
14980,-9.49780,-0.86191,0.56024,38.0488,12.2561,-6.4024,0.00,0.00,0.00,6,S01
# DONE 750 samples in 15.0s
