timestamp,ax,ay,az,gx,gy,gz,mx,my,mz,label,subject_id
0,-7.56089,0.08140,5.53300,-0.5488,0.2439,-1.1585,0.00,0.00,0.00,0,S01
20,-7.56328,0.08619,5.52821,-0.6707,0.1829,-1.1585,0.00,0.00,0.00,0,S01
40,-7.54892,0.10056,5.52821,-0.6098,0.1220,-1.2195,0.00,0.00,0.00,0,S01
60,-7.53455,0.09337,5.52582,-0.4268,0.2439,-1.2805,0.00,0.00,0.00,0,S01
80,-7.54174,0.09098,5.53539,-0.3049,0.3049,-1.2805,0.00,0.00,0.00,0,S01
100,-7.54892,0.09098,5.54258,-0.4268,0.2439,-1.2805,0.00,0.00,0.00,0,S01
120,-7.55371,0.09337,5.53061,-0.5488,0.0610,-1.2805,0.00,0.00,0.00,0,S01
140,-7.54413,0.08859,5.52582,-0.5488,0.0000,-1.2805,0.00,0.00,0.00,0,S01
160,-7.55131,0.09577,5.53300,-0.3659,0.0610,-1.3415,0.00,0.00,0.00,0,S01
180,-7.56328,0.09098,5.54018,-0.2439,0.1829,-1.3415,0.00,0.00,0.00,0,S01
200,-7.56089,0.08619,5.53779,-0.3659,0.1829,-1.3415,0.00,0.00,0.00,0,S01
220,-7.55371,0.08619,5.54018,-0.5488,0.1829,-1.2805,0.00,0.00,0.00,0,S01
240,-7.55610,0.08140,5.53779,-0.6098,0.2439,-1.2805,0.00,0.00,0.00,0,S01
260,-7.55849,0.07422,5.53539,-0.4878,0.3049,-1.2805,0.00,0.00,0.00,0,S01
280,-7.56328,0.08140,5.53061,-0.4268,0.3049,-1.2805,0.00,0.00,0.00,0,S01
300,-7.55131,0.08380,5.52821,-0.5488,0.2439,-1.2805,0.00,0.00,0.00,0,S01
320,-7.56568,0.08859,5.53300,-0.6707,0.1829,-1.2195,0.00,0.00,0.00,0,S01
340,-7.57047,0.08140,5.52582,-0.6098,0.0610,-1.2195,0.00,0.00,0.00,0,S01
360,-7.56807,0.07183,5.52821,-0.4268,-0.0610,-1.2805,0.00,0.00,0.00,0,S01
380,-7.55849,0.08140,5.51624,-0.4268,0.0000,-1.2805,0.00,0.00,0.00,0,S01
400,-7.54413,0.08380,5.52103,-0.5488,0.1220,-1.2805,0.00,0.00,0.00,0,S01
420,-7.53695,0.09337,5.52582,-0.6098,0.3049,-1.3415,0.00,0.00,0.00,0,S01
440,-7.55131,0.10534,5.54258,-0.5488,0.4878,-1.4024,0.00,0.00,0.00,0,S01
460,-7.53695,0.09098,5.54976,-0.4878,0.5488,-1.4634,0.00,0.00,0.00,0,S01
480,-7.54174,0.08619,5.57131,-0.3659,0.6098,-1.4024,0.00,0.00,0.00,0,S01
500,-7.56089,0.07901,5.55694,-0.3049,0.4878,-1.4024,0.00,0.00,0.00,0,S01
520,-7.54652,0.08140,5.54976,-0.3659,0.2439,-1.4024,0.00,0.00,0.00,0,S01
540,-7.54174,0.08619,5.55455,-0.3659,0.2439,-1.4024,0.00,0.00,0.00,0,S01
560,-7.57047,0.09577,5.52582,-0.2439,0.1829,-1.4024,0.00,0.00,0.00,0,S01
580,-7.56568,0.08140,5.51624,-0.1829,0.1220,-1.3415,0.00,0.00,0.00,0,S01
600,-7.55849,0.07661,5.51863,-0.2439,0.0610,-1.3415,0.00,0.00,0.00,0,S01
620,-7.55849,0.08140,5.53300,-0.3659,0.0000,-1.2805,0.00,0.00,0.00,0,S01
640,-7.55849,0.08619,5.53061,-0.4268,0.0000,-1.3415,0.00,0.00,0.00,0,S01
660,-7.56568,0.08380,5.50427,-0.4268,0.0000,-1.2805,0.00,0.00,0.00,0,S01
680,-7.57286,0.08619,5.50188,-0.3659,0.1220,-1.2195,0.00,0.00,0.00,0,S01
700,-7.57286,0.08859,5.51863,-0.4268,0.2439,-1.2195,0.00,0.00,0.00,0,S01
720,-7.56089,0.09577,5.53300,-0.4878,0.3049,-1.2195,0.00,0.00,0.00,0,S01
740,-7.55371,0.10534,5.53061,-0.5488,0.3049,-1.2195,0.00,0.00,0.00,0,S01
760,-7.55131,0.09337,5.54737,-0.4878,0.1829,-1.2195,0.00,0.00,0.00,0,S01
780,-7.54174,0.08619,5.55455,-0.4878,0.1829,-1.2195,0.00,0.00,0.00,0,S01
800,-7.53695,0.09337,5.55215,-0.5488,0.1829,-1.2195,0.00,0.00,0.00,0,S01
820,-7.54652,0.08619,5.55215,-0.4878,0.1829,-1.2805,0.00,0.00,0.00,0,S01
840,-7.54652,0.09577,5.56173,-0.3659,0.2439,-1.3415,0.00,0.00,0.00,0,S01
860,-7.54413,0.10056,5.55694,-0.3049,0.1829,-1.3415,0.00,0.00,0.00,0,S01
880,-7.55371,0.10295,5.54737,-0.2439,0.1220,-1.3415,0.00,0.00,0.00,0,S01
900,-7.54892,0.10056,5.55455,-0.3049,0.0610,-1.3415,0.00,0.00,0.00,0,S01
920,-7.54892,0.08619,5.55215,-0.3659,0.1220,-1.4024,0.00,0.00,0.00,0,S01
940,-7.56568,0.08380,5.54737,-0.3659,0.1829,-1.3415,0.00,0.00,0.00,0,S01
960,-7.55849,0.08380,5.54737,-0.3049,0.1829,-1.3415,0.00,0.00,0.00,0,S01
980,-7.56089,0.08619,5.53779,-0.3049,0.2439,-1.3415,0.00,0.00,0.00,0,S01
1000,-7.56568,0.08380,5.53539,-0.4268,0.1829,-1.3415,0.00,0.00,0.00,0,S01
1020,-7.56328,0.08619,5.54497,-0.5488,0.1829,-1.2805,0.00,0.00,0.00,0,S01
1040,-7.56328,0.08619,5.54018,-0.4878,0.1829,-1.2805,0.00,0.00,0.00,0,S01
1060,-7.56089,0.07901,5.53300,-0.3659,0.1829,-1.2805,0.00,0.00,0.00,0,S01
1080,-7.55371,0.08380,5.54737,-0.4268,0.1220,-1.2805,0.00,0.00,0.00,0,S01
1100,-7.55610,0.08619,5.56173,-0.4878,0.1220,-1.2805,0.00,0.00,0.00,0,S01
1120,-7.55610,0.09337,5.54976,-0.5488,0.0000,-1.2805,0.00,0.00,0.00,0,S01
1140,-7.54413,0.09098,5.54258,-0.4268,0.0000,-1.2805,0.00,0.00,0.00,0,S01
1160,-7.54413,0.09337,5.54737,-0.3049,0.0610,-1.2805,0.00,0.00,0.00,0,S01
1180,-7.53934,0.08859,5.52582,-0.3659,0.1220,-1.2805,0.00,0.00,0.00,0,S01
1200,-7.54413,0.09337,5.54018,-0.4268,0.1829,-1.2805,0.00,0.00,0.00,0,S01
1220,-7.54413,0.08859,5.54258,-0.4878,0.1220,-1.2805,0.00,0.00,0.00,0,S01
1240,-7.54174,0.08619,5.52821,-0.3659,0.1220,-1.2805,0.00,0.00,0.00,0,S01
1260,-7.54413,0.08619,5.54737,-0.3049,0.0610,-1.2805,0.00,0.00,0.00,0,S01
1280,-7.55849,0.09337,5.54737,-0.3659,0.0000,-1.3415,0.00,0.00,0.00,0,S01
1300,-7.56568,0.09816,5.53300,-0.5488,-0.1220,-1.2805,0.00,0.00,0.00,0,S01
1320,-7.53216,0.09337,5.57370,-0.4878,0.0000,-1.2805,0.00,0.00,0.00,0,S01
1340,-7.53695,0.08140,5.56891,-0.1220,0.0610,-1.2805,0.00,0.00,0.00,0,S01
1360,-7.55131,0.08140,5.56652,0.1220,0.0000,-1.3415,0.00,0.00,0.00,0,S01
1380,-7.54174,0.08140,5.55934,-0.1220,-0.1220,-1.3415,0.00,0.00,0.00,0,S01
1400,-7.53695,0.08859,5.55455,-0.4878,-0.3049,-1.2805,0.00,0.00,0.00,0,S01
1420,-7.52737,0.08140,5.56173,-0.5488,-0.2439,-1.2805,0.00,0.00,0.00,0,S01
1440,-7.53695,0.08859,5.53779,-0.3049,-0.1220,-1.2805,0.00,0.00,0.00,0,S01
1460,-7.55371,0.08859,5.52342,-0.2439,0.0000,-1.2805,0.00,0.00,0.00,0,S01
1480,-7.55371,0.09577,5.52582,-0.3659,0.0000,-1.2195,0.00,0.00,0.00,0,S01
1500,-7.54652,0.10056,5.52582,-0.5488,0.0610,-1.2195,0.00,0.00,0.00,0,S01
1520,-7.53934,0.10056,5.54258,-0.5488,0.2439,-1.2195,0.00,0.00,0.00,0,S01
1540,-7.53695,0.10774,5.54737,-0.3659,0.3659,-1.2805,0.00,0.00,0.00,0,S01
1560,-7.54652,0.10295,5.55455,-0.3659,0.3049,-1.2805,0.00,0.00,0.00,0,S01
1580,-7.54174,0.10056,5.55455,-0.4878,0.2439,-1.2195,0.00,0.00,0.00,0,S01
1600,-7.53695,0.09577,5.56412,-0.6707,0.1220,-1.2195,0.00,0.00,0.00,0,S01
1620,-7.53455,0.09816,5.56173,-0.6098,0.1829,-1.2195,0.00,0.00,0.00,0,S01
1640,-7.52737,0.08859,5.55455,-0.4268,0.2439,-1.2805,0.00,0.00,0.00,0,S01
1660,-7.52498,0.08859,5.56173,-0.3659,0.3049,-1.2805,0.00,0.00,0.00,0,S01
1680,-7.52976,0.09337,5.56412,-0.4268,0.2439,-1.3415,0.00,0.00,0.00,0,S01
1700,-7.53455,0.08859,5.55934,-0.4878,0.1220,-1.3415,0.00,0.00,0.00,0,S01
1720,-7.53934,0.08380,5.54497,-0.4878,0.1220,-1.3415,0.00,0.00,0.00,0,S01
1740,-7.54174,0.08140,5.54976,-0.3659,0.1829,-1.3415,0.00,0.00,0.00,0,S01
1760,-7.53934,0.09577,5.54737,-0.3049,0.3049,-1.4024,0.00,0.00,0.00,0,S01
1780,-7.53455,0.10056,5.56173,-0.4878,0.3049,-1.3415,0.00,0.00,0.00,0,S01
1800,-7.53695,0.10056,5.55694,-0.5488,0.2439,-1.3415,0.00,0.00,0.00,0,S01
1820,-7.54174,0.09337,5.55455,-0.4878,0.3049,-1.3415,0.00,0.00,0.00,0,S01
1840,-7.54174,0.10056,5.55455,-0.4268,0.3049,-1.3415,0.00,0.00,0.00,0,S01
1860,-7.53934,0.09577,5.54976,-0.4268,0.2439,-1.3415,0.00,0.00,0.00,0,S01
1880,-7.54174,0.08380,5.54976,-0.4878,0.2439,-1.2805,0.00,0.00,0.00,0,S01
1900,-7.53455,0.08380,5.57131,-0.5488,0.3659,-1.2805,0.00,0.00,0.00,0,S01
1920,-7.54892,0.08619,5.55694,-0.5488,0.3659,-1.2805,0.00,0.00,0.00,0,S01
1940,-7.54413,0.09816,5.54976,-0.4878,0.1829,-1.3415,0.00,0.00,0.00,0,S01
1960,-7.53934,0.09816,5.54258,-0.4268,0.1220,-1.3415,0.00,0.00,0.00,0,S01
1980,-7.52737,0.08380,5.54497,-0.3659,0.2439,-1.2805,0.00,0.00,0.00,0,S01
2000,-7.53455,0.07901,5.54258,-0.3659,0.3659,-1.2805,0.00,0.00,0.00,0,S01
2020,-7.54413,0.09098,5.54976,-0.4268,0.4268,-1.2805,0.00,0.00,0.00,0,S01
2040,-7.53455,0.09577,5.55694,-0.4878,0.4268,-1.2805,0.00,0.00,0.00,0,S01
2060,-7.54413,0.08859,5.55455,-0.4268,0.3659,-1.2805,0.00,0.00,0.00,0,S01
2080,-7.52258,0.08140,5.56891,-0.3659,0.3049,-1.2805,0.00,0.00,0.00,0,S01
2100,-7.52976,0.08140,5.56173,-0.4878,0.2439,-1.2805,0.00,0.00,0.00,0,S01
2120,-7.56328,0.09337,5.56173,-0.6098,0.1220,-1.2805,0.00,0.00,0.00,0,S01
2140,-7.53695,0.08380,5.57370,-0.5488,0.1220,-1.2195,0.00,0.00,0.00,0,S01
2160,-7.53216,0.08619,5.56652,-0.2439,0.1829,-1.2805,0.00,0.00,0.00,0,S01
2180,-7.54892,0.08859,5.55215,0.0000,0.1829,-1.3415,0.00,0.00,0.00,0,S01
2200,-7.52737,0.07661,5.55455,-0.0610,0.1829,-1.3415,0.00,0.00,0.00,0,S01
2220,-7.52258,0.07422,5.55934,-0.2439,0.1220,-1.2805,0.00,0.00,0.00,0,S01
2240,-7.53216,0.07422,5.57849,-0.3659,0.1220,-1.2805,0.00,0.00,0.00,0,S01
2260,-7.53934,0.07661,5.54737,-0.3659,0.0610,-1.3415,0.00,0.00,0.00,0,S01
2280,-7.54413,0.09577,5.52103,-0.4268,0.1220,-1.2805,0.00,0.00,0.00,0,S01
2300,-7.54174,0.10056,5.51863,-0.4268,0.3049,-1.2805,0.00,0.00,0.00,0,S01
2320,-7.54892,0.10295,5.53539,-0.4268,0.4268,-1.2195,0.00,0.00,0.00,0,S01
2340,-7.53695,0.10056,5.54258,-0.4878,0.4878,-1.2195,0.00,0.00,0.00,0,S01
2360,-7.53216,0.10295,5.55934,-0.4878,0.6098,-1.2195,0.00,0.00,0.00,0,S01
2380,-7.55131,0.09337,5.55455,-0.4878,0.6707,-1.2195,0.00,0.00,0.00,0,S01
2400,-7.55131,0.08619,5.56891,-0.4268,0.6707,-1.1585,0.00,0.00,0.00,0,S01
2420,-7.54892,0.07661,5.57370,-0.4268,0.5488,-1.1585,0.00,0.00,0.00,0,S01
2440,-7.53934,0.08619,5.54976,-0.4878,0.4268,-1.1585,0.00,0.00,0.00,0,S01
2460,-7.53455,0.09577,5.54018,-0.4268,0.5488,-1.2195,0.00,0.00,0.00,0,S01
2480,-7.53695,0.08619,5.54497,-0.3659,0.7317,-1.2805,0.00,0.00,0.00,0,S01
2500,-7.54413,0.08619,5.56891,-0.2439,0.7927,-1.2805,0.00,0.00,0.00,0,S01
2520,-7.54892,0.09098,5.56173,-0.1829,0.6707,-1.3415,0.00,0.00,0.00,0,S01
2540,-7.54174,0.09098,5.54497,-0.1829,0.5488,-1.3415,0.00,0.00,0.00,0,S01
2560,-7.53934,0.09337,5.53779,-0.2439,0.5488,-1.3415,0.00,0.00,0.00,0,S01
2580,-7.54174,0.10056,5.53300,-0.2439,0.6098,-1.3415,0.00,0.00,0.00,0,S01
2600,-7.54652,0.10534,5.54018,-0.2439,0.7317,-1.3415,0.00,0.00,0.00,0,S01
2620,-7.56089,0.10056,5.53779,-0.3049,0.7927,-1.3415,0.00,0.00,0.00,0,S01
2640,-7.55849,0.09577,5.53539,-0.3049,0.7317,-1.2805,0.00,0.00,0.00,0,S01
2660,-7.55849,0.08859,5.53300,-0.3049,0.6707,-1.2805,0.00,0.00,0.00,0,S01
2680,-7.56328,0.08859,5.53061,-0.2439,0.6707,-1.2805,0.00,0.00,0.00,0,S01
2700,-7.56089,0.09098,5.54258,-0.3049,0.6707,-1.2805,0.00,0.00,0.00,0,S01
2720,-7.56089,0.09816,5.54258,-0.3659,0.6098,-1.2805,0.00,0.00,0.00,0,S01
2740,-7.55610,0.11492,5.54497,-0.4268,0.6098,-1.2805,0.00,0.00,0.00,0,S01
2760,-7.55131,0.11013,5.54497,-0.3659,0.7927,-1.2805,0.00,0.00,0.00,0,S01
2780,-7.55610,0.10295,5.54018,-0.2439,0.8537,-1.2805,0.00,0.00,0.00,0,S01
2800,-7.55610,0.09577,5.54258,-0.2439,0.7317,-1.2805,0.00,0.00,0.00,0,S01
2820,-7.53934,0.09337,5.53061,-0.3049,0.6098,-1.2805,0.00,0.00,0.00,0,S01
2840,-7.53934,0.09098,5.53779,-0.3659,0.8537,-1.3415,0.00,0.00,0.00,0,S01
2860,-7.55849,0.08619,5.53300,-0.3049,1.0366,-1.3415,0.00,0.00,0.00,0,S01
2880,-7.57525,0.08140,5.53061,-0.2439,0.9756,-1.3415,0.00,0.00,0.00,0,S01
2900,-7.56807,0.08380,5.50188,-0.1220,0.8537,-1.3415,0.00,0.00,0.00,0,S01
2920,-7.55610,0.09577,5.49469,-0.1829,0.8537,-1.3415,0.00,0.00,0.00,0,S01
2940,-7.55849,0.10295,5.51624,-0.1829,0.9146,-1.4024,0.00,0.00,0.00,0,S01
2960,-7.58483,0.10056,5.52342,-0.1220,0.8537,-1.4634,0.00,0.00,0.00,0,S01
2980,-7.57286,0.10534,5.51385,-0.0610,0.6707,-1.4024,0.00,0.00,0.00,0,S01
3000,-7.54174,0.09337,5.53300,-0.0610,0.8537,-1.2805,0.00,0.00,0.00,0,S01
3020,-7.56807,0.10295,5.52342,0.0000,0.9146,-1.3415,0.00,0.00,0.00,0,S01
3040,-7.57286,0.10534,5.51385,0.1829,0.6707,-1.4024,0.00,0.00,0.00,0,S01
3060,-7.56328,0.09098,5.49948,0.1829,0.5488,-1.4024,0.00,0.00,0.00,0,S01
3080,-7.55849,0.08619,5.50427,0.1220,0.4878,-1.4024,0.00,0.00,0.00,0,S01
3100,-7.57047,0.08859,5.51145,0.0000,0.5488,-1.3415,0.00,0.00,0.00,0,S01
3120,-7.58244,0.09337,5.46836,-0.1220,0.5488,-1.3415,0.00,0.00,0.00,0,S01
3140,-7.58962,0.09577,5.47075,-0.1829,0.6707,-1.3415,0.00,0.00,0.00,0,S01
3160,-7.58004,0.11253,5.47793,-0.1829,0.7317,-1.3415,0.00,0.00,0.00,0,S01
3180,-7.57047,0.10534,5.48512,-0.1220,0.7927,-1.3415,0.00,0.00,0.00,0,S01
3200,-7.57047,0.10056,5.48512,-0.1220,0.7927,-1.4024,0.00,0.00,0.00,0,S01
3220,-7.58004,0.09098,5.48751,-0.1829,0.6707,-1.3415,0.00,0.00,0.00,0,S01
3240,-7.58962,0.09816,5.49948,-0.3659,0.5488,-1.2805,0.00,0.00,0.00,0,S01
3260,-7.59680,0.11253,5.50188,-0.4878,0.3049,-1.2805,0.00,0.00,0.00,0,S01
3280,-7.58962,0.12450,5.48272,-0.4878,0.1829,-1.2805,0.00,0.00,0.00,0,S01
3300,-7.58004,0.10534,5.47315,-0.4268,0.2439,-1.2805,0.00,0.00,0.00,0,S01
3320,-7.58483,0.09577,5.49469,-0.3659,0.3049,-1.2805,0.00,0.00,0.00,0,S01
3340,-7.59441,0.11013,5.50666,-0.3659,0.1829,-1.3415,0.00,0.00,0.00,0,S01
3360,-7.58722,0.12210,5.50666,-0.4878,-0.1220,-1.3415,0.00,0.00,0.00,0,S01
3380,-7.58244,0.11492,5.49948,-0.5488,-0.1829,-1.3415,0.00,0.00,0.00,0,S01
3400,-7.58004,0.11013,5.50188,-0.5488,-0.0610,-1.2805,0.00,0.00,0.00,0,S01
3420,-7.58004,0.11013,5.50188,-0.4878,0.1220,-1.2805,0.00,0.00,0.00,0,S01
3440,-7.58722,0.10534,5.49948,-0.4878,0.1220,-1.2805,0.00,0.00,0.00,0,S01
3460,-7.57765,0.10056,5.50666,-0.6098,0.0000,-1.2805,0.00,0.00,0.00,0,S01
3480,-7.57047,0.09337,5.50666,-0.6707,-0.0610,-1.2805,0.00,0.00,0.00,0,S01
3500,-7.57525,0.09816,5.51145,-0.7317,0.0610,-1.2805,0.00,0.00,0.00,0,S01
3520,-7.57525,0.09816,5.52103,-0.6707,0.1829,-1.2805,0.00,0.00,0.00,0,S01
3540,-7.58483,0.09577,5.52103,-0.6098,0.1829,-1.2195,0.00,0.00,0.00,0,S01
3560,-7.58244,0.09337,5.52582,-0.6098,0.1829,-1.2195,0.00,0.00,0.00,0,S01
3580,-7.56807,0.09816,5.52103,-0.6707,0.1220,-1.2805,0.00,0.00,0.00,0,S01
3600,-7.57047,0.10295,5.49709,-0.6098,0.1220,-1.2805,0.00,0.00,0.00,0,S01
3620,-7.56568,0.10295,5.50666,-0.5488,0.2439,-1.2805,0.00,0.00,0.00,0,S01
3640,-7.58004,0.09577,5.51624,-0.4878,0.3659,-1.2195,0.00,0.00,0.00,0,S01
3660,-7.58244,0.09816,5.50666,-0.4878,0.3049,-1.2195,0.00,0.00,0.00,0,S01
3680,-7.57765,0.09098,5.49948,-0.5488,0.1829,-1.2805,0.00,0.00,0.00,0,S01
3700,-7.57047,0.09816,5.50188,-0.5488,0.1829,-1.2805,0.00,0.00,0.00,0,S01
3720,-7.57765,0.10056,5.52103,-0.4878,0.2439,-1.2805,0.00,0.00,0.00,0,S01
3740,-7.59680,0.11013,5.52103,-0.4878,0.1829,-1.3415,0.00,0.00,0.00,0,S01
3760,-7.58962,0.11013,5.51624,-0.4878,-0.0610,-1.3415,0.00,0.00,0.00,0,S01
3780,-7.54892,0.09577,5.53539,-0.4878,0.0000,-1.2805,0.00,0.00,0.00,0,S01
3800,-7.56328,0.10774,5.53539,-0.2439,0.1220,-1.3415,0.00,0.00,0.00,0,S01
3820,-7.58244,0.10774,5.51385,0.0000,0.0610,-1.4024,0.00,0.00,0.00,0,S01
3840,-7.56807,0.10056,5.52103,-0.1220,0.0000,-1.3415,0.00,0.00,0.00,0,S01
3860,-7.55849,0.10056,5.53300,-0.4268,-0.1220,-1.2805,0.00,0.00,0.00,0,S01
3880,-7.56089,0.09337,5.53300,-0.6098,-0.1829,-1.2805,0.00,0.00,0.00,0,S01
3900,-7.55610,0.09098,5.51145,-0.4878,-0.2439,-1.2805,0.00,0.00,0.00,0,S01
3920,-7.55849,0.08859,5.48751,-0.4268,-0.1829,-1.2195,0.00,0.00,0.00,0,S01
3940,-7.56089,0.08859,5.48272,-0.4878,0.0610,-1.2195,0.00,0.00,0.00,0,S01
3960,-7.55849,0.09098,5.50666,-0.6098,0.2439,-1.1585,0.00,0.00,0.00,0,S01
3980,-7.55849,0.09337,5.50906,-0.6098,0.3659,-1.1585,0.00,0.00,0.00,0,S01
4000,-7.55610,0.09577,5.52582,-0.5488,0.3049,-1.2195,0.00,0.00,0.00,0,S01
4020,-7.56807,0.10295,5.52582,-0.4878,0.2439,-1.2195,0.00,0.00,0.00,0,S01
4040,-7.56328,0.10774,5.54976,-0.6098,0.1829,-1.2195,0.00,0.00,0.00,0,S01
4060,-7.57525,0.10774,5.54258,-0.6707,0.1220,-1.2195,0.00,0.00,0.00,0,S01
4080,-7.56568,0.10295,5.52342,-0.4878,0.0610,-1.2805,0.00,0.00,0.00,0,S01
4100,-7.55610,0.09816,5.50188,-0.3659,0.1829,-1.2805,0.00,0.00,0.00,0,S01
4120,-7.56089,0.10056,5.51385,-0.3049,0.2439,-1.3415,0.00,0.00,0.00,0,S01
4140,-7.57047,0.10774,5.52582,-0.3659,0.2439,-1.3415,0.00,0.00,0.00,0,S01
4160,-7.56807,0.11013,5.51145,-0.4878,0.1220,-1.3415,0.00,0.00,0.00,0,S01
4180,-7.55849,0.09577,5.51145,-0.4878,0.1220,-1.3415,0.00,0.00,0.00,0,S01
4200,-7.56089,0.09577,5.52103,-0.4268,0.1220,-1.3415,0.00,0.00,0.00,0,S01
4220,-7.56328,0.11013,5.52821,-0.3659,0.1829,-1.4024,0.00,0.00,0.00,0,S01
4240,-7.56089,0.10295,5.51863,-0.4268,0.2439,-1.4024,0.00,0.00,0.00,0,S01
4260,-7.56089,0.08619,5.51863,-0.4878,0.2439,-1.3415,0.00,0.00,0.00,0,S01
4280,-7.56568,0.08859,5.52342,-0.4268,0.3049,-1.3415,0.00,0.00,0.00,0,S01
4300,-7.56089,0.09577,5.51863,-0.4878,0.2439,-1.2805,0.00,0.00,0.00,0,S01
4320,-7.56089,0.10295,5.51624,-0.6098,0.2439,-1.2805,0.00,0.00,0.00,0,S01
4340,-7.55371,0.10295,5.52582,-0.6098,0.3049,-1.2805,0.00,0.00,0.00,0,S01
4360,-7.57047,0.10295,5.52103,-0.5488,0.3049,-1.2805,0.00,0.00,0.00,0,S01
4380,-7.56568,0.10295,5.50427,-0.4878,0.2439,-1.3415,0.00,0.00,0.00,0,S01
4400,-7.55371,0.09816,5.50666,-0.5488,0.1829,-1.3415,0.00,0.00,0.00,0,S01
4420,-7.55131,0.09816,5.49469,-0.5488,0.3049,-1.2805,0.00,0.00,0.00,0,S01
4440,-7.55849,0.09816,5.51385,-0.5488,0.4268,-1.2805,0.00,0.00,0.00,0,S01
4460,-7.56328,0.09577,5.51145,-0.5488,0.3659,-1.2805,0.00,0.00,0.00,0,S01
4480,-7.56807,0.09816,5.51863,-0.5488,0.3049,-1.2805,0.00,0.00,0.00,0,S01
4500,-7.56089,0.09337,5.52821,-0.5488,0.2439,-1.2805,0.00,0.00,0.00,0,S01
4520,-7.57047,0.09816,5.53779,-0.4878,0.3049,-1.2805,0.00,0.00,0.00,0,S01
4540,-7.59680,0.10295,5.51863,-0.4268,0.1220,-1.3415,0.00,0.00,0.00,0,S01
4560,-7.57286,0.10534,5.51145,-0.4878,-0.1220,-1.2805,0.00,0.00,0.00,0,S01
4580,-7.54413,0.10056,5.54737,-0.4878,-0.0610,-1.2805,0.00,0.00,0.00,0,S01
4600,-7.57286,0.09337,5.55215,-0.2439,0.0000,-1.3415,0.00,0.00,0.00,0,S01
4620,-7.56089,0.09098,5.54018,0.0000,-0.0610,-1.3415,0.00,0.00,0.00,0,S01
4640,-7.55131,0.08380,5.51863,-0.1220,-0.1829,-1.3415,0.00,0.00,0.00,0,S01
4660,-7.55610,0.08619,5.52103,-0.3659,-0.3049,-1.2805,0.00,0.00,0.00,0,S01
4680,-7.55371,0.09577,5.53779,-0.6098,-0.3049,-1.2805,0.00,0.00,0.00,0,S01
4700,-7.55371,0.09098,5.51385,-0.5488,-0.1829,-1.2805,0.00,0.00,0.00,0,S01
4720,-7.57047,0.09098,5.50427,-0.4878,0.0000,-1.2805,0.00,0.00,0.00,0,S01
4740,-7.57765,0.08859,5.50427,-0.4268,0.0610,-1.2195,0.00,0.00,0.00,0,S01
4760,-7.56089,0.08619,5.51385,-0.4878,0.0610,-1.2195,0.00,0.00,0.00,0,S01
4780,-7.54892,0.09098,5.51385,-0.6098,0.1220,-1.2195,0.00,0.00,0.00,0,S01
4800,-7.54413,0.09098,5.52821,-0.6707,0.1829,-1.2195,0.00,0.00,0.00,0,S01
4820,-7.55610,0.09337,5.54018,-0.6707,0.3049,-1.2195,0.00,0.00,0.00,0,S01
4840,-7.55131,0.08380,5.54258,-0.6707,0.3049,-1.1585,0.00,0.00,0.00,0,S01
4860,-7.54892,0.08619,5.53539,-0.6707,0.1220,-1.1585,0.00,0.00,0.00,0,S01
4880,-7.54413,0.10056,5.53061,-0.6707,0.0610,-1.2195,0.00,0.00,0.00,0,S01
4900,-7.54892,0.10056,5.53539,-0.5488,0.1220,-1.2805,0.00,0.00,0.00,0,S01
4920,-7.55131,0.09816,5.53300,-0.4268,0.2439,-1.2805,0.00,0.00,0.00,0,S01
4940,-7.54892,0.09337,5.54018,-0.3659,0.3049,-1.2805,0.00,0.00,0.00,0,S01
4960,-7.54652,0.09577,5.53061,-0.3659,0.2439,-1.3415,0.00,0.00,0.00,0,S01
4980,-7.55131,0.09816,5.53539,-0.4268,0.1220,-1.3415,0.00,0.00,0.00,0,S01
5000,-7.54892,0.09577,5.53061,-0.4878,0.1220,-1.3415,0.00,0.00,0.00,0,S01
5020,-7.55849,0.09816,5.51863,-0.4268,0.1829,-1.3415,0.00,0.00,0.00,0,S01
5040,-7.55610,0.09577,5.50906,-0.3049,0.1829,-1.3415,0.00,0.00,0.00,0,S01
5060,-7.56089,0.09577,5.51385,-0.3659,0.1220,-1.3415,0.00,0.00,0.00,0,S01
5080,-7.55610,0.09577,5.52342,-0.4878,0.1220,-1.3415,0.00,0.00,0.00,0,S01
5100,-7.54652,0.10056,5.52103,-0.5488,0.2439,-1.3415,0.00,0.00,0.00,0,S01
5120,-7.54652,0.10056,5.51863,-0.4268,0.2439,-1.4024,0.00,0.00,0.00,0,S01
5140,-7.55131,0.08859,5.54258,-0.3659,0.1829,-1.4024,0.00,0.00,0.00,0,S01
5160,-7.54174,0.08859,5.53061,-0.4878,0.1220,-1.4024,0.00,0.00,0.00,0,S01
5180,-7.54652,0.09816,5.52821,-0.5488,0.1220,-1.3415,0.00,0.00,0.00,0,S01
5200,-7.55371,0.09098,5.53061,-0.5488,0.1829,-1.3415,0.00,0.00,0.00,0,S01
5220,-7.56328,0.08140,5.52821,-0.4878,0.2439,-1.3415,0.00,0.00,0.00,0,S01
5240,-7.55849,0.08380,5.52582,-0.4268,0.1829,-1.3415,0.00,0.00,0.00,0,S01
5260,-7.55849,0.08380,5.52821,-0.5488,0.0610,-1.2805,0.00,0.00,0.00,0,S01
5280,-7.55371,0.08619,5.53300,-0.6098,0.0610,-1.2805,0.00,0.00,0.00,0,S01
5300,-7.55610,0.08140,5.53061,-0.5488,0.1220,-1.2805,0.00,0.00,0.00,0,S01
5320,-7.54892,0.08619,5.53779,-0.4268,0.1829,-1.3415,0.00,0.00,0.00,0,S01
5340,-7.55131,0.08380,5.54258,-0.3659,0.1829,-1.3415,0.00,0.00,0.00,0,S01
5360,-7.55371,0.08380,5.52821,-0.4878,0.1220,-1.2805,0.00,0.00,0.00,0,S01
5380,-7.54652,0.08619,5.54976,-0.4878,0.1829,-1.2805,0.00,0.00,0.00,0,S01
5400,-7.57047,0.09577,5.53539,-0.4878,0.0000,-1.2805,0.00,0.00,0.00,0,S01
5420,-7.56328,0.09577,5.54976,-0.4878,-0.1220,-1.2805,0.00,0.00,0.00,0,S01
5440,-7.53455,0.09337,5.55694,-0.3659,-0.0610,-1.2805,0.00,0.00,0.00,0,S01
5460,-7.54413,0.09816,5.55455,-0.1829,-0.1829,-1.2805,0.00,0.00,0.00,0,S01
5480,-7.52498,0.07901,5.53061,-0.1829,-0.1220,-1.3415,0.00,0.00,0.00,0,S01
5500,-7.52258,0.07661,5.54497,-0.2439,0.0610,-1.2805,0.00,0.00,0.00,0,S01
5520,-7.53455,0.08140,5.57610,-0.3659,0.0610,-1.2805,0.00,0.00,0.00,0,S01
5540,-7.53934,0.07422,5.54976,-0.4268,-0.0610,-1.2805,0.00,0.00,0.00,0,S01
5560,-7.54413,0.08619,5.54258,-0.4268,-0.0610,-1.2805,0.00,0.00,0.00,0,S01
5580,-7.55131,0.09816,5.52582,-0.4878,0.0610,-1.2805,0.00,0.00,0.00,0,S01
5600,-7.55849,0.09816,5.52582,-0.4878,0.1829,-1.2195,0.00,0.00,0.00,0,S01
5620,-7.54652,0.09337,5.53779,-0.4878,0.2439,-1.2195,0.00,0.00,0.00,0,S01
5640,-7.53455,0.09337,5.54258,-0.4878,0.2439,-1.2195,0.00,0.00,0.00,0,S01
5660,-7.54652,0.10295,5.54018,-0.5488,0.2439,-1.2195,0.00,0.00,0.00,0,S01
5680,-7.54652,0.09337,5.55934,-0.6098,0.1829,-1.2195,0.00,0.00,0.00,0,S01
5700,-7.53934,0.09577,5.55934,-0.6707,0.0610,-1.1585,0.00,0.00,0.00,0,S01
5720,-7.53934,0.09816,5.55455,-0.6098,0.0610,-1.2195,0.00,0.00,0.00,0,S01
5740,-7.54174,0.08859,5.55455,-0.4878,0.1220,-1.2195,0.00,0.00,0.00,0,S01
5760,-7.54413,0.08619,5.56173,-0.4268,0.1220,-1.2805,0.00,0.00,0.00,0,S01
5780,-7.54174,0.08859,5.56412,-0.3659,0.0610,-1.3415,0.00,0.00,0.00,0,S01
5800,-7.54652,0.08619,5.55694,-0.3659,0.0610,-1.3415,0.00,0.00,0.00,0,S01
5820,-7.54413,0.08619,5.54976,-0.3659,0.0610,-1.3415,0.00,0.00,0.00,0,S01
5840,-7.54652,0.07661,5.54018,-0.3659,0.0610,-1.3415,0.00,0.00,0.00,0,S01
5860,-7.53695,0.08619,5.53539,-0.4268,0.0610,-1.3415,0.00,0.00,0.00,0,S01
5880,-7.53216,0.09816,5.54737,-0.4878,0.1220,-1.3415,0.00,0.00,0.00,0,S01
5900,-7.54174,0.09337,5.55934,-0.4878,0.2439,-1.2805,0.00,0.00,0.00,0,S01
5920,-7.53216,0.08140,5.55934,-0.4268,0.3049,-1.2805,0.00,0.00,0.00,0,S01
5940,-7.53216,0.08859,5.56173,-0.4268,0.3049,-1.2195,0.00,0.00,0.00,0,S01
5960,-7.54174,0.09816,5.56173,-0.5488,0.2439,-1.2195,0.00,0.00,0.00,0,S01
5980,-7.54892,0.10056,5.55455,-0.6707,0.1829,-1.2195,0.00,0.00,0.00,0,S01
6000,-7.54892,0.09816,5.55215,-0.6707,0.1829,-1.2195,0.00,0.00,0.00,0,S01
6020,-7.54413,0.08619,5.55694,-0.5488,0.3659,-1.2195,0.00,0.00,0.00,0,S01
6040,-7.54174,0.09098,5.54976,-0.4878,0.4268,-1.2195,0.00,0.00,0.00,0,S01
6060,-7.54652,0.08859,5.54497,-0.5488,0.4268,-1.2195,0.00,0.00,0.00,0,S01
6080,-7.54174,0.09816,5.55215,-0.6707,0.3659,-1.2195,0.00,0.00,0.00,0,S01
6100,-7.53455,0.09816,5.55455,-0.6098,0.3659,-1.2195,0.00,0.00,0.00,0,S01
6120,-7.53216,0.08140,5.54976,-0.4268,0.4878,-1.2195,0.00,0.00,0.00,0,S01
6140,-7.53455,0.08619,5.55455,-0.3659,0.5488,-1.2195,0.00,0.00,0.00,0,S01
6160,-7.54413,0.08859,5.55694,-0.3659,0.4878,-1.2805,0.00,0.00,0.00,0,S01
6180,-7.54413,0.09098,5.54737,-0.4268,0.4268,-1.3415,0.00,0.00,0.00,0,S01
6200,-7.55610,0.08619,5.54497,-0.3659,0.3659,-1.3415,0.00,0.00,0.00,0,S01
6220,-7.52976,0.09098,5.55455,-0.2439,0.3659,-1.3415,0.00,0.00,0.00,0,S01
6240,-7.54174,0.09577,5.54737,-0.2439,0.3049,-1.3415,0.00,0.00,0.00,0,S01
6260,-7.56568,0.09098,5.53300,-0.4268,0.0610,-1.3415,0.00,0.00,0.00,0,S01
6280,-7.52976,0.10774,5.55455,-0.4268,0.0000,-1.3415,0.00,0.00,0.00,0,S01
6300,-7.53216,0.09098,5.56173,-0.1829,0.1220,-1.3415,0.00,0.00,0.00,0,S01
6320,-7.55131,0.09337,5.55215,0.1220,0.1220,-1.4024,0.00,0.00,0.00,0,S01
6340,-7.53216,0.07901,5.54497,0.0000,0.0000,-1.3415,0.00,0.00,0.00,0,S01
6360,-7.52737,0.08380,5.54976,-0.3659,-0.1220,-1.2195,0.00,0.00,0.00,0,S01
6380,-7.53216,0.09577,5.57131,-0.6098,-0.1220,-1.2195,0.00,0.00,0.00,0,S01
6400,-7.54174,0.08619,5.55694,-0.4878,0.0000,-1.2195,0.00,0.00,0.00,0,S01
6420,-7.54892,0.07661,5.53779,-0.3049,0.0610,-1.2195,0.00,0.00,0.00,0,S01
6440,-7.54174,0.07661,5.53061,-0.3049,0.1220,-1.2195,0.00,0.00,0.00,0,S01
6460,-7.53934,0.08859,5.53300,-0.4878,0.1829,-1.2195,0.00,0.00,0.00,0,S01
6480,-7.54174,0.09577,5.54976,-0.6098,0.3049,-1.2195,0.00,0.00,0.00,0,S01
6500,-7.53695,0.10295,5.55215,-0.4878,0.3659,-1.2805,0.00,0.00,0.00,0,S01
6520,-7.53934,0.09337,5.55934,-0.3659,0.3049,-1.2805,0.00,0.00,0.00,0,S01
6540,-7.53934,0.08619,5.56652,-0.3659,0.3659,-1.2195,0.00,0.00,0.00,0,S01
6560,-7.53455,0.09098,5.56652,-0.5488,0.3049,-1.2195,0.00,0.00,0.00,0,S01
6580,-7.53934,0.10774,5.56891,-0.6707,0.2439,-1.2805,0.00,0.00,0.00,0,S01
6600,-7.54174,0.10534,5.56412,-0.5488,0.2439,-1.2805,0.00,0.00,0.00,0,S01
6620,-7.53455,0.09816,5.56891,-0.3049,0.3049,-1.2805,0.00,0.00,0.00,0,S01
6640,-7.52976,0.09337,5.56652,-0.2439,0.3049,-1.2805,0.00,0.00,0.00,0,S01
6660,-7.53455,0.08859,5.56891,-0.4268,0.2439,-1.3415,0.00,0.00,0.00,0,S01
6680,-7.52976,0.09098,5.55694,-0.4268,0.3049,-1.3415,0.00,0.00,0.00,0,S01
6700,-7.52498,0.09098,5.55455,-0.3049,0.4878,-1.3415,0.00,0.00,0.00,0,S01
6720,-7.53455,0.09098,5.54737,-0.2439,0.6098,-1.3415,0.00,0.00,0.00,0,S01
6740,-7.54174,0.09098,5.55694,-0.2439,0.6098,-1.3415,0.00,0.00,0.00,0,S01
6760,-7.54174,0.08859,5.54737,-0.3049,0.6707,-1.3415,0.00,0.00,0.00,0,S01
6780,-7.54413,0.08140,5.53779,-0.3659,0.7927,-1.2805,0.00,0.00,0.00,0,S01
6800,-7.55131,0.08619,5.54497,-0.3049,0.9146,-1.2805,0.00,0.00,0.00,0,S01
6820,-7.54892,0.08859,5.54737,-0.2439,0.9146,-1.2805,0.00,0.00,0.00,0,S01
6840,-7.55131,0.09577,5.54737,-0.3049,0.7927,-1.2805,0.00,0.00,0.00,0,S01
6860,-7.54652,0.10534,5.54258,-0.3659,0.7317,-1.2805,0.00,0.00,0.00,0,S01
6880,-7.54174,0.10534,5.55934,-0.3659,0.7317,-1.2805,0.00,0.00,0.00,0,S01
6900,-7.54652,0.09816,5.54018,-0.2439,0.8537,-1.3415,0.00,0.00,0.00,0,S01
6920,-7.55371,0.09098,5.54018,-0.1829,0.9146,-1.2805,0.00,0.00,0.00,0,S01
6940,-7.55131,0.09098,5.54018,-0.2439,0.8537,-1.2805,0.00,0.00,0.00,0,S01
6960,-7.54413,0.09577,5.54258,-0.3049,0.7927,-1.2805,0.00,0.00,0.00,0,S01
6980,-7.54413,0.09098,5.52821,-0.2439,0.8537,-1.2805,0.00,0.00,0.00,0,S01
7000,-7.56328,0.10056,5.52821,-0.1220,0.9146,-1.2805,0.00,0.00,0.00,0,S01
7020,-7.56089,0.09577,5.53061,-0.1829,0.9146,-1.2805,0.00,0.00,0.00,0,S01
7040,-7.57047,0.09337,5.52103,-0.2439,0.9146,-1.2195,0.00,0.00,0.00,0,S01
7060,-7.55849,0.08619,5.51145,-0.2439,0.9756,-1.2195,0.00,0.00,0.00,0,S01
7080,-7.56807,0.09337,5.53300,-0.1829,1.0976,-1.2805,0.00,0.00,0.00,0,S01
7100,-7.59201,0.10295,5.53300,-0.1829,0.9756,-1.2805,0.00,0.00,0.00,0,S01
7120,-7.57047,0.11492,5.51624,-0.2439,0.7317,-1.2195,0.00,0.00,0.00,0,S01
7140,-7.54892,0.10295,5.54497,-0.3049,0.8537,-1.1585,0.00,0.00,0.00,0,S01
7160,-7.56089,0.10056,5.53300,-0.0610,0.7927,-1.2195,0.00,0.00,0.00,0,S01
7180,-7.56568,0.10056,5.52103,0.1220,0.6098,-1.2805,0.00,0.00,0.00,0,S01
7200,-7.55610,0.09816,5.51385,0.1220,0.4878,-1.2805,0.00,0.00,0.00,0,S01
7220,-7.56089,0.08619,5.50427,-0.0610,0.3659,-1.2805,0.00,0.00,0.00,0,S01
7240,-7.56328,0.09098,5.51385,-0.2439,0.3659,-1.2805,0.00,0.00,0.00,0,S01
7260,-7.56328,0.10534,5.50188,-0.1829,0.4878,-1.2195,0.00,0.00,0.00,0,S01
7280,-7.57286,0.11013,5.49230,-0.1829,0.7317,-1.2195,0.00,0.00,0.00,0,S01
7300,-7.56807,0.10056,5.49709,-0.3049,1.0366,-1.1585,0.00,0.00,0.00,0,S01
7320,-7.56807,0.09816,5.49709,-0.3659,1.1585,-1.1585,0.00,0.00,0.00,0,S01
7340,-7.56568,0.10295,5.49230,-0.4268,1.1585,-1.1585,0.00,0.00,0.00,0,S01
7360,-7.57286,0.10534,5.49709,-0.3659,1.0366,-1.2195,0.00,0.00,0.00,0,S01
7380,-7.58483,0.11492,5.48751,-0.3659,0.9756,-1.2195,0.00,0.00,0.00,0,S01
7400,-7.58962,0.11732,5.49230,-0.4268,1.0366,-1.1585,0.00,0.00,0.00,0,S01
7420,-7.58722,0.11971,5.48990,-0.4268,0.9756,-1.0976,0.00,0.00,0.00,0,S01
7440,-7.58004,0.12210,5.48990,-0.3659,0.7927,-1.1585,0.00,0.00,0.00,0,S01
7460,-7.57765,0.11971,5.48990,-0.3049,0.7927,-1.1585,0.00,0.00,0.00,0,S01
7480,-7.57525,0.11013,5.49230,-0.3049,0.8537,-1.2195,0.00,0.00,0.00,0,S01
7500,-7.58244,0.11732,5.50188,-0.3049,0.8537,-1.2195,0.00,0.00,0.00,0,S01
7520,-7.59201,0.12450,5.49948,-0.3049,0.7317,-1.2805,0.00,0.00,0.00,0,S01
7540,-7.58722,0.11492,5.48512,-0.3049,0.5488,-1.3415,0.00,0.00,0.00,0,S01
7560,-7.58004,0.09577,5.48751,-0.3049,0.4878,-1.2805,0.00,0.00,0.00,0,S01
7580,-7.59680,0.09816,5.48751,-0.3049,0.5488,-1.3415,0.00,0.00,0.00,0,S01
7600,-7.59441,0.10056,5.48272,-0.3049,0.5488,-1.4024,0.00,0.00,0.00,0,S01
7620,-7.58722,0.10534,5.47793,-0.3659,0.4268,-1.3415,0.00,0.00,0.00,0,S01
7640,-7.58722,0.09577,5.47315,-0.4268,0.3049,-1.3415,0.00,0.00,0.00,0,S01
7660,-7.58483,0.10774,5.48990,-0.4268,0.3049,-1.3415,0.00,0.00,0.00,0,S01
7680,-7.57765,0.10534,5.49230,-0.4268,0.3049,-1.3415,0.00,0.00,0.00,0,S01
7700,-7.58483,0.10774,5.50188,-0.4878,0.3659,-1.3415,0.00,0.00,0.00,0,S01
7720,-7.58722,0.11492,5.49709,-0.4878,0.3659,-1.3415,0.00,0.00,0.00,0,S01
7740,-7.59201,0.11971,5.47793,-0.4878,0.2439,-1.2805,0.00,0.00,0.00,0,S01
7760,-7.59441,0.11732,5.48272,-0.4878,0.1220,-1.2805,0.00,0.00,0.00,0,S01
7780,-7.58722,0.11492,5.48272,-0.4878,0.1220,-1.2805,0.00,0.00,0.00,0,S01
7800,-7.57765,0.11492,5.48272,-0.4878,0.1829,-1.2805,0.00,0.00,0.00,0,S01
7820,-7.57765,0.11971,5.50188,-0.5488,0.3049,-1.2805,0.00,0.00,0.00,0,S01
7840,-7.58962,0.10295,5.48990,-0.6098,0.3049,-1.2195,0.00,0.00,0.00,0,S01
7860,-7.59201,0.10774,5.48272,-0.5488,0.3049,-1.2195,0.00,0.00,0.00,0,S01
7880,-7.58244,0.10056,5.49948,-0.5488,0.3049,-1.2195,0.00,0.00,0.00,0,S01
7900,-7.59680,0.09337,5.50427,-0.4878,0.2439,-1.2805,0.00,0.00,0.00,0,S01
7920,-7.60398,0.10295,5.48751,-0.5488,0.0000,-1.2805,0.00,0.00,0.00,0,S01
7940,-7.57286,0.11013,5.49230,-0.6098,-0.1829,-1.2195,0.00,0.00,0.00,0,S01
7960,-7.55849,0.11013,5.51624,-0.4878,0.1220,-1.2195,0.00,0.00,0.00,0,S01
7980,-7.59680,0.11013,5.49709,-0.3049,0.2439,-1.2805,0.00,0.00,0.00,0,S01
8000,-7.58962,0.10534,5.50906,-0.1220,0.0000,-1.2805,0.00,0.00,0.00,0,S01
8020,-7.56328,0.10295,5.50427,-0.2439,-0.1829,-1.2805,0.00,0.00,0.00,0,S01
8040,-7.57047,0.10534,5.52103,-0.4268,-0.3049,-1.2805,0.00,0.00,0.00,0,S01
8060,-7.56807,0.10056,5.50666,-0.5488,-0.2439,-1.2805,0.00,0.00,0.00,0,S01
8080,-7.58004,0.10056,5.46836,-0.4268,-0.1829,-1.2805,0.00,0.00,0.00,0,S01
8100,-7.57525,0.10056,5.46596,-0.4268,-0.0610,-1.2805,0.00,0.00,0.00,0,S01
8120,-7.57765,0.10774,5.46117,-0.4878,0.0610,-1.2195,0.00,0.00,0.00,0,S01
8140,-7.57525,0.10295,5.48272,-0.5488,0.2439,-1.2195,0.00,0.00,0.00,0,S01
8160,-7.56089,0.10534,5.50666,-0.6098,0.2439,-1.2195,0.00,0.00,0.00,0,S01
8180,-7.58244,0.11253,5.50188,-0.5488,0.1829,-1.2805,0.00,0.00,0.00,0,S01
8200,-7.57047,0.10774,5.51624,-0.5488,0.2439,-1.2805,0.00,0.00,0.00,0,S01
8220,-7.58004,0.10295,5.52103,-0.6098,0.1829,-1.2195,0.00,0.00,0.00,0,S01
8240,-7.58962,0.11492,5.50906,-0.6098,0.0000,-1.2195,0.00,0.00,0.00,0,S01
8260,-7.57765,0.11492,5.51385,-0.5488,-0.0610,-1.2195,0.00,0.00,0.00,0,S01
8280,-7.57047,0.11013,5.50666,-0.4878,0.0610,-1.2805,0.00,0.00,0.00,0,S01
8300,-7.57047,0.10534,5.52103,-0.4268,0.2439,-1.2805,0.00,0.00,0.00,0,S01
8320,-7.57765,0.11492,5.51385,-0.4268,0.2439,-1.3415,0.00,0.00,0.00,0,S01
8340,-7.57765,0.11492,5.50906,-0.4878,0.1220,-1.3415,0.00,0.00,0.00,0,S01
8360,-7.56089,0.10774,5.49469,-0.5488,0.0610,-1.3415,0.00,0.00,0.00,0,S01
8380,-7.56807,0.10534,5.49230,-0.5488,0.1220,-1.3415,0.00,0.00,0.00,0,S01
8400,-7.57765,0.09816,5.49230,-0.4878,0.2439,-1.3415,0.00,0.00,0.00,0,S01
8420,-7.57765,0.09816,5.47793,-0.4268,0.1829,-1.3415,0.00,0.00,0.00,0,S01
8440,-7.57286,0.10295,5.48990,-0.4878,0.1829,-1.3415,0.00,0.00,0.00,0,S01
8460,-7.56568,0.09816,5.49230,-0.6098,0.1829,-1.3415,0.00,0.00,0.00,0,S01
8480,-7.57525,0.09577,5.50666,-0.6098,0.2439,-1.3415,0.00,0.00,0.00,0,S01
8500,-7.57525,0.09577,5.51145,-0.5488,0.2439,-1.3415,0.00,0.00,0.00,0,S01
8520,-7.56568,0.09337,5.50666,-0.4878,0.2439,-1.2805,0.00,0.00,0.00,0,S01
8540,-7.57286,0.09816,5.51145,-0.4878,0.3049,-1.3415,0.00,0.00,0.00,0,S01
8560,-7.57765,0.10295,5.50188,-0.5488,0.1829,-1.3415,0.00,0.00,0.00,0,S01
8580,-7.57286,0.10774,5.49230,-0.6098,0.0610,-1.2805,0.00,0.00,0.00,0,S01
8600,-7.56328,0.10295,5.50427,-0.5488,0.0610,-1.2805,0.00,0.00,0.00,0,S01
8620,-7.56328,0.10056,5.50188,-0.4878,0.2439,-1.2805,0.00,0.00,0.00,0,S01
8640,-7.56568,0.09098,5.50666,-0.4878,0.3659,-1.2805,0.00,0.00,0.00,0,S01
8660,-7.57765,0.08859,5.52103,-0.5488,0.3049,-1.2805,0.00,0.00,0.00,0,S01
8680,-7.58244,0.10774,5.50666,-0.4878,0.2439,-1.3415,0.00,0.00,0.00,0,S01
8700,-7.56089,0.11253,5.49948,-0.4878,0.1829,-1.3415,0.00,0.00,0.00,0,S01
8720,-7.56807,0.11013,5.50906,-0.4878,0.2439,-1.3415,0.00,0.00,0.00,0,S01
8740,-7.59680,0.10534,5.50427,-0.4878,0.1220,-1.2805,0.00,0.00,0.00,0,S01
8760,-7.59441,0.09816,5.49948,-0.4878,-0.1220,-1.2805,0.00,0.00,0.00,0,S01
8780,-7.56568,0.10295,5.52821,-0.4268,-0.0610,-1.2805,0.00,0.00,0.00,0,S01
8800,-7.57765,0.09816,5.51385,-0.3049,0.0000,-1.2805,0.00,0.00,0.00,0,S01
8820,-7.57765,0.10056,5.49948,-0.2439,-0.0610,-1.3415,0.00,0.00,0.00,0,S01
8840,-7.56328,0.09098,5.49469,-0.2439,-0.0610,-1.2805,0.00,0.00,0.00,0,S01
8860,-7.55610,0.09816,5.51385,-0.4268,-0.0610,-1.2805,0.00,0.00,0.00,0,S01
8880,-7.56328,0.09098,5.52103,-0.4878,-0.1829,-1.2805,0.00,0.00,0.00,0,S01
8900,-7.56568,0.08859,5.50666,-0.4268,-0.3049,-1.2805,0.00,0.00,0.00,0,S01
8920,-7.55610,0.09816,5.48272,-0.4268,-0.1220,-1.2805,0.00,0.00,0.00,0,S01
8940,-7.56807,0.09337,5.48512,-0.4268,0.1220,-1.2805,0.00,0.00,0.00,0,S01
8960,-7.56807,0.10056,5.50427,-0.5488,0.3659,-1.2805,0.00,0.00,0.00,0,S01
8980,-7.57765,0.10774,5.51624,-0.5488,0.3659,-1.2805,0.00,0.00,0.00,0,S01
9000,-7.56807,0.09816,5.50906,-0.6098,0.2439,-1.2805,0.00,0.00,0.00,0,S01
9020,-7.56328,0.10534,5.53539,-0.6098,0.1220,-1.2195,0.00,0.00,0.00,0,S01
9040,-7.57047,0.10056,5.53300,-0.6098,0.1220,-1.2195,0.00,0.00,0.00,0,S01
9060,-7.56328,0.10534,5.51145,-0.6098,-0.0610,-1.2195,0.00,0.00,0.00,0,S01
9080,-7.55131,0.09816,5.50188,-0.6098,0.0000,-1.2805,0.00,0.00,0.00,0,S01
9100,-7.55131,0.09577,5.50906,-0.5488,0.1220,-1.2805,0.00,0.00,0.00,0,S01
9120,-7.56089,0.10295,5.53061,-0.4268,0.3049,-1.3415,0.00,0.00,0.00,0,S01
9140,-7.57047,0.10774,5.52342,-0.3049,0.2439,-1.3415,0.00,0.00,0.00,0,S01
9160,-7.55371,0.10056,5.51863,-0.3659,0.0610,-1.3415,0.00,0.00,0.00,0,S01
9180,-7.56089,0.09098,5.50427,-0.5488,-0.0610,-1.3415,0.00,0.00,0.00,0,S01
9200,-7.56089,0.09337,5.50188,-0.5488,0.1220,-1.2805,0.00,0.00,0.00,0,S01
9220,-7.56568,0.10295,5.50188,-0.4268,0.3049,-1.2805,0.00,0.00,0.00,0,S01
9240,-7.56328,0.10056,5.49948,-0.3659,0.3049,-1.3415,0.00,0.00,0.00,0,S01
9260,-7.56568,0.08140,5.51145,-0.4878,0.1829,-1.3415,0.00,0.00,0.00,0,S01
9280,-7.56807,0.08380,5.49948,-0.6098,0.1829,-1.2805,0.00,0.00,0.00,0,S01
9300,-7.56328,0.09337,5.50666,-0.6707,0.2439,-1.2195,0.00,0.00,0.00,0,S01
9320,-7.57047,0.09337,5.51863,-0.7317,0.3659,-1.2195,0.00,0.00,0.00,0,S01
9340,-7.56328,0.10295,5.53061,-0.6707,0.3049,-1.2195,0.00,0.00,0.00,0,S01
9360,-7.55849,0.11013,5.52103,-0.6707,0.3049,-1.1585,0.00,0.00,0.00,0,S01
9380,-7.55610,0.10534,5.53300,-0.7317,0.3049,-1.1585,0.00,0.00,0.00,0,S01
9400,-7.55371,0.10534,5.53779,-0.7927,0.3049,-1.1585,0.00,0.00,0.00,0,S01
9420,-7.55371,0.11492,5.53300,-0.6707,0.3659,-1.1585,0.00,0.00,0.00,0,S01
9440,-7.56089,0.11013,5.53539,-0.6707,0.3659,-1.2195,0.00,0.00,0.00,0,S01
9460,-7.56568,0.09337,5.53300,-0.6707,0.4268,-1.2195,0.00,0.00,0.00,0,S01
9480,-7.57047,0.08619,5.53779,-0.6098,0.3659,-1.2195,0.00,0.00,0.00,0,S01
9500,-7.56807,0.07901,5.52582,-0.4878,0.3049,-1.2805,0.00,0.00,0.00,0,S01
9520,-7.56568,0.08859,5.51624,-0.4268,0.2439,-1.3415,0.00,0.00,0.00,0,S01
9540,-7.57047,0.09098,5.52821,-0.4268,0.2439,-1.3415,0.00,0.00,0.00,0,S01
9560,-7.58962,0.10295,5.52103,-0.4878,0.0610,-1.4024,0.00,0.00,0.00,0,S01
9580,-7.58244,0.10774,5.51624,-0.5488,-0.0610,-1.3415,0.00,0.00,0.00,0,S01
9600,-7.55610,0.09337,5.53779,-0.3659,0.0610,-1.2805,0.00,0.00,0.00,0,S01
9620,-7.56328,0.10295,5.54737,-0.0610,0.0000,-1.3415,0.00,0.00,0.00,0,S01
9640,-7.56568,0.11492,5.52342,0.0610,-0.1829,-1.3415,0.00,0.00,0.00,0,S01
9660,-7.55849,0.09816,5.51624,-0.2439,-0.3049,-1.2805,0.00,0.00,0.00,0,S01
9680,-7.56568,0.08859,5.53061,-0.4878,-0.3049,-1.2805,0.00,0.00,0.00,0,S01
9700,-7.57047,0.09098,5.53300,-0.5488,-0.3659,-1.2195,0.00,0.00,0.00,0,S01
9720,-7.55849,0.08859,5.51145,-0.4878,-0.4268,-1.2195,0.00,0.00,0.00,0,S01
9740,-7.56568,0.10534,5.49948,-0.4878,-0.3049,-1.2195,0.00,0.00,0.00,0,S01
9760,-7.56807,0.08859,5.49948,-0.6098,-0.1220,-1.2195,0.00,0.00,0.00,0,S01
9780,-7.56089,0.09098,5.50906,-0.5488,0.0000,-1.2195,0.00,0.00,0.00,0,S01
9800,-7.54174,0.10056,5.52821,-0.4878,0.1220,-1.2195,0.00,0.00,0.00,0,S01
9820,-7.53695,0.10534,5.53779,-0.4268,0.1220,-1.2195,0.00,0.00,0.00,0,S01
9840,-7.54652,0.10774,5.53779,-0.5488,0.0610,-1.2195,0.00,0.00,0.00,0,S01
9860,-7.54652,0.10534,5.55215,-0.6098,0.0000,-1.2195,0.00,0.00,0.00,0,S01
9880,-7.54413,0.09337,5.55215,-0.5488,-0.0610,-1.1585,0.00,0.00,0.00,0,S01
9900,-7.54413,0.10295,5.54737,-0.4878,-0.1220,-1.2195,0.00,0.00,0.00,0,S01
9920,-7.53934,0.11253,5.54258,-0.4268,-0.0610,-1.2805,0.00,0.00,0.00,0,S01
9940,-7.52976,0.11732,5.54497,-0.3659,0.0610,-1.3415,0.00,0.00,0.00,0,S01
9960,-7.53216,0.10534,5.55694,-0.4268,0.2439,-1.3415,0.00,0.00,0.00,0,S01
9980,-7.54413,0.09337,5.54258,-0.3659,0.1829,-1.3415,0.00,0.00,0.00,0,S01
10000,-7.54892,0.09098,5.53779,-0.3049,0.1220,-1.3415,0.00,0.00,0.00,0,S01
10020,-7.54174,0.09816,5.53779,-0.4268,0.0610,-1.3415,0.00,0.00,0.00,0,S01
10040,-7.54174,0.10534,5.54018,-0.5488,0.0610,-1.3415,0.00,0.00,0.00,0,S01
10060,-7.54174,0.09816,5.53539,-0.4878,0.1829,-1.3415,0.00,0.00,0.00,0,S01
10080,-7.54652,0.09337,5.53300,-0.3659,0.1829,-1.3415,0.00,0.00,0.00,0,S01
10100,-7.54652,0.09098,5.53779,-0.3659,0.2439,-1.2805,0.00,0.00,0.00,0,S01
10120,-7.54413,0.08619,5.54018,-0.4878,0.2439,-1.2805,0.00,0.00,0.00,0,S01
10140,-7.54174,0.09337,5.55455,-0.6098,0.1829,-1.2805,0.00,0.00,0.00,0,S01
10160,-7.54174,0.09337,5.55455,-0.6098,0.1829,-1.2195,0.00,0.00,0.00,0,S01
10180,-7.53934,0.10295,5.55215,-0.5488,0.1829,-1.2195,0.00,0.00,0.00,0,S01
10200,-7.54174,0.10534,5.54737,-0.5488,0.1829,-1.2195,0.00,0.00,0.00,0,S01
10220,-7.54892,0.11013,5.55934,-0.6707,0.1829,-1.2195,0.00,0.00,0.00,0,S01
10240,-7.54652,0.10056,5.56412,-0.6098,0.2439,-1.2195,0.00,0.00,0.00,0,S01
10260,-7.53695,0.10295,5.56412,-0.5488,0.3049,-1.2195,0.00,0.00,0.00,0,S01
10280,-7.53455,0.09577,5.56891,-0.4268,0.3659,-1.2805,0.00,0.00,0.00,0,S01
10300,-7.53455,0.09816,5.56173,-0.4268,0.3659,-1.3415,0.00,0.00,0.00,0,S01
10320,-7.54892,0.09337,5.55455,-0.4268,0.3659,-1.3415,0.00,0.00,0.00,0,S01
10340,-7.54652,0.08619,5.54497,-0.3659,0.3049,-1.3415,0.00,0.00,0.00,0,S01
10360,-7.54652,0.09098,5.53061,-0.2439,0.3049,-1.3415,0.00,0.00,0.00,0,S01
10380,-7.53934,0.10056,5.54497,-0.2439,0.3049,-1.3415,0.00,0.00,0.00,0,S01
10400,-7.55371,0.10056,5.54976,-0.3659,0.1220,-1.3415,0.00,0.00,0.00,0,S01
10420,-7.55849,0.11492,5.54497,-0.4878,0.0000,-1.3415,0.00,0.00,0.00,0,S01
10440,-7.52258,0.11013,5.56652,-0.3659,0.1829,-1.3415,0.00,0.00,0.00,0,S01
10460,-7.53934,0.11013,5.54976,-0.0610,0.1220,-1.4024,0.00,0.00,0.00,0,S01
10480,-7.54174,0.10056,5.54018,0.0000,0.0610,-1.3415,0.00,0.00,0.00,0,S01
10500,-7.52976,0.08859,5.53300,-0.2439,-0.0610,-1.2805,0.00,0.00,0.00,0,S01
10520,-7.53455,0.09098,5.55694,-0.5488,-0.0610,-1.2805,0.00,0.00,0.00,0,S01
10540,-7.53934,0.08619,5.56412,-0.5488,0.0000,-1.2195,0.00,0.00,0.00,0,S01
10560,-7.54174,0.08619,5.53779,-0.4268,0.0000,-1.2195,0.00,0.00,0.00,0,S01
10580,-7.54652,0.08859,5.51624,-0.4268,0.0610,-1.2195,0.00,0.00,0.00,0,S01
10600,-7.54174,0.09098,5.52821,-0.5488,0.2439,-1.1585,0.00,0.00,0.00,0,S01
10620,-7.54652,0.09098,5.53539,-0.6098,0.3049,-1.2195,0.00,0.00,0.00,0,S01
10640,-7.54892,0.10056,5.54258,-0.6098,0.3049,-1.2195,0.00,0.00,0.00,0,S01
10660,-7.54652,0.10774,5.54976,-0.5488,0.3049,-1.2195,0.00,0.00,0.00,0,S01
10680,-7.54174,0.09816,5.55215,-0.4878,0.1829,-1.2195,0.00,0.00,0.00,0,S01
10700,-7.53455,0.10295,5.56652,-0.5488,0.1829,-1.2195,0.00,0.00,0.00,0,S01
10720,-7.53455,0.10295,5.56652,-0.5488,0.1829,-1.2195,0.00,0.00,0.00,0,S01
10740,-7.54174,0.10534,5.56652,-0.4878,0.1829,-1.2805,0.00,0.00,0.00,0,S01
10760,-7.52976,0.10056,5.56652,-0.3049,0.2439,-1.3415,0.00,0.00,0.00,0,S01
10780,-7.52258,0.09098,5.57370,-0.3049,0.3049,-1.3415,0.00,0.00,0.00,0,S01
10800,-7.53216,0.09337,5.57849,-0.3659,0.3049,-1.3415,0.00,0.00,0.00,0,S01
10820,-7.54174,0.08619,5.55215,-0.3659,0.2439,-1.3415,0.00,0.00,0.00,0,S01
10840,-7.53455,0.08859,5.53779,-0.3659,0.2439,-1.3415,0.00,0.00,0.00,0,S01
10860,-7.53455,0.08859,5.54018,-0.3659,0.2439,-1.3415,0.00,0.00,0.00,0,S01
10880,-7.54174,0.09337,5.54737,-0.4878,0.3659,-1.3415,0.00,0.00,0.00,0,S01
10900,-7.54174,0.09337,5.55215,-0.5488,0.4268,-1.2805,0.00,0.00,0.00,0,S01
10920,-7.53216,0.08380,5.53779,-0.4878,0.4878,-1.2195,0.00,0.00,0.00,0,S01
10940,-7.53455,0.08380,5.55455,-0.4268,0.5488,-1.2195,0.00,0.00,0.00,0,S01
10960,-7.53455,0.08380,5.56652,-0.4268,0.6098,-1.2195,0.00,0.00,0.00,0,S01
10980,-7.53934,0.09577,5.57131,-0.4268,0.6098,-1.2805,0.00,0.00,0.00,0,S01
11000,-7.53934,0.10295,5.56891,-0.4268,0.7317,-1.2805,0.00,0.00,0.00,0,S01
11020,-7.54174,0.09577,5.56412,-0.3659,0.8537,-1.2195,0.00,0.00,0.00,0,S01
11040,-7.53934,0.09577,5.55455,-0.3049,0.9756,-1.2805,0.00,0.00,0.00,0,S01
11060,-7.54174,0.10774,5.55455,-0.3049,0.9146,-1.2805,0.00,0.00,0.00,0,S01
11080,-7.55131,0.10295,5.54737,-0.3049,0.8537,-1.2805,0.00,0.00,0.00,0,S01
11100,-7.55371,0.09337,5.54258,-0.3049,0.9146,-1.3415,0.00,0.00,0.00,0,S01
11120,-7.55371,0.10534,5.52342,-0.2439,0.8537,-1.3415,0.00,0.00,0.00,0,S01
11140,-7.54413,0.10295,5.51863,-0.1829,0.8537,-1.3415,0.00,0.00,0.00,0,S01
11160,-7.54892,0.09577,5.52582,-0.1829,0.8537,-1.3415,0.00,0.00,0.00,0,S01
11180,-7.55849,0.09577,5.52342,-0.2439,0.9146,-1.4024,0.00,0.00,0.00,0,S01
11200,-7.56089,0.09816,5.53061,-0.1829,0.9146,-1.4024,0.00,0.00,0.00,0,S01
11220,-7.56807,0.09816,5.53300,-0.1220,0.9146,-1.4024,0.00,0.00,0.00,0,S01
11240,-7.55610,0.09816,5.54018,-0.0610,0.9756,-1.4024,0.00,0.00,0.00,0,S01
11260,-7.56568,0.10774,5.53779,-0.1220,0.8537,-1.4024,0.00,0.00,0.00,0,S01
11280,-7.58244,0.11732,5.50427,-0.2439,0.6098,-1.3415,0.00,0.00,0.00,0,S01
11300,-7.55131,0.11732,5.53779,-0.3659,0.6098,-1.2805,0.00,0.00,0.00,0,S01
11320,-7.55371,0.10056,5.54497,-0.1829,0.7927,-1.3415,0.00,0.00,0.00,0,S01
11340,-7.57765,0.10295,5.52821,0.2439,0.7317,-1.3415,0.00,0.00,0.00,0,S01
11360,-7.56568,0.08619,5.52582,0.3049,0.6098,-1.3415,0.00,0.00,0.00,0,S01
11380,-7.55610,0.08619,5.54737,-0.2439,0.4268,-1.2805,0.00,0.00,0.00,0,S01
11400,-7.56089,0.07901,5.53300,-0.3049,0.4878,-1.2805,0.00,0.00,0.00,0,S01
11420,-7.56568,0.08619,5.50906,-0.1829,0.6098,-1.2805,0.00,0.00,0.00,0,S01
11440,-7.57047,0.10295,5.49948,-0.1220,0.7927,-1.2805,0.00,0.00,0.00,0,S01
11460,-7.57525,0.10295,5.49709,-0.1220,0.8537,-1.3415,0.00,0.00,0.00,0,S01
11480,-7.56328,0.10534,5.49709,-0.1829,0.9146,-1.3415,0.00,0.00,0.00,0,S01
11500,-7.55610,0.10774,5.50666,-0.1220,0.9756,-1.3415,0.00,0.00,0.00,0,S01
11520,-7.56807,0.10774,5.52342,0.0610,1.0976,-1.4024,0.00,0.00,0.00,0,S01
11540,-7.57286,0.10774,5.52582,0.0610,1.1585,-1.4024,0.00,0.00,0.00,0,S01
11560,-7.57047,0.10534,5.53061,0.0000,1.0976,-1.4024,0.00,0.00,0.00,0,S01
11580,-7.57765,0.11971,5.51863,-0.1220,0.9146,-1.4024,0.00,0.00,0.00,0,S01
11600,-7.57765,0.12210,5.49230,-0.0610,0.9146,-1.4024,0.00,0.00,0.00,0,S01
11620,-7.58962,0.11253,5.48033,0.0000,0.9756,-1.4024,0.00,0.00,0.00,0,S01
11640,-7.58962,0.11013,5.48751,0.0610,1.0976,-1.4024,0.00,0.00,0.00,0,S01
11660,-7.58722,0.10534,5.48751,0.0000,1.0366,-1.4024,0.00,0.00,0.00,0,S01
11680,-7.58722,0.10774,5.48272,-0.1220,0.9146,-1.4634,0.00,0.00,0.00,0,S01
11700,-7.59201,0.11013,5.48033,-0.1829,0.8537,-1.4634,0.00,0.00,0.00,0,S01
11720,-7.59441,0.11253,5.46596,-0.1220,0.8537,-1.4024,0.00,0.00,0.00,0,S01
11740,-7.59920,0.10774,5.46836,-0.1220,0.7927,-1.4024,0.00,0.00,0.00,0,S01
11760,-7.59441,0.10295,5.46357,-0.2439,0.7317,-1.3415,0.00,0.00,0.00,0,S01
11780,-7.59441,0.09577,5.46836,-0.3049,0.7317,-1.3415,0.00,0.00,0.00,0,S01
11800,-7.59201,0.09337,5.48033,-0.3049,0.6707,-1.3415,0.00,0.00,0.00,0,S01
11820,-7.58962,0.08859,5.47315,-0.3049,0.6098,-1.3415,0.00,0.00,0.00,0,S01
11840,-7.59201,0.09337,5.48033,-0.3659,0.6098,-1.3415,0.00,0.00,0.00,0,S01
11860,-7.59201,0.11013,5.48272,-0.4268,0.4878,-1.3415,0.00,0.00,0.00,0,S01
11880,-7.59201,0.11971,5.48033,-0.4268,0.4268,-1.3415,0.00,0.00,0.00,0,S01
11900,-7.59920,0.12210,5.48751,-0.4268,0.3049,-1.3415,0.00,0.00,0.00,0,S01
11920,-7.59201,0.11732,5.47315,-0.4268,0.3049,-1.3415,0.00,0.00,0.00,0,S01
11940,-7.58004,0.11013,5.47793,-0.4268,0.3049,-1.2805,0.00,0.00,0.00,0,S01
11960,-7.58483,0.10295,5.47075,-0.5488,0.3659,-1.2805,0.00,0.00,0.00,0,S01
11980,-7.59201,0.11253,5.48033,-0.6098,0.3659,-1.2805,0.00,0.00,0.00,0,S01
12000,-7.59680,0.11013,5.47554,-0.5488,0.3659,-1.2805,0.00,0.00,0.00,0,S01
12020,-7.60398,0.10774,5.47075,-0.5488,0.2439,-1.2805,0.00,0.00,0.00,0,S01
12040,-7.59201,0.10534,5.45639,-0.6098,0.2439,-1.2805,0.00,0.00,0.00,0,S01
12060,-7.60398,0.10534,5.47554,-0.5488,0.2439,-1.2805,0.00,0.00,0.00,0,S01
12080,-7.61835,0.10774,5.46596,-0.5488,0.1220,-1.2805,0.00,0.00,0.00,0,S01
12100,-7.59680,0.10774,5.45878,-0.4878,-0.1220,-1.2805,0.00,0.00,0.00,0,S01
12120,-7.56328,0.11492,5.48272,-0.4268,0.0000,-1.2805,0.00,0.00,0.00,0,S01
12140,-7.59441,0.11492,5.50188,-0.3049,0.2439,-1.2805,0.00,0.00,0.00,0,S01
12160,-7.60159,0.10774,5.49230,-0.1829,0.1220,-1.3415,0.00,0.00,0.00,0,S01
12180,-7.58483,0.09337,5.48512,-0.2439,-0.1829,-1.2805,0.00,0.00,0.00,0,S01
12200,-7.57286,0.09816,5.48751,-0.4878,-0.3659,-1.2195,0.00,0.00,0.00,0,S01
12220,-7.58004,0.09577,5.49230,-0.5488,-0.3049,-1.2195,0.00,0.00,0.00,0,S01
12240,-7.58962,0.09577,5.48512,-0.4268,-0.1829,-1.2805,0.00,0.00,0.00,0,S01
12260,-7.59680,0.10056,5.46836,-0.3659,-0.0610,-1.2195,0.00,0.00,0.00,0,S01
12280,-7.59680,0.10774,5.47554,-0.5488,-0.0610,-1.2195,0.00,0.00,0.00,0,S01
12300,-7.58483,0.11732,5.47075,-0.6707,0.0610,-1.2195,0.00,0.00,0.00,0,S01
12320,-7.58004,0.11732,5.48033,-0.6707,0.1829,-1.2195,0.00,0.00,0.00,0,S01
12340,-7.58722,0.11013,5.49230,-0.4878,0.1829,-1.2195,0.00,0.00,0.00,0,S01
12360,-7.58483,0.11492,5.47793,-0.4878,0.1220,-1.2195,0.00,0.00,0.00,0,S01
12380,-7.57286,0.10056,5.50906,-0.6098,0.1829,-1.2805,0.00,0.00,0.00,0,S01
12400,-7.57525,0.11492,5.51385,-0.6707,0.1220,-1.2805,0.00,0.00,0.00,0,S01
12420,-7.57047,0.11253,5.50906,-0.6098,0.0000,-1.2805,0.00,0.00,0.00,0,S01
12440,-7.56328,0.10534,5.48751,-0.4268,0.0610,-1.2805,0.00,0.00,0.00,0,S01
12460,-7.56807,0.09337,5.49948,-0.3659,0.1829,-1.3415,0.00,0.00,0.00,0,S01
12480,-7.57525,0.10056,5.51145,-0.3659,0.2439,-1.3415,0.00,0.00,0.00,0,S01
12500,-7.56807,0.10295,5.49230,-0.4878,0.0610,-1.3415,0.00,0.00,0.00,0,S01
12520,-7.56807,0.10295,5.47793,-0.4878,0.0000,-1.3415,0.00,0.00,0.00,0,S01
12540,-7.56807,0.10774,5.48512,-0.4878,0.0610,-1.3415,0.00,0.00,0.00,0,S01
12560,-7.58483,0.10056,5.49709,-0.4878,0.3049,-1.3415,0.00,0.00,0.00,0,S01
12580,-7.57525,0.09816,5.49948,-0.5488,0.2439,-1.2805,0.00,0.00,0.00,0,S01
12600,-7.57765,0.09816,5.49230,-0.5488,0.1829,-1.3415,0.00,0.00,0.00,0,S01
12620,-7.57286,0.09816,5.49709,-0.5488,0.1829,-1.2805,0.00,0.00,0.00,0,S01
12640,-7.57047,0.09577,5.50188,-0.4878,0.1829,-1.2805,0.00,0.00,0.00,0,S01
12660,-7.57047,0.09577,5.50666,-0.5488,0.1829,-1.2805,0.00,0.00,0.00,0,S01
12680,-7.58483,0.09816,5.49469,-0.6098,0.1829,-1.2805,0.00,0.00,0.00,0,S01
12700,-7.58483,0.09577,5.49469,-0.6098,0.1220,-1.2195,0.00,0.00,0.00,0,S01
12720,-7.57525,0.09816,5.49709,-0.4878,0.1829,-1.2805,0.00,0.00,0.00,0,S01
12740,-7.56568,0.10056,5.49948,-0.4268,0.3049,-1.2805,0.00,0.00,0.00,0,S01
12760,-7.56568,0.10774,5.50188,-0.4268,0.4268,-1.3415,0.00,0.00,0.00,0,S01
12780,-7.57765,0.10534,5.50906,-0.5488,0.3659,-1.3415,0.00,0.00,0.00,0,S01
12800,-7.57765,0.10056,5.50906,-0.5488,0.3049,-1.3415,0.00,0.00,0.00,0,S01
12820,-7.58244,0.09577,5.48990,-0.4268,0.3049,-1.3415,0.00,0.00,0.00,0,S01
12840,-7.57286,0.10295,5.50188,-0.3659,0.3049,-1.3415,0.00,0.00,0.00,0,S01
12860,-7.59920,0.10534,5.50188,-0.4268,0.3049,-1.3415,0.00,0.00,0.00,0,S01
12880,-7.61596,0.11492,5.49709,-0.4878,0.0610,-1.3415,0.00,0.00,0.00,0,S01
12900,-7.58244,0.11013,5.49230,-0.4878,-0.1220,-1.2805,0.00,0.00,0.00,0,S01
12920,-7.55131,0.10295,5.50666,-0.3049,0.1220,-1.2195,0.00,0.00,0.00,0,S01
12940,-7.58244,0.10774,5.50906,-0.0610,0.2439,-1.3415,0.00,0.00,0.00,0,S01
12960,-7.58244,0.11253,5.48990,-0.0610,0.0610,-1.3415,0.00,0.00,0.00,0,S01
12980,-7.56328,0.10295,5.48751,-0.3049,-0.1829,-1.2805,0.00,0.00,0.00,0,S01
13000,-7.56568,0.10534,5.49709,-0.5488,-0.3049,-1.2805,0.00,0.00,0.00,0,S01
13020,-7.58004,0.09337,5.48990,-0.4878,-0.3049,-1.2805,0.00,0.00,0.00,0,S01
13040,-7.57525,0.08619,5.48033,-0.3659,-0.1220,-1.2805,0.00,0.00,0.00,0,S01
13060,-7.57765,0.08619,5.47793,-0.4268,0.0000,-1.2195,0.00,0.00,0.00,0,S01
13080,-7.57286,0.08619,5.50666,-0.6098,0.1220,-1.2195,0.00,0.00,0.00,0,S01
13100,-7.57765,0.09098,5.50906,-0.6707,0.2439,-1.2195,0.00,0.00,0.00,0,S01
13120,-7.57286,0.09337,5.52103,-0.6098,0.3049,-1.2195,0.00,0.00,0.00,0,S01
13140,-7.57525,0.08859,5.52342,-0.5488,0.2439,-1.2805,0.00,0.00,0.00,0,S01
13160,-7.58722,0.09337,5.51624,-0.6098,0.1829,-1.2195,0.00,0.00,0.00,0,S01
13180,-7.57765,0.09098,5.53061,-0.6707,0.1220,-1.2195,0.00,0.00,0.00,0,S01
13200,-7.58004,0.09816,5.52103,-0.6707,0.0610,-1.2195,0.00,0.00,0.00,0,S01
13220,-7.57047,0.10056,5.51145,-0.5488,0.1220,-1.2195,0.00,0.00,0.00,0,S01
13240,-7.57286,0.10056,5.50427,-0.4268,0.2439,-1.2805,0.00,0.00,0.00,0,S01
13260,-7.56807,0.10295,5.51624,-0.4878,0.3049,-1.2805,0.00,0.00,0.00,0,S01
13280,-7.57047,0.10774,5.53061,-0.4878,0.1829,-1.3415,0.00,0.00,0.00,0,S01
13300,-7.55849,0.09577,5.52103,-0.3659,0.0610,-1.3415,0.00,0.00,0.00,0,S01
13320,-7.55610,0.08859,5.50906,-0.3049,0.0610,-1.3415,0.00,0.00,0.00,0,S01
13340,-7.56807,0.09337,5.51385,-0.3659,0.0610,-1.3415,0.00,0.00,0.00,0,S01
13360,-7.56568,0.11013,5.51385,-0.4878,0.0610,-1.3415,0.00,0.00,0.00,0,S01
13380,-7.57765,0.10774,5.51145,-0.5488,0.1220,-1.3415,0.00,0.00,0.00,0,S01
13400,-7.58004,0.09816,5.50906,-0.5488,0.1220,-1.2805,0.00,0.00,0.00,0,S01
13420,-7.57765,0.09098,5.50666,-0.4878,0.1220,-1.2805,0.00,0.00,0.00,0,S01
13440,-7.56568,0.09098,5.52582,-0.5488,0.1220,-1.2805,0.00,0.00,0.00,0,S01
13460,-7.55849,0.10056,5.52342,-0.6098,0.1829,-1.2195,0.00,0.00,0.00,0,S01
13480,-7.55610,0.09816,5.52582,-0.6707,0.1829,-1.2195,0.00,0.00,0.00,0,S01
13500,-7.56089,0.09816,5.52821,-0.6707,0.1829,-1.2195,0.00,0.00,0.00,0,S01
13520,-7.56568,0.09816,5.52582,-0.6098,0.0610,-1.2195,0.00,0.00,0.00,0,S01
13540,-7.56089,0.09577,5.51624,-0.6098,0.0000,-1.2195,0.00,0.00,0.00,0,S01
13560,-7.56328,0.10295,5.50666,-0.5488,0.0610,-1.2195,0.00,0.00,0.00,0,S01
13580,-7.55849,0.10056,5.52103,-0.5488,0.2439,-1.2805,0.00,0.00,0.00,0,S01
13600,-7.56568,0.09577,5.51863,-0.5488,0.2439,-1.2805,0.00,0.00,0.00,0,S01
13620,-7.56807,0.09337,5.51145,-0.5488,0.1829,-1.2805,0.00,0.00,0.00,0,S01
13640,-7.56568,0.08619,5.50427,-0.5488,0.1220,-1.2805,0.00,0.00,0.00,0,S01
13660,-7.55849,0.09577,5.51624,-0.5488,0.1220,-1.2805,0.00,0.00,0.00,0,S01
13680,-7.57525,0.10056,5.51863,-0.4878,0.0610,-1.2805,0.00,0.00,0.00,0,S01
13700,-7.58722,0.09816,5.51385,-0.4878,0.0000,-1.2805,0.00,0.00,0.00,0,S01
13720,-7.56089,0.09337,5.54737,-0.3659,-0.0610,-1.2805,0.00,0.00,0.00,0,S01
13740,-7.56568,0.10295,5.53061,-0.1829,-0.1829,-1.3415,0.00,0.00,0.00,0,S01
13760,-7.54892,0.09577,5.52103,-0.1220,-0.1829,-1.3415,0.00,0.00,0.00,0,S01
13780,-7.54892,0.08859,5.52582,-0.2439,-0.1829,-1.2805,0.00,0.00,0.00,0,S01
13800,-7.55131,0.08859,5.53300,-0.3659,-0.2439,-1.2805,0.00,0.00,0.00,0,S01
13820,-7.56089,0.09577,5.53061,-0.4878,-0.3049,-1.2805,0.00,0.00,0.00,0,S01
13840,-7.56568,0.09577,5.50906,-0.4878,-0.3049,-1.2805,0.00,0.00,0.00,0,S01
13860,-7.56807,0.08380,5.50188,-0.4878,-0.1220,-1.2195,0.00,0.00,0.00,0,S01
13880,-7.55610,0.09577,5.51145,-0.4878,0.0610,-1.2195,0.00,0.00,0.00,0,S01
13900,-7.55849,0.10056,5.52103,-0.5488,0.1829,-1.2195,0.00,0.00,0.00,0,S01
13920,-7.55371,0.09577,5.53061,-0.6098,0.1829,-1.2195,0.00,0.00,0.00,0,S01
13940,-7.55131,0.09577,5.53539,-0.6098,0.1829,-1.2195,0.00,0.00,0.00,0,S01
13960,-7.56328,0.09098,5.54497,-0.6098,0.1829,-1.2195,0.00,0.00,0.00,0,S01
13980,-7.54892,0.08859,5.53539,-0.6098,0.0610,-1.2195,0.00,0.00,0.00,0,S01
14000,-7.55131,0.09337,5.51145,-0.6098,-0.0610,-1.2195,0.00,0.00,0.00,0,S01
14020,-7.55131,0.09577,5.50906,-0.5488,0.0000,-1.2195,0.00,0.00,0.00,0,S01
14040,-7.55371,0.08140,5.51385,-0.4878,0.1220,-1.2805,0.00,0.00,0.00,0,S01
14060,-7.55610,0.07661,5.52821,-0.3659,0.1829,-1.2805,0.00,0.00,0.00,0,S01
14080,-7.54413,0.08859,5.54497,-0.3659,0.1220,-1.3415,0.00,0.00,0.00,0,S01
14100,-7.54413,0.09816,5.54737,-0.4268,0.0000,-1.3415,0.00,0.00,0.00,0,S01
14120,-7.54174,0.10295,5.53779,-0.4878,0.0000,-1.3415,0.00,0.00,0.00,0,S01
14140,-7.54413,0.09337,5.52103,-0.4878,0.0610,-1.3415,0.00,0.00,0.00,0,S01
14160,-7.55371,0.09577,5.52582,-0.4268,0.2439,-1.3415,0.00,0.00,0.00,0,S01
14180,-7.56089,0.09337,5.53061,-0.4268,0.2439,-1.3415,0.00,0.00,0.00,0,S01
14200,-7.54892,0.09337,5.53539,-0.4268,0.1829,-1.2805,0.00,0.00,0.00,0,S01
14220,-7.55131,0.08619,5.53061,-0.5488,0.1829,-1.2805,0.00,0.00,0.00,0,S01
14240,-7.54652,0.09337,5.53061,-0.5488,0.2439,-1.2805,0.00,0.00,0.00,0,S01
14260,-7.54174,0.08619,5.52821,-0.5488,0.2439,-1.2805,0.00,0.00,0.00,0,S01
14280,-7.53934,0.08380,5.53300,-0.4878,0.2439,-1.2805,0.00,0.00,0.00,0,S01
14300,-7.54413,0.08380,5.54018,-0.4878,0.1829,-1.2805,0.00,0.00,0.00,0,S01
14320,-7.54413,0.09098,5.53061,-0.5488,0.1220,-1.2805,0.00,0.00,0.00,0,S01
14340,-7.54652,0.09577,5.52821,-0.5488,0.1220,-1.2805,0.00,0.00,0.00,0,S01
14360,-7.53934,0.09337,5.52821,-0.4878,0.2439,-1.2805,0.00,0.00,0.00,0,S01
14380,-7.54652,0.09337,5.53539,-0.4268,0.3659,-1.2805,0.00,0.00,0.00,0,S01
14400,-7.54892,0.08619,5.54258,-0.3659,0.3659,-1.2805,0.00,0.00,0.00,0,S01
14420,-7.54892,0.08380,5.54018,-0.4268,0.3049,-1.2805,0.00,0.00,0.00,0,S01
14440,-7.54652,0.09577,5.53539,-0.4878,0.3049,-1.2805,0.00,0.00,0.00,0,S01
14460,-7.53455,0.10534,5.54976,-0.4878,0.3049,-1.3415,0.00,0.00,0.00,0,S01
14480,-7.56807,0.09816,5.53539,-0.4268,0.2439,-1.3415,0.00,0.00,0.00,0,S01
14500,-7.57525,0.09337,5.53779,-0.4268,0.0610,-1.2805,0.00,0.00,0.00,0,S01
14520,-7.54174,0.08619,5.55455,-0.4268,0.0000,-1.2805,0.00,0.00,0.00,0,S01
14540,-7.54413,0.09577,5.55455,-0.1829,0.0000,-1.3415,0.00,0.00,0.00,0,S01
14560,-7.54174,0.09098,5.54976,-0.0610,0.0000,-1.3415,0.00,0.00,0.00,0,S01
14580,-7.52976,0.08619,5.54497,-0.1220,0.0000,-1.3415,0.00,0.00,0.00,0,S01
14600,-7.52498,0.07901,5.55934,-0.3049,-0.0610,-1.2805,0.00,0.00,0.00,0,S01
14620,-7.54413,0.08619,5.54976,-0.4268,-0.0610,-1.2805,0.00,0.00,0.00,0,S01
14640,-7.55610,0.07661,5.53539,-0.3659,-0.0610,-1.3415,0.00,0.00,0.00,0,S01
14660,-7.55849,0.07901,5.51624,-0.3659,0.0000,-1.2805,0.00,0.00,0.00,0,S01
14680,-7.55131,0.08859,5.51624,-0.3659,0.1829,-1.2805,0.00,0.00,0.00,0,S01
14700,-7.53934,0.10056,5.52342,-0.4878,0.3049,-1.2805,0.00,0.00,0.00,0,S01
14720,-7.54413,0.10295,5.53539,-0.5488,0.4268,-1.2805,0.00,0.00,0.00,0,S01
14740,-7.54652,0.11253,5.54497,-0.5488,0.4878,-1.2805,0.00,0.00,0.00,0,S01
14760,-7.55131,0.10056,5.56173,-0.4268,0.4268,-1.2805,0.00,0.00,0.00,0,S01
14780,-7.54174,0.09816,5.55934,-0.4268,0.2439,-1.2805,0.00,0.00,0.00,0,S01
14800,-7.54174,0.10056,5.55215,-0.5488,0.1829,-1.2805,0.00,0.00,0.00,0,S01
14820,-7.54413,0.10534,5.54737,-0.6098,0.1829,-1.2805,0.00,0.00,0.00,0,S01
14840,-7.54892,0.09337,5.53539,-0.5488,0.3049,-1.2805,0.00,0.00,0.00,0,S01
14860,-7.54174,0.09098,5.55215,-0.3659,0.4268,-1.2805,0.00,0.00,0.00,0,S01
14880,-7.53934,0.09098,5.56173,-0.3049,0.2439,-1.3415,0.00,0.00,0.00,0,S01
14900,-7.53934,0.08619,5.53779,-0.4268,0.1220,-1.2805,0.00,0.00,0.00,0,S01
14920,-7.54652,0.08859,5.53779,-0.4268,0.2439,-1.3415,0.00,0.00,0.00,0,S01
14940,-7.54652,0.09098,5.53300,-0.4268,0.3659,-1.3415,0.00,0.00,0.00,0,S01
14960,-7.54174,0.09098,5.54018,-0.4268,0.4268,-1.3415,0.00,0.00,0.00,0,S01
14980,-7.53695,0.09098,5.54018,-0.4268,0.4268,-1.3415,0.00,0.00,0.00,0,S01
15000,-7.52976,0.09577,5.54737,-0.4268,0.4268,-1.3415,0.00,0.00,0.00,0,S01
15020,-7.53695,0.10534,5.54737,-0.4268,0.4878,-1.2805,0.00,0.00,0.00,0,S01
15040,-7.54413,0.10056,5.54258,-0.3659,0.6098,-1.2805,0.00,0.00,0.00,0,S01
15060,-7.54174,0.10056,5.53539,-0.3049,0.6707,-1.2805,0.00,0.00,0.00,0,S01
15080,-7.54174,0.09337,5.53061,-0.3049,0.6707,-1.2805,0.00,0.00,0.00,0,S01
15100,-7.54413,0.09816,5.54258,-0.3049,0.6707,-1.2805,0.00,0.00,0.00,0,S01
15120,-7.54652,0.09816,5.54018,-0.3659,0.6707,-1.2195,0.00,0.00,0.00,0,S01
15140,-7.53695,0.10295,5.52821,-0.3659,0.8537,-1.2805,0.00,0.00,0.00,0,S01
15160,-7.53934,0.09098,5.53300,-0.2439,1.0366,-1.2805,0.00,0.00,0.00,0,S01
15180,-7.55849,0.09098,5.51624,-0.1220,1.0976,-1.2805,0.00,0.00,0.00,0,S01
15200,-7.58004,0.08619,5.52342,-0.1220,0.8537,-1.2805,0.00,0.00,0.00,0,S01
15220,-7.59201,0.07901,5.49709,-0.3049,0.4878,-1.2805,0.00,0.00,0.00,0,S01
15240,-7.57765,0.07901,5.49948,-0.2439,0.1220,-1.2195,0.00,0.00,0.00,0,S01
15260,-7.56089,0.08140,5.51385,-0.1829,0.0610,-1.2195,0.00,0.00,0.00,0,S01
15280,-7.54892,0.09098,5.51624,-0.1220,0.1220,-1.2805,0.00,0.00,0.00,0,S01
15300,-7.54652,0.10295,5.53779,-0.1829,0.4268,-1.2195,0.00,0.00,0.00,0,S01
15320,-7.53695,0.10534,5.59046,-0.1220,0.7317,-1.2195,0.00,0.00,0.00,0,S01
15340,-7.53455,0.11013,5.58088,0.0610,0.4268,-1.2805,0.00,0.00,0.00,0,S01
15360,-7.50343,0.11492,5.57370,0.3049,0.1829,-1.3415,0.00,0.00,0.00,0,S01
15380,-7.49625,0.10295,5.56412,0.2439,0.4268,-1.4024,0.00,0.00,0.00,0,S01
15400,-7.53455,0.09816,5.56412,0.1220,0.7927,-1.4024,0.00,0.00,0.00,0,S01
15420,-7.56328,0.09337,5.56412,0.0000,0.7927,-1.4024,0.00,0.00,0.00,0,S01
15440,-7.56328,0.09816,5.51863,0.0000,0.6098,-1.3415,0.00,0.00,0.00,0,S01
15460,-7.57286,0.08859,5.49469,0.0000,0.6707,-1.3415,0.00,0.00,0.00,0,S01
15480,-7.58244,0.10056,5.48272,-0.0610,0.7927,-1.4024,0.00,0.00,0.00,0,S01
15500,-7.57286,0.11492,5.46596,-0.1220,1.0366,-1.4024,0.00,0.00,0.00,0,S01
15520,-7.57047,0.12210,5.48033,-0.1220,1.2195,-1.3415,0.00,0.00,0.00,0,S01
15540,-7.56568,0.11253,5.49948,-0.1220,1.2805,-1.3415,0.00,0.00,0.00,0,S01
15560,-7.56089,0.10534,5.50906,-0.1220,1.1585,-1.3415,0.00,0.00,0.00,0,S01
15580,-7.57047,0.10295,5.51624,-0.1829,1.0976,-1.2805,0.00,0.00,0.00,0,S01
15600,-7.57765,0.10774,5.51863,-0.2439,0.9146,-1.2805,0.00,0.00,0.00,0,S01
15620,-7.57765,0.11732,5.50188,-0.2439,0.6707,-1.2195,0.00,0.00,0.00,0,S01
15640,-7.56568,0.11732,5.49948,-0.1829,0.7317,-1.2805,0.00,0.00,0.00,0,S01
15660,-7.55849,0.11013,5.50427,-0.0610,0.9756,-1.2805,0.00,0.00,0.00,0,S01
15680,-7.57286,0.10774,5.51145,0.0610,1.0366,-1.3415,0.00,0.00,0.00,0,S01
15700,-7.57286,0.10295,5.51145,0.0610,0.8537,-1.4024,0.00,0.00,0.00,0,S01
15720,-7.56807,0.10774,5.50188,0.0000,0.7317,-1.4024,0.00,0.00,0.00,0,S01
15740,-7.56568,0.11013,5.50427,-0.0610,0.7317,-1.4634,0.00,0.00,0.00,0,S01
15760,-7.58244,0.11253,5.50188,0.0000,0.9146,-1.4634,0.00,0.00,0.00,0,S01
15780,-7.59441,0.11013,5.49230,-0.0610,0.9146,-1.4634,0.00,0.00,0.00,0,S01
15800,-7.59441,0.11492,5.48751,-0.0610,0.9146,-1.4634,0.00,0.00,0.00,0,S01
15820,-7.58004,0.11253,5.48033,0.0610,0.9756,-1.4634,0.00,0.00,0.00,0,S01
15840,-7.57525,0.10774,5.47793,0.1829,1.1585,-1.4634,0.00,0.00,0.00,0,S01
15860,-7.58722,0.11492,5.49230,0.1220,1.2195,-1.4634,0.00,0.00,0.00,0,S01
15880,-7.59680,0.11971,5.48033,0.0000,0.9756,-1.4634,0.00,0.00,0.00,0,S01
15900,-7.59441,0.11732,5.46596,-0.1220,0.7927,-1.4024,0.00,0.00,0.00,0,S01
15920,-7.58962,0.11492,5.45639,-0.1829,0.7317,-1.3415,0.00,0.00,0.00,0,S01
15940,-7.58483,0.10774,5.46836,-0.2439,0.7927,-1.2805,0.00,0.00,0.00,0,S01
15960,-7.59441,0.10295,5.47075,-0.3049,0.7317,-1.2805,0.00,0.00,0.00,0,S01
15980,-7.59920,0.10056,5.48272,-0.3659,0.6707,-1.2195,0.00,0.00,0.00,0,S01
16000,-7.58962,0.09577,5.47793,-0.4878,0.4878,-1.2195,0.00,0.00,0.00,0,S01
16020,-7.58722,0.10774,5.47793,-0.5488,0.4268,-1.2195,0.00,0.00,0.00,0,S01
16040,-7.62314,0.11971,5.46836,-0.6098,0.3659,-1.2195,0.00,0.00,0.00,0,S01
16060,-7.57286,0.11971,5.47075,-0.6707,0.0610,-1.1585,0.00,0.00,0.00,0,S01
16080,-7.58244,0.11492,5.48751,-0.4268,0.3659,-1.2195,0.00,0.00,0.00,0,S01
16100,-7.61117,0.11971,5.48512,-0.1829,0.1829,-1.3415,0.00,0.00,0.00,0,S01
16120,-7.59920,0.11492,5.47075,-0.0610,-0.1220,-1.3415,0.00,0.00,0.00,0,S01
16140,-7.56807,0.11732,5.46596,-0.3049,-0.3049,-1.3415,0.00,0.00,0.00,0,S01
16160,-7.57286,0.12689,5.47554,-0.6098,-0.3049,-1.3415,0.00,0.00,0.00,0,S01
16180,-7.59441,0.11253,5.47793,-0.4878,-0.1829,-1.3415,0.00,0.00,0.00,0,S01
16200,-7.59680,0.10295,5.47075,-0.3049,-0.1220,-1.3415,0.00,0.00,0.00,0,S01
16220,-7.59680,0.11013,5.47315,-0.3659,-0.1829,-1.3415,0.00,0.00,0.00,0,S01
16240,-7.58962,0.11013,5.45160,-0.5488,-0.1220,-1.2805,0.00,0.00,0.00,0,S01
16260,-7.59201,0.11971,5.48512,-0.6707,0.0610,-1.2805,0.00,0.00,0.00,0,S01
16280,-7.59201,0.11492,5.48751,-0.6707,0.0610,-1.2805,0.00,0.00,0.00,0,S01
16300,-7.59201,0.11253,5.48512,-0.5488,0.0610,-1.2805,0.00,0.00,0.00,0,S01
16320,-7.58244,0.10774,5.50188,-0.6098,0.0610,-1.2195,0.00,0.00,0.00,0,S01
16340,-7.59441,0.12929,5.49469,-0.6707,0.0000,-1.2195,0.00,0.00,0.00,0,S01
16360,-7.58004,0.13886,5.49230,-0.7317,-0.1220,-1.2195,0.00,0.00,0.00,0,S01
16380,-7.57286,0.12210,5.49469,-0.6707,-0.0610,-1.2195,0.00,0.00,0.00,0,S01
16400,-7.57047,0.11253,5.49230,-0.5488,0.0610,-1.2195,0.00,0.00,0.00,0,S01
16420,-7.57765,0.11971,5.50427,-0.4878,0.1829,-1.2805,0.00,0.00,0.00,0,S01
16440,-7.58962,0.12450,5.49469,-0.4878,0.0610,-1.2805,0.00,0.00,0.00,0,S01
16460,-7.58722,0.12210,5.49469,-0.5488,-0.1220,-1.2805,0.00,0.00,0.00,0,S01
16480,-7.58483,0.11253,5.47554,-0.5488,-0.1829,-1.3415,0.00,0.00,0.00,0,S01
16500,-7.58244,0.12210,5.47315,-0.5488,-0.1220,-1.3415,0.00,0.00,0.00,0,S01
16520,-7.58722,0.11732,5.48512,-0.5488,0.0000,-1.2805,0.00,0.00,0.00,0,S01
16540,-7.57525,0.11253,5.49469,-0.6098,0.1220,-1.2805,0.00,0.00,0.00,0,S01
16560,-7.57525,0.10774,5.51145,-0.6098,0.1829,-1.2805,0.00,0.00,0.00,0,S01
16580,-7.56807,0.11013,5.51624,-0.5488,0.1829,-1.2805,0.00,0.00,0.00,0,S01
16600,-7.57525,0.10774,5.50906,-0.5488,0.1829,-1.3415,0.00,0.00,0.00,0,S01
16620,-7.58483,0.10056,5.49469,-0.5488,0.1220,-1.3415,0.00,0.00,0.00,0,S01
16640,-7.57765,0.11492,5.48272,-0.5488,0.1220,-1.3415,0.00,0.00,0.00,0,S01
16660,-7.57765,0.11492,5.48033,-0.5488,0.1829,-1.3415,0.00,0.00,0.00,0,S01
16680,-7.58244,0.10534,5.48272,-0.4878,0.3049,-1.3415,0.00,0.00,0.00,0,S01
16700,-7.58483,0.10534,5.48751,-0.4268,0.3049,-1.3415,0.00,0.00,0.00,0,S01
16720,-7.58244,0.11253,5.50427,-0.4878,0.3049,-1.3415,0.00,0.00,0.00,0,S01
16740,-7.58244,0.11253,5.49709,-0.4878,0.3049,-1.3415,0.00,0.00,0.00,0,S01
16760,-7.58722,0.11013,5.51624,-0.4878,0.3049,-1.2805,0.00,0.00,0.00,0,S01
16780,-7.60877,0.10295,5.50188,-0.4878,0.0610,-1.3415,0.00,0.00,0.00,0,S01
16800,-7.60159,0.11732,5.47075,-0.6707,-0.2439,-1.2805,0.00,0.00,0.00,0,S01
16820,-7.56568,0.11492,5.49469,-0.7317,-0.1829,-1.2195,0.00,0.00,0.00,0,S01
16840,-7.56328,0.10056,5.50188,-0.4268,0.0000,-1.2195,0.00,0.00,0.00,0,S01
16860,-7.57525,0.10534,5.51145,-0.1829,0.0000,-1.2805,0.00,0.00,0.00,0,S01
16880,-7.57286,0.10295,5.52342,-0.2439,-0.2439,-1.2805,0.00,0.00,0.00,0,S01
16900,-7.55849,0.11013,5.52103,-0.5488,-0.5488,-1.2805,0.00,0.00,0.00,0,S01
16920,-7.56568,0.09816,5.52103,-0.6707,-0.6098,-1.2805,0.00,0.00,0.00,0,S01
16940,-7.57047,0.09577,5.51385,-0.4878,-0.4268,-1.2805,0.00,0.00,0.00,0,S01
16960,-7.57047,0.10774,5.48272,-0.3659,-0.3659,-1.2195,0.00,0.00,0.00,0,S01
16980,-7.56568,0.11253,5.47793,-0.5488,-0.2439,-1.2195,0.00,0.00,0.00,0,S01
17000,-7.55849,0.11732,5.49469,-0.7927,0.0000,-1.2195,0.00,0.00,0.00,0,S01
17020,-7.56328,0.11253,5.51145,-0.7927,0.0610,-1.2805,0.00,0.00,0.00,0,S01
17040,-7.55131,0.10774,5.52582,-0.6707,0.1220,-1.2805,0.00,0.00,0.00,0,S01
17060,-7.54892,0.10295,5.52342,-0.4878,0.0610,-1.2805,0.00,0.00,0.00,0,S01
17080,-7.55610,0.11253,5.52821,-0.6098,0.0610,-1.2805,0.00,0.00,0.00,0,S01
17100,-7.57286,0.10534,5.54497,-0.7317,0.0000,-1.2195,0.00,0.00,0.00,0,S01
17120,-7.56568,0.10295,5.52821,-0.7317,-0.1220,-1.2195,0.00,0.00,0.00,0,S01
17140,-7.56089,0.10295,5.51385,-0.5488,-0.1220,-1.2805,0.00,0.00,0.00,0,S01
17160,-7.56328,0.09577,5.50427,-0.4878,0.1220,-1.2805,0.00,0.00,0.00,0,S01
17180,-7.56568,0.09577,5.52342,-0.6098,0.1829,-1.2195,0.00,0.00,0.00,0,S01
17200,-7.55371,0.10774,5.52342,-0.7927,0.1220,-1.2195,0.00,0.00,0.00,0,S01
17220,-7.56089,0.10056,5.53061,-0.6707,0.2439,-1.2805,0.00,0.00,0.00,0,S01
17240,-7.56089,0.10056,5.53061,-0.4878,0.3049,-1.3415,0.00,0.00,0.00,0,S01
17260,-7.56089,0.09577,5.51624,-0.5488,0.2439,-1.3415,0.00,0.00,0.00,0,S01
17280,-7.56089,0.09577,5.51145,-0.6707,0.2439,-1.2805,0.00,0.00,0.00,0,S01
17300,-7.56568,0.09337,5.52342,-0.7317,0.2439,-1.2805,0.00,0.00,0.00,0,S01
17320,-7.56328,0.09337,5.53539,-0.5488,0.2439,-1.2805,0.00,0.00,0.00,0,S01
17340,-7.56807,0.09098,5.52342,-0.4268,0.1829,-1.2805,0.00,0.00,0.00,0,S01
17360,-7.57047,0.09098,5.52103,-0.4878,0.0610,-1.2805,0.00,0.00,0.00,0,S01
17380,-7.57047,0.10534,5.52103,-0.6098,-0.0610,-1.2195,0.00,0.00,0.00,0,S01
17400,-7.55610,0.10534,5.52342,-0.6707,-0.0610,-1.2195,0.00,0.00,0.00,0,S01
17420,-7.53695,0.09337,5.52103,-0.6098,0.0000,-1.2195,0.00,0.00,0.00,0,S01
17440,-7.54652,0.10295,5.51624,-0.5488,0.1220,-1.2805,0.00,0.00,0.00,0,S01
17460,-7.54892,0.09816,5.53061,-0.5488,0.1829,-1.2805,0.00,0.00,0.00,0,S01
17480,-7.55371,0.10295,5.53061,-0.6098,0.1829,-1.2805,0.00,0.00,0.00,0,S01
17500,-7.54652,0.11253,5.53300,-0.6707,0.1829,-1.2805,0.00,0.00,0.00,0,S01
17520,-7.52737,0.10534,5.53300,-0.6098,0.1829,-1.2805,0.00,0.00,0.00,0,S01
17540,-7.56568,0.09577,5.52821,-0.4878,0.1220,-1.2805,0.00,0.00,0.00,0,S01
17560,-7.57047,0.10295,5.52582,-0.4878,0.0000,-1.2805,0.00,0.00,0.00,0,S01
17580,-7.54652,0.08619,5.54976,-0.4878,0.0610,-1.2805,0.00,0.00,0.00,0,S01
17600,-7.55371,0.08859,5.54976,-0.3049,-0.0610,-1.3415,0.00,0.00,0.00,0,S01
17620,-7.54174,0.09337,5.52342,-0.1220,-0.1220,-1.3415,0.00,0.00,0.00,0,S01
17640,-7.54174,0.08380,5.52103,-0.1829,-0.1220,-1.3415,0.00,0.00,0.00,0,S01
17660,-7.54652,0.07422,5.53779,-0.3659,-0.1220,-1.2805,0.00,0.00,0.00,0,S01
17680,-7.55610,0.07661,5.54737,-0.4878,-0.2439,-1.2195,0.00,0.00,0.00,0,S01
17700,-7.56089,0.07901,5.53061,-0.4878,-0.3049,-1.2195,0.00,0.00,0.00,0,S01
17720,-7.54652,0.08380,5.50666,-0.4878,-0.2439,-1.2195,0.00,0.00,0.00,0,S01
17740,-7.55131,0.09577,5.51863,-0.4878,0.0000,-1.2195,0.00,0.00,0.00,0,S01
17760,-7.55610,0.10534,5.54018,-0.5488,0.1829,-1.2195,0.00,0.00,0.00,0,S01
17780,-7.55610,0.11253,5.53779,-0.6098,0.1829,-1.1585,0.00,0.00,0.00,0,S01
17800,-7.53934,0.10534,5.54497,-0.5488,0.1220,-1.2195,0.00,0.00,0.00,0,S01
17820,-7.55610,0.10534,5.54976,-0.6098,0.0610,-1.2195,0.00,0.00,0.00,0,S01
17840,-7.54652,0.10056,5.55455,-0.7317,0.0610,-1.1585,0.00,0.00,0.00,0,S01
17860,-7.53695,0.09577,5.55934,-0.7927,0.1220,-1.1585,0.00,0.00,0.00,0,S01
17880,-7.54413,0.09816,5.56652,-0.6098,0.1829,-1.2195,0.00,0.00,0.00,0,S01
17900,-7.53934,0.09577,5.55455,-0.4268,0.2439,-1.2805,0.00,0.00,0.00,0,S01
17920,-7.53934,0.09098,5.55455,-0.3659,0.2439,-1.3415,0.00,0.00,0.00,0,S01
17940,-7.55131,0.08619,5.56173,-0.3659,0.2439,-1.4024,0.00,0.00,0.00,0,S01
17960,-7.54892,0.08380,5.54737,-0.3659,0.1829,-1.4024,0.00,0.00,0.00,0,S01
17980,-7.54892,0.08619,5.53779,-0.2439,0.1829,-1.4024,0.00,0.00,0.00,0,S01
18000,-7.55131,0.09816,5.52582,-0.2439,0.3049,-1.4634,0.00,0.00,0.00,0,S01
18020,-7.54892,0.10056,5.52582,-0.4268,0.3049,-1.4024,0.00,0.00,0.00,0,S01
18040,-7.56089,0.10774,5.52821,-0.5488,0.3659,-1.3415,0.00,0.00,0.00,0,S01
18060,-7.56328,0.11253,5.52342,-0.4878,0.3659,-1.3415,0.00,0.00,0.00,0,S01
18080,-7.55371,0.10534,5.52342,-0.4268,0.3659,-1.3415,0.00,0.00,0.00,0,S01
18100,-7.55131,0.08619,5.52582,-0.4878,0.3659,-1.2805,0.00,0.00,0.00,0,S01
18120,-7.55131,0.07901,5.54976,-0.5488,0.4268,-1.2195,0.00,0.00,0.00,0,S01
18140,-7.54652,0.08140,5.54258,-0.6707,0.3659,-1.2195,0.00,0.00,0.00,0,S01
18160,-7.55849,0.09816,5.53539,-0.6707,0.3659,-1.2195,0.00,0.00,0.00,0,S01
18180,-7.55371,0.08380,5.53779,-0.6098,0.3659,-1.2195,0.00,0.00,0.00,0,S01
18200,-7.53695,0.07661,5.53539,-0.5488,0.3659,-1.2195,0.00,0.00,0.00,0,S01
18220,-7.53455,0.08380,5.53539,-0.4878,0.4268,-1.2195,0.00,0.00,0.00,0,S01
18240,-7.53695,0.08619,5.54737,-0.4878,0.4878,-1.2805,0.00,0.00,0.00,0,S01
18260,-7.54652,0.08619,5.55215,-0.4268,0.4878,-1.2805,0.00,0.00,0.00,0,S01
18280,-7.54892,0.09816,5.52582,-0.3659,0.4878,-1.2805,0.00,0.00,0.00,0,S01
18300,-7.54413,0.10774,5.54737,-0.3659,0.4878,-1.2805,0.00,0.00,0.00,0,S01
18320,-7.56328,0.10534,5.55455,-0.3659,0.4878,-1.3415,0.00,0.00,0.00,0,S01
18340,-7.57286,0.10774,5.55215,-0.3049,0.3049,-1.3415,0.00,0.00,0.00,0,S01
18360,-7.53934,0.09816,5.55934,-0.1829,0.3659,-1.3415,0.00,0.00,0.00,0,S01
18380,-7.55131,0.10534,5.53779,0.1829,0.5488,-1.4024,0.00,0.00,0.00,0,S01
18400,-7.54413,0.09577,5.52342,0.1220,0.6098,-1.3415,0.00,0.00,0.00,0,S01
18420,-7.55131,0.09337,5.53300,-0.1220,0.5488,-1.3415,0.00,0.00,0.00,0,S01
18440,-7.54652,0.08619,5.54976,-0.1829,0.4878,-1.2805,0.00,0.00,0.00,0,S01
18460,-7.54892,0.08619,5.54018,-0.1220,0.4878,-1.2805,0.00,0.00,0.00,0,S01
18480,-7.55371,0.09577,5.51145,-0.1220,0.5488,-1.2805,0.00,0.00,0.00,0,S01
18500,-7.54892,0.08859,5.49948,-0.2439,0.6707,-1.2805,0.00,0.00,0.00,0,S01
18520,-7.55849,0.08859,5.50427,-0.2439,0.7927,-1.2805,0.00,0.00,0.00,0,S01
18540,-7.54892,0.10295,5.51145,-0.1829,0.9146,-1.3415,0.00,0.00,0.00,0,S01
18560,-7.54174,0.09816,5.51624,-0.1220,1.0366,-1.2805,0.00,0.00,0.00,0,S01
18580,-7.55610,0.10295,5.52103,-0.0610,1.0366,-1.2805,0.00,0.00,0.00,0,S01
18600,-7.55849,0.09577,5.52821,-0.1829,0.9756,-1.2805,0.00,0.00,0.00,0,S01
18620,-7.55849,0.10295,5.52342,-0.3049,0.8537,-1.2805,0.00,0.00,0.00,0,S01
18640,-7.55849,0.11492,5.50188,-0.3049,0.7927,-1.3415,0.00,0.00,0.00,0,S01
18660,-7.55610,0.11492,5.49469,-0.1220,0.9146,-1.3415,0.00,0.00,0.00,0,S01
18680,-7.56089,0.09337,5.49948,0.0610,1.0366,-1.4024,0.00,0.00,0.00,0,S01
18700,-7.57286,0.09577,5.50427,0.1220,1.0976,-1.4024,0.00,0.00,0.00,0,S01
18720,-7.56807,0.11013,5.49709,0.0610,0.9756,-1.4634,0.00,0.00,0.00,0,S01
18740,-7.56568,0.10534,5.50906,0.0000,0.7927,-1.4634,0.00,0.00,0.00,0,S01
18760,-7.57047,0.10534,5.49709,-0.0610,0.8537,-1.4634,0.00,0.00,0.00,0,S01
18780,-7.58004,0.10295,5.50427,0.0000,0.9146,-1.4634,0.00,0.00,0.00,0,S01
18800,-7.57765,0.10774,5.49230,0.0610,0.9756,-1.4634,0.00,0.00,0.00,0,S01
18820,-7.58004,0.10056,5.47793,0.0610,0.9756,-1.4634,0.00,0.00,0.00,0,S01
18840,-7.57765,0.10056,5.48990,0.0000,1.0366,-1.4634,0.00,0.00,0.00,0,S01
18860,-7.57286,0.11253,5.48990,-0.0610,1.1585,-1.4024,0.00,0.00,0.00,0,S01
18880,-7.58722,0.11732,5.49948,-0.1220,1.2195,-1.4024,0.00,0.00,0.00,0,S01
18900,-7.60159,0.11253,5.48990,-0.0610,1.1585,-1.4024,0.00,0.00,0.00,0,S01
18920,-7.59680,0.11253,5.48751,-0.1220,1.0366,-1.3415,0.00,0.00,0.00,0,S01
18940,-7.57525,0.10774,5.47793,-0.1220,0.9756,-1.3415,0.00,0.00,0.00,0,S01
18960,-7.57525,0.10774,5.46357,-0.1829,1.0366,-1.3415,0.00,0.00,0.00,0,S01
18980,-7.58483,0.10534,5.47554,-0.1220,1.1585,-1.2805,0.00,0.00,0.00,0,S01
19000,-7.59201,0.09337,5.48751,-0.1220,1.1585,-1.2805,0.00,0.00,0.00,0,S01
19020,-7.59441,0.09577,5.48512,-0.1829,1.1585,-1.2805,0.00,0.00,0.00,0,S01
19040,-7.58962,0.11013,5.46117,-0.1829,1.1585,-1.3415,0.00,0.00,0.00,0,S01
19060,-7.60159,0.10534,5.46596,-0.1220,1.0976,-1.3415,0.00,0.00,0.00,0,S01
19080,-7.62793,0.11492,5.46357,-0.1220,0.8537,-1.4024,0.00,0.00,0.00,0,S01
19100,-7.60398,0.11013,5.44920,-0.1829,0.5488,-1.4024,0.00,0.00,0.00,0,S01
19120,-7.58004,0.11013,5.47793,-0.1829,0.6707,-1.3415,0.00,0.00,0.00,0,S01
19140,-7.59680,0.11013,5.49230,-0.0610,0.7927,-1.3415,0.00,0.00,0.00,0,S01
19160,-7.60877,0.10774,5.48272,0.0610,0.4878,-1.4024,0.00,0.00,0.00,0,S01
19180,-7.59920,0.10056,5.47315,0.0610,0.1829,-1.4024,0.00,0.00,0.00,0,S01
19200,-7.59201,0.10774,5.45399,-0.1829,-0.0610,-1.3415,0.00,0.00,0.00,0,S01
19220,-7.58962,0.10534,5.45399,-0.3659,-0.1220,-1.3415,0.00,0.00,0.00,0,S01
19240,-7.59441,0.11013,5.43723,-0.3659,0.0000,-1.3415,0.00,0.00,0.00,0,S01
19260,-7.59920,0.11013,5.44681,-0.3659,0.1220,-1.2805,0.00,0.00,0.00,0,S01
19280,-7.60877,0.10295,5.43723,-0.4268,0.1829,-1.2805,0.00,0.00,0.00,0,S01
19300,-7.59680,0.11013,5.45399,-0.4878,0.2439,-1.2805,0.00,0.00,0.00,0,S01
19320,-7.58483,0.11013,5.45878,-0.5488,0.3049,-1.2195,0.00,0.00,0.00,0,S01
19340,-7.59441,0.10534,5.46357,-0.5488,0.3049,-1.2805,0.00,0.00,0.00,0,S01
19360,-7.59201,0.10774,5.46836,-0.6098,0.2439,-1.2195,0.00,0.00,0.00,0,S01
19380,-7.59920,0.11013,5.47554,-0.6707,0.2439,-1.2195,0.00,0.00,0.00,0,S01
19400,-7.59920,0.11492,5.47075,-0.7317,0.0610,-1.2195,0.00,0.00,0.00,0,S01
19420,-7.58722,0.11732,5.46596,-0.6098,0.0610,-1.2195,0.00,0.00,0.00,0,S01
19440,-7.59441,0.10534,5.46836,-0.4268,0.1829,-1.2805,0.00,0.00,0.00,0,S01
19460,-7.59441,0.11492,5.48751,-0.4268,0.3049,-1.2805,0.00,0.00,0.00,0,S01
19480,-7.58722,0.11492,5.49948,-0.4268,0.3049,-1.3415,0.00,0.00,0.00,0,S01
19500,-7.58483,0.11492,5.48033,-0.4268,0.1220,-1.3415,0.00,0.00,0.00,0,S01
19520,-7.58722,0.11253,5.47554,-0.3659,0.0610,-1.3415,0.00,0.00,0.00,0,S01
19540,-7.58244,0.10774,5.46117,-0.4878,0.0610,-1.3415,0.00,0.00,0.00,0,S01
19560,-7.59680,0.11013,5.44920,-0.5488,0.1220,-1.3415,0.00,0.00,0.00,0,S01
19580,-7.58722,0.10774,5.46596,-0.4878,0.2439,-1.3415,0.00,0.00,0.00,0,S01
19600,-7.58483,0.10056,5.48033,-0.4268,0.3049,-1.2805,0.00,0.00,0.00,0,S01
19620,-7.58962,0.10534,5.48751,-0.4878,0.3049,-1.2805,0.00,0.00,0.00,0,S01
19640,-7.59680,0.11013,5.48272,-0.5488,0.1220,-1.2805,0.00,0.00,0.00,0,S01
19660,-7.59680,0.11253,5.47793,-0.6707,0.0000,-1.2805,0.00,0.00,0.00,0,S01
19680,-7.58722,0.12210,5.47793,-0.6707,0.0610,-1.2805,0.00,0.00,0.00,0,S01
19700,-7.59201,0.11732,5.47793,-0.5488,0.3049,-1.2805,0.00,0.00,0.00,0,S01
19720,-7.60398,0.10295,5.49469,-0.4878,0.4268,-1.2805,0.00,0.00,0.00,0,S01
19740,-7.60877,0.09098,5.49230,-0.5488,0.4268,-1.2195,0.00,0.00,0.00,0,S01
19760,-7.58962,0.10295,5.46596,-0.6098,0.2439,-1.2195,0.00,0.00,0.00,0,S01
19780,-7.58962,0.10534,5.48512,-0.6098,0.2439,-1.2805,0.00,0.00,0.00,0,S01
19800,-7.62314,0.11013,5.47793,-0.5488,0.1829,-1.3415,0.00,0.00,0.00,0,S01
19820,-7.61117,0.11492,5.47315,-0.5488,-0.0610,-1.2805,0.00,0.00,0.00,0,S01
19840,-7.58004,0.11732,5.48272,-0.5488,-0.0610,-1.2195,0.00,0.00,0.00,0,S01
19860,-7.57525,0.11971,5.51145,-0.4268,0.1220,-1.2805,0.00,0.00,0.00,0,S01
19880,-7.59920,0.11971,5.49230,-0.2439,0.1220,-1.4024,0.00,0.00,0.00,0,S01
19900,-7.58483,0.11253,5.48512,-0.1220,0.0000,-1.3415,0.00,0.00,0.00,0,S01
19920,-7.57286,0.10774,5.48272,-0.3049,-0.1220,-1.3415,0.00,0.00,0.00,0,S01
19940,-7.57765,0.10774,5.49230,-0.4878,-0.1829,-1.2805,0.00,0.00,0.00,0,S01
19960,-7.59201,0.10056,5.48512,-0.4878,-0.2439,-1.2805,0.00,0.00,0.00,0,S01
19980,-7.59201,0.10534,5.45160,-0.4878,-0.1829,-1.2805,0.00,0.00,0.00,0,S01
20000,-7.58962,0.10774,5.44920,-0.5488,0.0000,-1.2195,0.00,0.00,0.00,0,S01
20020,-7.58244,0.11492,5.45639,-0.6098,0.1829,-1.2195,0.00,0.00,0.00,0,S01
20040,-7.57525,0.11492,5.46596,-0.5488,0.3049,-1.2195,0.00,0.00,0.00,0,S01
20060,-7.58004,0.11492,5.48272,-0.5488,0.3659,-1.2195,0.00,0.00,0.00,0,S01
20080,-7.59441,0.11253,5.49709,-0.5488,0.2439,-1.2805,0.00,0.00,0.00,0,S01
20100,-7.58483,0.10056,5.49709,-0.6098,0.1829,-1.2195,0.00,0.00,0.00,0,S01
20120,-7.58483,0.10295,5.50188,-0.6707,0.1220,-1.2195,0.00,0.00,0.00,0,S01
20140,-7.57525,0.11492,5.49230,-0.5488,0.1220,-1.2805,0.00,0.00,0.00,0,S01
20160,-7.57286,0.11971,5.50188,-0.4268,0.2439,-1.3415,0.00,0.00,0.00,0,S01
20180,-7.58483,0.11013,5.51624,-0.4268,0.3049,-1.2805,0.00,0.00,0.00,0,S01
20200,-7.58722,0.11492,5.50906,-0.4878,0.2439,-1.3415,0.00,0.00,0.00,0,S01
20220,-7.57525,0.10774,5.50188,-0.4268,0.1220,-1.3415,0.00,0.00,0.00,0,S01
20240,-7.57525,0.11013,5.48512,-0.3049,0.0610,-1.3415,0.00,0.00,0.00,0,S01
20260,-7.57765,0.11732,5.48751,-0.3049,0.1220,-1.4024,0.00,0.00,0.00,0,S01
20280,-7.57047,0.11013,5.49230,-0.4268,0.1220,-1.4024,0.00,0.00,0.00,0,S01
20300,-7.57765,0.10774,5.48751,-0.5488,0.1829,-1.3415,0.00,0.00,0.00,0,S01
20320,-7.59201,0.10056,5.49469,-0.4878,0.1829,-1.3415,0.00,0.00,0.00,0,S01
20340,-7.58004,0.09098,5.48751,-0.3659,0.2439,-1.3415,0.00,0.00,0.00,0,S01
20360,-7.58004,0.10056,5.48751,-0.4268,0.2439,-1.2805,0.00,0.00,0.00,0,S01
20380,-7.57525,0.11492,5.49709,-0.6098,0.2439,-1.2805,0.00,0.00,0.00,0,S01
20400,-7.58004,0.11013,5.51385,-0.7317,0.3049,-1.2805,0.00,0.00,0.00,0,S01
20420,-7.58962,0.10056,5.50188,-0.6098,0.1829,-1.2805,0.00,0.00,0.00,0,S01
20440,-7.58962,0.10056,5.50666,-0.4878,0.0610,-1.2805,0.00,0.00,0.00,0,S01
20460,-7.56328,0.10295,5.49709,-0.4878,0.0000,-1.2805,0.00,0.00,0.00,0,S01
20480,-7.56328,0.09577,5.49709,-0.4878,0.1220,-1.2805,0.00,0.00,0.00,0,S01
20500,-7.57286,0.09337,5.51145,-0.5488,0.3049,-1.2805,0.00,0.00,0.00,0,S01
20520,-7.58004,0.08859,5.50906,-0.5488,0.3049,-1.2805,0.00,0.00,0.00,0,S01
20540,-7.57286,0.09337,5.50188,-0.4268,0.2439,-1.2805,0.00,0.00,0.00,0,S01
20560,-7.55849,0.09816,5.49948,-0.4268,0.2439,-1.2805,0.00,0.00,0.00,0,S01
20580,-7.58962,0.11253,5.49948,-0.4878,0.2439,-1.2805,0.00,0.00,0.00,0,S01
20600,-7.59920,0.12210,5.49709,-0.5488,0.0000,-1.2805,0.00,0.00,0.00,0,S01
20620,-7.55849,0.11013,5.53061,-0.6098,-0.0610,-1.2195,0.00,0.00,0.00,0,S01
20640,-7.55610,0.10295,5.52582,-0.4268,0.1220,-1.2805,0.00,0.00,0.00,0,S01
20660,-7.58962,0.10774,5.52342,-0.1829,0.1220,-1.3415,0.00,0.00,0.00,0,S01
20680,-7.58244,0.09816,5.51385,-0.1220,-0.0610,-1.3415,0.00,0.00,0.00,0,S01
20700,-7.56328,0.10056,5.50906,-0.2439,-0.3659,-1.3415,0.00,0.00,0.00,0,S01
20720,-7.57765,0.08619,5.50427,-0.4268,-0.4268,-1.3415,0.00,0.00,0.00,0,S01
20740,-7.58244,0.08380,5.48990,-0.4268,-0.2439,-1.2805,0.00,0.00,0.00,0,S01
20760,-7.57525,0.08859,5.48033,-0.4878,-0.1220,-1.2195,0.00,0.00,0.00,0,S01
20780,-7.57525,0.08859,5.47793,-0.5488,0.0610,-1.2195,0.00,0.00,0.00,0,S01
20800,-7.57765,0.09098,5.49230,-0.4878,0.2439,-1.2805,0.00,0.00,0.00,0,S01
20820,-7.57286,0.09577,5.51385,-0.4268,0.3049,-1.2805,0.00,0.00,0.00,0,S01
20840,-7.57286,0.10534,5.52103,-0.4878,0.1829,-1.2805,0.00,0.00,0.00,0,S01
20860,-7.57286,0.10295,5.51385,-0.6707,0.1220,-1.2195,0.00,0.00,0.00,0,S01
20880,-7.56568,0.10774,5.52342,-0.7927,0.0610,-1.2195,0.00,0.00,0.00,0,S01
20900,-7.55849,0.10534,5.50188,-0.6707,0.0000,-1.2195,0.00,0.00,0.00,0,S01
20920,-7.55849,0.10295,5.49948,-0.5488,0.1220,-1.2195,0.00,0.00,0.00,0,S01
20940,-7.55610,0.09337,5.50666,-0.4878,0.2439,-1.2805,0.00,0.00,0.00,0,S01
20960,-7.56568,0.09337,5.52821,-0.5488,0.3049,-1.2805,0.00,0.00,0.00,0,S01
20980,-7.56807,0.09098,5.52103,-0.5488,0.1829,-1.2805,0.00,0.00,0.00,0,S01
21000,-7.56328,0.09337,5.48751,-0.4878,0.0000,-1.2805,0.00,0.00,0.00,0,S01
21020,-7.56328,0.09816,5.48512,-0.4268,-0.0610,-1.3415,0.00,0.00,0.00,0,S01
21040,-7.55849,0.10295,5.49709,-0.4878,0.0000,-1.3415,0.00,0.00,0.00,0,S01
21060,-7.56328,0.11253,5.50666,-0.5488,0.1220,-1.3415,0.00,0.00,0.00,0,S01
21080,-7.56568,0.10056,5.50427,-0.5488,0.1829,-1.2805,0.00,0.00,0.00,0,S01
21100,-7.56807,0.09098,5.51624,-0.4878,0.1220,-1.2805,0.00,0.00,0.00,0,S01
21120,-7.56089,0.09816,5.51863,-0.4878,0.0610,-1.2805,0.00,0.00,0.00,0,S01
21140,-7.56328,0.10295,5.52821,-0.5488,0.0000,-1.2805,0.00,0.00,0.00,0,S01
21160,-7.55610,0.09816,5.52582,-0.5488,-0.0610,-1.2195,0.00,0.00,0.00,0,S01
21180,-7.55131,0.09816,5.51863,-0.5488,0.0000,-1.2195,0.00,0.00,0.00,0,S01
21200,-7.55849,0.09816,5.52821,-0.5488,0.1220,-1.2195,0.00,0.00,0.00,0,S01
21220,-7.55849,0.10056,5.53300,-0.5488,0.1829,-1.2805,0.00,0.00,0.00,0,S01
21240,-7.55849,0.09816,5.54258,-0.5488,0.1829,-1.2805,0.00,0.00,0.00,0,S01
21260,-7.55849,0.09577,5.51145,-0.4268,0.0610,-1.2805,0.00,0.00,0.00,0,S01
21280,-7.55371,0.09577,5.51385,-0.3049,0.0000,-1.3415,0.00,0.00,0.00,0,S01
21300,-7.54652,0.09816,5.51145,-0.3659,0.0610,-1.3415,0.00,0.00,0.00,0,S01
21320,-7.55131,0.09098,5.50427,-0.4268,0.1829,-1.3415,0.00,0.00,0.00,0,S01
21340,-7.56328,0.08140,5.52103,-0.3659,0.1829,-1.3415,0.00,0.00,0.00,0,S01
21360,-7.56807,0.08619,5.51863,-0.3049,0.1829,-1.3415,0.00,0.00,0.00,0,S01
21380,-7.57047,0.09337,5.50666,-0.2439,0.1220,-1.4024,0.00,0.00,0.00,0,S01
21400,-7.55849,0.10774,5.51624,-0.3659,0.1220,-1.3415,0.00,0.00,0.00,0,S01
21420,-7.57525,0.11253,5.52103,-0.4878,0.0000,-1.3415,0.00,0.00,0.00,0,S01
21440,-7.57525,0.11013,5.52103,-0.6098,-0.1829,-1.2805,0.00,0.00,0.00,0,S01
21460,-7.55610,0.11013,5.54976,-0.4878,-0.1829,-1.2195,0.00,0.00,0.00,0,S01
21480,-7.55849,0.10534,5.53061,-0.3049,-0.3049,-1.2805,0.00,0.00,0.00,0,S01
21500,-7.54892,0.10774,5.52582,-0.2439,-0.3049,-1.2805,0.00,0.00,0.00,0,S01
21520,-7.52976,0.09098,5.53300,-0.3659,-0.3049,-1.2805,0.00,0.00,0.00,0,S01
21540,-7.53695,0.07901,5.54018,-0.4268,-0.3049,-1.2195,0.00,0.00,0.00,0,S01
21560,-7.54413,0.07901,5.54258,-0.4878,-0.3659,-1.2805,0.00,0.00,0.00,0,S01
21580,-7.55131,0.08380,5.52821,-0.4878,-0.3659,-1.2805,0.00,0.00,0.00,0,S01
21600,-7.54174,0.08619,5.50188,-0.5488,-0.3049,-1.2195,0.00,0.00,0.00,0,S01
21620,-7.54413,0.08140,5.49948,-0.5488,-0.1220,-1.2195,0.00,0.00,0.00,0,S01
21640,-7.54652,0.08859,5.50427,-0.5488,0.0610,-1.2195,0.00,0.00,0.00,0,S01
21660,-7.54652,0.09816,5.52103,-0.4878,0.1829,-1.2195,0.00,0.00,0.00,0,S01
21680,-7.53695,0.09816,5.53061,-0.5488,0.1829,-1.2805,0.00,0.00,0.00,0,S01
21700,-7.53934,0.10534,5.52821,-0.6098,0.1220,-1.2805,0.00,0.00,0.00,0,S01
21720,-7.54892,0.08859,5.52821,-0.6098,0.1220,-1.2805,0.00,0.00,0.00,0,S01
21740,-7.54174,0.09337,5.55215,-0.6098,0.1220,-1.2195,0.00,0.00,0.00,0,S01
21760,-7.54174,0.09337,5.54258,-0.5488,0.0610,-1.2805,0.00,0.00,0.00,0,S01
21780,-7.54174,0.09816,5.54497,-0.4268,0.0610,-1.3415,0.00,0.00,0.00,0,S01
21800,-7.54413,0.09816,5.54497,-0.4268,0.1220,-1.3415,0.00,0.00,0.00,0,S01
21820,-7.54652,0.08859,5.55455,-0.4878,0.2439,-1.3415,0.00,0.00,0.00,0,S01
21840,-7.54652,0.08619,5.56412,-0.4878,0.1829,-1.3415,0.00,0.00,0.00,0,S01
21860,-7.54652,0.07661,5.54497,-0.4268,0.1829,-1.3415,0.00,0.00,0.00,0,S01
21880,-7.54413,0.07661,5.54737,-0.4268,0.1220,-1.3415,0.00,0.00,0.00,0,S01
21900,-7.54413,0.08140,5.54976,-0.5488,0.2439,-1.3415,0.00,0.00,0.00,0,S01
21920,-7.54892,0.07183,5.54497,-0.4878,0.3049,-1.2805,0.00,0.00,0.00,0,S01
21940,-7.54892,0.07661,5.53061,-0.4268,0.3659,-1.2805,0.00,0.00,0.00,0,S01
21960,-7.54652,0.08380,5.54258,-0.4268,0.4268,-1.2805,0.00,0.00,0.00,0,S01
21980,-7.54413,0.08859,5.55215,-0.5488,0.3659,-1.2805,0.00,0.00,0.00,0,S01
22000,-7.54174,0.09098,5.54497,-0.6098,0.3659,-1.2195,0.00,0.00,0.00,0,S01
22020,-7.54413,0.09337,5.54497,-0.6098,0.4268,-1.2805,0.00,0.00,0.00,0,S01
22040,-7.54892,0.09816,5.54737,-0.5488,0.4268,-1.2805,0.00,0.00,0.00,0,S01
22060,-7.54652,0.09098,5.54018,-0.4878,0.3659,-1.2805,0.00,0.00,0.00,0,S01
22080,-7.53695,0.09098,5.53779,-0.4878,0.3659,-1.2195,0.00,0.00,0.00,0,S01
22100,-7.53695,0.09337,5.53300,-0.5488,0.4268,-1.2805,0.00,0.00,0.00,0,S01
22120,-7.54413,0.10056,5.53779,-0.5488,0.4878,-1.2805,0.00,0.00,0.00,0,S01
22140,-7.54413,0.09337,5.55694,-0.4878,0.5488,-1.2805,0.00,0.00,0.00,0,S01
22160,-7.55371,0.08859,5.54018,-0.3659,0.5488,-1.2805,0.00,0.00,0.00,0,S01
22180,-7.54174,0.08619,5.55215,-0.3659,0.5488,-1.2805,0.00,0.00,0.00,0,S01
22200,-7.53455,0.08380,5.55934,-0.4268,0.5488,-1.2805,0.00,0.00,0.00,0,S01
22220,-7.56568,0.09577,5.56173,-0.4268,0.4268,-1.3415,0.00,0.00,0.00,0,S01
22240,-7.55371,0.09816,5.55934,-0.2439,0.3659,-1.3415,0.00,0.00,0.00,0,S01
22260,-7.52498,0.09577,5.56652,0.0000,0.4878,-1.3415,0.00,0.00,0.00,0,S01
22280,-7.53934,0.11013,5.54018,0.2439,0.4878,-1.4024,0.00,0.00,0.00,0,S01
22300,-7.54652,0.11013,5.53779,0.2439,0.5488,-1.4024,0.00,0.00,0.00,0,S01
22320,-7.55371,0.08859,5.54258,0.0000,0.4268,-1.3415,0.00,0.00,0.00,0,S01
22340,-7.54174,0.09098,5.54018,-0.1829,0.3659,-1.2805,0.00,0.00,0.00,0,S01
22360,-7.55131,0.08859,5.52103,-0.1829,0.4268,-1.2805,0.00,0.00,0.00,0,S01
22380,-7.55849,0.08380,5.49948,-0.0610,0.5488,-1.3415,0.00,0.00,0.00,0,S01
22400,-7.56568,0.08619,5.50666,-0.2439,0.7317,-1.2805,0.00,0.00,0.00,0,S01
22420,-7.56568,0.09098,5.50427,-0.4268,0.8537,-1.2195,0.00,0.00,0.00,0,S01
22440,-7.55610,0.08619,5.49948,-0.4268,0.9756,-1.1585,0.00,0.00,0.00,0,S01
22460,-7.55610,0.08380,5.51624,-0.3049,1.0976,-1.1585,0.00,0.00,0.00,0,S01
22480,-7.56807,0.09337,5.51863,-0.1829,1.0366,-1.2195,0.00,0.00,0.00,0,S01
22500,-7.55849,0.08859,5.53779,-0.2439,0.9146,-1.2195,0.00,0.00,0.00,0,S01
22520,-7.55371,0.10056,5.52821,-0.3049,0.7927,-1.2195,0.00,0.00,0.00,0,S01
22540,-7.55849,0.10774,5.53539,-0.3659,0.7317,-1.2195,0.00,0.00,0.00,0,S01
22560,-7.55371,0.11253,5.51385,-0.1829,0.8537,-1.2805,0.00,0.00,0.00,0,S01
22580,-7.55849,0.10534,5.49469,-0.0610,0.9756,-1.3415,0.00,0.00,0.00,0,S01
22600,-7.56807,0.10056,5.51145,-0.0610,1.0366,-1.3415,0.00,0.00,0.00,0,S01
22620,-7.57286,0.10295,5.52342,-0.0610,0.9146,-1.4024,0.00,0.00,0.00,0,S01
22640,-7.55849,0.10295,5.51624,-0.0610,0.7927,-1.4024,0.00,0.00,0.00,0,S01
22660,-7.56568,0.10056,5.50188,0.0000,0.8537,-1.4634,0.00,0.00,0.00,0,S01
22680,-7.57286,0.10774,5.49948,0.0610,0.9756,-1.4634,0.00,0.00,0.00,0,S01
22700,-7.57286,0.09577,5.49709,0.0000,1.0976,-1.4634,0.00,0.00,0.00,0,S01
22720,-7.57765,0.09577,5.49709,-0.0610,1.0976,-1.4634,0.00,0.00,0.00,0,S01
22740,-7.58004,0.09577,5.48033,0.0000,1.0366,-1.4634,0.00,0.00,0.00,0,S01
22760,-7.56089,0.09577,5.48512,0.0000,1.0366,-1.4634,0.00,0.00,0.00,0,S01
22780,-7.55610,0.09337,5.48990,-0.0610,1.1585,-1.4024,0.00,0.00,0.00,0,S01
22800,-7.58004,0.09577,5.51145,-0.1220,1.2805,-1.3415,0.00,0.00,0.00,0,S01
22820,-7.59201,0.09816,5.50666,-0.1829,1.2195,-1.3415,0.00,0.00,0.00,0,S01
22840,-7.58962,0.11253,5.49709,-0.1829,1.0976,-1.3415,0.00,0.00,0.00,0,S01
22860,-7.59201,0.10774,5.49948,-0.1829,1.0366,-1.3415,0.00,0.00,0.00,0,S01
22880,-7.59201,0.10774,5.48512,-0.0610,1.0976,-1.3415,0.00,0.00,0.00,0,S01
22900,-7.58722,0.09577,5.47075,-0.0610,1.0976,-1.3415,0.00,0.00,0.00,0,S01
22920,-7.58962,0.10056,5.47315,-0.0610,1.1585,-1.2805,0.00,0.00,0.00,0,S01
22940,-7.58722,0.10774,5.48272,-0.1829,1.1585,-1.3415,0.00,0.00,0.00,0,S01
22960,-7.58004,0.11013,5.48033,-0.1220,1.2195,-1.3415,0.00,0.00,0.00,0,S01
22980,-7.60398,0.11013,5.48990,0.0000,1.3415,-1.4024,0.00,0.00,0.00,0,S01
23000,-7.62074,0.11492,5.48272,0.0610,1.0366,-1.4024,0.00,0.00,0.00,0,S01
23020,-7.59920,0.12689,5.45160,-0.0610,0.6707,-1.3415,0.00,0.00,0.00,0,S01
23040,-7.57286,0.11971,5.46596,-0.1829,0.7317,-1.2805,0.00,0.00,0.00,0,S01
23060,-7.61356,0.11492,5.46596,0.2439,0.8537,-1.4024,0.00,0.00,0.00,0,S01
23080,-7.60877,0.10534,5.44920,0.3049,0.4878,-1.4024,0.00,0.00,0.00,0,S01
23100,-7.59680,0.10534,5.43244,-0.0610,0.1220,-1.3415,0.00,0.00,0.00,0,S01
23120,-7.60159,0.11013,5.44202,-0.3659,0.0000,-1.2805,0.00,0.00,0.00,0,S01
23140,-7.60877,0.11253,5.43963,-0.4268,0.0000,-1.2805,0.00,0.00,0.00,0,S01
23160,-7.61596,0.10774,5.43723,-0.3659,0.0610,-1.2805,0.00,0.00,0.00,0,S01
23180,-7.61596,0.11253,5.43244,-0.4268,0.1829,-1.2195,0.00,0.00,0.00,0,S01
23200,-7.60159,0.11971,5.44441,-0.5488,0.2439,-1.2195,0.00,0.00,0.00,0,S01
23220,-7.58483,0.11253,5.45399,-0.6707,0.2439,-1.2195,0.00,0.00,0.00,0,S01
23240,-7.60159,0.10056,5.45878,-0.6098,0.1829,-1.2805,0.00,0.00,0.00,0,S01
23260,-7.58962,0.10295,5.46117,-0.6098,0.1220,-1.2195,0.00,0.00,0.00,0,S01
23280,-7.58244,0.11971,5.47554,-0.6707,0.1220,-1.2195,0.00,0.00,0.00,0,S01
23300,-7.59680,0.12450,5.47315,-0.7317,0.0610,-1.2195,0.00,0.00,0.00,0,S01
23320,-7.59920,0.11253,5.45160,-0.5488,0.0610,-1.2195,0.00,0.00,0.00,0,S01
23340,-7.60398,0.11732,5.44920,-0.3659,0.1220,-1.2805,0.00,0.00,0.00,0,S01
23360,-7.59201,0.11492,5.46836,-0.4268,0.1220,-1.2805,0.00,0.00,0.00,0,S01
23380,-7.59201,0.12929,5.48033,-0.5488,0.1220,-1.3415,0.00,0.00,0.00,0,S01
23400,-7.59920,0.12450,5.48033,-0.6098,0.0610,-1.2805,0.00,0.00,0.00,0,S01
23420,-7.60159,0.11013,5.46357,-0.5488,-0.0610,-1.2195,0.00,0.00,0.00,0,S01
23440,-7.60159,0.09816,5.46117,-0.5488,0.0000,-1.2195,0.00,0.00,0.00,0,S01
23460,-7.59920,0.08859,5.46836,-0.6707,0.1220,-1.1585,0.00,0.00,0.00,0,S01
23480,-7.59680,0.09098,5.46836,-0.7317,0.1829,-1.2195,0.00,0.00,0.00,0,S01
23500,-7.59201,0.09816,5.46596,-0.6707,0.3049,-1.2195,0.00,0.00,0.00,0,S01
23520,-7.59680,0.09098,5.47554,-0.6098,0.3049,-1.2805,0.00,0.00,0.00,0,S01
23540,-7.60159,0.09577,5.48751,-0.6098,0.1829,-1.2805,0.00,0.00,0.00,0,S01
23560,-7.59920,0.09337,5.47793,-0.6098,0.0610,-1.2805,0.00,0.00,0.00,0,S01
23580,-7.59680,0.10295,5.46836,-0.5488,0.0610,-1.3415,0.00,0.00,0.00,0,S01
23600,-7.58244,0.11013,5.47075,-0.4878,0.1220,-1.4024,0.00,0.00,0.00,0,S01
23620,-7.59201,0.11732,5.47315,-0.4268,0.2439,-1.4024,0.00,0.00,0.00,0,S01
23640,-7.60159,0.12210,5.46596,-0.4878,0.3049,-1.3415,0.00,0.00,0.00,0,S01
23660,-7.58483,0.11732,5.46117,-0.5488,0.2439,-1.2805,0.00,0.00,0.00,0,S01
23680,-7.58483,0.11732,5.46836,-0.6098,0.2439,-1.2805,0.00,0.00,0.00,0,S01
23700,-7.61835,0.11253,5.47554,-0.6098,0.1220,-1.3415,0.00,0.00,0.00,0,S01
23720,-7.60877,0.11732,5.47075,-0.5488,-0.1220,-1.2805,0.00,0.00,0.00,0,S01
23740,-7.56807,0.10774,5.47793,-0.6098,-0.1220,-1.2195,0.00,0.00,0.00,0,S01
23760,-7.57047,0.10056,5.49709,-0.5488,0.1829,-1.2195,0.00,0.00,0.00,0,S01
23780,-7.59441,0.09577,5.49709,-0.3659,0.1829,-1.2805,0.00,0.00,0.00,0,S01
23800,-7.58483,0.08380,5.48272,-0.3049,-0.0610,-1.2805,0.00,0.00,0.00,0,S01
23820,-7.57765,0.08859,5.47554,-0.4268,-0.3049,-1.2805,0.00,0.00,0.00,0,S01
23840,-7.57525,0.08380,5.48512,-0.6098,-0.4268,-1.2805,0.00,0.00,0.00,0,S01
23860,-7.58722,0.07901,5.48990,-0.5488,-0.3049,-1.2805,0.00,0.00,0.00,0,S01
23880,-7.59201,0.09098,5.46836,-0.4268,-0.1829,-1.2805,0.00,0.00,0.00,0,S01
23900,-7.59201,0.09577,5.46117,-0.4878,-0.1220,-1.2805,0.00,0.00,0.00,0,S01
23920,-7.59201,0.10534,5.45878,-0.7317,0.0000,-1.2195,0.00,0.00,0.00,0,S01
23940,-7.58722,0.09337,5.48033,-0.7927,0.1220,-1.2195,0.00,0.00,0.00,0,S01
23960,-7.57047,0.09337,5.48990,-0.6098,0.1829,-1.2195,0.00,0.00,0.00,0,S01
23980,-7.58004,0.10056,5.49230,-0.5488,0.1829,-1.2805,0.00,0.00,0.00,0,S01
24000,-7.58244,0.10774,5.50427,-0.6707,0.1829,-1.2195,0.00,0.00,0.00,0,S01
24020,-7.57765,0.12450,5.49469,-0.7927,0.0000,-1.2195,0.00,0.00,0.00,0,S01
24040,-7.55849,0.11971,5.49709,-0.7317,-0.0610,-1.2805,0.00,0.00,0.00,0,S01
24060,-7.56089,0.10295,5.48033,-0.5488,0.1220,-1.2805,0.00,0.00,0.00,0,S01
24080,-7.57525,0.09337,5.50188,-0.4268,0.2439,-1.2805,0.00,0.00,0.00,0,S01
24100,-7.58244,0.09577,5.50666,-0.4878,0.1829,-1.2805,0.00,0.00,0.00,0,S01
24120,-7.58004,0.10056,5.49469,-0.5488,0.0000,-1.2805,0.00,0.00,0.00,0,S01
24140,-7.58244,0.09816,5.49469,-0.5488,-0.0610,-1.2805,0.00,0.00,0.00,0,S01
24160,-7.58244,0.08859,5.48272,-0.5488,0.0610,-1.2805,0.00,0.00,0.00,0,S01
24180,-7.58004,0.09098,5.47554,-0.6098,0.1220,-1.2195,0.00,0.00,0.00,0,S01
24200,-7.58244,0.09577,5.47075,-0.6707,0.0610,-1.2195,0.00,0.00,0.00,0,S01
24220,-7.57525,0.09816,5.49469,-0.5488,0.1220,-1.2805,0.00,0.00,0.00,0,S01
24240,-7.56568,0.09098,5.51145,-0.5488,0.1220,-1.2805,0.00,0.00,0.00,0,S01
24260,-7.57525,0.10056,5.53061,-0.5488,0.1220,-1.2805,0.00,0.00,0.00,0,S01
24280,-7.57525,0.09816,5.51863,-0.6098,0.0000,-1.2805,0.00,0.00,0.00,0,S01
24300,-7.56568,0.09816,5.49948,-0.6098,0.0000,-1.2805,0.00,0.00,0.00,0,S01
24320,-7.56328,0.09577,5.50427,-0.6098,0.0610,-1.2805,0.00,0.00,0.00,0,S01
24340,-7.57047,0.09577,5.50666,-0.5488,0.1220,-1.2805,0.00,0.00,0.00,0,S01
24360,-7.58722,0.08859,5.50906,-0.5488,0.1829,-1.2195,0.00,0.00,0.00,0,S01
24380,-7.58004,0.09098,5.50188,-0.6098,0.1829,-1.2195,0.00,0.00,0.00,0,S01
24400,-7.56568,0.09816,5.49230,-0.6098,0.1829,-1.2195,0.00,0.00,0.00,0,S01
24420,-7.58244,0.09577,5.49948,-0.6098,0.1220,-1.2805,0.00,0.00,0.00,0,S01
24440,-7.58722,0.09816,5.49948,-0.6707,-0.1220,-1.2195,0.00,0.00,0.00,0,S01
24460,-7.55849,0.10295,5.52821,-0.6707,-0.1220,-1.2195,0.00,0.00,0.00,0,S01
24480,-7.56328,0.09098,5.54018,-0.4878,-0.0610,-1.2805,0.00,0.00,0.00,0,S01
24500,-7.57525,0.09577,5.51385,-0.1829,-0.1220,-1.3415,0.00,0.00,0.00,0,S01
24520,-7.55849,0.08859,5.50427,-0.2439,-0.2439,-1.3415,0.00,0.00,0.00,0,S01
24540,-7.55610,0.08380,5.51863,-0.4268,-0.3049,-1.2805,0.00,0.00,0.00,0,S01
24560,-7.55849,0.07901,5.52103,-0.5488,-0.3659,-1.2805,0.00,0.00,0.00,0,S01
24580,-7.56807,0.08619,5.51145,-0.4878,-0.4268,-1.2805,0.00,0.00,0.00,0,S01
24600,-7.57047,0.08619,5.48033,-0.4878,-0.3049,-1.2805,0.00,0.00,0.00,0,S01
24620,-7.56568,0.10295,5.47793,-0.5488,-0.1220,-1.2195,0.00,0.00,0.00,0,S01
24640,-7.56568,0.10774,5.48751,-0.6707,0.1220,-1.2195,0.00,0.00,0.00,0,S01
24660,-7.55371,0.10056,5.48512,-0.6098,0.1829,-1.2195,0.00,0.00,0.00,0,S01
24680,-7.55371,0.08859,5.50427,-0.4878,0.1220,-1.2195,0.00,0.00,0.00,0,S01
24700,-7.56568,0.09577,5.51145,-0.4878,0.0610,-1.2805,0.00,0.00,0.00,0,S01
24720,-7.56568,0.09577,5.52342,-0.6098,0.0610,-1.2195,0.00,0.00,0.00,0,S01
24740,-7.55849,0.10056,5.52342,-0.7927,-0.0610,-1.2195,0.00,0.00,0.00,0,S01
24760,-7.55610,0.10295,5.52821,-0.7927,-0.0610,-1.2195,0.00,0.00,0.00,0,S01
24780,-7.55849,0.08859,5.52342,-0.6098,0.0610,-1.2195,0.00,0.00,0.00,0,S01
24800,-7.55849,0.08859,5.53300,-0.4268,0.1220,-1.2805,0.00,0.00,0.00,0,S01
24820,-7.55849,0.08619,5.53061,-0.3659,0.1220,-1.3415,0.00,0.00,0.00,0,S01
24840,-7.55371,0.08619,5.52582,-0.4268,0.0610,-1.3415,0.00,0.00,0.00,0,S01
24860,-7.54892,0.07661,5.51863,-0.4878,0.0000,-1.2805,0.00,0.00,0.00,0,S01
24880,-7.55610,0.08380,5.51145,-0.5488,0.0610,-1.3415,0.00,0.00,0.00,0,S01
24900,-7.55849,0.09337,5.51624,-0.5488,0.1220,-1.3415,0.00,0.00,0.00,0,S01
24920,-7.55371,0.09816,5.52342,-0.4878,0.1829,-1.3415,0.00,0.00,0.00,0,S01
24940,-7.55610,0.10056,5.51624,-0.4268,0.1829,-1.3415,0.00,0.00,0.00,0,S01
24960,-7.55371,0.09816,5.51624,-0.4268,0.1829,-1.3415,0.00,0.00,0.00,0,S01
24980,-7.55131,0.09577,5.52342,-0.4878,0.1829,-1.3415,0.00,0.00,0.00,0,S01
25000,-7.55610,0.09098,5.52103,-0.4878,0.2439,-1.2805,0.00,0.00,0.00,0,S01
25020,-7.55610,0.09337,5.52582,-0.4878,0.2439,-1.2805,0.00,0.00,0.00,0,S01
25040,-7.56328,0.09577,5.52103,-0.5488,0.1829,-1.2805,0.00,0.00,0.00,0,S01
25060,-7.56568,0.10774,5.51863,-0.4878,0.1220,-1.2805,0.00,0.00,0.00,0,S01
25080,-7.55371,0.09577,5.52342,-0.5488,0.1829,-1.2195,0.00,0.00,0.00,0,S01
25100,-7.55610,0.08619,5.52582,-0.4878,0.3659,-1.2805,0.00,0.00,0.00,0,S01
25120,-7.55371,0.08380,5.53300,-0.4268,0.4268,-1.2805,0.00,0.00,0.00,0,S01
25140,-7.56089,0.08140,5.53300,-0.3659,0.3049,-1.2805,0.00,0.00,0.00,0,S01
25160,-7.55371,0.09098,5.52342,-0.4268,0.1829,-1.2805,0.00,0.00,0.00,0,S01
25180,-7.54174,0.10056,5.53300,-0.4878,0.1220,-1.2805,0.00,0.00,0.00,0,S01
25200,-7.57286,0.10056,5.52103,-0.5488,0.0610,-1.3415,0.00,0.00,0.00,0,S01
25220,-7.56807,0.10534,5.52821,-0.4878,0.0000,-1.3415,0.00,0.00,0.00,0,S01
25240,-7.55131,0.09337,5.54737,-0.3049,0.0610,-1.3415,0.00,0.00,0.00,0,S01
25260,-7.54892,0.09816,5.54737,-0.0610,0.0000,-1.4024,0.00,0.00,0.00,0,S01
25280,-7.55131,0.09577,5.53779,0.0000,-0.0610,-1.4024,0.00,0.00,0.00,0,S01
25300,-7.53455,0.08380,5.53539,-0.1829,-0.1220,-1.3415,0.00,0.00,0.00,0,S01
25320,-7.53216,0.07661,5.55455,-0.3659,-0.1220,-1.2805,0.00,0.00,0.00,0,S01
25340,-7.53695,0.07422,5.54497,-0.4268,-0.0610,-1.2805,0.00,0.00,0.00,0,S01
25360,-7.54174,0.08140,5.52342,-0.4878,0.0000,-1.2195,0.00,0.00,0.00,0,S01
25380,-7.55131,0.09098,5.51624,-0.5488,0.2439,-1.2195,0.00,0.00,0.00,0,S01
25400,-7.54174,0.09337,5.52103,-0.5488,0.3659,-1.2195,0.00,0.00,0.00,0,S01
25420,-7.54174,0.09098,5.53061,-0.4878,0.5488,-1.2195,0.00,0.00,0.00,0,S01
25440,-7.54892,0.09337,5.53300,-0.4878,0.5488,-1.2195,0.00,0.00,0.00,0,S01
25460,-7.55371,0.08859,5.53779,-0.5488,0.4268,-1.2195,0.00,0.00,0.00,0,S01
25480,-7.54174,0.09337,5.53300,-0.6098,0.3049,-1.2195,0.00,0.00,0.00,0,S01
25500,-7.54413,0.10295,5.53061,-0.6098,0.3049,-1.2195,0.00,0.00,0.00,0,S01
25520,-7.54652,0.09816,5.52821,-0.4878,0.4268,-1.2195,0.00,0.00,0.00,0,S01
25540,-7.54174,0.09098,5.53061,-0.3049,0.4268,-1.2805,0.00,0.00,0.00,0,S01
25560,-7.54413,0.08859,5.53539,-0.3049,0.4268,-1.2805,0.00,0.00,0.00,0,S01
25580,-7.54652,0.08859,5.52821,-0.3659,0.3659,-1.3415,0.00,0.00,0.00,0,S01
25600,-7.54174,0.09337,5.52821,-0.3659,0.3659,-1.3415,0.00,0.00,0.00,0,S01
25620,-7.54413,0.08619,5.53300,-0.3659,0.3659,-1.3415,0.00,0.00,0.00,0,S01
25640,-7.54413,0.09098,5.54497,-0.3049,0.5488,-1.3415,0.00,0.00,0.00,0,S01
25660,-7.55371,0.08859,5.53779,-0.3659,0.6098,-1.3415,0.00,0.00,0.00,0,S01
25680,-7.55371,0.08140,5.54497,-0.3659,0.6707,-1.3415,0.00,0.00,0.00,0,S01
25700,-7.55849,0.07901,5.53779,-0.3049,0.7317,-1.3415,0.00,0.00,0.00,0,S01
25720,-7.56089,0.08380,5.52582,-0.2439,0.7927,-1.3415,0.00,0.00,0.00,0,S01
25740,-7.55610,0.08140,5.53061,-0.2439,0.8537,-1.2805,0.00,0.00,0.00,0,S01
25760,-7.55610,0.08859,5.53779,-0.3049,0.9146,-1.2805,0.00,0.00,0.00,0,S01
25780,-7.56807,0.09577,5.52582,-0.2439,0.9146,-1.2805,0.00,0.00,0.00,0,S01
25800,-7.56807,0.10295,5.52103,-0.2439,0.7927,-1.2805,0.00,0.00,0.00,0,S01
25820,-7.55131,0.10056,5.51385,-0.2439,0.7317,-1.2805,0.00,0.00,0.00,0,S01
25840,-7.55131,0.08859,5.50666,-0.2439,0.7927,-1.2805,0.00,0.00,0.00,0,S01
25860,-7.55849,0.08140,5.51145,-0.2439,0.8537,-1.2805,0.00,0.00,0.00,0,S01
25880,-7.56089,0.08140,5.51863,-0.1829,0.9146,-1.2805,0.00,0.00,0.00,0,S01
25900,-7.56807,0.09337,5.51385,-0.1829,0.8537,-1.3415,0.00,0.00,0.00,0,S01
25920,-7.56328,0.09098,5.50666,-0.1829,0.8537,-1.3415,0.00,0.00,0.00,0,S01
25940,-7.56089,0.09098,5.51385,-0.1220,0.9146,-1.3415,0.00,0.00,0.00,0,S01
25960,-7.58962,0.09577,5.50188,-0.1220,0.7927,-1.4024,0.00,0.00,0.00,0,S01
25980,-7.57765,0.10056,5.51385,-0.0610,0.7317,-1.3415,0.00,0.00,0.00,0,S01
26000,-7.55131,0.09816,5.54258,0.1220,0.8537,-1.3415,0.00,0.00,0.00,0,S01
26020,-7.56328,0.10295,5.54018,0.3049,0.8537,-1.4024,0.00,0.00,0.00,0,S01
26040,-7.56807,0.09816,5.52103,0.3659,0.7317,-1.4024,0.00,0.00,0.00,0,S01
26060,-7.56328,0.09577,5.51145,0.2439,0.6098,-1.4024,0.00,0.00,0.00,0,S01
26080,-7.56568,0.09816,5.51624,0.1220,0.5488,-1.4024,0.00,0.00,0.00,0,S01
26100,-7.57525,0.09577,5.50906,0.0000,0.4878,-1.3415,0.00,0.00,0.00,0,S01
26120,-7.57286,0.09816,5.47793,0.0000,0.4878,-1.3415,0.00,0.00,0.00,0,S01
26140,-7.58244,0.10295,5.47075,-0.0610,0.7317,-1.3415,0.00,0.00,0.00,0,S01
26160,-7.58244,0.10295,5.46596,-0.0610,1.0366,-1.3415,0.00,0.00,0.00,0,S01
26180,-7.58004,0.10056,5.48512,0.0000,1.2195,-1.3415,0.00,0.00,0.00,0,S01
26200,-7.57525,0.10056,5.48512,0.0000,1.2805,-1.3415,0.00,0.00,0.00,0,S01
26220,-7.58244,0.10056,5.48512,-0.0610,1.2195,-1.3415,0.00,0.00,0.00,0,S01
26240,-7.58244,0.09816,5.48512,-0.1829,1.0976,-1.2805,0.00,0.00,0.00,0,S01
26260,-7.57765,0.10534,5.48512,-0.3049,1.0976,-1.2805,0.00,0.00,0.00,0,S01
26280,-7.57765,0.11492,5.48751,-0.3049,1.0976,-1.2805,0.00,0.00,0.00,0,S01
26300,-7.58722,0.11492,5.47793,-0.1220,1.2195,-1.3415,0.00,0.00,0.00,0,S01
26320,-7.58004,0.11253,5.47554,0.0000,1.2195,-1.3415,0.00,0.00,0.00,0,S01
26340,-7.58722,0.10774,5.48990,0.0610,1.1585,-1.4024,0.00,0.00,0.00,0,S01
26360,-7.58722,0.11013,5.48990,0.0610,1.0366,-1.4634,0.00,0.00,0.00,0,S01
26380,-7.59441,0.11013,5.47554,0.0610,0.9146,-1.4634,0.00,0.00,0.00,0,S01
26400,-7.60159,0.10534,5.46117,0.1220,0.7927,-1.4634,0.00,0.00,0.00,0,S01
26420,-7.59920,0.10295,5.45160,0.1220,0.8537,-1.4634,0.00,0.00,0.00,0,S01
26440,-7.61117,0.09816,5.45639,0.0610,0.9146,-1.4634,0.00,0.00,0.00,0,S01
26460,-7.60398,0.10056,5.45160,0.0000,0.9756,-1.4634,0.00,0.00,0.00,0,S01
26480,-7.60159,0.10774,5.45878,-0.0610,0.9146,-1.4634,0.00,0.00,0.00,0,S01
26500,-7.60877,0.10774,5.46836,-0.1829,0.7927,-1.4024,0.00,0.00,0.00,0,S01
26520,-7.60877,0.10295,5.45878,-0.3049,0.6098,-1.3415,0.00,0.00,0.00,0,S01
26540,-7.60877,0.10295,5.44681,-0.3659,0.4878,-1.3415,0.00,0.00,0.00,0,S01
26560,-7.60638,0.11013,5.43723,-0.4878,0.2439,-1.2805,0.00,0.00,0.00,0,S01
26580,-7.60638,0.11732,5.44441,-0.6098,0.3049,-1.2805,0.00,0.00,0.00,0,S01
26600,-7.60638,0.11253,5.45160,-0.6098,0.2439,-1.2195,0.00,0.00,0.00,0,S01
26620,-7.60638,0.11013,5.45878,-0.5488,0.2439,-1.2195,0.00,0.00,0.00,0,S01
26640,-7.57525,0.11253,5.46117,-0.4878,0.2439,-1.2195,0.00,0.00,0.00,0,S01
26660,-7.60877,0.11013,5.47554,-0.5488,0.3049,-1.2195,0.00,0.00,0.00,0,S01
26680,-7.62074,0.11013,5.48033,-0.6098,0.1220,-1.2195,0.00,0.00,0.00,0,S01
26700,-7.59680,0.11253,5.47554,-0.6707,-0.1829,-1.1585,0.00,0.00,0.00,0,S01
26720,-7.56089,0.10534,5.48033,-0.5488,0.0610,-1.1585,0.00,0.00,0.00,0,S01
26740,-7.59680,0.10774,5.49469,-0.3049,0.3659,-1.2195,0.00,0.00,0.00,0,S01
26760,-7.61835,0.11253,5.46596,-0.1829,0.2439,-1.2805,0.00,0.00,0.00,0,S01
26780,-7.60398,0.10295,5.44920,-0.2439,-0.1829,-1.2805,0.00,0.00,0.00,0,S01
26800,-7.59201,0.10774,5.46117,-0.4878,-0.3659,-1.2805,0.00,0.00,0.00,0,S01
26820,-7.59201,0.10295,5.46596,-0.5488,-0.3659,-1.2805,0.00,0.00,0.00,0,S01
26840,-7.60398,0.10774,5.44441,-0.4268,-0.3049,-1.2805,0.00,0.00,0.00,0,S01
26860,-7.60877,0.10774,5.43244,-0.3659,-0.1829,-1.2805,0.00,0.00,0.00,0,S01
26880,-7.59920,0.10774,5.43244,-0.4878,-0.0610,-1.2805,0.00,0.00,0.00,0,S01
26900,-7.60159,0.11253,5.44441,-0.6098,0.0610,-1.2805,0.00,0.00,0.00,0,S01
26920,-7.58962,0.12450,5.46596,-0.6707,0.1829,-1.2805,0.00,0.00,0.00,0,S01
26940,-7.59680,0.11253,5.47554,-0.6098,0.0610,-1.2805,0.00,0.00,0.00,0,S01
26960,-7.58962,0.10534,5.48272,-0.6098,0.0610,-1.2195,0.00,0.00,0.00,0,S01
26980,-7.59201,0.10295,5.49469,-0.6707,0.0610,-1.1585,0.00,0.00,0.00,0,S01
27000,-7.58722,0.10774,5.47793,-0.7317,-0.0610,-1.1585,0.00,0.00,0.00,0,S01
27020,-7.58244,0.10774,5.46836,-0.6098,-0.0610,-1.2195,0.00,0.00,0.00,0,S01
27040,-7.57525,0.09577,5.47793,-0.5488,0.0610,-1.2195,0.00,0.00,0.00,0,S01
27060,-7.58483,0.09098,5.49469,-0.5488,0.2439,-1.2805,0.00,0.00,0.00,0,S01
27080,-7.58483,0.09098,5.49709,-0.4268,0.1829,-1.2805,0.00,0.00,0.00,0,S01
27100,-7.58962,0.09816,5.48512,-0.4268,0.0000,-1.3415,0.00,0.00,0.00,0,S01
27120,-7.58004,0.11013,5.46836,-0.4268,0.0000,-1.3415,0.00,0.00,0.00,0,S01
27140,-7.58244,0.11732,5.46836,-0.4268,0.1220,-1.3415,0.00,0.00,0.00,0,S01
27160,-7.59441,0.10774,5.46836,-0.4878,0.2439,-1.3415,0.00,0.00,0.00,0,S01
27180,-7.59201,0.10534,5.45878,-0.4268,0.2439,-1.3415,0.00,0.00,0.00,0,S01
27200,-7.58483,0.10056,5.48033,-0.4268,0.2439,-1.3415,0.00,0.00,0.00,0,S01
27220,-7.58483,0.10534,5.48990,-0.5488,0.2439,-1.2805,0.00,0.00,0.00,0,S01
27240,-7.60159,0.11732,5.50666,-0.6098,0.1829,-1.3415,0.00,0.00,0.00,0,S01
27260,-7.60159,0.11013,5.49709,-0.6707,0.1220,-1.2805,0.00,0.00,0.00,0,S01
27280,-7.60398,0.10534,5.48990,-0.6098,0.0610,-1.2805,0.00,0.00,0.00,0,S01
27300,-7.59201,0.10056,5.47793,-0.5488,0.0000,-1.2805,0.00,0.00,0.00,0,S01
27320,-7.58004,0.10056,5.48272,-0.5488,0.1220,-1.2805,0.00,0.00,0.00,0,S01
27340,-7.58004,0.09577,5.48990,-0.6098,0.2439,-1.2805,0.00,0.00,0.00,0,S01
27360,-7.58962,0.09577,5.50906,-0.6707,0.3659,-1.2805,0.00,0.00,0.00,0,S01
27380,-7.58244,0.09816,5.49230,-0.6098,0.3659,-1.2195,0.00,0.00,0.00,0,S01
27400,-7.59201,0.09816,5.50666,-0.5488,0.3049,-1.2805,0.00,0.00,0.00,0,S01
27420,-7.61117,0.09816,5.50666,-0.5488,0.1220,-1.2805,0.00,0.00,0.00,0,S01
27440,-7.60159,0.10534,5.48751,-0.6098,-0.1829,-1.2805,0.00,0.00,0.00,0,S01
27460,-7.56807,0.09577,5.50188,-0.5488,-0.0610,-1.2805,0.00,0.00,0.00,0,S01
27480,-7.58004,0.09816,5.51624,-0.3049,0.3049,-1.3415,0.00,0.00,0.00,0,S01
27500,-7.59680,0.11253,5.50188,-0.1220,0.2439,-1.4024,0.00,0.00,0.00,0,S01
27520,-7.58244,0.10295,5.49230,-0.1829,0.0000,-1.3415,0.00,0.00,0.00,0,S01
27540,-7.57286,0.10534,5.49230,-0.4268,-0.2439,-1.2805,0.00,0.00,0.00,0,S01
27560,-7.57047,0.09337,5.49230,-0.5488,-0.3049,-1.2805,0.00,0.00,0.00,0,S01
27580,-7.58004,0.09816,5.48033,-0.4268,-0.3049,-1.2805,0.00,0.00,0.00,0,S01
27600,-7.58483,0.09816,5.46357,-0.3659,-0.2439,-1.2805,0.00,0.00,0.00,0,S01
27620,-7.59441,0.10056,5.46117,-0.4268,-0.1220,-1.2195,0.00,0.00,0.00,0,S01
27640,-7.58483,0.10056,5.46596,-0.4878,0.0610,-1.2805,0.00,0.00,0.00,0,S01
27660,-7.58004,0.09577,5.48512,-0.4878,0.1829,-1.2805,0.00,0.00,0.00,0,S01
27680,-7.58483,0.10295,5.49230,-0.4878,0.2439,-1.2805,0.00,0.00,0.00,0,S01
27700,-7.58962,0.10774,5.50666,-0.6098,0.1220,-1.2195,0.00,0.00,0.00,0,S01
27720,-7.57047,0.10774,5.50906,-0.7317,0.0610,-1.1585,0.00,0.00,0.00,0,S01
27740,-7.56807,0.11013,5.49709,-0.5488,0.0610,-1.2195,0.00,0.00,0.00,0,S01
27760,-7.56568,0.10295,5.49709,-0.4268,0.1220,-1.2195,0.00,0.00,0.00,0,S01
27780,-7.57047,0.09816,5.49948,-0.4878,0.1220,-1.2805,0.00,0.00,0.00,0,S01
27800,-7.56328,0.09816,5.50906,-0.5488,0.1220,-1.2805,0.00,0.00,0.00,0,S01
27820,-7.56089,0.10295,5.50188,-0.4268,0.0610,-1.3415,0.00,0.00,0.00,0,S01
27840,-7.56089,0.11013,5.48990,-0.3659,0.0610,-1.3415,0.00,0.00,0.00,0,S01
27860,-7.57525,0.11732,5.49230,-0.4878,0.1220,-1.3415,0.00,0.00,0.00,0,S01
27880,-7.57286,0.10774,5.48512,-0.5488,0.1220,-1.3415,0.00,0.00,0.00,0,S01
27900,-7.57525,0.10534,5.49709,-0.4878,0.1220,-1.3415,0.00,0.00,0.00,0,S01
27920,-7.58004,0.10295,5.48990,-0.4268,0.1829,-1.3415,0.00,0.00,0.00,0,S01
27940,-7.57525,0.10056,5.48751,-0.4268,0.1829,-1.3415,0.00,0.00,0.00,0,S01
27960,-7.57047,0.09577,5.48990,-0.5488,0.1829,-1.3415,0.00,0.00,0.00,0,S01
27980,-7.58004,0.09577,5.50427,-0.6707,0.1829,-1.2805,0.00,0.00,0.00,0,S01
28000,-7.57525,0.10295,5.50906,-0.6098,0.1829,-1.2805,0.00,0.00,0.00,0,S01
28020,-7.57525,0.10056,5.50906,-0.5488,0.1220,-1.2805,0.00,0.00,0.00,0,S01
28040,-7.56807,0.10534,5.51385,-0.5488,0.1220,-1.2805,0.00,0.00,0.00,0,S01
28060,-7.56328,0.10295,5.51624,-0.6098,0.1829,-1.2195,0.00,0.00,0.00,0,S01
28080,-7.55849,0.09577,5.51385,-0.6707,0.2439,-1.2195,0.00,0.00,0.00,0,S01
28100,-7.55131,0.09337,5.50666,-0.6098,0.3049,-1.2195,0.00,0.00,0.00,0,S01
28120,-7.56328,0.08859,5.50188,-0.5488,0.3659,-1.2195,0.00,0.00,0.00,0,S01
28140,-7.55849,0.09337,5.50188,-0.5488,0.3049,-1.2195,0.00,0.00,0.00,0,S01
28160,-7.57525,0.09337,5.49709,-0.6098,0.1829,-1.2805,0.00,0.00,0.00,0,S01
28180,-7.59441,0.10056,5.48751,-0.6098,-0.1220,-1.2805,0.00,0.00,0.00,0,S01
28200,-7.56568,0.10295,5.49709,-0.5488,-0.2439,-1.2805,0.00,0.00,0.00,0,S01
28220,-7.55131,0.10295,5.51863,-0.4268,0.0000,-1.2805,0.00,0.00,0.00,0,S01
28240,-7.56328,0.10774,5.50427,-0.1829,-0.0610,-1.3415,0.00,0.00,0.00,0,S01
28260,-7.56568,0.10295,5.50666,-0.1829,-0.1829,-1.3415,0.00,0.00,0.00,0,S01
28280,-7.55131,0.08859,5.51385,-0.3659,-0.3659,-1.3415,0.00,0.00,0.00,0,S01
28300,-7.54892,0.08859,5.52821,-0.4878,-0.3659,-1.3415,0.00,0.00,0.00,0,S01
28320,-7.56089,0.08380,5.53779,-0.4878,-0.3659,-1.3415,0.00,0.00,0.00,0,S01
28340,-7.56807,0.08859,5.51863,-0.4268,-0.3049,-1.2805,0.00,0.00,0.00,0,S01
28360,-7.56568,0.09337,5.48512,-0.4878,-0.2439,-1.2805,0.00,0.00,0.00,0,S01
28380,-7.56568,0.09337,5.49230,-0.6098,-0.0610,-1.2195,0.00,0.00,0.00,0,S01
28400,-7.55610,0.10056,5.50666,-0.6098,0.0610,-1.2195,0.00,0.00,0.00,0,S01
28420,-7.54174,0.10056,5.51145,-0.5488,0.1829,-1.2195,0.00,0.00,0.00,0,S01
28440,-7.54413,0.09816,5.53300,-0.4878,0.1829,-1.2195,0.00,0.00,0.00,0,S01
28460,-7.55371,0.09816,5.52821,-0.6098,0.1220,-1.2195,0.00,0.00,0.00,0,S01
28480,-7.55849,0.09098,5.53061,-0.7317,0.0610,-1.2195,0.00,0.00,0.00,0,S01
28500,-7.55610,0.08619,5.52582,-0.6707,0.0000,-1.2195,0.00,0.00,0.00,0,S01
28520,-7.55131,0.09337,5.50906,-0.4878,0.0610,-1.2805,0.00,0.00,0.00,0,S01
28540,-7.54892,0.08619,5.50906,-0.4268,0.2439,-1.2805,0.00,0.00,0.00,0,S01
28560,-7.55371,0.09577,5.52582,-0.4878,0.3049,-1.2805,0.00,0.00,0.00,0,S01
28580,-7.55849,0.09577,5.53539,-0.5488,0.1829,-1.2805,0.00,0.00,0.00,0,S01
28600,-7.54892,0.09816,5.51624,-0.4878,0.0000,-1.2805,0.00,0.00,0.00,0,S01
28620,-7.55131,0.09337,5.50906,-0.3659,-0.1220,-1.2805,0.00,0.00,0.00,0,S01
28640,-7.55610,0.10056,5.52103,-0.3659,-0.1220,-1.3415,0.00,0.00,0.00,0,S01
28660,-7.55610,0.10295,5.52103,-0.4878,0.0000,-1.3415,0.00,0.00,0.00,0,S01
28680,-7.56089,0.09816,5.52821,-0.4878,0.0000,-1.3415,0.00,0.00,0.00,0,S01
28700,-7.55131,0.10056,5.52582,-0.3659,0.0000,-1.3415,0.00,0.00,0.00,0,S01
28720,-7.55849,0.09816,5.54737,-0.3049,0.0000,-1.3415,0.00,0.00,0.00,0,S01
28740,-7.54413,0.10295,5.54737,-0.3659,0.0000,-1.2805,0.00,0.00,0.00,0,S01
28760,-7.54174,0.09816,5.54258,-0.4878,0.0000,-1.2805,0.00,0.00,0.00,0,S01
28780,-7.53934,0.09577,5.55215,-0.5488,0.1220,-1.2805,0.00,0.00,0.00,0,S01
28800,-7.54174,0.09337,5.53779,-0.5488,0.1220,-1.2195,0.00,0.00,0.00,0,S01
28820,-7.54174,0.09816,5.52821,-0.5488,0.0000,-1.2195,0.00,0.00,0.00,0,S01
28840,-7.54892,0.09577,5.53300,-0.6098,-0.0610,-1.2195,0.00,0.00,0.00,0,S01
28860,-7.54652,0.10056,5.53300,-0.6098,0.0000,-1.2195,0.00,0.00,0.00,0,S01
28880,-7.55610,0.08859,5.54018,-0.5488,0.1829,-1.2195,0.00,0.00,0.00,0,S01
28900,-7.54652,0.08859,5.54737,-0.5488,0.2439,-1.2195,0.00,0.00,0.00,0,S01
28920,-7.55849,0.09337,5.54497,-0.4878,0.1220,-1.2805,0.00,0.00,0.00,0,S01
28940,-7.55610,0.09816,5.53300,-0.4878,0.0610,-1.2805,0.00,0.00,0.00,0,S01
28960,-7.54174,0.09816,5.54497,-0.4268,0.0610,-1.2805,0.00,0.00,0.00,0,S01
28980,-7.55610,0.09577,5.54018,-0.3659,0.1220,-1.3415,0.00,0.00,0.00,0,S01
29000,-7.56328,0.09816,5.53779,-0.4268,0.0000,-1.3415,0.00,0.00,0.00,0,S01
29020,-7.52737,0.10056,5.57370,-0.4878,0.0000,-1.2805,0.00,0.00,0.00,0,S01
29040,-7.52258,0.10056,5.56891,-0.3049,-0.0610,-1.3415,0.00,0.00,0.00,0,S01
29060,-7.53216,0.09816,5.54976,-0.0610,-0.1220,-1.3415,0.00,0.00,0.00,0,S01
29080,-7.52498,0.08140,5.53779,-0.0610,-0.1220,-1.3415,0.00,0.00,0.00,0,S01
29100,-7.53216,0.08619,5.54018,-0.3049,-0.0610,-1.2805,0.00,0.00,0.00,0,S01
29120,-7.53455,0.08619,5.55455,-0.4878,-0.0610,-1.2805,0.00,0.00,0.00,0,S01
29140,-7.53695,0.08380,5.54737,-0.5488,-0.0610,-1.2805,0.00,0.00,0.00,0,S01
29160,-7.54892,0.09098,5.53061,-0.5488,0.0000,-1.2195,0.00,0.00,0.00,0,S01
29180,-7.54174,0.08859,5.52582,-0.4878,0.2439,-1.2195,0.00,0.00,0.00,0,S01
29200,-7.54413,0.09098,5.54018,-0.4878,0.4268,-1.2195,0.00,0.00,0.00,0,S01
29220,-7.54652,0.09577,5.54737,-0.5488,0.4878,-1.2195,0.00,0.00,0.00,0,S01
29240,-7.53216,0.09816,5.56173,-0.6098,0.4878,-1.2195,0.00,0.00,0.00,0,S01
29260,-7.54174,0.08859,5.54497,-0.5488,0.4268,-1.2195,0.00,0.00,0.00,0,S01
29280,-7.54652,0.08380,5.54737,-0.5488,0.4268,-1.2195,0.00,0.00,0.00,0,S01
29300,-7.54652,0.09577,5.56412,-0.4878,0.3659,-1.2195,0.00,0.00,0.00,0,S01
29320,-7.55131,0.10295,5.54737,-0.4268,0.2439,-1.2805,0.00,0.00,0.00,0,S01
29340,-7.54174,0.09577,5.53779,-0.3659,0.3049,-1.2805,0.00,0.00,0.00,0,S01
29360,-7.53455,0.08619,5.54976,-0.3659,0.5488,-1.2805,0.00,0.00,0.00,0,S01
29380,-7.54174,0.08619,5.55455,-0.3049,0.5488,-1.3415,0.00,0.00,0.00,0,S01
29400,-7.53695,0.09577,5.54018,-0.3049,0.4268,-1.3415,0.00,0.00,0.00,0,S01
29420,-7.53934,0.09337,5.54258,-0.3659,0.3659,-1.3415,0.00,0.00,0.00,0,S01
29440,-7.53934,0.09816,5.54737,-0.3659,0.3659,-1.3415,0.00,0.00,0.00,0,S01
29460,-7.54652,0.10774,5.55215,-0.3659,0.4878,-1.4024,0.00,0.00,0.00,0,S01
29480,-7.55131,0.10774,5.54737,-0.3659,0.6098,-1.3415,0.00,0.00,0.00,0,S01
29500,-7.55849,0.09577,5.54018,-0.3049,0.6707,-1.3415,0.00,0.00,0.00,0,S01
29520,-7.55610,0.08619,5.53779,-0.3659,0.7317,-1.2805,0.00,0.00,0.00,0,S01
29540,-7.55131,0.08380,5.54737,-0.3659,0.7317,-1.2805,0.00,0.00,0.00,0,S01
29560,-7.54892,0.08619,5.52342,-0.3049,0.7317,-1.2805,0.00,0.00,0.00,0,S01
29580,-7.54174,0.09577,5.51624,-0.3049,0.8537,-1.2805,0.00,0.00,0.00,0,S01
29600,-7.54652,0.08859,5.53300,-0.3659,0.8537,-1.2195,0.00,0.00,0.00,0,S01
29620,-7.54652,0.08859,5.53539,-0.3659,0.8537,-1.2195,0.00,0.00,0.00,0,S01
29640,-7.55371,0.09337,5.53539,-0.3049,0.8537,-1.2805,0.00,0.00,0.00,0,S01
29660,-7.55131,0.09816,5.52103,-0.2439,0.8537,-1.3415,0.00,0.00,0.00,0,S01
29680,-7.55371,0.09816,5.50906,-0.1220,0.8537,-1.3415,0.00,0.00,0.00,0,S01
29700,-7.55371,0.09098,5.52103,-0.0610,0.9146,-1.3415,0.00,0.00,0.00,0,S01
29720,-7.55610,0.09577,5.52582,-0.0610,0.9756,-1.4024,0.00,0.00,0.00,0,S01
29740,-7.55849,0.10534,5.51624,-0.0610,0.9146,-1.4024,0.00,0.00,0.00,0,S01
29760,-7.55371,0.10295,5.52103,-0.0610,0.9146,-1.4024,0.00,0.00,0.00,0,S01
29780,-7.56089,0.09577,5.51385,0.0000,0.9756,-1.4024,0.00,0.00,0.00,0,S01
29800,-7.55849,0.09577,5.52821,0.0610,1.0366,-1.3415,0.00,0.00,0.00,0,S01
29820,-7.58244,0.09816,5.52342,0.0610,0.8537,-1.4024,0.00,0.00,0.00,0,S01
29840,-7.58004,0.11253,5.51385,-0.1220,0.6098,-1.4024,0.00,0.00,0.00,0,S01
29860,-7.55371,0.11013,5.53539,-0.1220,0.6707,-1.3415,0.00,0.00,0.00,0,S01
29880,-7.55610,0.10295,5.54018,0.1220,0.7927,-1.4024,0.00,0.00,0.00,0,S01
29900,-7.57047,0.09816,5.51624,0.3659,0.6707,-1.4634,0.00,0.00,0.00,0,S01
29920,-7.56089,0.09577,5.51385,0.4268,0.6098,-1.4634,0.00,0.00,0.00,0,S01
29940,-7.55849,0.10774,5.50906,0.2439,0.4268,-1.4024,0.00,0.00,0.00,0,S01
29960,-7.55610,0.10774,5.51624,0.0000,0.3659,-1.4024,0.00,0.00,0.00,0,S01
29980,-7.56089,0.10295,5.49469,-0.0610,0.3659,-1.3415,0.00,0.00,0.00,0,S01
# DONE 1500 samples in 30.0s
