timestamp,ax,ay,az,gx,gy,gz,mx,my,mz,label,subject_id
0,-9.07642,0.86670,1.37427,-5.8537,8.2927,-11.5854,0.00,0.00,0.00,2,S01
20,-9.07642,0.86670,1.37427,-5.8537,8.2927,-11.5854,0.00,0.00,0.00,2,S01
40,-8.60715,0.83797,1.79086,-5.3659,7.4390,-9.3293,0.00,0.00,0.00,2,S01
60,-8.60715,0.83797,1.79086,-5.3659,7.4390,-9.3293,0.00,0.00,0.00,2,S01
80,-8.60715,0.83797,1.79086,-5.3659,7.4390,-9.3293,0.00,0.00,0.00,2,S01
100,-8.52336,0.67995,1.92015,-5.1829,8.3537,-7.3171,0.00,0.00,0.00,2,S01
120,-8.62152,0.64883,2.09732,-4.6341,10.1829,-5.3659,0.00,0.00,0.00,2,S01
140,-8.68616,0.66559,2.05662,-4.2073,10.9756,-2.8049,0.00,0.00,0.00,2,S01
160,-8.80348,0.65841,1.99437,-3.9634,11.7073,0.1829,0.00,0.00,0.00,2,S01
180,-9.12909,0.39983,1.74537,-3.5976,11.4634,5.5488,0.00,0.00,0.00,2,S01
200,-9.40682,0.33998,1.58975,-3.4756,10.9146,4.9390,0.00,0.00,0.00,2,S01
220,-9.61272,0.36631,1.79326,-4.2683,9.0244,1.4024,0.00,0.00,0.00,2,S01
240,-9.65582,0.66798,2.27689,-6.8902,4.9390,-2.1951,0.00,0.00,0.00,2,S01
260,-9.44273,1.07260,2.50433,-11.9512,0.5488,-3.7195,0.00,0.00,0.00,2,S01
280,-9.69652,1.20189,2.52109,-18.7195,-2.5000,-4.4512,0.00,0.00,0.00,2,S01
300,-10.61589,0.72065,1.37667,-21.2805,-6.7073,-6.9512,0.00,0.00,0.00,2,S01
320,-11.32936,0.10295,0.70868,-15.9756,-7.5000,-13.9634,0.00,0.00,0.00,2,S01
340,-11.53766,0.16041,0.92895,-9.6341,-11.0976,-25.1220,0.00,0.00,0.00,2,S01
360,-11.30542,0.99838,0.60573,-8.3537,-19.0244,-33.9024,0.00,0.00,0.00,2,S01
380,-10.51055,2.12126,-0.13647,-14.2683,-23.4756,-31.8293,0.00,0.00,0.00,2,S01
400,-9.46907,2.26252,-0.93613,-23.5366,-23.7805,-19.5732,0.00,0.00,0.00,2,S01
420,-8.81784,1.50116,-1.31921,-29.0854,-18.0488,-6.4024,0.00,0.00,0.00,2,S01
440,-8.79151,0.73741,-0.78530,-28.9024,-8.4146,0.0610,0.00,0.00,0.00,2,S01
460,-9.10515,0.44532,-0.35195,-21.8902,-3.9024,0.7927,0.00,0.00,0.00,2,S01
480,-9.38766,0.63207,0.18675,-11.8293,-3.5366,-0.7317,0.00,0.00,0.00,2,S01
500,-9.50259,0.99599,0.47645,-4.2683,-6.0976,-0.4878,0.00,0.00,0.00,2,S01
520,-9.46907,1.12767,0.63925,0.3659,-8.3537,2.3780,0.00,0.00,0.00,2,S01
540,-9.10036,1.03190,0.56503,5.3659,-9.4512,6.4634,0.00,0.00,0.00,2,S01
560,-8.64067,0.92895,0.31125,10.8537,-8.2927,9.9390,0.00,0.00,0.00,2,S01
580,-8.49223,0.99359,0.14605,15.7927,-3.9634,11.6463,0.00,0.00,0.00,2,S01
600,-8.51857,1.10133,0.24660,19.2683,0.5488,11.8902,0.00,0.00,0.00,2,S01
620,-8.52336,1.38864,0.40941,20.7317,2.7439,11.1585,0.00,0.00,0.00,2,S01
640,-8.60715,1.57060,0.42617,20.3049,3.6585,10.2439,0.00,0.00,0.00,2,S01
660,-8.85855,1.54665,0.43814,20.1220,5.3049,9.9390,0.00,0.00,0.00,2,S01
680,-9.02135,1.52271,0.54109,20.7927,7.1951,10.1829,0.00,0.00,0.00,2,S01
700,-9.08600,1.62806,0.60094,20.7317,7.9878,10.7317,0.00,0.00,0.00,2,S01
720,-9.05487,1.68073,0.74939,19.4512,7.6829,10.6707,0.00,0.00,0.00,2,S01
740,-8.91361,1.71664,0.69911,18.7195,6.1585,9.2683,0.00,0.00,0.00,2,S01
760,-8.83221,1.73580,0.80206,18.1707,5.7317,7.1341,0.00,0.00,0.00,2,S01
780,-8.91840,1.65439,0.93613,17.8659,5.7927,5.3049,0.00,0.00,0.00,2,S01
800,-9.10275,1.59454,1.10133,18.8415,6.2805,3.7805,0.00,0.00,0.00,2,S01
820,-9.27514,1.55384,1.18992,21.0976,6.2195,2.9268,0.00,0.00,0.00,2,S01
840,-9.32063,1.53229,1.19710,24.0854,6.0976,2.8659,0.00,0.00,0.00,2,S01
860,-9.26317,1.76692,1.17316,25.6707,5.4878,3.1707,0.00,0.00,0.00,2,S01
880,-9.10275,1.96564,1.23301,24.8780,4.0854,3.1707,0.00,0.00,0.00,2,S01
900,-8.84179,1.99437,1.12767,24.0244,2.6220,2.1951,0.00,0.00,0.00,2,S01
920,-8.64307,1.87705,1.20907,23.4146,2.9268,-0.0610,0.00,0.00,0.00,2,S01
940,-8.67419,1.59214,1.42455,23.2927,3.2317,-2.9878,0.00,0.00,0.00,2,S01
960,-8.76517,1.35033,1.67834,25.3049,2.4390,-5.7317,0.00,0.00,0.00,2,S01
980,-8.81784,1.73101,1.71904,27.3171,0.6098,-7.8659,0.00,0.00,0.00,2,S01
1000,-8.78911,2.06141,1.48441,26.2195,-1.5244,-8.2927,0.00,0.00,0.00,2,S01
1020,-8.85136,1.58017,1.78368,24.3902,-3.4756,-8.5976,0.00,0.00,0.00,2,S01
1040,-8.96150,1.58496,1.59214,27.7439,-6.6463,-10.2439,0.00,0.00,0.00,2,S01
1060,-8.91840,1.97043,1.20189,28.9024,-9.2683,-10.9146,0.00,0.00,0.00,2,S01
1080,-9.04051,1.94409,1.58496,26.2195,-10.1829,-9.9390,0.00,0.00,0.00,2,S01
1100,-9.14585,1.30484,2.91614,36.2195,-10.4268,-4.5732,0.00,0.00,0.00,2,S01
1120,-9.31105,1.72622,2.88980,42.8049,-8.9024,-1.2195,0.00,0.00,0.00,2,S01
1140,-9.31105,1.72622,2.88980,42.8049,-8.9024,-1.2195,0.00,0.00,0.00,2,S01
1160,-10.04128,2.70545,1.97522,45.4878,-6.2195,3.5366,0.00,0.00,0.00,2,S01
1180,-10.98699,3.74693,0.69192,43.7195,0.4878,12.8659,0.00,0.00,0.00,2,S01
1200,-11.28148,3.90255,-0.13168,35.6707,8.5366,25.8537,0.00,0.00,0.00,2,S01
1220,-10.47224,2.82516,-0.36392,24.1463,9.4512,34.5122,0.00,0.00,0.00,2,S01
1240,-9.58160,1.52032,-0.51954,19.1463,5.5488,31.3415,0.00,0.00,0.00,2,S01
1260,-8.89207,0.81882,-0.89304,25.5488,3.7805,18.5366,0.00,0.00,0.00,2,S01
1280,-8.32464,0.72544,-1.28808,36.0976,2.5610,5.8537,0.00,0.00,0.00,2,S01
1300,-8.32943,1.18752,-1.05345,42.3780,0.3659,0.3049,0.00,0.00,0.00,2,S01
1320,-8.85376,1.94409,-1.02951,40.4878,-4.7561,2.9268,0.00,0.00,0.00,2,S01
1340,-9.57920,2.63602,-1.09176,30.1829,-7.5000,7.9268,0.00,0.00,0.00,2,S01
1360,-9.74919,2.84192,-1.27611,15.1829,-8.4756,9.8780,0.00,0.00,0.00,2,S01
1380,-10.24718,2.20745,-0.40223,-11.4024,-14.8780,-2.4390,0.00,0.00,0.00,2,S01
1400,-9.70370,1.72861,-0.32082,-18.0488,-18.5366,-12.8659,0.00,0.00,0.00,2,S01
1420,-9.24401,1.54905,0.02155,-21.8293,-18.1098,-21.7073,0.00,0.00,0.00,2,S01
1440,-8.88009,1.40779,0.28970,-23.9634,-16.2195,-26.2195,0.00,0.00,0.00,2,S01
1460,-8.54491,1.26653,0.43814,-24.3902,-12.9268,-26.6463,0.00,0.00,0.00,2,S01
1480,-8.28154,1.26414,0.60813,-24.8780,-8.9024,-24.0854,0.00,0.00,0.00,2,S01
1500,-8.34858,1.31442,0.72544,-26.2195,-5.3659,-19.1463,0.00,0.00,0.00,2,S01
1520,-8.33182,1.30484,0.86431,-26.0976,-2.2561,-14.0854,0.00,0.00,0.00,2,S01
1540,-8.36055,1.22344,0.83079,-24.3293,1.1585,-9.3293,0.00,0.00,0.00,2,S01
1560,-8.58321,1.31681,0.91219,-23.9634,6.2805,-6.5854,0.00,0.00,0.00,2,S01
1580,-8.72208,1.53947,0.81403,-24.8780,10.0610,-5.0610,0.00,0.00,0.00,2,S01
1600,-8.82263,1.64721,0.92895,-27.0732,13.2317,-2.9878,0.00,0.00,0.00,2,S01
1620,-8.90404,1.57778,1.11330,-29.6341,15.0610,-0.6098,0.00,0.00,0.00,2,S01
1640,-8.94953,1.35751,1.32399,-31.8293,16.6463,1.0366,0.00,0.00,0.00,2,S01
1660,-8.95192,1.07021,1.51314,-32.8659,18.1707,1.5854,0.00,0.00,0.00,2,S01
1680,-8.90882,0.84994,1.79565,-32.4390,18.4146,0.9756,0.00,0.00,0.00,2,S01
1700,-8.94953,0.79248,2.13802,-30.7317,16.9512,0.9146,0.00,0.00,0.00,2,S01
1720,-8.83460,0.95050,2.21224,-28.3537,14.2073,3.0488,0.00,0.00,0.00,2,S01
1740,-8.81784,1.08457,2.35829,-29.5122,12.9878,6.1585,0.00,0.00,0.00,2,S01
1760,-9.07402,1.09415,2.32238,-30.8537,11.0976,8.2317,0.00,0.00,0.00,2,S01
1780,-9.27753,0.90261,2.07577,-30.0000,8.9024,7.8049,0.00,0.00,0.00,2,S01
1800,-9.52413,0.40701,2.07098,-28.2317,8.1098,3.6585,0.00,0.00,0.00,2,S01
1820,-9.72764,0.65122,2.19548,-27.1951,6.2195,-3.4756,0.00,0.00,0.00,2,S01
1840,-9.48343,0.77093,2.25534,-30.4268,1.8293,-7.6220,0.00,0.00,0.00,2,S01
1860,-9.33260,0.77572,2.34153,-33.2317,-3.2927,-7.9878,0.00,0.00,0.00,2,S01
1880,-9.87848,0.62489,1.80523,-34.6341,-7.8659,-6.3415,0.00,0.00,0.00,2,S01
1900,-10.41478,0.60573,0.95529,-31.7073,-9.2073,-7.7439,0.00,0.00,0.00,2,S01
1920,-10.55125,1.32639,1.11091,-27.9878,-10.8537,-16.2195,0.00,0.00,0.00,2,S01
1940,-10.34535,2.35589,1.04627,-32.3171,-18.0488,-26.8902,0.00,0.00,0.00,2,S01
1960,-10.09635,2.56180,0.32561,-40.3659,-22.6829,-31.7683,0.00,0.00,0.00,2,S01
1980,-10.03889,2.18830,-0.76854,-44.8780,-18.7195,-27.4390,0.00,0.00,0.00,2,S01
2000,-9.98622,1.39821,-0.95289,-49.2073,-8.4146,-17.5610,0.00,0.00,0.00,2,S01
2020,-9.74440,1.01035,-0.53391,-52.1951,-1.0366,-8.2927,0.00,0.00,0.00,2,S01
2040,-9.23922,0.98881,-0.48602,-49.4512,-0.7317,-1.8902,0.00,0.00,0.00,2,S01
2060,-8.85855,1.07739,-0.59376,-41.8902,-1.7073,1.1585,0.00,0.00,0.00,2,S01
2080,-8.81306,1.17076,-0.25379,-33.4756,0.0610,1.9512,0.00,0.00,0.00,2,S01
2100,-9.02853,1.35033,0.35913,-26.9512,2.4390,2.1341,0.00,0.00,0.00,2,S01
2120,-9.22965,1.32639,0.79966,-21.5854,2.2561,3.6585,0.00,0.00,0.00,2,S01
2140,-9.11473,1.26893,0.76854,-15.5488,1.5854,6.5244,0.00,0.00,0.00,2,S01
2160,-8.83460,1.49159,0.63925,-10.9146,2.3171,9.6341,0.00,0.00,0.00,2,S01
2180,-8.65743,1.54665,0.39265,-8.9024,5.0000,15.4268,0.00,0.00,0.00,2,S01
2200,-8.70532,1.50835,0.43096,-6.7683,6.9512,16.7073,0.00,0.00,0.00,2,S01
2220,-8.70532,1.50835,0.43096,-6.7683,6.9512,16.7073,0.00,0.00,0.00,2,S01
2240,-8.81784,1.52989,0.58179,-5.3659,8.3537,17.0732,0.00,0.00,0.00,2,S01
2260,-8.92080,1.69270,0.71347,-4.5732,8.3537,16.6463,0.00,0.00,0.00,2,S01
2280,-9.05248,1.97522,0.91459,-4.3293,7.8049,15.9146,0.00,0.00,0.00,2,S01
2300,-9.08360,2.07577,1.17555,-5.1220,5.6098,15.1829,0.00,0.00,0.00,2,S01
2320,-8.89446,1.98479,0.96726,-5.4878,0.9146,13.1098,0.00,0.00,0.00,2,S01
2340,-8.67898,1.89381,0.91459,-5.6098,-0.7317,9.1463,0.00,0.00,0.00,2,S01
2360,-8.56885,1.70946,1.18034,-6.0976,1.1585,5.3659,0.00,0.00,0.00,2,S01
2380,-8.67659,1.54665,1.29287,-4.1463,4.3902,3.1707,0.00,0.00,0.00,2,S01
2400,-8.93516,1.30484,1.32160,-0.0610,7.8659,2.0122,0.00,0.00,0.00,2,S01
2420,-8.92558,1.10612,1.24977,5.7317,10.1829,0.7927,0.00,0.00,0.00,2,S01
2440,-8.81066,1.33118,1.14443,11.9512,12.8049,-1.2805,0.00,0.00,0.00,2,S01
2460,-8.84418,1.92973,1.15640,15.4268,16.2805,-3.2317,0.00,0.00,0.00,2,S01
2480,-8.80587,2.64080,1.08457,14.2683,17.2561,-2.8659,0.00,0.00,0.00,2,S01
2500,-8.81066,3.17711,1.23780,7.1951,17.1341,-0.4878,0.00,0.00,0.00,2,S01
2520,-8.59518,3.27766,1.09654,-1.9512,17.8659,1.7683,0.00,0.00,0.00,2,S01
2540,-8.42520,3.00712,1.24020,-11.1585,22.9268,2.4390,0.00,0.00,0.00,2,S01
2560,-8.70053,2.83473,1.58257,-27.5610,27.0732,1.2805,0.00,0.00,0.00,2,S01
2580,-8.66701,2.85628,0.91937,-34.6951,25.7927,2.8659,0.00,0.00,0.00,2,S01
2600,-8.71968,2.43490,1.13485,-43.1098,28.1707,3.6585,0.00,0.00,0.00,2,S01
2620,-8.82263,2.28646,1.11330,-48.0488,28.4756,2.3780,0.00,0.00,0.00,2,S01
2640,-9.04290,2.24576,1.02232,-52.1951,26.9512,1.9512,0.00,0.00,0.00,2,S01
2660,-9.58638,2.12605,1.47243,-55.7317,25.9756,3.5976,0.00,0.00,0.00,2,S01
2680,-10.32380,2.66235,1.33836,-58.0488,22.9878,8.2317,0.00,0.00,0.00,2,S01
2700,-10.65659,3.60806,0.16999,-63.4146,22.1341,17.0122,0.00,0.00,0.00,2,S01
2720,-10.86728,3.74693,-0.01437,-73.2317,26.5244,25.6707,0.00,0.00,0.00,2,S01
2740,-10.95347,2.81079,0.40941,-79.8171,27.9268,27.5610,0.00,0.00,0.00,2,S01
2760,-10.79785,1.42455,0.40462,-76.4634,25.9146,21.8293,0.00,0.00,0.00,2,S01
2780,-10.34535,0.93613,0.18196,-70.4878,22.1951,11.0976,0.00,0.00,0.00,2,S01
2800,-9.58399,1.51553,-0.54348,-66.8293,17.0732,0.7927,0.00,0.00,0.00,2,S01
2820,-8.88728,2.00874,-0.92895,-66.9512,13.0488,-5.4268,0.00,0.00,0.00,2,S01
2840,-8.47069,1.81241,-1.09894,-64.9390,12.0732,-8.1098,0.00,0.00,0.00,2,S01
2860,-8.58561,1.51553,-0.94571,-58.0488,10.2439,-8.6585,0.00,0.00,0.00,2,S01
2880,-9.22725,1.30005,-0.93134,-53.1707,4.5732,-5.7317,0.00,0.00,0.00,2,S01
2900,-9.75398,1.22823,-1.12049,-49.6341,-0.3049,-0.4268,0.00,0.00,0.00,2,S01
2920,-9.78510,1.02472,-1.15161,-45.1829,-2.3171,2.2561,0.00,0.00,0.00,2,S01
2940,-9.70131,1.00078,-0.88107,-39.0854,-5.2439,-0.9146,0.00,0.00,0.00,2,S01
2960,-9.64624,1.35751,-0.72544,-35.1829,-11.0366,-6.9512,0.00,0.00,0.00,2,S01
2980,-9.28711,1.75974,-0.68953,-35.3659,-14.6341,-11.5854,0.00,0.00,0.00,2,S01
3000,-8.80827,1.82917,-0.53391,-37.7439,-12.8049,-13.3537,0.00,0.00,0.00,2,S01
3020,-8.72208,1.52989,-0.04310,-40.6098,-7.7439,-12.8049,0.00,0.00,0.00,2,S01
3040,-8.76038,1.12049,0.24421,-42.3780,-6.4634,-11.2805,0.00,0.00,0.00,2,S01
3060,-8.64067,0.90501,0.05028,-40.9146,-7.0732,-9.5122,0.00,0.00,0.00,2,S01
3080,-8.52336,0.86191,-0.00239,-36.9512,-5.3659,-8.4146,0.00,0.00,0.00,2,S01
3100,-8.63110,0.79487,0.00479,-32.5610,-2.1951,-7.6829,0.00,0.00,0.00,2,S01
3120,-8.79630,0.45969,0.21787,-27.4390,2.5000,-6.7073,0.00,0.00,0.00,2,S01
3140,-8.95192,0.10056,0.55545,-18.2317,6.8902,-6.7683,0.00,0.00,0.00,2,S01
3160,-8.97107,-0.05986,0.88346,-6.6463,8.1707,-8.8415,0.00,0.00,0.00,2,S01
3180,-9.00699,-0.06704,1.12288,5.3659,7.8659,-11.3415,0.00,0.00,0.00,2,S01
3200,-9.03811,0.01437,1.30245,16.3415,7.3171,-12.9878,0.00,0.00,0.00,2,S01
3220,-8.89446,0.18675,1.12527,25.5488,5.7927,-12.8659,0.00,0.00,0.00,2,S01
3240,-8.66222,0.31843,1.09176,32.1951,5.6707,-10.8537,0.00,0.00,0.00,2,S01
3260,-8.62391,0.50757,1.44131,38.3537,7.0122,-3.2317,0.00,0.00,0.00,2,S01
3280,-8.62391,0.50757,1.44131,38.3537,7.0122,-3.2317,0.00,0.00,0.00,2,S01
3300,-8.89925,0.33279,1.37667,39.8171,5.0610,0.9756,0.00,0.00,0.00,2,S01
3320,-9.28471,0.82121,1.28090,42.1951,2.7439,3.9634,0.00,0.00,0.00,2,S01
3340,-9.67497,0.61052,1.14922,41.7683,-1.7073,5.2439,0.00,0.00,0.00,2,S01
3360,-9.83059,0.05507,0.26815,47.0732,-8.5366,3.7195,0.00,0.00,0.00,2,S01
3380,-9.66300,0.31125,0.63207,51.4634,-10.6098,-1.1585,0.00,0.00,0.00,2,S01
3400,-9.55765,1.79565,1.80523,44.6341,-13.1707,-7.5610,0.00,0.00,0.00,2,S01
3420,-9.24880,3.01909,2.13084,28.7805,-19.2073,-11.6463,0.00,0.00,0.00,2,S01
3440,-9.31344,3.05261,2.28407,11.0976,-20.7317,-13.6585,0.00,0.00,0.00,2,S01
3460,-9.70370,1.72861,1.57778,1.7073,-20.7317,-13.5366,0.00,0.00,0.00,2,S01
3480,-10.58237,0.28012,1.04148,3.3537,-17.5000,-13.4756,0.00,0.00,0.00,2,S01
3500,-11.54484,-0.35674,1.28808,9.3902,-13.4756,-16.8293,0.00,0.00,0.00,2,S01
3520,-12.08593,0.22266,0.55306,16.5854,-14.0854,-22.5610,0.00,0.00,0.00,2,S01
3540,-10.97263,1.41976,-0.46448,17.6829,-17.3171,-22.1951,0.00,0.00,0.00,2,S01
3560,-9.60314,1.95846,-1.11809,11.2805,-18.8415,-13.5976,0.00,0.00,0.00,2,S01
3580,-8.67419,1.79086,-1.48441,6.0366,-16.6463,-6.2805,0.00,0.00,0.00,2,S01
3600,-8.50420,1.28090,-1.19231,3.5366,-9.7561,-2.5000,0.00,0.00,0.00,2,S01
3620,-8.98304,0.94810,-0.40941,5.4268,-3.2927,-2.4390,0.00,0.00,0.00,2,S01
3640,-9.27993,0.92177,-0.29449,12.1951,-3.9024,-2.5000,0.00,0.00,0.00,2,S01
3660,-9.41400,1.23301,-0.15802,16.9512,-6.0976,-0.6098,0.00,0.00,0.00,2,S01
3680,-9.54089,1.35991,-0.01197,18.9024,-7.9268,3.2317,0.00,0.00,0.00,2,S01
3700,-9.33260,1.38385,0.12689,21.8902,-9.5732,6.5854,0.00,0.00,0.00,2,S01
3720,-8.90404,1.42934,0.10295,24.9390,-11.5244,8.6585,0.00,0.00,0.00,2,S01
3740,-8.44196,1.42934,0.34716,26.4634,-9.0244,10.6707,0.00,0.00,0.00,2,S01
3760,-8.54012,1.59693,0.50039,25.9146,-6.4024,10.3049,0.00,0.00,0.00,2,S01
3780,-8.73405,1.72861,0.47645,24.5122,-5.0000,10.1829,0.00,0.00,0.00,2,S01
3800,-8.78433,1.81480,0.38068,23.1098,-4.5122,10.0610,0.00,0.00,0.00,2,S01
3820,-8.77954,1.93691,0.45729,21.7073,-3.6585,9.5732,0.00,0.00,0.00,2,S01
3840,-8.82982,1.91536,0.62010,19.1463,-3.5976,9.1463,0.00,0.00,0.00,2,S01
3860,-8.82263,1.87945,0.62010,17.2561,-4.0244,9.0244,0.00,0.00,0.00,2,S01
3880,-8.79630,1.97043,0.62249,15.7927,-3.1707,8.5976,0.00,0.00,0.00,2,S01
3900,-8.80348,1.91297,0.78769,13.3537,-1.7683,8.0488,0.00,0.00,0.00,2,S01
3920,-8.80109,1.82199,1.00556,12.0122,-0.6098,7.1341,0.00,0.00,0.00,2,S01
3940,-8.84418,1.71664,1.28808,11.4634,0.2439,5.7927,0.00,0.00,0.00,2,S01
3960,-8.86094,1.74298,1.57538,11.7073,0.4878,3.6585,0.00,0.00,0.00,2,S01
3980,-8.64546,1.74058,1.59933,12.9878,0.6707,1.2195,0.00,0.00,0.00,2,S01
4000,-8.36295,1.76213,1.56820,15.1220,2.6829,-1.5244,0.00,0.00,0.00,2,S01
4020,-8.22887,1.79565,1.61369,17.3780,6.0366,-4.2683,0.00,0.00,0.00,2,S01
4040,-8.31746,1.96564,1.84593,18.6585,9.0854,-7.3171,0.00,0.00,0.00,2,S01
4060,-8.43238,2.11408,1.75256,18.9024,9.5732,-9.6341,0.00,0.00,0.00,2,S01
4080,-8.63589,2.09014,1.62806,19.0244,8.7805,-11.2195,0.00,0.00,0.00,2,S01
4100,-8.82982,2.37744,1.48919,18.1098,6.9512,-12.5610,0.00,0.00,0.00,2,S01
4120,-8.88009,2.95923,0.66319,14.6951,4.7561,-12.3171,0.00,0.00,0.00,2,S01
4140,-9.44752,3.79242,0.27533,5.9146,3.6585,-9.1463,0.00,0.00,0.00,2,S01
4160,-10.15141,2.88022,1.57778,-3.4146,-0.5488,-1.0366,0.00,0.00,0.00,2,S01
4180,-10.24000,1.27132,3.43089,2.7439,-6.4024,8.1707,0.00,0.00,0.00,2,S01
4200,-10.65420,0.79487,3.15556,19.8780,-11.7683,14.2683,0.00,0.00,0.00,2,S01
4220,-11.33654,2.20267,1.73819,31.2805,-9.9390,20.3049,0.00,0.00,0.00,2,S01
4240,-11.42274,2.83713,0.85234,30.1220,-5.6707,29.3902,0.00,0.00,0.00,2,S01
4260,-10.52252,2.35111,0.65362,30.6098,-3.7805,34.5732,0.00,0.00,0.00,2,S01
4280,-9.52174,1.43892,0.36392,35.0000,-4.3902,29.5122,0.00,0.00,0.00,2,S01
4300,-8.78193,0.87149,-0.45250,41.5854,-5.0610,16.0976,0.00,0.00,0.00,2,S01
4320,-8.18099,1.47004,-1.51314,45.4878,-4.8780,3.3537,0.00,0.00,0.00,2,S01
4340,-8.29351,2.42533,-1.62327,38.4756,-3.4146,-2.2561,0.00,0.00,0.00,2,S01
4360,-9.64624,1.84832,-0.75417,9.8780,1.2805,0.0610,0.00,0.00,0.00,2,S01
4380,-9.89524,1.08457,-0.14844,0.5488,3.9024,-2.1341,0.00,0.00,0.00,2,S01
4400,-9.89524,1.08457,-0.14844,0.5488,3.9024,-2.1341,0.00,0.00,0.00,2,S01
4420,-10.28549,0.79727,0.26336,-4.6951,0.6098,-9.2073,0.00,0.00,0.00,2,S01
4440,-9.80186,0.87388,0.11732,-5.6098,-7.3171,-17.8049,0.00,0.00,0.00,2,S01
4460,-9.03811,1.27372,-0.04310,-6.0976,-11.2195,-23.4756,0.00,0.00,0.00,2,S01
4480,-8.79151,1.52271,0.11253,-8.1098,-9.8780,-24.5122,0.00,0.00,0.00,2,S01
4500,-8.69095,1.42694,0.36871,-9.3293,-7.1951,-22.5000,0.00,0.00,0.00,2,S01
4520,-8.42998,1.15879,0.49799,-9.3293,-5.1220,-19.5732,0.00,0.00,0.00,2,S01
4540,-8.41801,1.10133,0.59376,-9.8171,-2.3171,-16.9512,0.00,0.00,0.00,2,S01
4560,-8.47308,1.06303,0.56982,-11.8293,1.4024,-14.0244,0.00,0.00,0.00,2,S01
4580,-8.61434,0.89304,0.64165,-13.5976,6.3415,-11.7683,0.00,0.00,0.00,2,S01
4600,-8.80348,0.87388,0.68474,-13.4146,10.7927,-11.2195,0.00,0.00,0.00,2,S01
4620,-8.89207,1.07500,0.66080,-13.0488,12.7439,-10.7927,0.00,0.00,0.00,2,S01
4640,-8.92558,1.08218,0.76375,-14.0244,13.3537,-9.3293,0.00,0.00,0.00,2,S01
4660,-8.95192,0.92177,0.95529,-14.5732,13.8415,-7.9878,0.00,0.00,0.00,2,S01
4680,-9.03093,0.59616,1.14203,-14.0854,14.6341,-7.3780,0.00,0.00,0.00,2,S01
4700,-9.12909,0.44293,1.47962,-12.5610,15.1829,-7.9878,0.00,0.00,0.00,2,S01
4720,-8.96389,0.39983,1.57299,-10.3659,13.7805,-8.7195,0.00,0.00,0.00,2,S01
4740,-8.65025,0.39504,1.67594,-7.7439,12.5610,-8.7805,0.00,0.00,0.00,2,S01
4760,-8.44674,0.37828,1.78607,-4.9390,12.3780,-6.8902,0.00,0.00,0.00,2,S01
4780,-8.61194,0.58897,1.84593,-2.6220,12.6829,-4.1463,0.00,0.00,0.00,2,S01
4800,-9.07402,0.49081,1.79565,-2.6829,12.3780,-1.5244,0.00,0.00,0.00,2,S01
4820,-9.47386,0.40941,1.68312,-1.4024,11.2195,-0.3659,0.00,0.00,0.00,2,S01
4840,-9.52413,0.22984,1.55144,0.4268,8.4756,-1.2805,0.00,0.00,0.00,2,S01
4860,-9.50498,0.41659,1.40779,0.9756,4.5122,-4.3293,0.00,0.00,0.00,2,S01
4880,-9.47864,0.94571,1.44131,-2.8049,1.1585,-7.2561,0.00,0.00,0.00,2,S01
4900,-9.54568,1.24020,1.95127,-10.4268,-1.5854,-8.1098,0.00,0.00,0.00,2,S01
4920,-10.43154,0.79727,1.98240,-16.7683,-7.0732,-8.2927,0.00,0.00,0.00,2,S01
4940,-11.69089,0.17478,1.28090,-6.3415,-12.5000,-18.7805,0.00,0.00,0.00,2,S01
4960,-11.26232,0.92177,1.12767,-4.6951,-21.9512,-24.5732,0.00,0.00,0.00,2,S01
4980,-10.60392,2.02549,0.01437,-7.4390,-29.0244,-21.5244,0.00,0.00,0.00,2,S01
5000,-9.71567,2.40378,-1.08218,-13.9024,-24.6951,-11.4634,0.00,0.00,0.00,2,S01
5020,-9.15543,1.69988,-1.56102,-19.9390,-13.9024,-1.7683,0.00,0.00,0.00,2,S01
5040,-9.03332,0.93134,-0.91219,-23.9024,-6.2195,1.0366,0.00,0.00,0.00,2,S01
5060,-9.01656,0.48363,-0.60813,-20.9756,-5.1829,-0.7317,0.00,0.00,0.00,2,S01
5080,-9.10275,0.52672,-0.39744,-10.1220,-4.8171,-3.9024,0.00,0.00,0.00,2,S01
5100,-9.25359,0.96007,-0.17957,2.3171,-5.0000,-4.7561,0.00,0.00,0.00,2,S01
5120,-9.28232,1.41737,-0.13168,10.3659,-6.5244,-1.2195,0.00,0.00,0.00,2,S01
5140,-8.98065,1.52989,-0.04549,13.5366,-7.1951,3.7805,0.00,0.00,0.00,2,S01
5160,-8.61913,1.54187,-0.05986,14.8171,-6.4024,7.3171,0.00,0.00,0.00,2,S01
5180,-8.48266,1.45567,-0.18196,15.4878,-3.4146,8.7805,0.00,0.00,0.00,2,S01
5200,-8.56167,1.46286,-0.04549,16.8902,1.8293,8.9634,0.00,0.00,0.00,2,S01
5220,-8.63828,1.42694,0.27054,17.3780,4.9390,8.4756,0.00,0.00,0.00,2,S01
5240,-8.69095,1.40061,0.30885,17.5610,5.1220,8.0488,0.00,0.00,0.00,2,S01
5260,-8.77714,1.40061,0.13647,18.1098,4.6951,8.2317,0.00,0.00,0.00,2,S01
5280,-8.86333,1.46286,0.21069,17.9268,5.4268,8.9024,0.00,0.00,0.00,2,S01
5300,-8.96868,1.57778,0.47166,16.5854,6.3415,9.6341,0.00,0.00,0.00,2,S01
5320,-8.99262,1.64721,0.56264,15.1829,5.3049,9.6341,0.00,0.00,0.00,2,S01
5340,-8.86812,1.84832,0.49799,14.1463,4.4512,8.5366,0.00,0.00,0.00,2,S01
5360,-8.84658,1.93691,0.59376,12.2561,5.3049,7.0122,0.00,0.00,0.00,2,S01
5380,-8.97586,1.78847,0.74699,11.3415,6.2805,5.4268,0.00,0.00,0.00,2,S01
5400,-9.23444,1.67355,0.97444,12.9268,7.0122,4.0854,0.00,0.00,0.00,2,S01
5420,-9.39724,1.72622,1.13485,14.6951,7.0732,3.7195,0.00,0.00,0.00,2,S01
5440,-9.00459,1.95127,1.22104,15.0000,3.2317,4.8171,0.00,0.00,0.00,2,S01
5460,-9.00459,1.95127,1.22104,15.0000,3.2317,4.8171,0.00,0.00,0.00,2,S01
5480,-8.62631,2.01592,1.12049,14.7561,2.3780,4.5732,0.00,0.00,0.00,2,S01
5500,-8.50899,1.97043,1.24738,14.2683,3.9024,2.9878,0.00,0.00,0.00,2,S01
5520,-8.65265,2.09493,1.54187,13.9024,5.3659,0.6098,0.00,0.00,0.00,2,S01
5540,-8.79151,2.23379,1.66636,13.2317,4.3902,-1.5244,0.00,0.00,0.00,2,S01
5560,-8.71250,2.09732,1.56581,12.6220,2.5610,-2.9878,0.00,0.00,0.00,2,S01
5580,-8.63589,2.00155,1.49159,12.3780,0.9146,-4.7561,0.00,0.00,0.00,2,S01
5600,-8.81545,1.91057,1.56820,11.9512,-0.9146,-6.5244,0.00,0.00,0.00,2,S01
5620,-8.86094,2.24576,1.14682,11.2805,-3.5976,-6.8293,0.00,0.00,0.00,2,S01
5640,-8.91361,2.61926,1.14203,7.1341,-4.4512,-5.1220,0.00,0.00,0.00,2,S01
5660,-9.17937,1.97761,2.17872,1.7683,-4.9390,-1.8902,0.00,0.00,0.00,2,S01
5680,-9.41879,1.30005,3.04303,7.8659,-6.0366,0.4878,0.00,0.00,0.00,2,S01
5700,-10.23042,1.43652,2.95684,18.9634,-6.2195,3.4756,0.00,0.00,0.00,2,S01
5720,-11.20486,2.41575,1.66636,25.9756,-4.1463,10.9756,0.00,0.00,0.00,2,S01
5740,-11.43710,3.32076,0.72784,26.0976,1.3415,23.2317,0.00,0.00,0.00,2,S01
5760,-10.75954,3.05979,-0.11492,22.6220,2.9268,33.4756,0.00,0.00,0.00,2,S01
5780,-9.86411,1.95606,-0.22027,21.5244,2.1951,34.2073,0.00,0.00,0.00,2,S01
5800,-9.14106,0.96247,-0.86670,29.5122,-0.7317,25.3049,0.00,0.00,0.00,2,S01
5820,-8.43717,1.08457,-1.84832,38.2317,-5.2439,12.7439,0.00,0.00,0.00,2,S01
5840,-8.43477,1.95846,-2.03747,37.6220,-6.9512,4.6341,0.00,0.00,0.00,2,S01
5860,-9.05727,2.60968,-1.62566,27.6220,-6.8293,3.5366,0.00,0.00,0.00,2,S01
5880,-9.77313,2.61447,-1.38624,13.2317,-6.2195,4.3902,0.00,0.00,0.00,2,S01
5900,-9.92397,2.43011,-1.14443,0.0000,-5.7317,0.8537,0.00,0.00,0.00,2,S01
5920,-10.14663,2.17633,-0.41899,-11.8902,-8.0488,-6.0366,0.00,0.00,0.00,2,S01
5940,-9.92636,1.76692,-0.33998,-19.6341,-13.9634,-14.4512,0.00,0.00,0.00,2,S01
5960,-9.31105,1.41258,-0.15083,-23.1098,-16.7683,-22.5610,0.00,0.00,0.00,2,S01
5980,-8.90882,1.36469,0.11971,-24.7561,-16.4024,-27.6829,0.00,0.00,0.00,2,S01
6000,-8.76038,1.34075,0.40462,-25.4878,-14.2073,-28.5976,0.00,0.00,0.00,2,S01
6020,-8.52575,1.26174,0.50039,-24.8780,-12.3171,-26.2805,0.00,0.00,0.00,2,S01
6040,-8.25042,1.23780,0.66559,-25.3659,-9.7561,-22.5000,0.00,0.00,0.00,2,S01
6060,-8.12831,1.16837,0.90740,-25.9146,-6.2805,-18.1098,0.00,0.00,0.00,2,S01
6080,-8.23127,1.11570,1.01275,-25.1829,-2.6220,-13.5976,0.00,0.00,0.00,2,S01
6100,-8.25281,1.00796,0.84755,-23.3537,2.3171,-9.3293,0.00,0.00,0.00,2,S01
6120,-8.43238,1.05345,0.83318,-21.5854,8.8415,-6.4634,0.00,0.00,0.00,2,S01
6140,-9.05727,1.27372,1.20428,-21.4024,14.4512,-4.0244,0.00,0.00,0.00,2,S01
6160,-9.14824,1.22104,1.31202,-21.0366,13.5976,-3.1707,0.00,0.00,0.00,2,S01
6180,-9.04290,1.11330,1.54665,-20.3659,12.6220,-3.0488,0.00,0.00,0.00,2,S01
6200,-8.82742,1.01754,1.68073,-19.6951,11.2805,-2.9268,0.00,0.00,0.00,2,S01
6220,-8.68856,0.94571,1.86508,-19.3293,10.6707,-2.0122,0.00,0.00,0.00,2,S01
6240,-8.70532,0.83079,2.09493,-18.9634,9.7561,-0.0610,0.00,0.00,0.00,2,S01
6260,-8.81545,0.85952,2.16915,-17.9878,7.6220,2.6220,0.00,0.00,0.00,2,S01
6280,-8.89446,0.89304,2.01113,-17.5000,5.9146,5.1829,0.00,0.00,0.00,2,S01
6300,-9.06924,0.84515,1.69270,-17.4390,5.9146,6.4024,0.00,0.00,0.00,2,S01
6320,-9.43076,0.53630,1.55623,-17.5610,5.4878,4.1463,0.00,0.00,0.00,2,S01
6340,-9.73004,0.39983,1.57778,-15.6098,3.2317,-1.5854,0.00,0.00,0.00,2,S01
6360,-9.77553,0.85712,1.94409,-16.2195,0.4878,-7.1951,0.00,0.00,0.00,2,S01
6380,-9.52653,1.23062,2.55701,-22.2561,-2.6220,-8.9634,0.00,0.00,0.00,2,S01
6400,-9.50498,1.39343,2.58334,-29.0244,-6.7073,-8.2927,0.00,0.00,0.00,2,S01
6420,-10.20169,1.11330,1.79565,-33.1707,-9.3902,-8.5976,0.00,0.00,0.00,2,S01
6440,-10.96066,0.78051,1.09654,-30.2439,-9.5122,-12.9878,0.00,0.00,0.00,2,S01
6460,-11.28866,0.94571,1.26893,-26.4634,-9.9390,-21.4634,0.00,0.00,0.00,2,S01
6480,-11.04206,1.55144,0.65601,-26.5244,-14.8171,-26.7683,0.00,0.00,0.00,2,S01
6500,-10.25437,2.14999,-0.35913,-31.0976,-18.1098,-22.8049,0.00,0.00,0.00,2,S01
6520,-8.93037,1.37188,-1.22823,-47.6829,-11.7683,-3.9634,0.00,0.00,0.00,2,S01
6540,-8.93037,1.37188,-1.22823,-47.6829,-11.7683,-3.9634,0.00,0.00,0.00,2,S01
6560,-9.13388,0.82839,-0.60573,-50.1220,-6.0976,0.4268,0.00,0.00,0.00,2,S01
6580,-9.56962,0.70868,0.10295,-41.7683,-2.8659,1.5854,0.00,0.00,0.00,2,S01
6600,-9.47864,0.99599,0.04549,-28.2317,-3.5366,2.5000,0.00,0.00,0.00,2,S01
6620,-9.38288,1.31681,0.32082,-20.1829,-2.7439,5.1829,0.00,0.00,0.00,2,S01
6640,-9.25359,1.29047,0.56264,-16.2195,-3.4756,8.5366,0.00,0.00,0.00,2,S01
6660,-8.80827,1.36230,0.45490,-12.1341,-5.2439,11.4634,0.00,0.00,0.00,2,S01
6680,-8.41323,1.36709,0.16281,-9.1463,-4.3293,14.0244,0.00,0.00,0.00,2,S01
6700,-8.31746,1.35512,-0.02873,-6.8902,-0.5488,15.0610,0.00,0.00,0.00,2,S01
6720,-8.42280,1.41018,0.08380,-5.8537,3.4146,14.0244,0.00,0.00,0.00,2,S01
6740,-8.60715,1.39343,0.43814,-6.0976,5.0610,12.3171,0.00,0.00,0.00,2,S01
6760,-8.80109,1.41258,0.73502,-4.5122,6.3415,10.4878,0.00,0.00,0.00,2,S01
6780,-9.03572,1.64721,0.79966,-2.5610,7.3171,9.5732,0.00,0.00,0.00,2,S01
6800,-9.00459,1.82438,0.79966,-2.8659,7.8659,10.4878,0.00,0.00,0.00,2,S01
6820,-8.61913,1.80762,0.77572,-4.4512,8.9024,11.9512,0.00,0.00,0.00,2,S01
6840,-8.33661,1.79565,0.85952,-5.4268,13.0488,11.8902,0.00,0.00,0.00,2,S01
6860,-8.36055,1.83396,0.87867,-5.3049,20.0000,10.2439,0.00,0.00,0.00,2,S01
6880,-8.73644,1.87466,0.82361,-5.0610,27.1951,8.5366,0.00,0.00,0.00,2,S01
6900,-9.05966,1.84832,1.04148,-6.1585,32.0122,8.0488,0.00,0.00,0.00,2,S01
6920,-9.13627,1.88663,1.26893,-7.3171,32.8049,8.7195,0.00,0.00,0.00,2,S01
6940,-9.20810,1.87705,1.40061,-7.1951,30.7927,9.8171,0.00,0.00,0.00,2,S01
6960,-9.14824,2.01113,1.33836,-6.0366,26.8902,10.1829,0.00,0.00,0.00,2,S01
6980,-8.88488,2.12126,1.43652,-7.9268,22.8049,9.3293,0.00,0.00,0.00,2,S01
7000,-8.59758,2.25773,1.52271,-11.1585,19.8780,7.1341,0.00,0.00,0.00,2,S01
7020,-8.43717,2.48758,1.46046,-13.0488,20.3049,4.6341,0.00,0.00,0.00,2,S01
7040,-8.58800,2.72700,1.60172,-15.4268,22.6829,2.1341,0.00,0.00,0.00,2,S01
7060,-8.68138,2.62165,1.46765,-18.9024,21.4024,0.7317,0.00,0.00,0.00,2,S01
7080,-8.79630,2.31759,1.42455,-21.4634,19.3293,-0.3659,0.00,0.00,0.00,2,S01
7100,-9.13627,2.09493,1.49398,-21.9512,16.8293,-1.3415,0.00,0.00,0.00,2,S01
7120,-9.18176,2.31759,0.95289,-21.5854,13.0488,-1.0366,0.00,0.00,0.00,2,S01
7140,-9.29669,2.43969,1.00317,-24.6341,10.5488,0.6707,0.00,0.00,0.00,2,S01
7160,-9.49301,1.47962,1.65200,-26.2805,6.4634,3.4756,0.00,0.00,0.00,2,S01
7180,-9.42837,0.43814,2.55461,-15.0610,3.9634,5.4268,0.00,0.00,0.00,2,S01
7200,-9.50259,0.33998,2.79164,2.8659,2.3780,6.4024,0.00,0.00,0.00,2,S01
7220,-10.22085,1.63763,2.13323,15.6098,-0.6707,8.7195,0.00,0.00,0.00,2,S01
7240,-11.32697,3.98395,0.63925,17.8659,-1.8902,16.7073,0.00,0.00,0.00,2,S01
7260,-11.78187,4.61841,-0.15323,10.0000,2.8659,30.5488,0.00,0.00,0.00,2,S01
7280,-11.00136,3.11725,-0.06464,4.4512,4.8171,37.2561,0.00,0.00,0.00,2,S01
7300,-10.08438,1.41497,-0.22505,6.2195,1.3415,28.6585,0.00,0.00,0.00,2,S01
7320,-9.21289,1.05105,-0.79248,11.5854,-1.9512,10.7927,0.00,0.00,0.00,2,S01
7340,-8.06128,1.96803,-1.42455,19.0854,-5.6098,-9.8780,0.00,0.00,0.00,2,S01
7360,-8.29351,2.51152,-1.46046,15.0000,-6.1585,-7.7439,0.00,0.00,0.00,2,S01
7380,-8.70771,2.62405,-1.24977,2.3780,-5.8537,-5.1829,0.00,0.00,0.00,2,S01
7400,-9.40921,2.35111,-1.10373,-8.2317,-6.3415,-2.9268,0.00,0.00,0.00,2,S01
7420,-10.00297,1.82438,-0.79727,-16.7073,-8.6585,-3.7195,0.00,0.00,0.00,2,S01
7440,-9.85214,1.26653,-0.56982,-23.1098,-13.0488,-9.2683,0.00,0.00,0.00,2,S01
7460,-9.30147,1.23541,-0.46926,-25.0610,-15.4878,-17.4390,0.00,0.00,0.00,2,S01
7480,-8.95910,1.57538,-0.30646,-26.6463,-14.6951,-22.7439,0.00,0.00,0.00,2,S01
7500,-8.62152,1.53708,-0.06943,-29.1463,-10.8537,-23.5976,0.00,0.00,0.00,2,S01
7520,-8.35576,1.32639,0.04070,-29.8780,-6.2195,-22.3171,0.00,0.00,0.00,2,S01
7540,-8.47787,1.06303,0.36871,-30.1220,-0.6098,-19.4512,0.00,0.00,0.00,2,S01
7560,-8.52575,0.84036,0.60094,-28.9024,3.5366,-15.7317,0.00,0.00,0.00,2,S01
7580,-8.44196,0.50757,0.38547,-26.2195,6.7683,-12.6220,0.00,0.00,0.00,2,S01
7600,-9.02375,0.27773,0.96486,-15.3049,13.1707,-12.1951,0.00,0.00,0.00,2,S01
7620,-9.02375,0.27773,0.96486,-15.3049,13.1707,-12.1951,0.00,0.00,0.00,2,S01
7640,-8.93995,0.38547,0.90022,-8.5366,11.1585,-12.0122,0.00,0.00,0.00,2,S01
7660,-8.62152,0.62249,0.99359,-3.7195,10.2439,-11.4634,0.00,0.00,0.00,2,S01
7680,-8.72926,0.83558,1.28090,-0.8537,11.2805,-11.7683,0.00,0.00,0.00,2,S01
7700,-8.63349,0.92656,1.54187,1.4024,11.8902,-11.9512,0.00,0.00,0.00,2,S01
7720,-8.57364,0.79009,1.86987,1.7683,11.9512,-9.5122,0.00,0.00,0.00,2,S01
7740,-8.74123,0.67277,2.16915,0.9146,10.6707,-5.3049,0.00,0.00,0.00,2,S01
7760,-8.93995,0.48363,2.37984,-0.6707,7.4390,-0.5488,0.00,0.00,0.00,2,S01
7780,-9.36372,0.58179,2.46842,-1.2195,3.1707,3.2927,0.00,0.00,0.00,2,S01
7800,-9.62230,0.74699,1.99916,-4.4512,-1.8902,5.6707,0.00,0.00,0.00,2,S01
7820,-9.76595,0.85712,1.89621,-8.9634,-5.1829,4.3902,0.00,0.00,0.00,2,S01
7840,-10.07241,0.86670,1.74537,-11.7683,-8.6585,-1.8902,0.00,0.00,0.00,2,S01
7860,-11.47062,0.08140,1.37188,-11.6463,-12.9268,-10.4268,0.00,0.00,0.00,2,S01
7880,-13.16811,0.66798,0.62728,-2.9268,-16.5244,-19.8171,0.00,0.00,0.00,2,S01
7900,-12.49294,2.26970,0.69432,-6.3415,-22.6829,-22.4390,0.00,0.00,0.00,2,S01
7920,-10.44590,2.94247,-0.28252,-22.4390,-33.4146,-15.0000,0.00,0.00,0.00,2,S01
7940,-8.78193,2.42293,-1.85790,-31.8293,-34.7561,-4.5122,0.00,0.00,0.00,2,S01
7960,-8.55927,1.30245,-2.09253,-38.7195,-23.4146,-0.6707,0.00,0.00,0.00,2,S01
7980,-9.51216,0.47405,-0.63207,-37.6220,-9.1463,-3.1707,0.00,0.00,0.00,2,S01
8000,-10.13226,0.34477,-0.19393,-20.7927,-3.4756,-5.8537,0.00,0.00,0.00,2,S01
8020,-9.97903,0.51954,-0.21787,-2.8659,-5.0610,-5.9756,0.00,0.00,0.00,2,S01
8040,-9.68215,0.84276,-0.06464,7.4390,-8.5976,-3.4146,0.00,0.00,0.00,2,S01
8060,-9.32781,1.16837,0.05507,15.0000,-11.0976,1.0366,0.00,0.00,0.00,2,S01
8080,-8.77236,1.36948,0.12210,20.0000,-12.0122,5.4878,0.00,0.00,0.00,2,S01
8100,-8.35816,1.42216,-0.05507,23.9024,-11.7683,7.8659,0.00,0.00,0.00,2,S01
8120,-8.19775,1.38385,-0.05507,28.3537,-7.8659,9.2073,0.00,0.00,0.00,2,S01
8140,-8.20253,1.36230,0.09337,31.5854,-3.6585,9.8780,0.00,0.00,0.00,2,S01
8160,-8.41801,1.41258,0.37828,32.9878,-1.5854,9.2683,0.00,0.00,0.00,2,S01
8180,-8.55688,1.51314,0.57221,34.0854,-2.1341,8.1707,0.00,0.00,0.00,2,S01
8200,-8.62152,1.89142,0.42856,34.5732,-4.1463,8.0488,0.00,0.00,0.00,2,S01
8220,-8.69574,2.09014,0.16759,32.8659,-5.6098,9.7561,0.00,0.00,0.00,2,S01
8240,-8.67419,2.11408,0.19872,29.7561,-6.5244,11.5244,0.00,0.00,0.00,2,S01
8260,-8.79869,2.26970,0.49321,25.3659,-7.6220,11.0976,0.00,0.00,0.00,2,S01
8280,-8.97586,2.35111,0.61292,21.4024,-9.6951,9.6341,0.00,0.00,0.00,2,S01
8300,-8.87052,2.15957,0.71347,18.9024,-9.5732,8.2927,0.00,0.00,0.00,2,S01
8320,-8.79151,1.88903,0.94092,17.5610,-5.1829,6.4634,0.00,0.00,0.00,2,S01
8340,-8.76038,1.78368,1.23301,18.4146,-1.0976,3.9024,0.00,0.00,0.00,2,S01
8360,-8.60237,1.68552,1.26893,21.5244,0.5488,2.2561,0.00,0.00,0.00,2,S01
8380,-8.63589,1.67594,1.38624,25.0610,3.9024,1.2195,0.00,0.00,0.00,2,S01
8400,-8.66222,1.87227,1.53947,27.2561,6.2195,-0.2439,0.00,0.00,0.00,2,S01
8420,-8.55927,2.15957,1.53229,28.2317,5.7317,-2.3171,0.00,0.00,0.00,2,S01
8440,-8.36773,2.21942,1.47243,27.4390,5.0000,-5.0000,0.00,0.00,0.00,2,S01
8460,-8.40844,2.03747,1.69270,25.4268,4.3293,-8.4756,0.00,0.00,0.00,2,S01
8480,-8.65025,1.90818,1.89860,24.8171,2.6829,-11.5244,0.00,0.00,0.00,2,S01
8500,-8.86573,2.10450,2.02310,24.8780,0.6707,-12.5610,0.00,0.00,0.00,2,S01
8520,-8.69335,2.69348,1.37427,20.5488,-2.3780,-9.5122,0.00,0.00,0.00,2,S01
8540,-8.86094,3.30400,1.17555,13.2317,-1.4634,-7.8659,0.00,0.00,0.00,2,S01
8560,-9.44513,2.85389,2.18351,6.0366,-0.4878,-5.1829,0.00,0.00,0.00,2,S01
8580,-10.28788,1.87945,3.02867,10.9146,-1.8293,-1.2805,0.00,0.00,0.00,2,S01
8600,-11.25754,1.93212,2.33674,25.0000,-2.4390,5.3049,0.00,0.00,0.00,2,S01
8620,-11.95904,2.59771,1.81480,31.9512,-0.0610,17.4390,0.00,0.00,0.00,2,S01
8640,-11.55202,2.62644,0.83318,35.6707,-1.9512,31.4024,0.00,0.00,0.00,2,S01
8660,-10.16817,2.05183,0.65601,36.2195,-5.4878,37.9268,0.00,0.00,0.00,2,S01
8680,-9.24641,1.49159,-0.03112,37.8049,-10.7927,29.2683,0.00,0.00,0.00,2,S01
8700,-7.94396,1.94649,-1.79805,39.2073,-14.3293,1.0976,0.00,0.00,0.00,2,S01
8720,-7.98945,2.47082,-1.83156,29.5122,-15.5488,-3.4756,0.00,0.00,0.00,2,S01
8740,-7.98945,2.47082,-1.83156,29.5122,-15.5488,-3.4756,0.00,0.00,0.00,2,S01
8760,-8.72926,2.38702,-1.82438,16.8902,-12.3780,-0.7317,0.00,0.00,0.00,2,S01
8780,-9.62469,1.99437,-1.40540,5.6707,-4.5122,2.4390,0.00,0.00,0.00,2,S01
8800,-10.17057,1.46046,-0.50039,-2.6829,0.5488,1.1585,0.00,0.00,0.00,2,S01
8820,-10.53688,1.11570,0.34955,-8.1098,-1.7073,-5.5488,0.00,0.00,0.00,2,S01
8840,-10.23042,1.24259,0.21548,-9.0854,-10.3659,-15.0610,0.00,0.00,0.00,2,S01
8860,-9.42597,1.58017,0.16041,-11.5244,-16.9512,-24.7561,0.00,0.00,0.00,2,S01
8880,-8.75560,1.73101,0.46448,-15.8537,-17.6220,-30.0610,0.00,0.00,0.00,2,S01
8900,-8.49942,1.74777,0.85712,-20.0610,-14.3902,-30.6707,0.00,0.00,0.00,2,S01
8920,-8.28394,1.55144,0.97444,-22.6829,-10.0000,-27.3171,0.00,0.00,0.00,2,S01
8940,-8.05888,1.35991,0.82600,-23.2927,-4.4512,-22.2561,0.00,0.00,0.00,2,S01
8960,-8.14747,1.27611,1.05584,-23.7195,2.5000,-17.5000,0.00,0.00,0.00,2,S01
8980,-8.45153,1.24498,1.20428,-24.5122,7.0122,-13.9024,0.00,0.00,0.00,2,S01
9000,-8.56406,1.24020,1.16598,-23.7805,9.6951,-11.1585,0.00,0.00,0.00,2,S01
9020,-8.63110,1.23541,1.25935,-23.4756,12.0122,-9.5122,0.00,0.00,0.00,2,S01
9040,-8.66222,1.07500,1.23301,-22.8049,14.5122,-8.1707,0.00,0.00,0.00,2,S01
9060,-8.82982,1.00556,1.54905,-21.2805,18.0488,-7.8659,0.00,0.00,0.00,2,S01
9080,-9.05008,1.08457,1.65439,-20.3659,18.5366,-8.1098,0.00,0.00,0.00,2,S01
9100,-9.00699,1.17076,1.69270,-20.7927,17.1341,-8.2317,0.00,0.00,0.00,2,S01
9120,-8.74362,1.12288,1.70707,-20.7927,16.5854,-7.6829,0.00,0.00,0.00,2,S01
9140,-8.54730,1.04387,1.92254,-20.7317,17.3171,-6.4024,0.00,0.00,0.00,2,S01
9160,-8.56406,1.04148,2.06380,-21.5244,18.1707,-4.3293,0.00,0.00,0.00,2,S01
9180,-8.66940,1.11330,2.08774,-22.4390,18.6585,-0.9146,0.00,0.00,0.00,2,S01
9200,-8.81545,1.17795,1.98719,-23.2317,17.1951,2.7439,0.00,0.00,0.00,2,S01
9220,-9.14824,1.25456,2.02789,-23.1707,14.5732,5.4268,0.00,0.00,0.00,2,S01
9240,-9.33739,1.02232,1.97522,-24.3293,11.0976,5.9146,0.00,0.00,0.00,2,S01
9260,-9.51456,0.41180,2.08056,-24.0244,8.7195,2.1951,0.00,0.00,0.00,2,S01
9280,-9.65342,0.46926,2.05901,-22.3171,5.7317,-5.3049,0.00,0.00,0.00,2,S01
9300,-9.41161,0.96247,2.29843,-25.4878,2.1951,-11.3415,0.00,0.00,0.00,2,S01
9320,-8.77475,1.45807,2.43490,-31.8293,-1.9512,-13.1707,0.00,0.00,0.00,2,S01
9340,-8.41562,1.52032,2.35829,-38.9634,-2.1341,-12.0122,0.00,0.00,0.00,2,S01
9360,-9.46428,0.47645,2.03028,-42.5000,2.5610,-10.1220,0.00,0.00,0.00,2,S01
9380,-11.33415,-1.09894,0.97205,-30.4878,6.9512,-11.5244,0.00,0.00,0.00,2,S01
9400,-12.73715,-0.69671,1.07021,-10.6707,8.0488,-20.2439,0.00,0.00,0.00,2,S01
9420,-12.38042,0.80685,0.54827,-4.6341,-1.8293,-30.7317,0.00,0.00,0.00,2,S01
9440,-11.15219,2.11887,-0.15802,-10.4878,-12.4390,-33.4146,0.00,0.00,0.00,2,S01
9460,-9.66060,2.97839,-1.30005,-13.5976,-19.7561,-23.5976,0.00,0.00,0.00,2,S01
9480,-8.28873,1.61369,-2.54504,-19.4512,-18.3537,-5.9146,0.00,0.00,0.00,2,S01
9500,-8.68377,0.39983,-1.63524,-24.6951,-0.1220,2.4390,0.00,0.00,0.00,2,S01
9520,-9.77313,0.18196,-0.00718,-20.2439,13.9024,3.4756,0.00,0.00,0.00,2,S01
9540,-9.99579,0.73981,-0.21308,-10.3049,9.3293,2.8659,0.00,0.00,0.00,2,S01
9560,-9.67497,1.16837,-0.24421,-7.1951,4.2073,5.0610,0.00,0.00,0.00,2,S01
9580,-9.31823,1.19471,-0.02634,-5.8537,2.9268,9.2073,0.00,0.00,0.00,2,S01
9600,-8.71489,1.13725,-0.16520,-2.4390,2.0122,13.7805,0.00,0.00,0.00,2,S01
9620,-8.36534,1.00556,-0.31603,1.2195,3.5366,17.4390,0.00,0.00,0.00,2,S01
9640,-8.29112,1.06063,-0.21787,5.8537,7.8049,19.3902,0.00,0.00,0.00,2,S01
9660,-8.41562,1.29526,-0.05267,8.2317,11.7073,20.1220,0.00,0.00,0.00,2,S01
9680,-8.74123,1.63045,0.08619,7.0732,12.9878,20.0610,0.00,0.00,0.00,2,S01
9700,-9.03332,1.97282,0.23463,3.9024,11.5244,19.9390,0.00,0.00,0.00,2,S01
9720,-8.86094,2.25534,0.47884,-2.8659,6.5244,19.2073,0.00,0.00,0.00,2,S01
9740,-8.60237,2.15239,0.35434,-5.3659,5.6098,17.4390,0.00,0.00,0.00,2,S01
9760,-8.54730,2.00634,0.31603,-7.4390,7.1341,14.5122,0.00,0.00,0.00,2,S01
9780,-8.66222,1.80762,0.30406,-9.1463,10.5488,10.9756,0.00,0.00,0.00,2,S01
9800,-8.88488,1.69749,0.56503,-9.7561,13.9024,7.6220,0.00,0.00,0.00,2,S01
9820,-9.08600,1.59933,0.83797,-9.1463,15.1829,4.4512,0.00,0.00,0.00,2,S01
9840,-9.07642,1.49159,0.95529,-7.1341,13.8415,1.5244,0.00,0.00,0.00,2,S01
9860,-8.83221,1.60172,0.89543,-4.0854,12.4390,-1.0976,0.00,0.00,0.00,2,S01
9880,-8.66462,1.80523,0.88107,-1.8902,12.1341,-3.7195,0.00,0.00,0.00,2,S01
9900,-8.71250,1.90339,0.98641,0.3049,12.0122,-6.3415,0.00,0.00,0.00,2,S01
9920,-8.80827,1.97043,1.15640,3.4756,10.4268,-8.9024,0.00,0.00,0.00,2,S01
9940,-8.98783,2.08774,1.56102,6.0976,7.2561,-10.9756,0.00,0.00,0.00,2,S01
9960,-9.09318,2.24816,1.85790,8.3537,3.0488,-11.8293,0.00,0.00,0.00,2,S01
9980,-8.95910,2.40857,1.58736,11.2195,-0.9146,-11.4024,0.00,0.00,0.00,2,S01
10000,-8.74362,2.44927,1.33836,12.8659,-3.4756,-10.9146,0.00,0.00,0.00,2,S01
10020,-8.63110,2.97839,0.95768,13.2317,-5.5488,-10.4878,0.00,0.00,0.00,2,S01
10040,-8.84179,3.27527,0.56503,6.3415,-7.8049,-7.3780,0.00,0.00,0.00,2,S01
10060,-9.52653,2.60489,1.54905,1.5854,-8.6585,-1.5854,0.00,0.00,0.00,2,S01
10080,-10.09156,1.83396,2.61926,9.0244,-11.0976,5.9146,0.00,0.00,0.00,2,S01
10100,-10.81940,1.94170,1.46046,21.1585,-14.8171,13.5366,0.00,0.00,0.00,2,S01
10120,-11.99734,3.17471,-0.23942,25.7927,-9.3902,21.9512,0.00,0.00,0.00,2,S01
10140,-12.11705,3.07176,-0.60813,22.6220,0.0000,33.1707,0.00,0.00,0.00,2,S01
10160,-11.12586,2.05662,-0.35674,18.6585,-0.1829,38.7805,0.00,0.00,0.00,2,S01
10180,-10.07241,0.82361,-0.23463,19.9390,-3.2927,32.4390,0.00,0.00,0.00,2,S01
10200,-9.07163,0.15562,-0.66319,31.5244,-6.1585,17.8659,0.00,0.00,0.00,2,S01
10220,-8.31506,0.67995,-1.42455,42.5610,-9.2683,4.2683,0.00,0.00,0.00,2,S01
10240,-8.26718,1.90578,-1.68073,39.2683,-9.7561,-1.4024,0.00,0.00,0.00,2,S01
10260,-8.46350,2.56658,-1.84114,23.4146,-9.2683,-1.5244,0.00,0.00,0.00,2,S01
10280,-8.76757,2.09732,-1.68552,2.3171,-4.9390,-0.9756,0.00,0.00,0.00,2,S01
10300,-9.57920,1.18034,-0.68474,-14.8171,0.7927,-3.0488,0.00,0.00,0.00,2,S01
10320,-10.14663,0.57940,-0.16759,-21.4634,-2.0732,-8.8415,0.00,0.00,0.00,2,S01
10340,-9.87129,0.28252,-0.07422,-20.9146,-7.6220,-13.9634,0.00,0.00,0.00,2,S01
10360,-9.33260,0.46926,0.01437,-18.7195,-9.6951,-17.9878,0.00,0.00,0.00,2,S01
10380,-8.89207,0.83558,0.08380,-17.7439,-9.4512,-20.6707,0.00,0.00,0.00,2,S01
10400,-8.76278,1.05345,0.22505,-18.2927,-8.5366,-20.9756,0.00,0.00,0.00,2,S01
10420,-8.79151,1.09654,0.39744,-18.4756,-7.8659,-18.4756,0.00,0.00,0.00,2,S01
10440,-8.73405,0.95050,0.51715,-19.0854,-7.5610,-13.7805,0.00,0.00,0.00,2,S01
10460,-8.65983,0.71826,0.44053,-19.8171,-7.1341,-9.2073,0.00,0.00,0.00,2,S01
10480,-8.64307,0.48123,0.30646,-18.9024,-4.5122,-6.3415,0.00,0.00,0.00,2,S01
10500,-8.72686,0.52912,0.28252,-17.0732,0.3659,-5.8537,0.00,0.00,0.00,2,S01
10520,-8.93995,0.77572,0.40223,-16.4024,5.1220,-6.2195,0.00,0.00,0.00,2,S01
10540,-9.14346,0.87149,0.60334,-16.9512,7.6220,-5.3049,0.00,0.00,0.00,2,S01
10560,-9.22965,0.85952,0.57700,-17.2561,8.0488,-4.2073,0.00,0.00,0.00,2,S01
10580,-9.15303,0.88585,0.65362,-17.8659,9.0854,-4.5122,0.00,0.00,0.00,2,S01
10600,-9.08360,0.97923,0.82839,-19.0854,10.7927,-5.4878,0.00,0.00,0.00,2,S01
10620,-9.04051,1.05105,1.06542,-20.3659,12.1341,-5.7927,0.00,0.00,0.00,2,S01
10640,-8.95910,0.93134,1.25456,-20.6098,11.7073,-5.6098,0.00,0.00,0.00,2,S01
10660,-8.88249,0.79248,1.43892,-19.3902,10.3049,-5.3049,0.00,0.00,0.00,2,S01
10680,-8.68616,0.79487,1.49159,-16.5244,9.1463,-4.6951,0.00,0.00,0.00,2,S01
10700,-8.65025,0.71587,1.70707,-15.4268,9.2683,-3.2317,0.00,0.00,0.00,2,S01
10720,-8.82742,0.70868,2.00874,-13.6585,8.7805,-1.8293,0.00,0.00,0.00,2,S01
10740,-8.84179,0.81163,2.16436,-10.8537,6.4634,-0.6098,0.00,0.00,0.00,2,S01
10760,-8.71729,0.90501,2.08296,-9.2073,4.5122,0.4878,0.00,0.00,0.00,2,S01
10780,-8.76996,1.00796,1.99676,-9.5122,4.1463,2.1951,0.00,0.00,0.00,2,S01
10800,-8.97107,0.84515,1.55863,-10.9756,3.1707,5.3659,0.00,0.00,0.00,2,S01
10820,-9.34936,0.39025,1.74537,-10.5488,1.8293,6.8293,0.00,0.00,0.00,2,S01
10840,-9.53132,1.60890,2.52109,-14.8171,-6.9512,0.6098,0.00,0.00,0.00,2,S01
10860,-9.53132,1.60890,2.52109,-14.8171,-6.9512,0.6098,0.00,0.00,0.00,2,S01
10880,-9.06445,2.03986,2.83234,-24.6951,-9.3293,-3.1707,0.00,0.00,0.00,2,S01
10900,-9.86890,1.29766,2.41814,-32.3171,-12.7439,-6.5854,0.00,0.00,0.00,2,S01
10920,-12.46661,-0.42138,0.40701,-14.1463,-10.1829,-26.5244,0.00,0.00,0.00,2,S01
10940,-12.29423,0.26097,0.15562,-5.7317,-16.4024,-41.8293,0.00,0.00,0.00,2,S01
10960,-11.37485,1.09654,-0.19632,-4.6341,-27.5610,-46.0976,0.00,0.00,0.00,2,S01
10980,-9.78031,1.47483,-0.97205,-5.9756,-37.1341,-37.5000,0.00,0.00,0.00,2,S01
11000,-8.00382,1.24977,-2.01352,-9.2073,-37.9268,-21.5854,0.00,0.00,0.00,2,S01
11020,-7.30232,0.36392,-1.97282,-16.8902,-25.0610,-7.6829,0.00,0.00,0.00,2,S01
11040,-8.12831,-0.31364,-0.86191,-17.3171,-6.7683,-2.2561,0.00,0.00,0.00,2,S01
11060,-9.31105,-0.72305,0.14844,-3.2927,4.2683,-1.8902,0.00,0.00,0.00,2,S01
11080,-10.08438,-0.63207,0.54827,16.9512,4.5122,-4.4512,0.00,0.00,0.00,2,S01
11100,-10.29986,0.07661,0.62249,31.7683,-1.2805,-6.7073,0.00,0.00,0.00,2,S01
11120,-10.08438,0.81642,0.44053,38.0488,-7.9268,-5.8537,0.00,0.00,0.00,2,S01
11140,-9.47864,1.33836,0.23224,41.0366,-10.9756,-2.5000,0.00,0.00,0.00,2,S01
11160,-8.69574,1.53229,0.01197,42.1341,-10.6098,1.4024,0.00,0.00,0.00,2,S01
11180,-8.20732,1.59693,0.21787,40.9756,-6.0976,4.7561,0.00,0.00,0.00,2,S01
11200,-8.18099,1.65679,0.42377,37.6829,-0.7317,7.3171,0.00,0.00,0.00,2,S01
11220,-8.49942,1.49159,0.68235,33.5366,3.9634,10.3049,0.00,0.00,0.00,2,S01
11240,-8.73644,1.30963,1.09415,31.5854,7.0122,12.7439,0.00,0.00,0.00,2,S01
11260,-8.85136,1.31921,1.14443,32.5000,7.8049,13.1098,0.00,0.00,0.00,2,S01
11280,-8.90404,1.29526,1.15879,33.1098,8.3537,11.8902,0.00,0.00,0.00,2,S01
11300,-8.85376,1.39103,1.07739,32.9878,8.5976,10.3049,0.00,0.00,0.00,2,S01
11320,-8.82982,1.45328,1.17076,31.8293,9.3902,8.5366,0.00,0.00,0.00,2,S01
11340,-8.81545,1.51792,1.08697,31.3415,10.2439,6.5854,0.00,0.00,0.00,2,S01
11360,-8.76996,1.47962,1.15640,31.0366,11.6463,4.6341,0.00,0.00,0.00,2,S01
11380,-8.70292,1.40300,1.29287,30.2439,10.9756,2.6220,0.00,0.00,0.00,2,S01
11400,-8.88967,1.58017,1.63763,28.6585,9.0854,0.6707,0.00,0.00,0.00,2,S01
11420,-9.07642,1.68073,1.73101,27.5000,6.5244,-0.4878,0.00,0.00,0.00,2,S01
11440,-8.93037,1.56341,1.72383,28.2317,4.1463,-1.8293,0.00,0.00,0.00,2,S01
11460,-8.78433,1.87705,1.96564,29.3902,2.3171,-4.2683,0.00,0.00,0.00,2,S01
11480,-8.75081,2.19069,2.16196,28.1098,-0.9756,-6.7073,0.00,0.00,0.00,2,S01
11500,-8.59758,2.26491,1.87227,27.3171,-4.4512,-7.9268,0.00,0.00,0.00,2,S01
11520,-8.58082,2.11887,1.84832,27.8659,-4.5122,-8.7195,0.00,0.00,0.00,2,S01
11540,-8.79151,1.92254,1.69270,29.8780,-4.9390,-9.8780,0.00,0.00,0.00,2,S01
11560,-9.14106,2.22900,1.37427,31.9512,-6.3415,-10.4268,0.00,0.00,0.00,2,S01
11580,-9.48343,3.25133,0.96007,29.9390,-7.6220,-8.2317,0.00,0.00,0.00,2,S01
11600,-9.85693,3.43089,1.04627,20.7927,-11.0976,-2.0122,0.00,0.00,0.00,2,S01
11620,-10.14423,2.44687,2.06620,17.3171,-13.8415,6.8293,0.00,0.00,0.00,2,S01
11640,-10.31422,1.33836,1.78368,28.4756,-15.2439,14.2073,0.00,0.00,0.00,2,S01
11660,-10.87925,1.52750,0.86431,41.8293,-9.3902,21.6463,0.00,0.00,0.00,2,S01
11680,-11.05403,2.34871,0.40701,44.8780,-0.7927,33.4756,0.00,0.00,0.00,2,S01
11700,-10.53928,2.43730,0.45969,39.7561,1.5244,46.8902,0.00,0.00,0.00,2,S01
11720,-9.80904,2.13084,0.75896,35.9146,-0.8537,50.3659,0.00,0.00,0.00,2,S01
11740,-9.29190,1.57060,0.28730,40.7317,-1.8902,38.1707,0.00,0.00,0.00,2,S01
11760,-9.02375,1.47004,-0.59855,48.1098,-0.3049,16.0366,0.00,0.00,0.00,2,S01
11780,-8.78433,1.73819,-0.97923,47.4390,1.7683,-3.4146,0.00,0.00,0.00,2,S01
11800,-8.67419,2.33195,-1.16358,36.6463,0.3659,-13.9634,0.00,0.00,0.00,2,S01
11820,-8.78433,2.42054,-1.22344,17.9268,-0.9756,-14.5732,0.00,0.00,0.00,2,S01
11840,-9.06205,1.82917,-0.51715,-0.1220,2.2561,-14.2073,0.00,0.00,0.00,2,S01
11860,-9.56484,1.20668,0.46926,-9.4512,3.6585,-16.2195,0.00,0.00,0.00,2,S01
11880,-9.93833,0.88107,0.74939,-13.7195,-0.3049,-18.6585,0.00,0.00,0.00,2,S01
11900,-9.68694,0.85712,0.55306,-16.4024,-5.0000,-20.6098,0.00,0.00,0.00,2,S01
11920,-8.66701,1.04148,0.49081,-22.3171,-7.7439,-22.9268,0.00,0.00,0.00,2,S01
11940,-8.46350,1.09415,0.64404,-25.3049,-5.1220,-19.8780,0.00,0.00,0.00,2,S01
11960,-8.46350,1.09415,0.64404,-25.3049,-5.1220,-19.8780,0.00,0.00,0.00,2,S01
11980,-8.26718,0.96486,0.69671,-26.4024,-2.8049,-14.5122,0.00,0.00,0.00,2,S01
12000,-8.38449,0.96726,0.51475,-26.2805,-0.4878,-9.2683,0.00,0.00,0.00,2,S01
12020,-8.58800,1.09654,0.35674,-26.7683,3.3537,-4.0854,0.00,0.00,0.00,2,S01
12040,-8.75081,1.22344,0.33998,-29.1463,7.8659,0.1220,0.00,0.00,0.00,2,S01
12060,-8.92080,1.23062,0.47645,-32.1951,10.8537,2.4390,0.00,0.00,0.00,2,S01
12080,-9.02853,1.17555,0.51236,-34.2683,12.6829,2.8659,0.00,0.00,0.00,2,S01
12100,-9.08839,1.09894,0.49560,-35.5488,15.4268,1.2195,0.00,0.00,0.00,2,S01
12120,-9.33499,1.07260,0.89304,-36.7073,20.3049,-3.8415,0.00,0.00,0.00,2,S01
12140,-9.36372,1.04866,1.13725,-35.6707,18.7805,-5.6098,0.00,0.00,0.00,2,S01
12160,-9.18895,1.03190,1.07739,-33.7805,15.4878,-6.2805,0.00,0.00,0.00,2,S01
12180,-8.94713,1.03430,1.19231,-32.2561,14.2073,-6.4634,0.00,0.00,0.00,2,S01
12200,-8.67659,1.02472,1.47722,-31.4024,13.7195,-5.7927,0.00,0.00,0.00,2,S01
12220,-8.55927,1.02232,1.75256,-30.2439,13.6585,-4.5122,0.00,0.00,0.00,2,S01
12240,-8.59758,1.00796,1.87705,-29.5122,14.0854,-2.7439,0.00,0.00,0.00,2,S01
12260,-8.75560,1.11330,2.04704,-29.5732,13.5976,-0.6707,0.00,0.00,0.00,2,S01
12280,-8.81306,1.22823,2.01113,-29.8780,10.8537,2.5000,0.00,0.00,0.00,2,S01
12300,-8.70053,1.07021,1.78607,-30.0610,8.8415,6.1585,0.00,0.00,0.00,2,S01
12320,-8.79630,0.62249,1.67594,-27.8049,8.4146,8.1707,0.00,0.00,0.00,2,S01
12340,-9.16261,0.52433,1.55623,-22.8659,7.3171,7.0732,0.00,0.00,0.00,2,S01
12360,-9.60314,0.68953,1.69509,-19.2683,4.9390,3.1707,0.00,0.00,0.00,2,S01
12380,-9.66060,1.49638,2.39420,-20.7927,0.6098,-0.7317,0.00,0.00,0.00,2,S01
12400,-9.19852,2.40378,2.56419,-28.0488,-3.9024,-1.8902,0.00,0.00,0.00,2,S01
12420,-8.85855,2.58095,2.58095,-37.5000,-2.8049,-1.7073,0.00,0.00,0.00,2,S01
12440,-9.91678,1.69509,1.93930,-43.0488,-0.3659,-3.8415,0.00,0.00,0.00,2,S01
12460,-11.50175,0.04549,0.53151,-37.5000,1.4024,-11.0976,0.00,0.00,0.00,2,S01
12480,-12.32774,-0.33040,0.44293,-26.0366,2.4390,-25.5488,0.00,0.00,0.00,2,S01
12500,-12.24155,0.26815,0.54348,-19.5732,-4.6341,-39.8171,0.00,0.00,0.00,2,S01
12520,-11.22641,1.33596,-0.11971,-17.1341,-15.3049,-42.5000,0.00,0.00,0.00,2,S01
12540,-9.82102,2.25294,-1.15161,-19.3902,-21.8902,-31.0976,0.00,0.00,0.00,2,S01
12560,-7.83622,0.62968,-2.45885,-23.8415,-22.9878,-10.4268,0.00,0.00,0.00,2,S01
12580,-7.53695,-0.44053,-1.75016,-27.9878,-9.8171,2.0732,0.00,0.00,0.00,2,S01
12600,-8.20493,-0.47645,-0.15083,-23.9634,5.3659,5.1829,0.00,0.00,0.00,2,S01
12620,-9.14106,0.04549,0.04070,-13.9634,8.1098,3.3537,0.00,0.00,0.00,2,S01
12640,-9.93115,0.42138,0.15083,-5.9146,5.9756,0.0000,0.00,0.00,0.00,2,S01
12660,-10.04846,0.45250,-0.05986,0.9146,1.4024,-1.5244,0.00,0.00,0.00,2,S01
12680,-9.57681,0.49560,-0.16520,7.6829,-1.5244,-1.8902,0.00,0.00,0.00,2,S01
12700,-9.17698,0.69432,-0.18196,12.7439,-1.0366,-1.2195,0.00,0.00,0.00,2,S01
12720,-8.92798,0.91698,-0.00479,15.7927,-0.0610,1.0366,0.00,0.00,0.00,2,S01
12740,-8.81066,1.13006,0.26336,17.1341,0.7927,4.8171,0.00,0.00,0.00,2,S01
12760,-8.61913,1.19471,0.52672,18.1098,2.5000,9.6341,0.00,0.00,0.00,2,S01
12780,-8.53533,1.24020,0.57221,19.1463,4.6341,13.7805,0.00,0.00,0.00,2,S01
12800,-8.65983,1.27611,0.81163,18.8415,7.0732,16.5854,0.00,0.00,0.00,2,S01
12820,-8.79151,1.17316,1.08936,18.3537,7.6829,17.2561,0.00,0.00,0.00,2,S01
12840,-8.65743,1.22823,0.93613,20.6707,7.0732,15.6707,0.00,0.00,0.00,2,S01
12860,-8.52336,1.36469,0.83558,22.5610,8.1098,13.1098,0.00,0.00,0.00,2,S01
12880,-8.67659,1.39821,0.93853,22.6220,9.4512,10.1220,0.00,0.00,0.00,2,S01
12900,-8.70292,1.41737,0.87628,23.6585,10.1829,7.5610,0.00,0.00,0.00,2,S01
12920,-8.61673,1.51314,0.88107,24.8171,11.7683,5.1220,0.00,0.00,0.00,2,S01
12940,-8.62870,1.55623,1.17555,24.8171,13.3537,2.4390,0.00,0.00,0.00,2,S01
12960,-8.67898,1.57778,1.46046,25.6707,12.6220,-0.2439,0.00,0.00,0.00,2,S01
12980,-8.84897,1.76932,1.78607,30.5488,7.7439,-3.9634,0.00,0.00,0.00,2,S01
13000,-8.84897,1.76932,1.78607,30.5488,7.7439,-3.9634,0.00,0.00,0.00,2,S01
13020,-9.06684,1.88663,1.75016,32.5000,4.9390,-5.4878,0.00,0.00,0.00,2,S01
13040,-9.30387,2.32238,1.43652,33.1707,2.6829,-6.0976,0.00,0.00,0.00,2,S01
13060,-9.39485,3.11007,1.15879,30.0000,-0.3049,-4.5732,0.00,0.00,0.00,2,S01
13080,-9.65342,3.72059,0.57221,23.2317,-5.0610,0.4268,0.00,0.00,0.00,2,S01
13100,-9.81623,3.03824,-0.00239,16.6463,-7.5610,9.4512,0.00,0.00,0.00,2,S01
13120,-10.02452,1.52989,2.32238,17.8659,-5.7927,17.7439,0.00,0.00,0.00,2,S01
13140,-10.31901,0.36152,3.30160,32.5000,-13.4146,22.4390,0.00,0.00,0.00,2,S01
13160,-11.42274,1.43652,1.36469,50.8537,-17.3780,25.0000,0.00,0.00,0.00,2,S01
13180,-12.13860,3.35428,0.10774,52.0122,-8.5366,32.4390,0.00,0.00,0.00,2,S01
13200,-11.41795,3.01909,-0.10534,44.0244,-6.2805,41.8293,0.00,0.00,0.00,2,S01
13220,-10.14902,1.58736,-0.50278,43.5366,-9.8780,39.7561,0.00,0.00,0.00,2,S01
13240,-8.91361,0.12689,-1.29047,52.7439,-9.9390,24.9390,0.00,0.00,0.00,2,S01
13260,-8.14268,0.52433,-2.58574,62.4390,-10.8537,5.1220,0.00,0.00,0.00,2,S01
13280,-8.40844,1.86508,-2.95444,58.2317,-10.7927,-7.9268,0.00,0.00,0.00,2,S01
13300,-9.24641,2.36308,-2.32716,43.9024,-8.6585,-10.5488,0.00,0.00,0.00,2,S01
13320,-9.78510,1.54665,-0.70868,15.2439,-11.5854,-10.3659,0.00,0.00,0.00,2,S01
13340,-9.42837,0.75896,-0.20111,6.8902,-15.3659,-15.1220,0.00,0.00,0.00,2,S01
13360,-9.20331,0.59137,0.01676,3.5976,-17.5000,-23.8415,0.00,0.00,0.00,2,S01
13380,-9.04769,0.97683,0.03591,2.5000,-17.2561,-31.0366,0.00,0.00,0.00,2,S01
13400,-8.80587,1.30245,0.22505,1.1585,-14.8171,-32.5610,0.00,0.00,0.00,2,S01
13420,-8.57842,1.36230,0.26815,-0.9756,-12.3171,-30.0610,0.00,0.00,0.00,2,S01
13440,-8.39407,1.10373,0.39504,-3.5366,-9.0854,-26.3415,0.00,0.00,0.00,2,S01
13460,-8.26239,0.88825,0.43574,-4.3902,-5.9756,-23.4146,0.00,0.00,0.00,2,S01
13480,-8.38928,0.96726,0.51715,-5.2439,-2.7439,-19.7561,0.00,0.00,0.00,2,S01
13500,-8.64307,1.01035,0.48602,-7.1341,-0.3659,-15.0610,0.00,0.00,0.00,2,S01
13520,-8.77475,0.93134,0.65362,-9.3902,1.7073,-11.4024,0.00,0.00,0.00,2,S01
13540,-8.67659,0.76375,0.63686,-9.9390,2.8659,-9.6951,0.00,0.00,0.00,2,S01
13560,-8.68138,0.50518,0.55067,-8.0488,5.9146,-9.5732,0.00,0.00,0.00,2,S01
13580,-8.97826,0.35674,0.70868,-4.7561,10.9756,-10.5488,0.00,0.00,0.00,2,S01
13600,-9.15064,0.49560,0.82361,-2.2561,13.3537,-11.4634,0.00,0.00,0.00,2,S01
13620,-8.96389,0.67277,1.16598,-2.1951,12.3171,-11.3415,0.00,0.00,0.00,2,S01
13640,-8.71011,0.70868,1.28329,-1.5244,9.7561,-10.2439,0.00,0.00,0.00,2,S01
13660,-8.51618,0.61052,1.25217,-0.3049,9.1463,-7.7439,0.00,0.00,0.00,2,S01
13680,-8.57364,0.56743,1.43413,-0.2439,11.5244,-4.3293,0.00,0.00,0.00,2,S01
13700,-8.97826,0.46208,1.63763,-1.0976,13.0488,-0.5488,0.00,0.00,0.00,2,S01
13720,-9.32302,0.47166,1.67834,-1.6463,10.9756,3.1707,0.00,0.00,0.00,2,S01
13740,-9.27993,0.58897,1.48201,-3.4756,6.0366,6.9512,0.00,0.00,0.00,2,S01
13760,-9.25119,0.45490,1.10133,-6.4634,2.1341,10.3049,0.00,0.00,0.00,2,S01
13780,-9.46667,0.39265,0.98881,-7.9268,2.6220,10.6098,0.00,0.00,0.00,2,S01
13800,-9.82102,0.38307,1.34554,-8.5976,3.7195,6.8902,0.00,0.00,0.00,2,S01
13820,-9.79947,0.85234,2.06620,-10.6098,2.4390,0.6707,0.00,0.00,0.00,2,S01
13840,-9.41161,1.40300,2.29604,-18.1707,-1.7683,-5.3659,0.00,0.00,0.00,2,S01
13860,-8.98783,1.50835,2.57377,-28.2317,-3.9634,-8.5976,0.00,0.00,0.00,2,S01
13880,-8.94234,1.01275,2.59053,-35.5488,-5.3049,-7.5610,0.00,0.00,0.00,2,S01
13900,-10.24239,0.13168,2.10929,-36.2805,-5.0000,-5.2439,0.00,0.00,0.00,2,S01
13920,-12.14579,-0.66319,1.05105,-27.0732,-2.6220,-7.1951,0.00,0.00,0.00,2,S01
13940,-12.89517,-0.40701,0.84036,-16.9512,-3.6585,-18.5366,0.00,0.00,0.00,2,S01
13960,-12.07875,0.83558,0.03591,-14.3902,-17.9268,-32.3171,0.00,0.00,0.00,2,S01
13980,-10.33577,2.39899,-0.78290,-20.5488,-32.8659,-37.0122,0.00,0.00,0.00,2,S01
14000,-8.79390,2.60250,-2.04944,-29.5732,-41.1585,-30.3659,0.00,0.00,0.00,2,S01
14020,-8.28873,1.28090,-2.83234,-37.8659,-32.9878,-18.7805,0.00,0.00,0.00,2,S01
14040,-10.27352,0.05507,0.41659,-24.0244,2.5000,-3.9634,0.00,0.00,0.00,2,S01
14060,-10.27352,0.05507,0.41659,-24.0244,2.5000,-3.9634,0.00,0.00,0.00,2,S01
14080,-10.00776,0.53870,0.11492,-8.8415,-3.9024,4.2073,0.00,0.00,0.00,2,S01
14100,-9.36133,0.71347,0.20830,-0.5488,-7.2561,11.5854,0.00,0.00,0.00,2,S01
14120,-8.80109,0.76136,0.16041,7.0122,-7.6829,14.8780,0.00,0.00,0.00,2,S01
14140,-8.35816,0.90740,0.10056,13.3537,-6.1585,15.5488,0.00,0.00,0.00,2,S01
14160,-8.22408,0.94332,-0.08859,17.4390,-4.3902,15.4268,0.00,0.00,0.00,2,S01
14180,-8.30788,1.03669,-0.02873,22.6220,-0.7317,14.9390,0.00,0.00,0.00,2,S01
14200,-8.38689,1.37188,0.07422,26.7073,2.9268,14.2073,0.00,0.00,0.00,2,S01
14220,-8.38210,1.78847,-0.06943,27.0732,4.2683,13.5976,0.00,0.00,0.00,2,S01
14240,-8.43956,2.09253,-0.13647,24.3902,6.3415,13.7195,0.00,0.00,0.00,2,S01
14260,-8.68856,2.24816,0.11013,19.5732,9.6341,14.4512,0.00,0.00,0.00,2,S01
14280,-8.90404,2.13084,0.37828,15.7317,11.5244,15.7927,0.00,0.00,0.00,2,S01
14300,-8.82263,1.86508,0.23942,14.9390,11.8293,16.5244,0.00,0.00,0.00,2,S01
14320,-8.68138,1.60890,0.35195,14.2683,12.7439,15.1829,0.00,0.00,0.00,2,S01
14340,-8.73644,1.38145,0.54588,13.5976,13.6585,11.9512,0.00,0.00,0.00,2,S01
14360,-8.88009,1.20428,0.88585,15.3659,15.2439,8.2927,0.00,0.00,0.00,2,S01
14380,-8.92319,1.23062,0.97205,20.0610,16.4024,5.6707,0.00,0.00,0.00,2,S01
14400,-8.99502,1.47004,1.26414,23.6585,17.2561,4.2683,0.00,0.00,0.00,2,S01
14420,-8.95910,1.66636,1.53468,26.0366,15.1829,3.2317,0.00,0.00,0.00,2,S01
14440,-8.83221,1.85551,1.68073,28.7805,12.0732,1.5854,0.00,0.00,0.00,2,S01
14460,-8.71011,1.82678,1.65439,31.7683,9.3293,-0.6707,0.00,0.00,0.00,2,S01
14480,-8.77714,1.69509,1.80283,34.7561,6.6463,-4.5122,0.00,0.00,0.00,2,S01
14500,-8.92080,1.84354,1.88663,38.2317,2.5000,-8.3537,0.00,0.00,0.00,2,S01
14520,-8.55448,3.51229,-0.16281,33.0488,-2.3171,-8.5976,0.00,0.00,0.00,2,S01
14540,-8.91361,3.70144,-0.40701,16.5854,0.6098,-4.8780,0.00,0.00,0.00,2,S01
14560,-9.84017,2.39420,1.89142,6.3415,-0.5488,-0.4268,0.00,0.00,0.00,2,S01
14580,-10.20888,0.84515,3.44047,15.0610,-7.3171,5.5488,0.00,0.00,0.00,2,S01
14600,-10.58716,0.53630,3.28484,30.0610,-13.0488,11.5854,0.00,0.00,0.00,2,S01
14620,-11.56639,2.23379,1.05824,42.8659,-14.8171,18.3537,0.00,0.00,0.00,2,S01
14640,-12.05241,4.17070,-0.61052,45.1220,-5.4268,31.1585,0.00,0.00,0.00,2,S01
14660,-11.20247,3.47878,-0.77093,40.5488,6.2195,43.7805,0.00,0.00,0.00,2,S01
14680,-9.64624,1.59214,-0.78530,36.4024,6.9512,41.3415,0.00,0.00,0.00,2,S01
14700,-8.59997,0.73263,-1.72622,39.4512,2.9878,23.7195,0.00,0.00,0.00,2,S01
14720,-8.03255,1.82438,-2.94726,42.3780,-1.9512,4.1463,0.00,0.00,0.00,2,S01
14740,-8.66222,2.73897,-2.62883,32.6829,-4.6951,-4.7561,0.00,0.00,0.00,2,S01
14760,-9.56484,2.53067,-1.02951,15.8537,-6.8902,-4.9390,0.00,0.00,0.00,2,S01
14780,-9.74679,1.79326,-0.89064,4.2073,-12.4390,-2.0122,0.00,0.00,0.00,2,S01
14800,-10.14902,1.17316,-0.43096,-6.7073,-12.9878,-4.5732,0.00,0.00,0.00,2,S01
14820,-10.11550,0.88585,-0.22027,-14.6951,-18.5366,-13.9024,0.00,0.00,0.00,2,S01
14840,-9.48343,0.97923,-0.27773,-17.9268,-25.5488,-23.3537,0.00,0.00,0.00,2,S01
14860,-8.97107,1.34554,-0.23703,-19.1463,-25.4878,-27.6829,0.00,0.00,0.00,2,S01
14880,-8.81545,1.46765,0.22266,-21.5244,-20.8537,-27.1341,0.00,0.00,0.00,2,S01
14900,-8.64307,1.09176,0.24421,-23.3537,-19.0244,-24.1463,0.00,0.00,0.00,2,S01
14920,-8.38210,0.79248,-0.00479,-21.5244,-17.0732,-21.6463,0.00,0.00,0.00,2,S01
14940,-8.38928,0.81642,0.22266,-19.8171,-13.5976,-19.6951,0.00,0.00,0.00,2,S01
14960,-8.51139,0.85712,0.55306,-20.6707,-12.1341,-17.2561,0.00,0.00,0.00,2,S01
14980,-8.59279,0.85712,0.49081,-20.6098,-10.7317,-14.0854,0.00,0.00,0.00,2,S01
15000,-8.67659,0.87867,0.53391,-19.0244,-7.5000,-11.5854,0.00,0.00,0.00,2,S01
15020,-8.71011,1.00317,0.66798,-17.1341,-5.0000,-10.0000,0.00,0.00,0.00,2,S01
15040,-8.66222,1.11091,0.67756,-16.2805,-2.2561,-8.5976,0.00,0.00,0.00,2,S01
15060,-8.63349,1.15161,0.79487,-17.3171,2.8049,-7.6220,0.00,0.00,0.00,2,S01
15080,-8.73884,1.11091,1.04866,-19.2683,8.8415,-7.4390,0.00,0.00,0.00,2,S01
15100,-8.82503,0.92177,1.13485,-19.8780,13.5366,-8.4146,0.00,0.00,0.00,2,S01
15120,-8.80827,0.50757,1.52271,-16.6463,19.2073,-11.0976,0.00,0.00,0.00,2,S01
15140,-8.65504,0.34477,1.66636,-13.9024,19.4512,-9.7561,0.00,0.00,0.00,2,S01
15160,-8.65504,0.34477,1.66636,-13.9024,19.4512,-9.7561,0.00,0.00,0.00,2,S01
15180,-8.60237,0.35434,1.73101,-11.0976,19.7561,-6.8902,0.00,0.00,0.00,2,S01
15200,-8.74362,0.35913,1.72143,-8.9634,19.6341,-3.0488,0.00,0.00,0.00,2,S01
15220,-9.03572,0.28491,1.75256,-6.1585,18.2927,1.7683,0.00,0.00,0.00,2,S01
15240,-9.24880,0.47166,1.79326,-2.6829,15.0000,6.5854,0.00,0.00,0.00,2,S01
15260,-9.06445,0.03831,1.37188,0.4268,10.9756,10.2439,0.00,0.00,0.00,2,S01
15280,-9.16500,-0.55785,1.06781,6.2195,10.7927,8.5976,0.00,0.00,0.00,2,S01
15300,-9.73961,0.00718,1.53468,10.0000,12.5610,1.4634,0.00,0.00,0.00,2,S01
15320,-9.98143,1.05824,1.96325,5.3049,8.6585,-4.4512,0.00,0.00,0.00,2,S01
15340,-9.67497,1.66876,2.35829,-3.1707,2.6829,-5.2439,0.00,0.00,0.00,2,S01
15360,-9.37569,1.58017,2.40378,-11.8902,-1.5854,-3.5366,0.00,0.00,0.00,2,S01
15380,-9.97903,1.11570,2.29843,-19.2073,-1.8902,-0.9756,0.00,0.00,0.00,2,S01
15400,-11.10191,0.38068,1.57299,-20.5488,-1.6463,0.6098,0.00,0.00,0.00,2,S01
15420,-11.90637,0.11253,1.06063,-15.1829,-2.3171,-2.8049,0.00,0.00,0.00,2,S01
15440,-11.80102,0.67516,0.50996,-10.2439,-8.1707,-13.2317,0.00,0.00,0.00,2,S01
15460,-11.06839,1.78368,0.08619,-15.1220,-17.3780,-24.6341,0.00,0.00,0.00,2,S01
15480,-10.01734,2.34392,-0.54827,-25.1829,-27.0122,-28.1098,0.00,0.00,0.00,2,S01
15500,-8.90882,2.02310,-1.85551,-30.9146,-32.8659,-23.5366,0.00,0.00,0.00,2,S01
15520,-8.18817,0.70150,-2.56180,-34.7561,-28.7195,-17.1341,0.00,0.00,0.00,2,S01
15540,-8.72686,-0.13886,-1.05584,-34.8780,-15.0000,-15.7927,0.00,0.00,0.00,2,S01
15560,-9.60554,-0.24900,-0.39504,-22.9268,-8.0488,-14.0854,0.00,0.00,0.00,2,S01
15580,-10.01016,0.39504,-0.26336,-6.1585,-7.3780,-9.7561,0.00,0.00,0.00,2,S01
15600,-9.94791,0.83797,0.18435,4.1463,-8.3537,-2.4390,0.00,0.00,0.00,2,S01
15620,-9.55287,0.98162,0.30885,11.6463,-10.3049,4.1463,0.00,0.00,0.00,2,S01
15640,-8.97107,0.93613,0.45250,19.2073,-9.8780,8.4756,0.00,0.00,0.00,2,S01
15660,-8.48266,0.70629,0.45011,25.4878,-9.0854,10.7927,0.00,0.00,0.00,2,S01
15680,-8.33900,0.46687,0.37350,32.8659,-6.6463,11.9512,0.00,0.00,0.00,2,S01
15700,-8.28633,0.68474,0.33519,40.7317,-3.7195,11.8293,0.00,0.00,0.00,2,S01
15720,-8.40604,1.37427,0.33998,47.7439,-3.4756,9.1463,0.00,0.00,0.00,2,S01
15740,-8.78672,1.58496,0.42617,50.4878,-1.4634,7.8049,0.00,0.00,0.00,2,S01
15760,-9.05008,1.75016,0.44532,52.2561,0.4268,7.7439,0.00,0.00,0.00,2,S01
15780,-9.10515,1.77889,0.32801,51.8902,-0.1829,8.6585,0.00,0.00,0.00,2,S01
15800,-8.96389,1.72383,0.57700,49.2073,-1.1585,8.7195,0.00,0.00,0.00,2,S01
15820,-8.78911,1.66397,0.58179,47.7439,0.2439,7.3171,0.00,0.00,0.00,2,S01
15840,-8.66462,1.60890,0.43096,49.3293,5.7317,5.6098,0.00,0.00,0.00,2,S01
15860,-8.76757,1.54665,0.67038,50.3049,11.8902,3.6585,0.00,0.00,0.00,2,S01
15880,-8.97586,1.62806,0.92177,49.9390,15.3049,1.8293,0.00,0.00,0.00,2,S01
15900,-9.29908,1.83396,1.07978,48.9024,16.5244,0.6707,0.00,0.00,0.00,2,S01
15920,-9.35654,1.93930,1.22823,47.6829,15.1220,0.7317,0.00,0.00,0.00,2,S01
15940,-9.26556,1.94409,1.26893,45.9146,11.8293,1.1585,0.00,0.00,0.00,2,S01
15960,-9.04769,1.80762,1.30723,44.5732,9.2073,1.1585,0.00,0.00,0.00,2,S01
15980,-8.91122,1.73340,1.53708,43.6585,7.0732,0.3049,0.00,0.00,0.00,2,S01
16000,-8.83460,1.67594,1.77889,41.8293,3.2927,-1.2805,0.00,0.00,0.00,2,S01
16020,-8.69574,1.54426,1.92494,41.1585,-0.6098,-3.4146,0.00,0.00,0.00,2,S01
16040,-8.42998,1.52750,1.82678,42.7439,-3.2317,-5.9146,0.00,0.00,0.00,2,S01
16060,-8.18338,1.63285,1.69749,43.4756,-4.6341,-7.9268,0.00,0.00,0.00,2,S01
16080,-8.41083,2.07338,1.85072,41.6463,-5.0000,-9.9390,0.00,0.00,0.00,2,S01
16100,-8.62152,2.59771,1.43173,37.2561,-5.6098,-10.3049,0.00,0.00,0.00,2,S01
16120,-8.38689,2.45885,1.09415,30.1220,-4.6951,-10.0000,0.00,0.00,0.00,2,S01
16140,-8.69095,2.17394,1.36709,23.9024,-2.0122,-13.1707,0.00,0.00,0.00,2,S01
16160,-10.09635,2.20267,2.03028,23.9024,1.9512,-14.7561,0.00,0.00,0.00,2,S01
16180,-13.16811,3.39498,0.20111,24.3293,15.2439,10.9146,0.00,0.00,0.00,2,S01
16200,-13.16811,3.39498,0.20111,24.3293,15.2439,10.9146,0.00,0.00,0.00,2,S01
16220,-12.44985,2.49715,0.24181,20.4268,17.8659,32.5000,0.00,0.00,0.00,2,S01
16240,-10.55125,1.29526,-0.25139,21.8902,7.9268,38.9024,0.00,0.00,0.00,2,S01
16260,-9.34457,1.13964,-1.49877,29.6951,0.6098,25.0610,0.00,0.00,0.00,2,S01
16280,-8.42998,1.91057,-2.09493,32.0732,-2.5000,5.0610,0.00,0.00,0.00,2,S01
16300,-7.69018,2.71981,-2.55222,25.8537,-4.5732,-8.9024,0.00,0.00,0.00,2,S01
16320,-7.61835,2.92811,-2.19788,11.7683,-1.2805,-14.3902,0.00,0.00,0.00,2,S01
16340,-8.34619,2.52588,-1.54426,-3.2317,4.3902,-13.1707,0.00,0.00,0.00,2,S01
16360,-9.26077,2.05901,-1.26414,-15.0610,7.6829,-8.5366,0.00,0.00,0.00,2,S01
16380,-9.72285,1.95846,-1.07500,-23.9634,6.9512,-5.7317,0.00,0.00,0.00,2,S01
16400,-9.72046,2.05422,-0.92177,-33.4756,3.4146,-7.6829,0.00,0.00,0.00,2,S01
16420,-9.33499,2.07098,-0.93853,-43.4756,-0.8537,-12.1951,0.00,0.00,0.00,2,S01
16440,-8.95671,2.21224,-1.05584,-53.0488,-2.6829,-15.4878,0.00,0.00,0.00,2,S01
16460,-8.90164,2.28407,-0.86191,-64.6341,-0.3659,-15.0000,0.00,0.00,0.00,2,S01
16480,-8.87770,1.91536,-0.64165,-78.1098,1.4024,-10.4268,0.00,0.00,0.00,2,S01
16500,-8.58321,1.34794,-0.56743,-87.8049,3.7805,-5.0000,0.00,0.00,0.00,2,S01
16520,-8.49942,0.88107,-0.56982,-92.6829,9.3293,-1.7683,0.00,0.00,0.00,2,S01
16540,-8.70532,0.78530,-0.07661,-94.5732,16.4634,-1.0366,0.00,0.00,0.00,2,S01
16560,-8.85615,0.79009,-0.12929,-92.2561,19.9390,-0.9756,0.00,0.00,0.00,2,S01
16580,-9.05966,0.93374,-0.19393,-87.8659,22.8659,-0.8537,0.00,0.00,0.00,2,S01
16600,-9.38527,0.88346,0.11013,-85.9146,25.7317,-0.3049,0.00,0.00,0.00,2,S01
16620,-9.48822,0.62249,0.18914,-82.6829,23.9024,-0.0610,0.00,0.00,0.00,2,S01
16640,-9.57920,0.44772,0.42856,-76.8902,21.3415,-1.5244,0.00,0.00,0.00,2,S01
16660,-9.69173,0.55545,0.51236,-68.2317,18.2927,-4.8171,0.00,0.00,0.00,2,S01
16680,-9.61990,0.57940,0.34237,-59.6951,13.7195,-8.5366,0.00,0.00,0.00,2,S01
16700,-9.35654,0.42856,0.55067,-52.1951,10.4268,-12.0122,0.00,0.00,0.00,2,S01
16720,-9.01896,0.34237,0.99120,-44.2073,8.6585,-14.5732,0.00,0.00,0.00,2,S01
16740,-8.75560,0.47166,1.03908,-35.7927,7.3171,-14.7561,0.00,0.00,0.00,2,S01
16760,-8.58561,0.79727,1.12049,-30.1220,7.3171,-12.9878,0.00,0.00,0.00,2,S01
16780,-8.28154,1.02951,1.20189,-28.2927,6.6463,-9.3293,0.00,0.00,0.00,2,S01
16800,-8.02297,1.12527,1.51314,-30.5488,7.1951,-3.7195,0.00,0.00,0.00,2,S01
16820,-8.21451,1.34315,1.70228,-31.8293,9.2683,2.5610,0.00,0.00,0.00,2,S01
16840,-8.69813,1.43652,1.58736,-34.4512,11.7073,8.8415,0.00,0.00,0.00,2,S01
16860,-9.24880,0.96726,1.43652,-36.7073,13.4756,11.7073,0.00,0.00,0.00,2,S01
16880,-9.68215,0.67756,1.44849,-34.3293,13.0488,8.7805,0.00,0.00,0.00,2,S01
16900,-9.84975,0.38786,1.70707,-32.6220,9.8780,2.9268,0.00,0.00,0.00,2,S01
16920,-9.43794,0.62249,2.72700,-23.9024,-1.8293,-5.3049,0.00,0.00,0.00,2,S01
16940,-10.31422,0.86910,2.26731,-19.2683,-5.3659,-7.0732,0.00,0.00,0.00,2,S01
16960,-11.80581,0.83318,1.11809,-11.2805,-3.8415,-11.5854,0.00,0.00,0.00,2,S01
16980,-12.55998,0.39265,0.74460,-2.0122,-5.9756,-19.1463,0.00,0.00,0.00,2,S01
17000,-12.45464,1.92733,-0.56024,3.2317,-18.4146,-28.9634,0.00,0.00,0.00,2,S01
17020,-11.34133,3.43807,-1.61130,-8.1707,-26.4634,-30.0610,0.00,0.00,0.00,2,S01
17040,-9.51695,3.26330,-2.55701,-21.1585,-31.8293,-21.4024,0.00,0.00,0.00,2,S01
17060,-8.49463,1.53947,-3.58891,-29.7561,-30.4878,-11.2805,0.00,0.00,0.00,2,S01
17080,-8.54730,-0.42138,-2.59531,-34.2073,-10.9756,-4.1463,0.00,0.00,0.00,2,S01
17100,-9.26556,-0.66798,-0.47645,-27.6829,7.0122,-1.0366,0.00,0.00,0.00,2,S01
17120,-9.40203,0.17957,-0.79009,-15.5488,2.2561,1.0366,0.00,0.00,0.00,2,S01
17140,-9.26795,1.13725,-0.94571,-9.6341,-2.1951,4.5122,0.00,0.00,0.00,2,S01
17160,-9.14346,1.52032,-0.49560,-8.2927,-1.4024,7.9878,0.00,0.00,0.00,2,S01
17180,-8.82263,1.40300,-0.31125,-6.4634,-3.4756,8.9634,0.00,0.00,0.00,2,S01
17200,-8.56885,0.93374,-0.31843,-4.2683,-5.3659,8.7195,0.00,0.00,0.00,2,S01
17220,-8.49463,0.69671,-0.17478,-0.7927,-2.9878,10.1220,0.00,0.00,0.00,2,S01
17240,-8.76038,0.89304,-0.26576,3.4756,-1.8902,16.1585,0.00,0.00,0.00,2,S01
17260,-9.05727,1.30484,0.01915,6.1585,0.7317,17.7439,0.00,0.00,0.00,2,S01
17280,-9.05727,1.30484,0.01915,6.1585,0.7317,17.7439,0.00,0.00,0.00,2,S01
17300,-9.09078,1.52989,0.32561,7.9268,0.7927,18.6585,0.00,0.00,0.00,2,S01
17320,-8.99502,1.55863,0.34955,8.7805,-3.1098,18.1098,0.00,0.00,0.00,2,S01
17340,-8.86333,1.51553,0.16041,9.8171,-5.1829,15.6707,0.00,0.00,0.00,2,S01
17360,-8.85376,1.55144,0.01437,12.6829,-2.9878,12.4390,0.00,0.00,0.00,2,S01
17380,-8.88249,1.52989,0.13886,15.9756,0.3049,9.5732,0.00,0.00,0.00,2,S01
17400,-8.88488,1.63763,0.14365,19.0854,0.6098,7.3171,0.00,0.00,0.00,2,S01
17420,-8.77714,1.81720,-0.01676,20.3659,-0.4878,5.9756,0.00,0.00,0.00,2,S01
17440,-8.63349,1.90578,0.06225,19.3293,-0.1829,5.5488,0.00,0.00,0.00,2,S01
17460,-8.66701,1.85311,0.24421,17.6829,2.1951,5.0000,0.00,0.00,0.00,2,S01
17480,-8.68616,1.82438,0.60334,16.7073,5.6707,4.0854,0.00,0.00,0.00,2,S01
17500,-8.56885,1.79086,0.94092,16.4634,7.9878,2.1341,0.00,0.00,0.00,2,S01
17520,-8.53772,1.60890,1.21865,16.5244,9.0854,-1.4024,0.00,0.00,0.00,2,S01
17540,-8.69335,1.48201,1.72622,17.9878,9.3902,-6.0366,0.00,0.00,0.00,2,S01
17560,-8.82742,1.43413,2.11408,20.9146,6.7683,-10.0610,0.00,0.00,0.00,2,S01
17580,-8.86094,1.51792,2.24576,25.6098,1.7073,-12.8659,0.00,0.00,0.00,2,S01
17600,-8.73165,1.87466,2.01352,31.1585,-2.9268,-14.4512,0.00,0.00,0.00,2,S01
17620,-8.59040,2.67432,1.30723,31.8902,-4.5122,-13.9024,0.00,0.00,0.00,2,S01
17640,-8.70053,3.28006,0.76375,25.3659,-2.1341,-10.8537,0.00,0.00,0.00,2,S01
17660,-9.62948,3.03345,1.53229,16.4634,0.2439,-6.4634,0.00,0.00,0.00,2,S01
17680,-10.31662,2.05901,3.07655,16.0366,1.0976,1.4634,0.00,0.00,0.00,2,S01
17700,-10.67096,1.46525,2.90656,27.1951,-1.5854,11.1585,0.00,0.00,0.00,2,S01
17720,-11.22881,2.71742,1.39582,36.9512,-0.9756,20.9146,0.00,0.00,0.00,2,S01
17740,-11.49456,4.22337,0.16999,33.0488,3.9634,34.6951,0.00,0.00,0.00,2,S01
17760,-10.75475,3.65595,-0.43096,22.1951,2.5610,48.5976,0.00,0.00,0.00,2,S01
17780,-9.43794,1.69270,-0.84276,19.5122,-1.0366,51.0976,0.00,0.00,0.00,2,S01
17800,-8.84179,0.55067,-1.89142,24.6951,-4.0244,37.7439,0.00,0.00,0.00,2,S01
17820,-8.65265,1.56581,-3.01909,24.8780,-6.0366,18.7805,0.00,0.00,0.00,2,S01
17840,-8.99023,3.19387,-3.16274,12.7439,-6.3415,8.5366,0.00,0.00,0.00,2,S01
17860,-9.30147,3.04542,-2.62405,-8.1098,-6.2195,7.6220,0.00,0.00,0.00,2,S01
17880,-9.73004,2.14760,-1.83635,-27.0122,-5.1220,7.1341,0.00,0.00,0.00,2,S01
17900,-10.03170,1.41497,-1.13725,-41.2195,-8.4146,1.3415,0.00,0.00,0.00,2,S01
17920,-10.28310,1.16837,-0.84036,-47.8049,-13.3537,-8.1098,0.00,0.00,0.00,2,S01
17940,-10.02692,0.95289,-0.78290,-50.1829,-17.1341,-17.3171,0.00,0.00,0.00,2,S01
17960,-9.18416,1.08218,-0.57461,-52.4390,-20.7317,-24.9390,0.00,0.00,0.00,2,S01
17980,-8.63349,1.20428,-0.07901,-53.8415,-19.4512,-28.9634,0.00,0.00,0.00,2,S01
18000,-8.36055,1.20907,0.11492,-50.9756,-14.9390,-29.5122,0.00,0.00,0.00,2,S01
18020,-8.16423,0.89064,0.36631,-45.5488,-9.5732,-27.9878,0.00,0.00,0.00,2,S01
18040,-8.14507,0.70629,0.55306,-38.9634,-4.2683,-26.0366,0.00,0.00,0.00,2,S01
18060,-8.31985,0.66559,0.71587,-34.3902,1.0976,-23.4146,0.00,0.00,0.00,2,S01
18080,-8.52336,0.76136,1.09894,-31.3415,5.4268,-20.9146,0.00,0.00,0.00,2,S01
18100,-8.40844,0.80206,1.30005,-27.3171,7.2561,-18.5976,0.00,0.00,0.00,2,S01
18120,-8.38689,0.88107,1.45089,-18.5366,12.9268,-14.7561,0.00,0.00,0.00,2,S01
18140,-8.71011,0.82361,1.93691,-16.0976,17.2561,-11.4024,0.00,0.00,0.00,2,S01
18160,-8.71968,0.71347,2.03747,-12.5610,17.4390,-7.6829,0.00,0.00,0.00,2,S01
18180,-8.58800,0.64165,1.93451,-9.6951,16.4634,-5.0000,0.00,0.00,0.00,2,S01
18200,-8.52815,0.67038,1.75974,-8.0488,17.3780,-3.1098,0.00,0.00,0.00,2,S01
18220,-8.62870,0.71587,2.12605,-9.3293,18.1707,-0.9756,0.00,0.00,0.00,2,S01
18240,-8.66222,0.58179,2.21464,-10.1829,15.2439,2.6220,0.00,0.00,0.00,2,S01
18260,-8.81784,0.65601,2.20985,-9.2073,12.6220,7.9878,0.00,0.00,0.00,2,S01
18280,-9.19613,0.46448,2.04465,-9.8171,11.2195,12.8659,0.00,0.00,0.00,2,S01
18300,-10.31662,-0.12689,1.68312,-1.2805,8.9024,3.5366,0.00,0.00,0.00,2,S01
18320,-10.31662,-0.12689,1.68312,-1.2805,8.9024,3.5366,0.00,0.00,0.00,2,S01
18340,-10.20648,0.96007,2.61207,-2.5610,1.2195,-9.5732,0.00,0.00,0.00,2,S01
18360,-9.36612,1.70707,2.58334,-12.6220,-9.3902,-17.8659,0.00,0.00,0.00,2,S01
18380,-9.75158,1.84832,2.66235,-22.1341,-10.8537,-21.5244,0.00,0.00,0.00,2,S01
18400,-11.09234,0.75417,1.35272,-21.9512,-10.4878,-21.3415,0.00,0.00,0.00,2,S01
18420,-11.82496,-0.69671,0.89304,-15.0610,-9.2683,-21.0976,0.00,0.00,0.00,2,S01
18440,-11.94946,-0.80685,-0.18914,-7.6829,-17.7439,-27.0732,0.00,0.00,0.00,2,S01
18460,-11.11149,1.07260,-1.15401,-6.4024,-26.9512,-34.3293,0.00,0.00,0.00,2,S01
18480,-9.97424,1.84114,-1.70707,-10.6707,-33.6585,-33.7805,0.00,0.00,0.00,2,S01
18500,-9.62469,1.27372,-2.29365,-7.0732,-31.2195,-26.1585,0.00,0.00,0.00,2,S01
18520,-10.34295,0.75657,-0.97205,0.3659,-10.9146,-16.3415,0.00,0.00,0.00,2,S01
18540,-10.66856,0.83318,-0.26815,9.6951,-1.9512,-5.5488,0.00,0.00,0.00,2,S01
18560,-10.17296,1.06063,-0.35913,15.4268,-5.4268,4.5122,0.00,0.00,0.00,2,S01
18580,-9.44991,1.34315,-0.22984,16.0976,-6.7683,11.5854,0.00,0.00,0.00,2,S01
18600,-8.85376,1.45567,-0.10295,15.5488,-6.5244,16.0366,0.00,0.00,0.00,2,S01
18620,-8.20732,1.24977,-0.39265,18.5366,-7.3171,18.4756,0.00,0.00,0.00,2,S01
18640,-7.55849,0.99599,-0.64883,23.9024,-3.7195,20.1829,0.00,0.00,0.00,2,S01
18660,-7.50582,1.08218,-0.51715,25.7927,5.1220,19.8780,0.00,0.00,0.00,2,S01
18680,-7.86495,1.21625,-0.31364,23.4146,10.6098,17.7439,0.00,0.00,0.00,2,S01
18700,-8.26000,1.39582,-0.11492,20.9146,11.5854,15.4878,0.00,0.00,0.00,2,S01
18720,-8.50899,1.59933,0.17238,19.5732,10.0000,13.7805,0.00,0.00,0.00,2,S01
18740,-8.66222,1.73819,0.22027,18.6585,6.5854,11.9512,0.00,0.00,0.00,2,S01
18760,-8.89685,1.70467,0.43814,16.6463,6.1585,10.3659,0.00,0.00,0.00,2,S01
18780,-8.94713,1.86987,0.62728,15.0000,6.3415,8.5366,0.00,0.00,0.00,2,S01
18800,-8.81306,1.89621,0.40223,13.9024,7.0732,7.2561,0.00,0.00,0.00,2,S01
18820,-8.82024,1.79565,0.46926,12.9878,11.0976,6.3415,0.00,0.00,0.00,2,S01
18840,-9.01896,1.76692,0.80924,12.0122,15.6707,5.7317,0.00,0.00,0.00,2,S01
18860,-9.19373,1.88903,0.99120,11.5854,17.3780,6.0366,0.00,0.00,0.00,2,S01
18880,-9.15064,1.95846,0.97205,10.9756,16.3415,6.8902,0.00,0.00,0.00,2,S01
18900,-8.97347,2.02310,1.03669,10.3049,14.8171,6.5854,0.00,0.00,0.00,2,S01
18920,-8.85376,2.04704,1.28808,10.1220,13.1098,4.3293,0.00,0.00,0.00,2,S01
18940,-8.65743,1.93930,1.68073,10.2439,10.8537,1.0976,0.00,0.00,0.00,2,S01
18960,-8.64307,1.80044,2.12366,10.7927,9.0854,-1.0366,0.00,0.00,0.00,2,S01
18980,-8.48026,1.66636,1.97282,13.0488,6.0976,-1.5854,0.00,0.00,0.00,2,S01
19000,-8.40844,1.60890,1.90339,15.3049,3.5976,-4.0854,0.00,0.00,0.00,2,S01
19020,-8.45632,2.03268,1.70707,17.6829,1.8902,-8.1707,0.00,0.00,0.00,2,S01
19040,-8.59279,2.65278,1.03908,16.8293,0.9146,-10.1829,0.00,0.00,0.00,2,S01
19060,-8.88249,3.51229,0.68953,11.4024,1.9512,-9.2683,0.00,0.00,0.00,2,S01
19080,-9.42837,3.21541,1.41737,2.5000,1.8902,-5.6098,0.00,0.00,0.00,2,S01
19100,-9.68933,2.28407,2.78206,0.9146,0.3659,-0.2439,0.00,0.00,0.00,2,S01
19120,-10.28310,1.78847,2.55701,7.8049,-1.1585,6.0976,0.00,0.00,0.00,2,S01
19140,-11.55442,2.81079,0.89064,13.8415,2.6829,14.6341,0.00,0.00,0.00,2,S01
19160,-12.35647,4.44603,-0.00479,6.0976,12.1951,30.0000,0.00,0.00,0.00,2,S01
19180,-11.57596,3.56736,-0.37350,-8.9634,11.6463,48.4756,0.00,0.00,0.00,2,S01
19200,-10.00776,1.15401,-0.57221,-8.9024,5.7927,54.0854,0.00,0.00,0.00,2,S01
19220,-9.10994,-0.15083,-1.74298,8.4146,2.1951,40.1220,0.00,0.00,0.00,2,S01
19240,-8.92319,1.15161,-2.41575,14.7561,-0.3049,18.9634,0.00,0.00,0.00,2,S01
19260,-9.26077,2.85389,-2.14520,4.6951,-3.6585,5.9756,0.00,0.00,0.00,2,S01
19280,-9.26556,3.17711,-2.29365,-9.0854,-7.9878,2.3171,0.00,0.00,0.00,2,S01
19300,-9.18416,2.82755,-2.09732,-26.0976,-7.3780,-2.0122,0.00,0.00,0.00,2,S01
19320,-9.55526,1.32399,-0.88107,-52.5610,-8.3537,-20.3049,0.00,0.00,0.00,2,S01
19340,-9.51456,0.90022,-0.47645,-55.7927,-8.8415,-27.7439,0.00,0.00,0.00,2,S01
19360,-9.11473,0.87867,-0.34237,-57.2561,-11.7683,-30.2439,0.00,0.00,0.00,2,S01
19380,-8.64307,1.14922,-0.09816,-55.6098,-7.3171,-26.6463,0.00,0.00,0.00,2,S01
19400,-8.48266,1.16837,0.12210,-54.0854,-3.9024,-23.4146,0.00,0.00,0.00,2,S01
19420,-8.48266,1.16837,0.12210,-54.0854,-3.9024,-23.4146,0.00,0.00,0.00,2,S01
19440,-8.35576,1.00317,0.22984,-53.7195,-1.8293,-19.5122,0.00,0.00,0.00,2,S01
19460,-8.35337,0.68235,0.52194,-51.6463,0.7317,-15.4268,0.00,0.00,0.00,2,S01
19480,-8.40604,0.41180,0.66798,-47.5610,3.3537,-11.5244,0.00,0.00,0.00,2,S01
19500,-8.46590,0.49081,0.68714,-42.3171,5.7317,-8.4756,0.00,0.00,0.00,2,S01
19520,-8.67180,0.82839,0.85952,-38.0488,8.4146,-5.9756,0.00,0.00,0.00,2,S01
19540,-8.99262,1.09894,0.97444,-35.7927,9.8780,-3.7805,0.00,0.00,0.00,2,S01
19560,-9.13388,1.15640,1.20189,-34.3293,10.3659,-2.6829,0.00,0.00,0.00,2,S01
19580,-8.99502,1.10133,1.32878,-33.1098,9.4512,-2.7439,0.00,0.00,0.00,2,S01
19600,-8.75320,1.01754,1.51553,-31.8902,9.5122,-3.4146,0.00,0.00,0.00,2,S01
19620,-8.52575,0.95289,1.77889,-30.5488,9.7561,-2.9878,0.00,0.00,0.00,2,S01
19640,-8.53533,0.93134,1.87227,-29.5122,8.8415,-0.3049,0.00,0.00,0.00,2,S01
19660,-8.68377,1.09654,2.14520,-29.5122,7.1951,4.1463,0.00,0.00,0.00,2,S01
19680,-8.76517,0.94571,2.20985,-29.9390,4.3902,9.2073,0.00,0.00,0.00,2,S01
19700,-8.91122,0.46687,1.92254,-28.2927,2.3780,12.9878,0.00,0.00,0.00,2,S01
19720,-9.17219,-0.40701,0.95289,-20.4878,0.9756,11.9512,0.00,0.00,0.00,2,S01
19740,-9.95030,-0.41180,1.15161,-9.3902,0.3049,3.4756,0.00,0.00,0.00,2,S01
19760,-10.35971,1.33836,3.03345,-9.2073,-5.0610,-7.9878,0.00,0.00,0.00,2,S01
19780,-9.43794,3.02148,3.09091,-17.0122,-17.1341,-13.7195,0.00,0.00,0.00,2,S01
19800,-8.76757,3.08613,3.23696,-28.2927,-18.4146,-15.4268,0.00,0.00,0.00,2,S01
19820,-10.07480,1.32639,2.69587,-37.8659,-12.8049,-14.9390,0.00,0.00,0.00,2,S01
19840,-11.95664,-0.32561,1.04148,-31.5244,-3.1707,-15.7317,0.00,0.00,0.00,2,S01
19860,-12.47858,-0.65362,0.27054,-20.1829,-1.0976,-21.2805,0.00,0.00,0.00,2,S01
19880,-11.46344,0.32801,-0.59855,-9.6951,-12.1341,-30.9146,0.00,0.00,0.00,2,S01
19900,-10.13226,1.42934,-0.92895,-10.7317,-27.9268,-37.8659,0.00,0.00,0.00,2,S01
19920,-8.75320,1.55623,-1.59454,-15.7317,-43.2317,-35.8537,0.00,0.00,0.00,2,S01
19940,-8.77954,1.03190,-1.67834,-16.5854,-37.3780,-30.1220,0.00,0.00,0.00,2,S01
19960,-9.35893,0.48602,-0.75657,-10.2439,-14.7561,-18.1098,0.00,0.00,0.00,2,S01
19980,-9.54329,-0.01437,-0.28012,-1.0366,-3.0488,-5.0610,0.00,0.00,0.00,2,S01
20000,-9.60793,-0.26815,0.09816,7.7439,0.4878,3.2927,0.00,0.00,0.00,2,S01
20020,-9.59117,0.10295,0.02634,14.8171,0.2439,6.8293,0.00,0.00,0.00,2,S01
20040,-9.30866,0.86910,-0.06225,19.0854,-3.5976,7.9878,0.00,0.00,0.00,2,S01
20060,-8.85855,1.63285,0.07901,19.8171,-7.0732,8.9024,0.00,0.00,0.00,2,S01
20080,-8.46829,1.90578,0.28491,17.1951,-7.0732,10.9146,0.00,0.00,0.00,2,S01
20100,-8.24324,1.53708,0.52912,13.8415,-4.0854,14.2073,0.00,0.00,0.00,2,S01
20120,-8.24084,1.01035,0.69432,12.9268,0.9146,16.8902,0.00,0.00,0.00,2,S01
20140,-8.39407,0.80924,0.95050,12.3780,5.7927,17.8659,0.00,0.00,0.00,2,S01
20160,-8.63589,0.79727,1.35991,13.3537,9.3902,17.6829,0.00,0.00,0.00,2,S01
20180,-8.81784,1.07260,1.47722,16.2195,9.8780,15.9146,0.00,0.00,0.00,2,S01
20200,-8.87052,1.41258,1.46286,17.8049,9.0244,14.0854,0.00,0.00,0.00,2,S01
20220,-8.70053,1.70228,1.07500,18.1707,7.6829,13.5366,0.00,0.00,0.00,2,S01
20240,-8.46111,1.68552,1.01275,16.9512,9.6951,13.6585,0.00,0.00,0.00,2,S01
20260,-8.55688,1.70946,1.08457,15.5488,14.1463,12.3171,0.00,0.00,0.00,2,S01
20280,-8.82982,1.76692,1.37906,13.4756,17.8049,10.1220,0.00,0.00,0.00,2,S01
20300,-8.87770,1.77889,1.58017,12.6829,17.9268,7.6829,0.00,0.00,0.00,2,S01
20320,-8.68856,1.70707,1.60412,13.3537,16.5244,5.3049,0.00,0.00,0.00,2,S01
20340,-8.44914,1.60890,1.56341,15.0610,15.8537,2.2561,0.00,0.00,0.00,2,S01
20360,-8.44674,1.73340,1.84354,16.7683,16.1585,-1.3415,0.00,0.00,0.00,2,S01
20380,-8.67180,2.12126,2.10929,17.8049,14.8780,-4.5732,0.00,0.00,0.00,2,S01
20400,-8.76996,2.03028,1.93691,19.3902,11.7073,-6.2805,0.00,0.00,0.00,2,S01
20420,-8.71489,1.93451,1.71425,22.0122,9.3902,-8.1098,0.00,0.00,0.00,2,S01
20440,-9.51695,3.17471,0.88346,11.2195,5.1220,-0.6707,0.00,0.00,0.00,2,S01
20460,-9.51695,3.17471,0.88346,11.2195,5.1220,-0.6707,0.00,0.00,0.00,2,S01
20480,-9.89045,2.13323,3.27766,9.8171,2.4390,6.0976,0.00,0.00,0.00,2,S01
20500,-9.83778,1.51553,3.52187,20.7317,-4.2683,10.3049,0.00,0.00,0.00,2,S01
20520,-10.62786,1.84832,2.28167,31.2195,-6.5854,12.0122,0.00,0.00,0.00,2,S01
20540,-11.95664,3.23696,0.75657,37.8659,1.7073,16.4634,0.00,0.00,0.00,2,S01
20560,-12.03565,3.11486,0.62489,32.7439,10.6707,28.7195,0.00,0.00,0.00,2,S01
20580,-10.91277,1.86508,0.80924,27.1951,9.6341,38.2927,0.00,0.00,0.00,2,S01
20600,-9.53850,0.40462,0.11013,33.4756,7.0732,34.9390,0.00,0.00,0.00,2,S01
20620,-8.57842,0.33040,-1.17795,48.4146,6.7073,19.9390,0.00,0.00,0.00,2,S01
20640,-8.18338,1.19471,-2.28167,54.4512,5.7317,5.0000,0.00,0.00,0.00,2,S01
20660,-8.61194,1.89621,-1.96325,46.2195,6.6463,-2.9268,0.00,0.00,0.00,2,S01
20680,-9.20331,1.82438,-1.31202,31.2195,5.6098,-4.2683,0.00,0.00,0.00,2,S01
20700,-9.38527,1.49398,-1.01514,18.0488,3.5976,-3.2927,0.00,0.00,0.00,2,S01
20720,-9.57681,1.18034,-0.36631,9.0854,1.8902,-6.2805,0.00,0.00,0.00,2,S01
20740,-9.73243,1.03430,-0.12929,3.6585,-4.8171,-11.4634,0.00,0.00,0.00,2,S01
20760,-9.59357,1.00796,-0.27054,-1.3415,-9.9390,-16.4024,0.00,0.00,0.00,2,S01
20780,-9.16979,1.23301,-0.08380,-6.9512,-10.5488,-20.1220,0.00,0.00,0.00,2,S01
20800,-8.96389,1.33836,0.07661,-12.1341,-11.3415,-21.5244,0.00,0.00,0.00,2,S01
20820,-8.83700,1.20428,0.15323,-15.8537,-11.3415,-21.3415,0.00,0.00,0.00,2,S01
20840,-8.43238,0.97205,-0.10295,-16.0976,-9.6341,-20.0000,0.00,0.00,0.00,2,S01
20860,-8.25760,0.68714,0.02634,-16.3415,-5.1829,-18.5366,0.00,0.00,0.00,2,S01
20880,-8.62631,0.60813,0.44293,-17.5610,-2.1341,-16.5854,0.00,0.00,0.00,2,S01
20900,-8.88488,0.66080,0.56743,-17.7439,-0.9146,-13.7195,0.00,0.00,0.00,2,S01
20920,-8.79630,0.71826,0.52672,-17.3780,0.3049,-11.1585,0.00,0.00,0.00,2,S01
20940,-8.76517,0.66559,0.65362,-16.6463,2.5610,-10.2439,0.00,0.00,0.00,2,S01
20960,-8.88488,0.66798,0.67038,-15.2439,5.4268,-11.2195,0.00,0.00,0.00,2,S01
20980,-9.03093,0.66559,0.74460,-14.3293,8.9634,-12.6829,0.00,0.00,0.00,2,S01
21000,-9.12670,0.72305,1.00317,-14.0854,11.8293,-13.7195,0.00,0.00,0.00,2,S01
21020,-9.00220,0.71826,1.16598,-14.1463,11.7683,-14.2073,0.00,0.00,0.00,2,S01
21040,-8.77475,0.79966,1.28569,-14.2073,10.3659,-13.4146,0.00,0.00,0.00,2,S01
21060,-8.56885,0.81403,1.52511,-14.8171,9.5122,-11.3415,0.00,0.00,0.00,2,S01
21080,-8.43238,0.77572,1.70467,-15.0000,9.2683,-8.5366,0.00,0.00,0.00,2,S01
21100,-8.62870,0.78051,1.83875,-15.2439,10.1829,-4.9390,0.00,0.00,0.00,2,S01
21120,-8.83939,0.78530,2.06380,-16.2195,10.0000,-0.7317,0.00,0.00,0.00,2,S01
21140,-8.92080,0.66319,1.96803,-15.9146,6.4024,3.8415,0.00,0.00,0.00,2,S01
21160,-8.89685,0.48363,1.39103,-14.8780,1.2195,7.0732,0.00,0.00,0.00,2,S01
21180,-9.06684,0.70150,1.10133,-15.8537,-0.7927,6.8293,0.00,0.00,0.00,2,S01
21200,-9.51456,0.91937,1.82917,-17.0732,-0.1829,2.3171,0.00,0.00,0.00,2,S01
21220,-9.76595,1.24977,2.66235,-18.2317,-3.9634,-2.0122,0.00,0.00,0.00,2,S01
21240,-10.19451,1.14443,2.77249,-22.1951,-10.0000,-2.4390,0.00,0.00,0.00,2,S01
21260,-12.24395,0.54348,1.58017,-22.4390,-13.7805,-2.8049,0.00,0.00,0.00,2,S01
21280,-13.36204,0.57700,-0.13168,-14.0244,-10.8537,-7.4390,0.00,0.00,0.00,2,S01
21300,-12.54562,0.45011,-0.47645,-13.3537,-11.6463,-16.3415,0.00,0.00,0.00,2,S01
21320,-10.81700,1.28808,-0.68474,-17.4390,-24.0854,-23.5366,0.00,0.00,0.00,2,S01
21340,-9.01896,1.75495,-1.48919,-21.1585,-35.3049,-19.3902,0.00,0.00,0.00,2,S01
21360,-8.69813,0.88107,-2.37265,-21.1585,-29.8171,-10.9146,0.00,0.00,0.00,2,S01
21380,-9.61272,-0.01676,-1.03669,-15.4878,-7.4390,-4.7561,0.00,0.00,0.00,2,S01
21400,-10.15381,-0.17717,0.13647,-4.3902,3.4756,2.3780,0.00,0.00,0.00,2,S01
21420,-9.95509,0.20111,0.27294,7.4390,-0.7927,7.1341,0.00,0.00,0.00,2,S01
21440,-9.54808,0.77812,0.11492,15.6098,-7.6829,10.1829,0.00,0.00,0.00,2,S01
21460,-9.02375,1.18034,0.17478,19.2073,-10.9756,12.1951,0.00,0.00,0.00,2,S01
21480,-8.40844,1.34315,-0.02873,20.1829,-12.1951,12.9268,0.00,0.00,0.00,2,S01
21500,-7.80031,1.06063,-0.05986,24.0244,-4.7561,11.6463,0.00,0.00,0.00,2,S01
21520,-8.02297,1.24498,0.12450,24.5732,0.7927,9.8780,0.00,0.00,0.00,2,S01
21540,-8.02297,1.24498,0.12450,24.5732,0.7927,9.8780,0.00,0.00,0.00,2,S01
21560,-8.38928,1.36469,0.07661,23.5366,3.5976,9.8171,0.00,0.00,0.00,2,S01
21580,-8.63349,1.54426,0.18914,22.8659,5.1829,10.8537,0.00,0.00,0.00,2,S01
21600,-8.69813,1.69749,0.34477,21.7073,6.4634,11.9512,0.00,0.00,0.00,2,S01
21620,-8.82024,1.82917,0.53870,18.7195,5.0000,11.4634,0.00,0.00,0.00,2,S01
21640,-8.84418,1.98719,0.62968,15.5488,2.3780,9.9390,0.00,0.00,0.00,2,S01
21660,-8.65504,2.02789,0.50996,13.1098,2.2561,8.2317,0.00,0.00,0.00,2,S01
21680,-8.65265,1.84354,0.71587,11.6463,5.8537,6.2195,0.00,0.00,0.00,2,S01
21700,-8.85136,1.65200,0.97205,12.1951,9.2073,4.2073,0.00,0.00,0.00,2,S01
21720,-8.93756,1.62806,1.15161,17.1951,11.8293,1.2195,0.00,0.00,0.00,2,S01
21740,-8.74123,1.73819,1.29287,19.5122,11.6463,0.1220,0.00,0.00,0.00,2,S01
21760,-8.72208,1.86748,1.52989,21.0366,9.6951,-1.1585,0.00,0.00,0.00,2,S01
21780,-8.76038,1.96803,1.72861,22.5000,6.5244,-3.2927,0.00,0.00,0.00,2,S01
21800,-8.68138,1.81959,1.84114,24.5732,3.5976,-5.8537,0.00,0.00,0.00,2,S01
21820,-8.69335,1.68552,1.89621,28.3537,1.0976,-8.5976,0.00,0.00,0.00,2,S01
21840,-8.72686,2.01113,1.75256,31.1585,-2.2561,-10.6098,0.00,0.00,0.00,2,S01
21860,-8.75560,3.20823,1.17795,27.7439,-5.4878,-10.6098,0.00,0.00,0.00,2,S01
21880,-8.76517,3.85227,0.21069,16.8902,-5.9146,-7.0732,0.00,0.00,0.00,2,S01
21900,-9.17458,2.77249,1.62566,7.4390,-3.3537,-2.9268,0.00,0.00,0.00,2,S01
21920,-9.62469,1.48919,3.28724,12.8659,-4.9390,0.0000,0.00,0.00,0.00,2,S01
21940,-10.15860,1.04866,3.07655,27.1951,-7.5610,3.4756,0.00,0.00,0.00,2,S01
21960,-11.32218,1.99676,0.97683,36.9512,-7.0732,9.9390,0.00,0.00,0.00,2,S01
21980,-12.42351,3.35188,-0.16759,37.6220,1.8293,23.0488,0.00,0.00,0.00,2,S01
22000,-11.84412,2.67911,-0.52672,35.3049,6.6463,40.1829,0.00,0.00,0.00,2,S01
22020,-9.84496,0.29928,-0.64404,38.2317,2.6829,47.9878,0.00,0.00,0.00,2,S01
22040,-8.80587,-0.60094,-1.06781,52.5000,-0.7927,35.9756,0.00,0.00,0.00,2,S01
22060,-8.91361,1.31442,-2.06620,60.9146,-5.4878,15.7317,0.00,0.00,0.00,2,S01
22080,-9.46428,3.40216,-2.70305,49.8171,-9.3902,3.9024,0.00,0.00,0.00,2,S01
22100,-9.73961,3.84748,-2.34871,28.3537,-7.7439,-1.2805,0.00,0.00,0.00,2,S01
22120,-9.59835,3.11246,-1.33836,3.2927,-5.6098,-8.7195,0.00,0.00,0.00,2,S01
22140,-9.75398,1.75495,-0.24900,-16.8293,-5.7317,-18.1707,0.00,0.00,0.00,2,S01
22160,-9.60554,0.72305,-0.17717,-23.4756,-11.8293,-28.7805,0.00,0.00,0.00,2,S01
22180,-8.87291,0.29928,-0.24181,-21.2195,-15.1829,-34.7561,0.00,0.00,0.00,2,S01
22200,-8.52575,0.55067,0.11971,-19.9390,-12.7439,-36.0976,0.00,0.00,0.00,2,S01
22220,-8.46111,1.07500,0.12929,-18.8415,-9.4512,-32.9878,0.00,0.00,0.00,2,S01
22240,-8.37252,1.31442,0.28252,-19.0854,-6.5854,-26.9512,0.00,0.00,0.00,2,S01
22260,-8.37971,1.24259,0.38547,-18.9024,-5.0610,-20.1220,0.00,0.00,0.00,2,S01
22280,-8.41801,1.06303,0.50039,-18.3537,-3.9634,-13.9634,0.00,0.00,0.00,2,S01
22300,-8.46111,0.84755,0.57700,-20.0000,-1.7073,-8.4756,0.00,0.00,0.00,2,S01
22320,-8.65025,0.77093,0.62010,-21.7683,1.8293,-5.2439,0.00,0.00,0.00,2,S01
22340,-8.84179,0.75657,0.66080,-21.5854,5.6098,-4.4512,0.00,0.00,0.00,2,S01
22360,-8.99023,0.77572,0.82361,-19.4512,8.0488,-5.0000,0.00,0.00,0.00,2,S01
22380,-9.14106,0.85234,1.00796,-17.2561,8.0488,-5.7317,0.00,0.00,0.00,2,S01
22400,-9.17219,1.01514,0.96726,-16.7683,6.6463,-5.6707,0.00,0.00,0.00,2,S01
22420,-9.02614,1.11809,1.10133,-19.0854,6.2195,-5.3049,0.00,0.00,0.00,2,S01
22440,-8.75799,1.12767,1.31202,-21.6463,5.6098,-5.0610,0.00,0.00,0.00,2,S01
22460,-8.56885,1.02951,1.72622,-22.9268,5.9756,-4.2073,0.00,0.00,0.00,2,S01
22480,-8.44674,0.95289,1.98000,-22.4390,6.2805,-1.7073,0.00,0.00,0.00,2,S01
22500,-8.43956,0.85952,1.94888,-21.5244,6.5854,1.8902,0.00,0.00,0.00,2,S01
22520,-8.66222,0.89064,1.88184,-20.4268,7.6829,5.0000,0.00,0.00,0.00,2,S01
22540,-8.99023,0.67277,1.73340,-19.3293,7.9878,7.3171,0.00,0.00,0.00,2,S01
22560,-9.16261,0.07901,1.37906,-15.1220,6.8293,8.5976,0.00,0.00,0.00,2,S01
22580,-9.74440,0.00958,1.54665,-0.7317,4.2073,1.1585,0.00,0.00,0.00,2,S01
22600,-9.80665,1.24738,2.26013,-5.3049,1.7073,-4.4512,0.00,0.00,0.00,2,S01
22620,-9.80665,1.24738,2.26013,-5.3049,1.7073,-4.4512,0.00,0.00,0.00,2,S01
22640,-9.16740,2.18351,2.47560,-15.8537,-2.6829,-7.7439,0.00,0.00,0.00,2,S01
22660,-8.92798,1.99437,2.68151,-27.0732,-5.7317,-8.5366,0.00,0.00,0.00,2,S01
22680,-10.16578,0.81403,2.31280,-31.2805,-7.3780,-7.2561,0.00,0.00,0.00,2,S01
22700,-11.97819,-0.70629,0.87149,-20.7927,-6.6463,-6.8902,0.00,0.00,0.00,2,S01
22720,-12.81616,-0.30406,0.58658,-4.9390,-2.8049,-13.7195,0.00,0.00,0.00,2,S01
22740,-12.10987,1.02711,0.13647,-3.1098,-10.3659,-24.6341,0.00,0.00,0.00,2,S01
22760,-10.72363,2.22661,-0.73263,-8.8415,-23.5976,-28.2317,0.00,0.00,0.00,2,S01
22780,-8.99502,2.54504,-1.87227,-13.3537,-34.1463,-20.7927,0.00,0.00,0.00,2,S01
22800,-7.73327,0.97683,-2.53785,-20.4268,-32.2561,-9.4512,0.00,0.00,0.00,2,S01
22820,-8.63349,-0.07661,-0.70150,-21.4634,-12.1341,-5.6707,0.00,0.00,0.00,2,S01
22840,-9.87608,-0.12450,0.38547,-7.9268,-0.1829,-4.3902,0.00,0.00,0.00,2,S01
22860,-10.12987,0.59616,0.42138,9.4512,-1.7683,-1.3415,0.00,0.00,0.00,2,S01
22880,-9.88087,1.14682,0.47405,17.8659,-6.2195,4.5732,0.00,0.00,0.00,2,S01
22900,-8.65983,1.64721,0.31843,21.5854,-13.3537,11.6463,0.00,0.00,0.00,2,S01
22920,-8.18578,1.56102,-0.17238,21.2195,-12.3780,13.5366,0.00,0.00,0.00,2,S01
22940,-8.09480,1.31442,0.04070,22.3171,-6.4634,14.3293,0.00,0.00,0.00,2,S01
22960,-8.28873,1.26653,0.34716,23.3537,-1.6463,13.5366,0.00,0.00,0.00,2,S01
22980,-8.57364,1.47722,0.70629,22.9268,1.2805,12.6220,0.00,0.00,0.00,2,S01
23000,-8.75799,1.54426,0.87388,22.4390,1.2805,12.0122,0.00,0.00,0.00,2,S01
23020,-8.69095,1.60172,0.75657,23.5366,-0.4268,11.4634,0.00,0.00,0.00,2,S01
23040,-8.55927,1.75016,0.81163,23.2927,0.3049,10.9146,0.00,0.00,0.00,2,S01
23060,-8.56885,1.89142,0.92177,21.0366,1.9512,9.9390,0.00,0.00,0.00,2,S01
23080,-8.66940,1.92254,1.01514,18.9634,4.5732,8.9634,0.00,0.00,0.00,2,S01
23100,-8.76038,1.82438,1.08936,17.9878,7.3780,7.7439,0.00,0.00,0.00,2,S01
23120,-8.83221,1.83875,1.12288,17.5000,9.0854,6.3415,0.00,0.00,0.00,2,S01
23140,-8.92798,1.78607,1.33357,16.2195,9.9390,4.9390,0.00,0.00,0.00,2,S01
23160,-8.86573,1.75734,1.41497,16.0976,10.0610,3.1707,0.00,0.00,0.00,2,S01
23180,-8.68138,1.83396,1.39103,17.3171,10.6098,1.0976,0.00,0.00,0.00,2,S01
23200,-8.53294,1.93451,1.45807,18.5976,11.1585,-0.5488,0.00,0.00,0.00,2,S01
23220,-8.55927,2.03268,1.59214,18.9024,12.0732,-2.3171,0.00,0.00,0.00,2,S01
23240,-8.65025,2.18591,1.83156,19.1463,13.1707,-4.6951,0.00,0.00,0.00,2,S01
23260,-8.82982,2.29125,1.90339,19.3902,11.8902,-7.0732,0.00,0.00,0.00,2,S01
23280,-8.93995,2.41336,1.63763,18.7805,8.7805,-8.0488,0.00,0.00,0.00,2,S01
23300,-8.79630,2.69108,1.26893,16.2195,6.1585,-6.8902,0.00,0.00,0.00,2,S01
23320,-8.69335,3.40455,0.54588,9.7561,5.1220,-3.7195,0.00,0.00,0.00,2,S01
23340,-8.99741,3.62961,0.75417,-2.0732,6.0366,1.7683,0.00,0.00,0.00,2,S01
23360,-9.45710,2.74854,2.12366,-9.2683,3.6585,7.8049,0.00,0.00,0.00,2,S01
23380,-9.61990,1.40300,3.38301,-0.9146,0.0000,11.7683,0.00,0.00,0.00,2,S01
23400,-9.39724,0.42377,3.65595,12.4390,-2.6220,11.7073,0.00,0.00,0.00,2,S01
23420,-9.40442,0.80924,3.25851,27.0732,-4.0854,7.6220,0.00,0.00,0.00,2,S01
23440,-10.41478,1.94409,1.80523,39.0854,-4.6951,6.2195,0.00,0.00,0.00,2,S01
23460,-11.36288,3.24654,0.31843,42.9268,-0.0610,13.5976,0.00,0.00,0.00,2,S01
23480,-11.60230,3.18429,0.19632,38.9024,4.8171,26.5244,0.00,0.00,0.00,2,S01
23500,-10.68293,2.02549,-0.38547,36.0976,0.8537,36.3415,0.00,0.00,0.00,2,S01
23520,-9.28471,0.32082,-1.10373,40.9146,-0.6707,35.5488,0.00,0.00,0.00,2,S01
23540,-8.48744,0.39744,-1.76932,51.6463,-0.6707,21.4024,0.00,0.00,0.00,2,S01
23560,-8.93995,1.90339,-2.15478,53.2927,-3.8415,6.0366,0.00,0.00,0.00,2,S01
23580,-9.68933,2.87304,-1.54426,41.0366,-5.7317,-0.2439,0.00,0.00,0.00,2,S01
23600,-9.71567,2.91135,-1.36709,27.6220,-7.0732,-2.6220,0.00,0.00,0.00,2,S01
23620,-9.60075,2.40617,-0.91219,15.9146,-6.3415,-8.8415,0.00,0.00,0.00,2,S01
23640,-9.85932,1.63285,-0.21548,7.2561,-9.2073,-17.4390,0.00,0.00,0.00,2,S01
23660,-9.11951,0.85952,-0.21069,2.6220,-18.2927,-33.4146,0.00,0.00,0.00,2,S01
23680,-8.76757,1.11330,-0.21548,2.6829,-16.5244,-36.7073,0.00,0.00,0.00,2,S01
23700,-8.76757,1.11330,-0.21548,2.6829,-16.5244,-36.7073,0.00,0.00,0.00,2,S01
23720,-8.61194,1.26174,0.13408,2.1341,-12.0122,-35.4878,0.00,0.00,0.00,2,S01
23740,-8.41083,1.18513,0.36392,3.9024,-8.7805,-32.7439,0.00,0.00,0.00,2,S01
23760,-8.23845,1.08457,0.47405,5.7927,-6.8293,-29.7561,0.00,0.00,0.00,2,S01
23780,-8.35816,1.05345,0.57461,6.0976,-3.7805,-26.0366,0.00,0.00,0.00,2,S01
23800,-8.51139,0.94571,0.57700,5.0000,-0.4878,-21.2195,0.00,0.00,0.00,2,S01
23820,-8.65265,0.87388,0.68953,2.6829,3.3537,-17.1951,0.00,0.00,0.00,2,S01
23840,-8.79151,0.95768,0.78530,1.2195,5.9756,-14.6341,0.00,0.00,0.00,2,S01
23860,-8.83939,0.90261,0.91219,0.4878,7.2561,-12.4390,0.00,0.00,0.00,2,S01
23880,-8.88488,0.81882,1.04387,0.1829,8.0488,-10.7927,0.00,0.00,0.00,2,S01
23900,-8.93516,0.65841,1.37188,0.2439,8.9024,-9.9390,0.00,0.00,0.00,2,S01
23920,-8.84897,0.60813,1.53229,1.1585,7.8659,-9.8171,0.00,0.00,0.00,2,S01
23940,-8.65025,0.58897,1.75256,1.5854,7.0732,-9.1463,0.00,0.00,0.00,2,S01
23960,-8.61913,0.64883,2.14042,1.1585,6.3415,-7.0732,0.00,0.00,0.00,2,S01
23980,-8.52336,0.66319,2.26491,0.6098,3.9024,-2.7439,0.00,0.00,0.00,2,S01
24000,-8.37492,0.67516,2.01113,0.8537,2.2561,2.6829,0.00,0.00,0.00,2,S01
24020,-8.59040,0.32322,1.83156,1.5244,4.0244,6.7683,0.00,0.00,0.00,2,S01
24040,-9.37091,-0.38307,1.58496,5.3049,5.1829,6.7073,0.00,0.00,0.00,2,S01
24060,-10.15381,0.10056,1.62566,8.1098,3.7195,1.7073,0.00,0.00,0.00,2,S01
24080,-10.08198,0.82361,1.78607,3.2317,-2.5000,-3.2927,0.00,0.00,0.00,2,S01
24100,-9.59596,1.07500,1.91057,-3.4146,-9.0854,-6.3415,0.00,0.00,0.00,2,S01
24120,-12.19606,0.33040,0.48123,-6.9512,-17.7439,-12.5000,0.00,0.00,0.00,2,S01
24140,-12.46421,1.06303,0.82600,-1.8293,-16.5244,-18.5976,0.00,0.00,0.00,2,S01
24160,-11.58794,1.50116,0.68714,-7.9268,-24.2073,-23.4146,0.00,0.00,0.00,2,S01
24180,-10.35732,2.01831,-0.68474,-14.2683,-33.1098,-23.7195,0.00,0.00,0.00,2,S01
24200,-9.48822,2.05183,-1.52032,-21.0366,-31.0366,-19.0854,0.00,0.00,0.00,2,S01
24220,-9.13388,1.35512,-1.61130,-25.6098,-22.6220,-12.3780,0.00,0.00,0.00,2,S01
24240,-9.24641,0.64165,-0.74939,-20.1220,-13.5366,-8.4146,0.00,0.00,0.00,2,S01
24260,-9.28232,0.34955,-0.37110,-6.0976,-10.2439,-7.9878,0.00,0.00,0.00,2,S01
24280,-9.27035,0.44053,-0.09098,7.1341,-8.0488,-7.8049,0.00,0.00,0.00,2,S01
24300,-9.15543,0.96726,0.10534,15.3049,-7.0122,-6.2195,0.00,0.00,0.00,2,S01
24320,-8.93277,1.48680,0.25379,17.6220,-7.2561,-2.1341,0.00,0.00,0.00,2,S01
24340,-8.62870,1.51314,-0.03831,18.9024,-7.0122,2.6829,0.00,0.00,0.00,2,S01
24360,-8.32943,1.36469,-0.23703,23.1098,-2.9268,6.2805,0.00,0.00,0.00,2,S01
24380,-8.25281,1.34315,-0.02155,25.7927,2.7439,7.8049,0.00,0.00,0.00,2,S01
24400,-8.40604,1.43892,0.41420,25.0610,5.9756,8.0488,0.00,0.00,0.00,2,S01
24420,-8.54012,1.52750,0.55545,23.5976,6.4634,8.1098,0.00,0.00,0.00,2,S01
24440,-8.71011,1.68791,0.67995,22.7439,7.0122,8.5366,0.00,0.00,0.00,2,S01
24460,-8.90404,1.79326,0.87388,21.4634,7.0122,9.8780,0.00,0.00,0.00,2,S01
24480,-8.95192,1.60172,0.88346,20.5488,5.4878,11.7683,0.00,0.00,0.00,2,S01
24500,-8.88249,1.33118,0.88346,21.6463,5.3659,12.3171,0.00,0.00,0.00,2,S01
24520,-8.78193,1.23541,0.80685,23.2927,6.0366,9.9390,0.00,0.00,0.00,2,S01
24540,-8.79151,1.45328,0.76854,23.8415,7.3171,6.4634,0.00,0.00,0.00,2,S01
24560,-8.96629,1.66876,0.97683,22.8049,8.1707,4.2073,0.00,0.00,0.00,2,S01
24580,-8.96629,1.72861,1.01035,22.6829,7.7439,3.4756,0.00,0.00,0.00,2,S01
24600,-8.85855,1.66876,1.09654,23.4146,7.6220,3.1707,0.00,0.00,0.00,2,S01
24620,-8.91840,1.68552,1.21386,23.7805,7.3780,2.3171,0.00,0.00,0.00,2,S01
24640,-8.95431,1.82678,1.22583,23.7195,6.9512,1.7683,0.00,0.00,0.00,2,S01
24660,-8.89685,1.72861,1.34075,23.3537,7.3780,1.5244,0.00,0.00,0.00,2,S01
24680,-8.82263,1.65679,1.47483,24.4512,7.1951,0.4878,0.00,0.00,0.00,2,S01
24700,-8.85855,1.85072,1.78368,24.8780,5.9756,-1.5854,0.00,0.00,0.00,2,S01
24720,-8.94474,2.32477,1.97522,22.9878,3.2317,-4.0244,0.00,0.00,0.00,2,S01
24740,-8.59997,2.46363,1.73819,17.7439,0.1829,-6.7683,0.00,0.00,0.00,2,S01
24760,-8.63110,2.27210,1.49398,16.9512,0.1829,-7.3780,0.00,0.00,0.00,2,S01
24780,-8.63110,2.27210,1.49398,16.9512,0.1829,-7.3780,0.00,0.00,0.00,2,S01
24800,-8.61194,2.43011,0.99838,15.6098,0.3049,-6.7073,0.00,0.00,0.00,2,S01
24820,-8.81784,3.16753,0.75417,7.8049,0.0000,-4.3293,0.00,0.00,0.00,2,S01
24840,-9.21049,2.74615,1.59454,-3.4146,-1.7683,0.8537,0.00,0.00,0.00,2,S01
24860,-9.39006,1.77410,3.04542,-3.0488,-2.3780,6.3415,0.00,0.00,0.00,2,S01
24880,-9.42118,1.02951,3.39498,7.6829,-2.3171,9.5122,0.00,0.00,0.00,2,S01
24900,-9.85932,1.33118,3.12204,19.6951,-0.9756,10.0000,0.00,0.00,0.00,2,S01
24920,-11.10910,2.54504,1.41258,27.2561,0.0610,13.8415,0.00,0.00,0.00,2,S01
24940,-12.07635,3.98156,0.32561,26.2195,8.9024,26.2805,0.00,0.00,0.00,2,S01
24960,-11.43231,3.36625,0.08619,18.3537,11.7683,40.7927,0.00,0.00,0.00,2,S01
24980,-9.97424,1.50116,-0.39744,16.2195,3.9634,42.1951,0.00,0.00,0.00,2,S01
25000,-9.11233,0.50518,-1.21865,26.0976,0.4878,27.1341,0.00,0.00,0.00,2,S01
25020,-8.68616,1.29047,-1.99437,34.3902,-1.3415,8.3537,0.00,0.00,0.00,2,S01
25040,-8.70292,2.44927,-1.88184,30.5488,-4.4512,-1.2195,0.00,0.00,0.00,2,S01
25060,-8.90882,2.85868,-1.45567,19.1463,-6.5854,-1.5244,0.00,0.00,0.00,2,S01
25080,-9.21768,2.64559,-1.38864,7.1341,-6.2195,-0.1220,0.00,0.00,0.00,2,S01
25100,-9.52413,2.62644,-0.99359,-3.9024,-4.4512,-4.5732,0.00,0.00,0.00,2,S01
25120,-9.60314,2.30322,-0.55785,-13.7195,-7.4390,-11.9512,0.00,0.00,0.00,2,S01
25140,-9.44034,1.66636,-0.42377,-21.5244,-11.4634,-18.5976,0.00,0.00,0.00,2,S01
25160,-9.17219,1.30005,-0.21787,-25.9146,-11.9512,-25.0610,0.00,0.00,0.00,2,S01
25180,-8.96868,1.45567,0.21069,-28.9634,-10.7927,-28.5976,0.00,0.00,0.00,2,S01
25200,-8.71489,1.54187,0.32322,-30.2439,-9.9390,-27.4390,0.00,0.00,0.00,2,S01
25220,-8.46350,1.43413,0.21069,-29.1463,-7.6220,-24.8171,0.00,0.00,0.00,2,S01
25240,-8.44196,1.17076,0.51954,-29.8171,-4.0244,-22.1341,0.00,0.00,0.00,2,S01
25260,-8.47308,1.05345,0.67277,-30.6707,-2.5610,-18.4756,0.00,0.00,0.00,2,S01
25280,-8.47547,1.04866,0.65362,-30.6707,-1.7073,-13.9024,0.00,0.00,0.00,2,S01
25300,-8.42520,1.08697,0.67277,-28.5976,6.3415,-7.1951,0.00,0.00,0.00,2,S01
25320,-8.76278,1.00796,0.93374,-28.5366,11.0976,-4.7561,0.00,0.00,0.00,2,S01
25340,-8.94474,0.93374,1.16837,-27.5000,13.6585,-4.0244,0.00,0.00,0.00,2,S01
25360,-8.92319,0.91937,1.42934,-25.3049,14.2073,-5.4878,0.00,0.00,0.00,2,S01
25380,-8.78193,1.07978,1.47722,-23.6585,13.2927,-6.9512,0.00,0.00,0.00,2,S01
25400,-8.58082,1.13246,1.66636,-23.9634,13.7195,-6.8293,0.00,0.00,0.00,2,S01
25420,-8.50660,1.04148,1.92494,-24.5122,14.3902,-5.6098,0.00,0.00,0.00,2,S01
25440,-8.62870,1.09654,2.23140,-24.3902,14.4512,-2.6829,0.00,0.00,0.00,2,S01
25460,-8.77954,1.07978,2.43251,-25.3659,12.8659,1.5854,0.00,0.00,0.00,2,S01
25480,-8.77954,0.98881,2.27449,-26.7073,9.8780,5.8537,0.00,0.00,0.00,2,S01
25500,-8.77236,0.41420,1.85790,-26.4634,8.2927,8.6585,0.00,0.00,0.00,2,S01
25520,-9.21768,-0.05986,1.56581,-21.6463,9.5122,6.6463,0.00,0.00,0.00,2,S01
25540,-9.83778,0.02634,1.64721,-18.5976,8.8415,-0.6707,0.00,0.00,0.00,2,S01
25560,-9.95509,0.42617,2.31998,-19.3902,3.5976,-7.8659,0.00,0.00,0.00,2,S01
25580,-9.48822,0.83558,2.73418,-21.2805,-3.0488,-11.4024,0.00,0.00,0.00,2,S01
25600,-9.73482,1.10373,2.67672,-23.1707,-7.8049,-12.1951,0.00,0.00,0.00,2,S01
25620,-11.32218,0.62010,1.56341,-20.6098,-11.3415,-13.2317,0.00,0.00,0.00,2,S01
25640,-12.55041,0.36631,0.94810,-9.2073,-10.0000,-19.3902,0.00,0.00,0.00,2,S01
25660,-12.50252,1.33836,0.36392,-3.6585,-13.4756,-29.0244,0.00,0.00,0.00,2,S01
25680,-11.51611,2.52588,-0.34955,-11.7683,-20.4878,-32.3780,0.00,0.00,0.00,2,S01
25700,-10.07480,2.90177,-1.41976,-19.5732,-27.8659,-24.6951,0.00,0.00,0.00,2,S01
25720,-8.54730,2.03507,-2.62405,-25.6098,-28.6585,-11.7683,0.00,0.00,0.00,2,S01
25740,-8.48505,0.86191,-1.49159,-32.4390,-11.9512,-3.2317,0.00,0.00,0.00,2,S01
25760,-9.24162,0.33519,-0.13168,-27.0122,1.5854,-0.5488,0.00,0.00,0.00,2,S01
25780,-9.45949,0.61531,-0.11013,-12.4390,1.7683,1.0976,0.00,0.00,0.00,2,S01
25800,-9.25598,1.51314,0.13168,0.6707,-1.4024,7.5610,0.00,0.00,0.00,2,S01
25820,-8.91361,1.66397,0.12210,0.5488,-3.1707,11.4024,0.00,0.00,0.00,2,S01
25840,-8.91361,1.66397,0.12210,0.5488,-3.1707,11.4024,0.00,0.00,0.00,2,S01
25860,-8.53054,1.70946,-0.15562,1.2195,-3.9024,14.2683,0.00,0.00,0.00,2,S01
25880,-8.45871,1.63045,-0.19632,2.6220,-0.8537,16.5854,0.00,0.00,0.00,2,S01
25900,-8.44914,1.47483,-0.01197,3.7805,3.1707,18.4756,0.00,0.00,0.00,2,S01
25920,-8.47547,1.51314,0.28491,3.7195,4.8780,19.4512,0.00,0.00,0.00,2,S01
25940,-8.77475,1.57538,0.42138,2.4390,4.5122,19.5732,0.00,0.00,0.00,2,S01
25960,-9.03572,1.79086,0.57700,2.1341,3.5976,19.3293,0.00,0.00,0.00,2,S01
25980,-9.07402,2.06620,0.69192,1.4024,2.0732,19.5732,0.00,0.00,0.00,2,S01
26000,-8.94953,2.14281,0.66559,-0.1829,0.5488,19.5732,0.00,0.00,0.00,2,S01
26020,-8.72447,2.03507,0.59616,-1.4024,-0.0610,18.0488,0.00,0.00,0.00,2,S01
26040,-8.48505,1.89381,0.60813,-1.8293,1.5244,15.0000,0.00,0.00,0.00,2,S01
26060,-8.42759,1.88424,0.59855,-1.5854,4.6341,11.1585,0.00,0.00,0.00,2,S01
26080,-8.60955,1.81002,0.76136,-1.0976,7.6220,7.9878,0.00,0.00,0.00,2,S01
26100,-8.78911,1.68791,1.10133,0.3659,9.2073,6.0366,0.00,0.00,0.00,2,S01
26120,-8.88009,1.94649,1.33836,3.3537,8.3537,4.6951,0.00,0.00,0.00,2,S01
26140,-8.93277,2.09253,1.39103,5.0610,6.2805,3.7805,0.00,0.00,0.00,2,S01
26160,-8.83460,2.04465,1.50356,6.6463,4.5122,1.9512,0.00,0.00,0.00,2,S01
26180,-8.59040,1.88663,1.48201,10.0610,2.9878,-1.0976,0.00,0.00,0.00,2,S01
26200,-8.47069,1.80283,1.63285,13.5366,2.7439,-4.6341,0.00,0.00,0.00,2,S01
26220,-8.57364,1.98000,1.85551,16.0366,1.9512,-7.8049,0.00,0.00,0.00,2,S01
26240,-8.62631,2.32477,1.86508,17.3171,0.5488,-9.8780,0.00,0.00,0.00,2,S01
26260,-8.72926,2.54982,1.83156,17.1341,-1.1585,-11.7683,0.00,0.00,0.00,2,S01
26280,-8.84658,3.00233,1.21386,16.3415,-2.6220,-13.4146,0.00,0.00,0.00,2,S01
26300,-9.02135,3.50272,0.83558,10.6707,-2.6220,-12.2561,0.00,0.00,0.00,2,S01
26320,-9.35415,2.98796,1.78129,4.8780,-3.7805,-7.5000,0.00,0.00,0.00,2,S01
26340,-9.35175,1.98719,2.89938,7.9268,-7.0732,-1.5244,0.00,0.00,0.00,2,S01
26360,-9.39006,1.77889,3.19865,17.1951,-9.9390,1.4024,0.00,0.00,0.00,2,S01
26380,-10.15860,2.67672,2.04225,25.6707,-9.6951,2.7439,0.00,0.00,0.00,2,S01
26400,-11.15698,3.94086,0.50278,27.9268,-0.5488,9.2073,0.00,0.00,0.00,2,S01
26420,-11.27669,3.80918,0.15323,21.8293,7.8659,21.5244,0.00,0.00,0.00,2,S01
26440,-9.89763,2.19309,0.37350,15.1829,7.1341,29.8780,0.00,0.00,0.00,2,S01
26460,-9.13627,0.42617,-0.04788,19.2073,5.6098,24.3293,0.00,0.00,0.00,2,S01
26480,-9.23444,0.17478,-0.34477,28.5366,7.3171,10.9146,0.00,0.00,0.00,2,S01
26500,-9.59835,2.52109,-0.93374,19.7561,1.0976,0.9146,0.00,0.00,0.00,2,S01
26520,-9.19613,2.67432,-0.98641,2.5610,0.3049,0.4268,0.00,0.00,0.00,2,S01
26540,-9.62469,2.14281,-0.29209,-14.1463,1.8293,-4.8780,0.00,0.00,0.00,2,S01
26560,-9.92157,1.52271,-0.10774,-23.2927,-3.2927,-13.5976,0.00,0.00,0.00,2,S01
26580,-9.68455,0.87149,-0.00958,-26.5244,-7.8049,-20.7927,0.00,0.00,0.00,2,S01
26600,-9.12670,0.53151,0.02634,-26.2195,-8.9024,-25.9146,0.00,0.00,0.00,2,S01
26620,-8.80587,0.53151,0.32561,-26.7073,-7.8049,-27.9268,0.00,0.00,0.00,2,S01
26640,-8.65025,0.84515,0.54588,-27.1341,-6.9512,-26.5244,0.00,0.00,0.00,2,S01
26660,-8.44674,1.23780,0.52672,-26.5854,-6.5854,-23.2927,0.00,0.00,0.00,2,S01
26680,-8.26478,1.28090,0.49081,-26.3415,-4.2683,-19.6951,0.00,0.00,0.00,2,S01
26700,-8.33422,0.99359,0.66319,-27.1951,-0.8537,-16.5244,0.00,0.00,0.00,2,S01
26720,-8.57364,0.55545,0.80685,-29.0244,2.1341,-14.2073,0.00,0.00,0.00,2,S01
26740,-8.73405,0.26815,0.99838,-28.5976,5.2439,-12.6220,0.00,0.00,0.00,2,S01
26760,-8.78193,0.29928,1.07500,-26.5244,7.1951,-11.2805,0.00,0.00,0.00,2,S01
26780,-8.74123,0.45729,1.06303,-23.5366,8.7805,-10.0000,0.00,0.00,0.00,2,S01
26800,-8.84658,0.65601,1.24498,-20.5488,10.5488,-9.0244,0.00,0.00,0.00,2,S01
26820,-8.98544,0.67277,1.43892,-19.4512,10.5488,-7.2561,0.00,0.00,0.00,2,S01
26840,-8.94713,0.57221,1.66876,-19.3902,9.3293,-5.4268,0.00,0.00,0.00,2,S01
26860,-8.70292,0.49799,1.91776,-18.3537,7.8659,-4.0854,0.00,0.00,0.00,2,S01
26880,-8.22887,0.55785,2.13802,-14.9390,9.7561,-0.1829,0.00,0.00,0.00,2,S01
26900,-8.28394,0.63686,2.16915,-14.1463,11.8902,2.8049,0.00,0.00,0.00,2,S01
26920,-8.28394,0.63686,2.16915,-14.1463,11.8902,2.8049,0.00,0.00,0.00,2,S01
26940,-8.53772,0.78530,2.24816,-13.8415,11.9512,6.7683,0.00,0.00,0.00,2,S01
26960,-8.82263,0.56743,2.01113,-13.5366,10.0000,11.2195,0.00,0.00,0.00,2,S01
26980,-9.15782,0.14126,1.46046,-10.1829,8.7805,13.6585,0.00,0.00,0.00,2,S01
27000,-9.56962,-0.24660,1.17316,-5.6098,9.1463,11.8293,0.00,0.00,0.00,2,S01
27020,-9.99100,0.33519,1.77889,-5.4268,7.3171,6.1585,0.00,0.00,0.00,2,S01
27040,-9.83299,1.43173,2.25294,-13.5976,1.5244,0.0610,0.00,0.00,0.00,2,S01
27060,-9.12909,1.94170,2.43730,-25.7317,-6.5244,-3.9024,0.00,0.00,0.00,2,S01
27080,-9.78271,1.34315,2.66235,-33.8415,-11.4634,-5.4268,0.00,0.00,0.00,2,S01
27100,-11.86806,0.22745,1.26174,-29.6951,-14.9390,-6.5244,0.00,0.00,0.00,2,S01
27120,-13.03882,-0.40701,0.76136,-16.8902,-10.6098,-12.0732,0.00,0.00,0.00,2,S01
27140,-12.80180,0.58897,0.77572,-11.6463,-14.5732,-21.7683,0.00,0.00,0.00,2,S01
27160,-11.09713,2.18591,0.18196,-18.6585,-23.5366,-24.3293,0.00,0.00,0.00,2,S01
27180,-9.49540,2.70066,-1.13246,-27.8659,-27.5610,-14.3902,0.00,0.00,0.00,2,S01
27200,-8.63828,1.79565,-1.82917,-33.2317,-19.6341,-0.6707,0.00,0.00,0.00,2,S01
27220,-8.94234,0.40223,-0.54109,-34.4512,-2.6829,7.8659,0.00,0.00,0.00,2,S01
27240,-9.68215,0.04788,0.40941,-20.1829,7.1341,8.5366,0.00,0.00,0.00,2,S01
27260,-9.62469,0.37828,0.40462,-3.5366,5.6098,6.5854,0.00,0.00,0.00,2,S01
27280,-9.30147,0.99599,0.24900,4.8171,3.7195,5.5488,0.00,0.00,0.00,2,S01
27300,-8.96629,1.46286,0.13886,7.3171,3.5976,7.3780,0.00,0.00,0.00,2,S01
27320,-8.60715,1.59693,0.12689,8.6585,3.4146,10.5488,0.00,0.00,0.00,2,S01
27340,-8.32703,1.39343,0.02394,12.3171,2.6829,13.7805,0.00,0.00,0.00,2,S01
27360,-8.09719,1.31442,0.01915,17.1951,3.2927,15.4268,0.00,0.00,0.00,2,S01
27380,-8.04691,1.23301,0.04070,17.3780,4.8780,15.4878,0.00,0.00,0.00,2,S01
27400,-8.31267,1.28329,0.26336,14.3902,6.6463,14.2683,0.00,0.00,0.00,2,S01
27420,-8.78672,1.56341,0.60334,12.5000,7.8049,12.8659,0.00,0.00,0.00,2,S01
27440,-9.06684,1.74537,0.78051,12.2561,7.3780,12.5000,0.00,0.00,0.00,2,S01
27460,-9.09318,1.71664,0.55067,13.6585,5.7927,12.7439,0.00,0.00,0.00,2,S01
27480,-8.93037,1.59933,0.44772,14.6951,5.4878,11.7683,0.00,0.00,0.00,2,S01
27500,-8.79151,1.51792,0.29928,15.1829,5.7317,9.2073,0.00,0.00,0.00,2,S01
27520,-8.84897,1.46046,0.50757,15.9146,7.3171,6.4024,0.00,0.00,0.00,2,S01
27540,-9.00699,1.42216,0.71347,17.3780,8.1098,4.5732,0.00,0.00,0.00,2,S01
27560,-9.02375,1.52271,0.75178,20.0610,7.6220,2.8659,0.00,0.00,0.00,2,S01
27580,-8.94713,1.60412,0.85473,22.7439,7.3171,1.6463,0.00,0.00,0.00,2,S01
27600,-9.04529,1.68312,1.04387,24.4512,6.8293,0.1220,0.00,0.00,0.00,2,S01
27620,-8.99741,1.87945,1.10373,25.9756,5.7317,-1.5244,0.00,0.00,0.00,2,S01
27640,-8.82263,1.98958,1.12049,26.6463,4.4512,-3.0488,0.00,0.00,0.00,2,S01
27660,-8.71489,2.01592,1.20668,26.7073,3.2927,-5.0610,0.00,0.00,0.00,2,S01
27680,-8.57124,2.07577,1.19231,26.8902,2.3780,-6.8902,0.00,0.00,0.00,2,S01
27700,-8.48505,2.21942,1.63045,25.9146,1.5854,-10.6098,0.00,0.00,0.00,2,S01
27720,-8.59040,2.47560,1.66158,24.0854,0.4878,-10.6707,0.00,0.00,0.00,2,S01
27740,-8.71729,2.84671,1.37188,19.8171,-0.5488,-8.5366,0.00,0.00,0.00,2,S01
27760,-8.82503,3.17711,0.93613,13.7805,-0.7927,-5.4268,0.00,0.00,0.00,2,S01
27780,-8.93516,3.37343,1.11330,3.8415,-1.5244,-2.3780,0.00,0.00,0.00,2,S01
27800,-9.13867,2.53785,1.68791,-3.5366,-4.8171,0.4268,0.00,0.00,0.00,2,S01
27820,-9.23444,1.25935,2.95684,2.5610,-5.6707,1.7683,0.00,0.00,0.00,2,S01
27840,-9.43076,0.54588,3.63919,17.5610,-5.9756,0.9756,0.00,0.00,0.00,2,S01
27860,-10.11311,1.10852,3.20344,30.8537,-8.0488,0.4878,0.00,0.00,0.00,2,S01
27880,-11.36528,2.52109,1.19950,37.7439,-7.9878,6.8293,0.00,0.00,0.00,2,S01
27900,-12.10269,4.03184,-0.10056,37.2561,0.4268,22.2561,0.00,0.00,0.00,2,S01
27920,-11.26951,3.35428,-0.78051,31.2195,4.6341,39.6341,0.00,0.00,0.00,2,S01
27940,-9.37809,1.30484,-1.08218,27.8049,2.7439,46.2195,0.00,0.00,0.00,2,S01
27960,-9.56005,2.45885,-0.57940,-19.8780,-3.7805,-15.1220,0.00,0.00,0.00,2,S01
27980,-9.56005,2.45885,-0.57940,-19.8780,-3.7805,-15.1220,0.00,0.00,0.00,2,S01
28000,-9.65582,1.63524,-0.48123,-26.5854,-9.4512,-24.6341,0.00,0.00,0.00,2,S01
28020,-9.65582,1.63524,-0.48123,-26.5854,-9.4512,-24.6341,0.00,0.00,0.00,2,S01
28040,-9.65582,1.63524,-0.48123,-26.5854,-9.4512,-24.6341,0.00,0.00,0.00,2,S01
28060,-9.65582,1.63524,-0.48123,-26.5854,-9.4512,-24.6341,0.00,0.00,0.00,2,S01
28080,-9.32063,0.85952,-0.26576,-26.5854,-10.5488,-30.4268,0.00,0.00,0.00,2,S01
28100,-9.32063,0.85952,-0.26576,-26.5854,-10.5488,-30.4268,0.00,0.00,0.00,2,S01
28120,-9.04290,0.61052,0.10774,-24.2683,-9.6341,-34.6341,0.00,0.00,0.00,2,S01
28140,-8.80827,0.95050,0.11253,-22.7439,-9.8780,-35.8537,0.00,0.00,0.00,2,S01
28160,-8.46111,1.31921,0.04788,-22.1341,-9.2073,-33.0488,0.00,0.00,0.00,2,S01
28180,-8.30788,1.40540,0.27533,-22.0122,-7.1951,-28.0488,0.00,0.00,0.00,2,S01
28200,-8.33182,1.41976,0.57221,-23.1707,-6.2195,-22.7439,0.00,0.00,0.00,2,S01
28220,-8.23845,1.16598,0.49560,-24.5732,-5.6098,-16.2805,0.00,0.00,0.00,2,S01
28240,-8.26239,0.85712,0.56503,-24.5732,-1.1585,-11.0366,0.00,0.00,0.00,2,S01
28260,-8.47547,0.75657,0.76614,-23.5366,4.2073,-7.9268,0.00,0.00,0.00,2,S01
28280,-8.72686,0.79248,1.02472,-22.8659,8.3537,-6.0976,0.00,0.00,0.00,2,S01
28300,-8.92080,0.81163,1.26893,-21.5854,10.0610,-5.2439,0.00,0.00,0.00,2,S01
28320,-8.90404,0.86670,1.33118,-19.4512,9.9390,-5.2439,0.00,0.00,0.00,2,S01
28340,-8.74602,0.80685,1.34315,-18.1098,9.6951,-4.9390,0.00,0.00,0.00,2,S01
28360,-8.67180,0.70390,1.52989,-17.0122,10.3049,-4.3293,0.00,0.00,0.00,2,S01
28380,-8.73405,0.71587,1.80283,-15.6707,9.9390,-2.1951,0.00,0.00,0.00,2,S01
28400,-8.70292,0.82600,2.00634,-14.3293,8.9634,2.0122,0.00,0.00,0.00,2,S01
28420,-8.55688,0.85712,1.93930,-14.1463,7.3171,6.2805,0.00,0.00,0.00,2,S01
28440,-8.66940,0.75896,1.71185,-13.9634,6.4634,9.6341,0.00,0.00,0.00,2,S01
28460,-9.13867,0.30167,1.44131,-12.6220,7.1951,10.0610,0.00,0.00,0.00,2,S01
28480,-9.94551,-0.35434,1.48201,-7.4390,7.8659,4.7561,0.00,0.00,0.00,2,S01
28500,-10.36450,0.15323,1.68552,-0.9756,6.2195,-4.3902,0.00,0.00,0.00,2,S01
28520,-9.98861,1.17076,2.27449,-5.7317,1.5244,-11.1585,0.00,0.00,0.00,2,S01
28540,-9.08839,1.83635,2.35350,-17.1951,-4.9390,-13.9024,0.00,0.00,0.00,2,S01
28560,-8.71011,1.99437,2.33674,-27.8049,-5.7317,-13.8415,0.00,0.00,0.00,2,S01
28580,-9.69173,1.35272,2.41575,-33.9634,-2.0122,-11.9512,0.00,0.00,0.00,2,S01
28600,-11.18571,-0.07183,1.26653,-28.5976,-1.8902,-10.1220,0.00,0.00,0.00,2,S01
28620,-12.01889,0.14126,0.97444,-16.1585,0.3049,-14.2073,0.00,0.00,0.00,2,S01
28640,-11.87045,1.21625,0.61770,-13.9634,-3.8415,-22.6220,0.00,0.00,0.00,2,S01
28660,-11.05642,2.39660,-0.64165,-17.8659,-13.5976,-27.5610,0.00,0.00,0.00,2,S01
28680,-9.80665,2.72460,-1.87466,-24.0854,-18.1707,-20.3659,0.00,0.00,0.00,2,S01
28700,-8.56645,1.64482,-2.25294,-35.0610,-14.9390,-9.7561,0.00,0.00,0.00,2,S01
28720,-8.97107,0.56024,-0.93853,-40.6098,-4.9390,-5.7927,0.00,0.00,0.00,2,S01
28740,-9.90002,0.36631,-0.13408,-29.4512,1.4634,-4.8171,0.00,0.00,0.00,2,S01
28760,-9.92636,0.75896,-0.15083,-14.2683,0.1220,-1.2195,0.00,0.00,0.00,2,S01
28780,-9.63427,1.19950,-0.07901,-6.2805,-1.7683,4.0854,0.00,0.00,0.00,2,S01
28800,-9.24880,1.37906,0.12689,-3.2317,-1.6463,9.9390,0.00,0.00,0.00,2,S01
28820,-8.59279,1.55623,0.02873,-3.2317,-2.0732,14.9390,0.00,0.00,0.00,2,S01
28840,-8.21690,1.45807,-0.08619,-4.5122,-1.1585,18.1707,0.00,0.00,0.00,2,S01
28860,-8.19535,1.28329,-0.08140,-1.6463,1.4024,19.3293,0.00,0.00,0.00,2,S01
28880,-8.34379,1.30005,0.00718,1.9512,4.8780,18.9024,0.00,0.00,0.00,2,S01
28900,-8.79390,1.65439,0.45729,2.6220,6.5244,17.1951,0.00,0.00,0.00,2,S01
28920,-8.70771,1.84354,0.39983,2.8659,4.0244,15.9756,0.00,0.00,0.00,2,S01
28940,-8.66940,2.14042,0.62968,1.8293,3.8415,14.5732,0.00,0.00,0.00,2,S01
28960,-8.67898,2.22182,0.74220,-0.3049,3.6585,13.7195,0.00,0.00,0.00,2,S01
28980,-8.69813,2.12605,0.74220,-1.8293,4.2073,12.9268,0.00,0.00,0.00,2,S01
29000,-8.57603,2.14760,0.77812,-3.4146,5.9146,11.2195,0.00,0.00,0.00,2,S01
29020,-8.43717,1.99676,0.84036,-6.0976,7.7439,8.7195,0.00,0.00,0.00,2,S01
29040,-8.44196,1.81959,1.03430,-7.5610,10.5488,5.6707,0.00,0.00,0.00,2,S01
29060,-8.54969,1.86029,1.21865,-7.2561,12.8659,2.6220,0.00,0.00,0.00,2,S01
29080,-8.70532,2.07098,1.37427,-6.0976,13.5366,0.6707,0.00,0.00,0.00,2,S01
29100,-8.80587,1.98958,1.53708,-5.0000,13.1098,-1.3415,0.00,0.00,0.00,2,S01
29120,-8.83460,1.94409,1.73101,-1.8293,11.4024,-3.8415,0.00,0.00,0.00,2,S01
29140,-8.86812,2.04704,2.05422,2.2561,8.1707,-6.4024,0.00,0.00,0.00,2,S01
29160,-8.87531,2.25534,2.13802,5.5488,2.6220,-7.1951,0.00,0.00,0.00,2,S01
29180,-8.87052,2.64080,1.97761,7.3171,-2.0732,-5.9756,0.00,0.00,0.00,2,S01
29200,-8.86094,2.99515,1.56820,4.9390,-4.3902,-3.9024,0.00,0.00,0.00,2,S01
29220,-8.67419,3.78284,0.58419,-1.4024,-5.0000,-2.2561,0.00,0.00,0.00,2,S01
29240,-9.11473,3.59130,1.05345,-13.0488,-3.7195,-0.5488,0.00,0.00,0.00,2,S01
29260,-9.84496,2.37026,2.67911,-13.7805,-4.5732,3.2317,0.00,0.00,0.00,2,S01
29280,-10.08677,1.25696,3.31118,-0.4878,-7.0122,9.3293,0.00,0.00,0.00,2,S01
29300,-10.96066,1.60172,2.40378,13.8415,-10.1220,15.0610,0.00,0.00,0.00,2,S01
29320,-11.95185,3.38780,0.45011,23.2927,-6.5854,24.6951,0.00,0.00,0.00,2,S01
29340,-11.64540,3.69904,-0.34237,24.4512,0.7927,39.7561,0.00,0.00,0.00,2,S01
29360,-10.14663,2.32477,-0.30646,20.6707,0.7317,47.7439,0.00,0.00,0.00,2,S01
29380,-9.05248,0.85234,-0.95050,20.6098,-3.2317,39.2073,0.00,0.00,0.00,2,S01
29400,-8.44196,1.02951,-1.71664,23.6585,-4.4512,21.0976,0.00,0.00,0.00,2,S01
29420,-8.43477,2.44927,-2.16436,17.3780,-7.0122,8.5366,0.00,0.00,0.00,2,S01
29440,-8.92798,3.09091,-2.18591,1.6463,-7.9268,5.0000,0.00,0.00,0.00,2,S01
29460,-9.39485,2.86586,-1.67355,-15.5488,-2.8049,2.7439,0.00,0.00,0.00,2,S01
29480,-9.86651,1.74777,-0.80206,-31.0976,1.5244,-1.4024,0.00,0.00,0.00,2,S01
29500,-10.51533,1.13006,-0.03112,-40.8537,0.4268,-9.9390,0.00,0.00,0.00,2,S01
29520,-10.09635,0.96486,-0.06464,-43.9024,-6.5854,-20.3049,0.00,0.00,0.00,2,S01
29540,-9.08360,1.08218,-0.09337,-43.9634,-11.5854,-29.2073,0.00,0.00,0.00,2,S01
29560,-8.49463,1.25456,0.00718,-44.6951,-11.1585,-33.7195,0.00,0.00,0.00,2,S01
29580,-8.43717,1.16358,0.38307,-45.9756,-6.3415,-32.8049,0.00,0.00,0.00,2,S01
29600,-8.37252,0.86431,0.73023,-44.5122,-1.7073,-28.7805,0.00,0.00,0.00,2,S01
29620,-8.28633,0.97444,0.71108,-40.4878,0.6098,-23.5366,0.00,0.00,0.00,2,S01
29640,-8.20732,1.03908,0.73023,-40.3049,2.6829,-15.7927,0.00,0.00,0.00,2,S01
29660,-8.32943,0.88585,0.81403,-40.9146,5.6707,-8.0488,0.00,0.00,0.00,2,S01
29680,-8.64786,0.71587,0.92895,-38.8415,9.3293,-2.6220,0.00,0.00,0.00,2,S01
29700,-8.82024,0.71347,1.01035,-35.0000,11.1585,-0.0610,0.00,0.00,0.00,2,S01
29720,-8.94713,0.95050,1.04627,-31.8902,11.1585,0.5488,0.00,0.00,0.00,2,S01
29740,-9.12191,1.04866,1.30963,-30.3659,10.6098,0.7317,0.00,0.00,0.00,2,S01
29760,-9.12430,1.05584,1.34794,-28.0488,8.5366,0.1829,0.00,0.00,0.00,2,S01
29780,-9.10515,1.02232,1.52989,-26.0366,8.5366,-1.1585,0.00,0.00,0.00,2,S01
29800,-8.98304,1.06781,1.64721,-24.6951,8.3537,-2.5610,0.00,0.00,0.00,2,S01
29820,-8.60715,1.16837,1.65918,-24.2683,7.2561,-3.1707,0.00,0.00,0.00,2,S01
29840,-8.40365,1.17555,1.78129,-24.5732,7.0732,-2.0732,0.00,0.00,0.00,2,S01
29860,-8.50899,1.07739,2.10690,-25.8537,6.8902,0.4268,0.00,0.00,0.00,2,S01
29880,-8.65025,0.96726,2.31280,-24.7561,5.9146,3.8415,0.00,0.00,0.00,2,S01
29900,-8.82263,0.83318,2.48518,-22.8659,5.3049,6.8902,0.00,0.00,0.00,2,S01
29920,-8.92080,0.74220,2.21464,-20.3049,4.2073,8.1098,0.00,0.00,0.00,2,S01
29940,-9.02853,0.52194,1.65200,-16.5854,3.4146,6.7683,0.00,0.00,0.00,2,S01
29960,-9.37569,0.09816,1.17555,-10.4268,2.7439,2.9268,0.00,0.00,0.00,2,S01
29980,-9.96946,0.52912,2.03507,-6.2195,2.3780,-2.8049,0.00,0.00,0.00,2,S01
# DONE 1500 samples in 30.0s
