timestamp,ax,ay,az,gx,gy,gz,mx,my,mz,label,subject_id
0,-5.13556,0.34716,-0.20351,21.0976,31.5244,-1.7683,0.00,0.00,0.00,5,S01
20,-5.39892,0.37828,0.90501,17.3171,20.9146,0.9756,0.00,0.00,0.00,5,S01
40,-6.42843,1.13246,-0.02394,24.1463,1.9512,-13.6585,0.00,0.00,0.00,5,S01
60,-6.42843,1.13246,-0.02394,24.1463,1.9512,-13.6585,0.00,0.00,0.00,5,S01
80,-5.90410,2.15239,-0.86670,26.2195,7.6220,-15.6098,0.00,0.00,0.00,5,S01
100,-6.54335,2.56658,-0.41659,13.8415,4.4512,-7.9268,0.00,0.00,0.00,5,S01
120,-7.13472,3.04064,0.07901,-3.7195,-11.5244,0.1829,0.00,0.00,0.00,5,S01
140,-7.34781,2.88501,0.89783,-30.7927,-24.0244,3.7805,0.00,0.00,0.00,5,S01
160,-7.39090,1.71664,1.28569,-47.0122,-24.9390,1.1585,0.00,0.00,0.00,5,S01
180,-8.95192,1.18034,-0.56743,-38.1707,-18.7805,-4.8171,0.00,0.00,0.00,5,S01
200,-10.76194,-0.40223,-2.25534,-32.7439,-13.1707,0.4268,0.00,0.00,0.00,5,S01
220,-11.70765,-1.67115,-2.15718,-22.6829,-16.3415,11.8902,0.00,0.00,0.00,5,S01
240,-18.24861,-2.85868,-1.85790,-10.1829,-37.3171,17.4390,0.00,0.00,0.00,5,S01
260,-19.47204,-2.39181,-1.88424,-11.0366,-39.8780,27.7439,0.00,0.00,0.00,5,S01
280,-14.65970,0.04788,2.17872,-51.6463,-31.0976,27.3171,0.00,0.00,0.00,5,S01
300,-11.78187,2.02789,0.08380,-51.4634,-55.6707,-1.5854,0.00,0.00,0.00,5,S01
320,-13.36922,0.61770,0.32082,-31.2805,-30.4268,-17.5000,0.00,0.00,0.00,5,S01
340,-14.26465,-2.31998,0.85234,-30.3659,-10.8537,-17.9268,0.00,0.00,0.00,5,S01
360,-12.37084,-3.13880,0.81403,-23.5976,-4.2073,-17.0122,0.00,0.00,0.00,5,S01
380,-9.99340,-2.47560,0.55306,-13.1707,5.4878,-22.3780,0.00,0.00,0.00,5,S01
400,-7.96311,-0.74460,-0.24181,-4.3293,11.1585,-28.1707,0.00,0.00,0.00,5,S01
420,-7.11078,0.68953,-1.06542,-3.5976,20.3049,-24.6341,0.00,0.00,0.00,5,S01
440,-7.05332,0.36392,-0.79009,-12.9878,33.3537,-11.3415,0.00,0.00,0.00,5,S01
460,-7.12993,-0.71108,-0.14126,-20.9756,42.5610,3.9024,0.00,0.00,0.00,5,S01
480,-7.18261,-1.04387,0.65841,-22.9878,48.8415,13.2927,0.00,0.00,0.00,5,S01
500,-6.83545,-0.96007,0.49560,-19.0244,45.8537,15.7927,0.00,0.00,0.00,5,S01
520,-6.04536,-0.92895,0.25618,-14.6341,33.8415,13.1098,0.00,0.00,0.00,5,S01
540,-5.83706,-0.92895,-0.05028,-11.1585,19.7561,9.3902,0.00,0.00,0.00,5,S01
560,-6.74925,-0.99359,0.40462,-7.6829,14.8171,10.6098,0.00,0.00,0.00,5,S01
580,-7.14430,-1.23301,0.53391,-7.5610,10.1220,17.1341,0.00,0.00,0.00,5,S01
600,-6.52181,-1.52271,0.90261,-7.2561,0.5488,19.5122,0.00,0.00,0.00,5,S01
620,-6.35421,-1.59214,1.14682,-3.7195,-7.6829,13.2927,0.00,0.00,0.00,5,S01
640,-6.73728,-1.66158,0.94571,7.1951,-4.3293,8.4146,0.00,0.00,0.00,5,S01
660,-6.82347,-1.23780,-0.00239,18.7805,11.8293,10.0610,0.00,0.00,0.00,5,S01
680,-6.84023,-0.84276,0.02394,17.5000,24.2683,10.2439,0.00,0.00,0.00,5,S01
700,-7.29034,-1.30245,0.37110,9.5732,18.1098,2.6220,0.00,0.00,0.00,5,S01
720,-8.74123,-2.14042,-1.47243,13.4756,9.0244,-12.5610,0.00,0.00,0.00,5,S01
740,-10.94629,-0.19393,-1.76213,25.3659,13.7195,-27.5000,0.00,0.00,0.00,5,S01
760,-13.38838,2.40378,-0.87628,24.3902,-3.9024,-27.5610,0.00,0.00,0.00,5,S01
780,-17.65005,3.07416,-2.96402,16.1585,-50.4878,-20.4878,0.00,0.00,0.00,5,S01
800,-17.69315,2.14760,-2.01831,17.1341,-63.4756,-27.0732,0.00,0.00,0.00,5,S01
820,-14.85363,2.26491,-1.08457,24.6951,-60.5488,-32.5000,0.00,0.00,0.00,5,S01
840,-13.09628,1.35272,0.45729,13.7805,-64.2683,-17.0732,0.00,0.00,0.00,5,S01
860,-14.39873,1.22823,0.54348,4.2073,-55.2439,0.9146,0.00,0.00,0.00,5,S01
880,-14.35085,1.28808,0.30885,2.7439,-26.9512,5.0000,0.00,0.00,0.00,5,S01
900,-12.60547,1.68312,-0.04788,5.3049,-11.2195,-2.8049,0.00,0.00,0.00,5,S01
920,-9.84735,1.77410,-0.66319,11.0976,-2.3171,-2.2561,0.00,0.00,0.00,5,S01
940,-7.61117,1.11091,-1.24498,11.9512,9.3293,6.0976,0.00,0.00,0.00,5,S01
960,-6.65828,0.61292,-1.13006,7.8049,26.8293,8.6585,0.00,0.00,0.00,5,S01
980,-6.81150,1.37906,-0.26336,-2.8049,44.7561,0.0610,0.00,0.00,0.00,5,S01
1000,-7.00783,1.60651,-0.13408,-8.6585,42.3171,-1.8293,0.00,0.00,0.00,5,S01
1020,-7.10838,1.19471,-0.09337,-12.9268,39.2683,-3.1098,0.00,0.00,0.00,5,S01
1040,-7.12036,0.83558,-0.37110,-10.7927,34.6341,-6.8293,0.00,0.00,0.00,5,S01
1060,-6.50744,0.51475,-0.21787,-7.6829,26.3415,-9.9390,0.00,0.00,0.00,5,S01
1080,-5.49948,0.26576,0.06943,-0.1829,16.0366,-11.1585,0.00,0.00,0.00,5,S01
1100,-5.36780,0.17957,0.25618,8.2317,6.9512,-12.4390,0.00,0.00,0.00,5,S01
1120,-6.12916,0.27054,0.67756,9.8171,2.1951,-14.0854,0.00,0.00,0.00,5,S01
1140,-6.62476,1.10612,0.76614,8.6585,-2.3780,-15.5488,0.00,0.00,0.00,5,S01
1160,-6.33027,2.07338,-0.03352,0.0610,-8.4756,-13.1098,0.00,0.00,0.00,5,S01
1180,-6.66785,3.03106,-0.09098,-18.5976,-12.3780,-7.5000,0.00,0.00,0.00,5,S01
1200,-7.69975,2.31759,0.46687,-40.6098,-18.7805,-3.5976,0.00,0.00,0.00,5,S01
1220,-7.89368,0.72544,-0.43335,-40.6707,-19.6951,-6.7073,0.00,0.00,0.00,5,S01
1240,-8.72686,0.32801,-1.65918,-28.6585,-6.8293,-10.0610,0.00,0.00,0.00,5,S01
1260,-9.67497,-0.43574,-2.38462,-17.6829,-2.4390,0.1220,0.00,0.00,0.00,5,S01
1280,-10.51055,-1.82678,-0.27054,-16.0366,-22.2561,17.3171,0.00,0.00,0.00,5,S01
1300,-14.88236,-2.92093,0.71587,-12.3171,-60.4878,22.9878,0.00,0.00,0.00,5,S01
1320,-19.04827,-1.29766,-3.21302,7.9268,-60.8537,27.2561,0.00,0.00,0.00,5,S01
1340,-17.01799,-0.83558,1.95606,-25.5488,-24.3902,37.7439,0.00,0.00,0.00,5,S01
1360,-12.78025,0.23463,-0.95768,-36.8902,-46.7073,22.6220,0.00,0.00,0.00,5,S01
1380,-13.46978,0.69911,-0.58419,-25.3049,-30.2439,-2.0122,0.00,0.00,0.00,5,S01
1400,-15.20318,-0.81163,0.11013,-30.9146,-12.5000,-13.1098,0.00,0.00,0.00,5,S01
1420,-13.87440,-2.43969,0.16759,-33.2927,-5.8537,-11.0976,0.00,0.00,0.00,5,S01
1440,-11.13783,-2.76051,-0.48602,-27.0122,-4.9390,-14.8171,0.00,0.00,0.00,5,S01
1460,-8.77714,-1.64003,-0.81163,-22.0732,0.5488,-23.7195,0.00,0.00,0.00,5,S01
1480,-7.51061,0.03591,-0.97683,-17.1341,12.1341,-26.7683,0.00,0.00,0.00,5,S01
1500,-7.48427,0.40223,-0.56264,-14.9390,27.5610,-22.0122,0.00,0.00,0.00,5,S01
1520,-7.97269,-0.39504,0.29209,-16.0976,32.0122,-12.2561,0.00,0.00,0.00,5,S01
1540,-7.89608,-0.91698,0.69192,-17.5000,25.3049,-3.1098,0.00,0.00,0.00,5,S01
1560,-7.53695,-1.08218,0.49560,-14.3902,22.5000,1.8902,0.00,0.00,0.00,5,S01
1580,-7.58722,-1.01514,0.26336,-9.2073,24.0244,2.6829,0.00,0.00,0.00,5,S01
1600,-7.97987,-1.05824,0.27054,-3.8415,21.5244,3.4756,0.00,0.00,0.00,5,S01
1620,-7.87692,-1.14443,0.65841,-3.1707,11.2805,5.7317,0.00,0.00,0.00,5,S01
1640,-6.77559,-0.79248,0.63446,-5.3049,-0.4268,7.5610,0.00,0.00,0.00,5,S01
1660,-6.16986,-0.13168,0.34237,-7.5000,-3.6585,8.7805,0.00,0.00,0.00,5,S01
1680,-5.87298,0.00958,-0.16759,-10.0610,0.9146,15.6098,0.00,0.00,0.00,5,S01
1700,-5.92565,-1.25696,1.25696,-14.0854,7.9268,25.6098,0.00,0.00,0.00,5,S01
1720,-6.75404,-2.07338,2.19069,-5.5488,4.6951,26.3415,0.00,0.00,0.00,5,S01
1740,-7.33823,-1.82199,1.60890,6.7683,1.8293,21.4634,0.00,0.00,0.00,5,S01
1760,-6.68701,-1.04627,-0.68953,16.1585,9.7561,19.6951,0.00,0.00,0.00,5,S01
1780,-6.80911,-0.43814,-0.28970,20.3659,24.0854,19.7561,0.00,0.00,0.00,5,S01
1800,-8.34858,-0.98641,1.74537,24.3293,15.4878,20.1829,0.00,0.00,0.00,5,S01
1820,-9.26077,-1.17795,1.50595,32.5610,-5.9756,15.7927,0.00,0.00,0.00,5,S01
1840,-8.42998,-0.34716,0.11492,32.9878,-5.1829,7.1951,0.00,0.00,0.00,5,S01
1860,-8.20972,0.21787,0.73502,25.3659,1.6463,-2.3171,0.00,0.00,0.00,5,S01
1880,-9.44513,-0.19632,0.77812,24.3293,-12.1341,-11.4634,0.00,0.00,0.00,5,S01
1900,-10.93671,0.18675,0.73263,23.2927,-16.0366,-19.6341,0.00,0.00,0.00,5,S01
1920,-12.19606,0.85473,0.52194,12.5610,-11.8902,-17.4390,0.00,0.00,0.00,5,S01
1940,-16.56069,-0.59855,-2.45645,5.8537,-12.0122,-20.6098,0.00,0.00,0.00,5,S01
1960,-19.03630,0.43574,-0.48363,22.9878,10.7317,-54.2683,0.00,0.00,0.00,5,S01
1980,-17.65724,1.41497,-0.94332,38.2317,-15.3659,-63.4146,0.00,0.00,0.00,5,S01
2000,-13.47217,-0.72305,-1.29526,43.8415,-52.1341,-25.4878,0.00,0.00,0.00,5,S01
2020,-10.60392,-1.96803,0.04549,40.0610,-59.0854,11.7683,0.00,0.00,0.00,5,S01
2040,-9.33739,-0.73981,0.21308,47.6829,-30.4878,25.3659,0.00,0.00,0.00,5,S01
2060,-8.79630,1.15879,-0.44293,58.4146,0.1220,24.8780,0.00,0.00,0.00,5,S01
2080,-8.66222,2.54982,-0.56743,58.6585,14.2073,20.3049,0.00,0.00,0.00,5,S01
2100,-8.80109,3.10289,-0.73023,52.8659,17.3780,16.9512,0.00,0.00,0.00,5,S01
2120,-8.59279,3.25611,-0.84755,39.4512,18.7195,14.6951,0.00,0.00,0.00,5,S01
2140,-7.95354,1.64003,-0.33519,1.0366,16.0976,6.8902,0.00,0.00,0.00,5,S01
2160,-7.95354,1.64003,-0.33519,1.0366,16.0976,6.8902,0.00,0.00,0.00,5,S01
2180,-7.70215,0.68235,-0.44772,-6.5854,19.1463,-0.7927,0.00,0.00,0.00,5,S01
2200,-7.51540,-0.43335,-0.62010,-4.3902,30.1829,-11.7073,0.00,0.00,0.00,5,S01
2220,-8.14029,-0.33519,-0.28491,5.4268,36.0976,-16.0366,0.00,0.00,0.00,5,S01
2240,-8.81545,-0.27054,-0.05746,14.3902,34.6951,-20.0000,0.00,0.00,0.00,5,S01
2260,-8.86812,-0.24660,-0.09337,24.6951,28.4756,-22.9268,0.00,0.00,0.00,5,S01
2280,-7.96072,-0.23942,-0.58179,35.1220,20.5488,-23.2317,0.00,0.00,0.00,5,S01
2300,-6.57687,0.10295,-0.81882,43.2927,16.9512,-20.4268,0.00,0.00,0.00,5,S01
2320,-5.53779,0.36392,-0.82600,45.0610,18.6585,-13.2927,0.00,0.00,0.00,5,S01
2340,-5.71017,0.23224,-0.53630,43.1707,25.4878,-4.0854,0.00,0.00,0.00,5,S01
2360,-6.84981,0.33519,-0.05267,42.3780,28.1707,-1.9512,0.00,0.00,0.00,5,S01
2380,-7.75721,1.07978,0.05507,43.4146,21.1585,-5.4878,0.00,0.00,0.00,5,S01
2400,-8.47308,1.70467,0.61770,34.8780,9.5122,-9.1463,0.00,0.00,0.00,5,S01
2420,-9.38527,2.15957,0.95050,23.2927,-4.5122,-11.4024,0.00,0.00,0.00,5,S01
2440,-9.46667,2.43490,0.60573,8.0488,-18.1707,-12.9878,0.00,0.00,0.00,5,S01
2460,-8.52336,2.52109,0.42617,-2.5610,-23.1707,-13.3537,0.00,0.00,0.00,5,S01
2480,-8.50181,2.90177,0.25857,-13.1707,-26.1585,-10.1829,0.00,0.00,0.00,5,S01
2500,-9.54089,2.64559,-1.04387,-27.0122,-23.7805,-0.4878,0.00,0.00,0.00,5,S01
2520,-9.82102,1.24020,-1.46046,-37.8049,-14.9390,11.2805,0.00,0.00,0.00,5,S01
2540,-10.96305,-0.51954,-1.93451,-46.9512,-20.4878,16.8293,0.00,0.00,0.00,5,S01
2560,-15.33965,-2.20506,-4.75010,-36.8293,-27.3171,22.5610,0.00,0.00,0.00,5,S01
2580,-17.25980,-3.26569,-1.44849,-41.5244,-22.5000,37.5610,0.00,0.00,0.00,5,S01
2600,-14.04199,-3.04064,-0.08380,-66.4024,-51.0976,44.9390,0.00,0.00,0.00,5,S01
2620,-11.95185,0.13647,-0.76614,-58.2927,-50.0610,27.3780,0.00,0.00,0.00,5,S01
2640,-13.06276,0.18435,-0.50757,-55.1829,-28.0488,5.9146,0.00,0.00,0.00,5,S01
2660,-13.24712,-1.54905,0.09337,-62.3171,-19.6951,-6.8902,0.00,0.00,0.00,5,S01
2680,-11.59512,-2.88980,0.12450,-61.0366,-10.3049,-11.4024,0.00,0.00,0.00,5,S01
2700,-9.71806,-2.69827,0.08859,-56.0366,-0.4878,-16.5244,0.00,0.00,0.00,5,S01
2720,-8.76517,-1.88424,0.07183,-48.6585,10.3659,-21.4634,0.00,0.00,0.00,5,S01
2740,-8.46111,-1.28090,0.25379,-36.6463,22.3171,-22.8659,0.00,0.00,0.00,5,S01
2760,-8.38928,-1.21625,0.52672,-26.8293,24.8780,-21.0366,0.00,0.00,0.00,5,S01
2780,-8.00382,-1.36469,0.73263,-20.0000,21.0366,-14.9390,0.00,0.00,0.00,5,S01
2800,-7.51061,-1.41737,0.72065,-13.3537,20.7927,-7.5000,0.00,0.00,0.00,5,S01
2820,-7.33344,-1.26893,0.47884,-6.1585,23.7195,-1.7073,0.00,0.00,0.00,5,S01
2840,-7.46033,-1.04866,0.25139,-1.0366,24.7561,2.3171,0.00,0.00,0.00,5,S01
2860,-7.80031,-1.00317,0.36392,0.1220,21.0366,6.1585,0.00,0.00,0.00,5,S01
2880,-7.83862,-1.15161,0.49560,0.7927,13.4146,11.0976,0.00,0.00,0.00,5,S01
2900,-7.15866,-1.12288,0.29688,2.7439,8.7805,16.1585,0.00,0.00,0.00,5,S01
2920,-6.33266,-1.32399,0.51475,4.4512,9.2683,20.2439,0.00,0.00,0.00,5,S01
2940,-5.68862,-1.51314,1.28808,6.6463,7.0122,20.0000,0.00,0.00,0.00,5,S01
2960,-5.91128,-0.93853,1.48441,9.1463,1.8902,15.6707,0.00,0.00,0.00,5,S01
2980,-7.44118,-0.71347,1.05105,11.1585,1.2195,15.9756,0.00,0.00,0.00,5,S01
3000,-8.93037,-1.67115,1.55144,14.0854,2.6220,25.8537,0.00,0.00,0.00,5,S01
3020,-9.54808,-3.64158,2.65038,21.2195,-2.6829,37.5000,0.00,0.00,0.00,5,S01
3040,-8.69574,-4.32153,1.70467,38.6585,-9.0854,37.9268,0.00,0.00,0.00,5,S01
3060,-7.52498,-3.28245,1.35991,52.5610,-6.5854,25.0000,0.00,0.00,0.00,5,S01
3080,-8.28154,-1.43652,1.66636,63.9024,-6.7073,8.1707,0.00,0.00,0.00,5,S01
3100,-9.74679,-0.02155,2.21942,68.8415,-6.1585,0.1829,0.00,0.00,0.00,5,S01
3120,-10.04128,-0.65601,2.82755,64.2683,-8.3537,1.5244,0.00,0.00,0.00,5,S01
3140,-9.50977,-1.39103,0.90261,55.9756,-6.7073,-1.7683,0.00,0.00,0.00,5,S01
3160,-9.46428,-0.57221,-0.60094,42.9268,10.6707,-14.3293,0.00,0.00,0.00,5,S01
3180,-10.35732,0.64165,-1.26893,37.5000,20.4268,-24.1463,0.00,0.00,0.00,5,S01
3200,-19.33797,-0.56743,-1.94888,36.3415,-43.1098,-44.1463,0.00,0.00,0.00,5,S01
3220,-19.33797,-0.56743,-1.94888,36.3415,-43.1098,-44.1463,0.00,0.00,0.00,5,S01
3240,-19.61330,-0.85952,-2.65996,74.4512,-37.8049,-52.5610,0.00,0.00,0.00,5,S01
3260,-15.17206,-1.32878,-2.88022,90.2439,-50.3659,-26.4024,0.00,0.00,0.00,5,S01
3280,-10.70208,-1.00556,-2.17394,91.3415,-55.7317,6.4634,0.00,0.00,0.00,5,S01
3300,-8.38689,-0.44293,-2.22421,97.1341,-26.0976,22.6829,0.00,0.00,0.00,5,S01
3320,-7.70933,0.03112,-2.32238,105.6707,15.3049,21.1585,0.00,0.00,0.00,5,S01
3340,-7.52019,0.40223,-2.57377,114.1463,39.0854,12.1341,0.00,0.00,0.00,5,S01
3360,-7.78355,0.49081,-2.72460,118.2927,50.2439,7.7439,0.00,0.00,0.00,5,S01
3380,-8.27197,0.50518,-2.44209,120.0610,57.5610,8.1707,0.00,0.00,0.00,5,S01
3400,-8.62152,1.01514,-1.71185,113.8415,49.9390,7.6829,0.00,0.00,0.00,5,S01
3420,-8.66222,0.99120,-1.75974,107.2561,43.5366,10.0000,0.00,0.00,0.00,5,S01
3440,-8.74362,1.15640,-1.57060,99.6951,36.8902,11.6463,0.00,0.00,0.00,5,S01
3460,-8.94953,1.32878,-0.96247,91.8293,27.9268,12.2561,0.00,0.00,0.00,5,S01
3480,-9.03093,1.57060,-0.26097,83.8415,16.1585,10.0000,0.00,0.00,0.00,5,S01
3500,-8.64307,1.80762,-0.10774,76.7073,6.0366,5.2439,0.00,0.00,0.00,5,S01
3520,-8.48744,2.05183,0.11013,67.7439,3.3537,0.4878,0.00,0.00,0.00,5,S01
3540,-8.98304,1.98719,0.44532,55.8537,2.3171,-1.0366,0.00,0.00,0.00,5,S01
3560,-9.49301,1.69031,0.67995,41.8293,-1.2805,1.2805,0.00,0.00,0.00,5,S01
3580,-9.92397,1.56820,0.66798,29.7561,-7.5610,3.5976,0.00,0.00,0.00,5,S01
3600,-9.91918,1.56341,0.64404,20.4878,-13.4756,5.9756,0.00,0.00,0.00,5,S01
3620,-9.43555,0.80685,1.49159,14.0854,-16.6463,10.2439,0.00,0.00,0.00,5,S01
3640,-9.21049,-0.24421,2.38462,21.2805,-17.4390,14.2683,0.00,0.00,0.00,5,S01
3660,-9.11473,-0.62010,2.43969,38.7805,-16.8902,17.3171,0.00,0.00,0.00,5,S01
3680,-10.74278,-0.23703,0.44772,56.7683,-11.9512,22.0122,0.00,0.00,0.00,5,S01
3700,-12.77785,0.81403,-2.30801,68.7805,7.9878,32.0732,0.00,0.00,0.00,5,S01
3720,-12.72758,0.18914,-3.37104,59.3293,24.9390,45.7317,0.00,0.00,0.00,5,S01
3740,-11.16177,-1.65918,-3.07416,51.0366,11.5244,47.1951,0.00,0.00,0.00,5,S01
3760,-9.56962,-2.49955,-3.80199,63.3537,-18.7195,33.3537,0.00,0.00,0.00,5,S01
3780,-9.86890,-1.08457,-4.66151,74.6951,-24.0244,14.1463,0.00,0.00,0.00,5,S01
3800,-10.79546,0.50039,-3.86664,66.0366,-12.6829,-1.4634,0.00,0.00,0.00,5,S01
3820,-10.62547,0.62249,-3.02867,51.5244,-15.5488,-13.6585,0.00,0.00,0.00,5,S01
3840,-9.82341,-0.41659,-2.42772,44.4512,-19.5122,-22.1951,0.00,0.00,0.00,5,S01
3860,-8.97107,-1.54665,-1.99437,45.3659,-16.9512,-28.7805,0.00,0.00,0.00,5,S01
3880,-8.21929,-1.59693,-2.18112,52.9878,-10.2439,-32.6220,0.00,0.00,0.00,5,S01
3900,-7.69975,-1.07021,-2.17633,58.9634,0.1829,-32.1951,0.00,0.00,0.00,5,S01
3920,-7.65666,-0.57700,-2.13563,64.8781,8.9024,-28.2927,0.00,0.00,0.00,5,S01
3940,-7.88650,-0.42138,-2.15718,69.3902,13.4756,-22.8049,0.00,0.00,0.00,5,S01
3960,-8.25042,-0.33040,-2.23140,72.0732,14.6951,-17.3780,0.00,0.00,0.00,5,S01
3980,-8.67659,-0.46208,-1.91057,70.8537,10.7317,-12.1341,0.00,0.00,0.00,5,S01
4000,-8.88249,-0.55785,-1.65679,68.4756,2.9878,-9.0244,0.00,0.00,0.00,5,S01
4020,-8.95192,-0.44293,-1.59933,66.4634,-1.5854,-9.3293,0.00,0.00,0.00,5,S01
4040,-9.24401,-0.33040,-1.26414,62.6220,-2.5000,-10.4268,0.00,0.00,0.00,5,S01
4060,-9.43076,-0.38786,-0.88346,57.7439,-7.1341,-11.0976,0.00,0.00,0.00,5,S01
4080,-9.15782,-0.41420,-0.51954,53.1707,-12.1341,-11.0976,0.00,0.00,0.00,5,S01
4100,-8.68138,-0.24900,-0.33758,49.7561,-12.1951,-10.0000,0.00,0.00,0.00,5,S01
4120,-8.57842,0.02873,-0.11013,44.5732,-9.7561,-7.5000,0.00,0.00,0.00,5,S01
4140,-8.89207,0.22505,0.55306,35.7927,-8.6585,-4.1463,0.00,0.00,0.00,5,S01
4160,-9.17219,0.38307,1.15640,27.2561,-12.8049,-0.3049,0.00,0.00,0.00,5,S01
4180,-8.79869,-0.14365,1.37906,21.0976,-18.1098,5.1829,0.00,0.00,0.00,5,S01
4200,-8.48026,-1.10373,0.86191,21.2195,-15.1829,9.7561,0.00,0.00,0.00,5,S01
4220,-8.96389,-1.04148,-0.20590,26.5244,-6.5244,13.1098,0.00,0.00,0.00,5,S01
4240,-9.82580,-0.48123,-0.01197,28.2927,-3.7805,18.1707,0.00,0.00,0.00,5,S01
4260,-10.38605,1.67834,0.14605,7.9878,-27.2561,10.7927,0.00,0.00,0.00,5,S01
4280,-10.38605,1.67834,0.14605,7.9878,-27.2561,10.7927,0.00,0.00,0.00,5,S01
4300,-10.34295,1.18752,-1.81480,-6.6463,-23.1707,0.7317,0.00,0.00,0.00,5,S01
4320,-10.88883,-0.99599,-3.27287,-21.0366,-17.0122,-10.7317,0.00,0.00,0.00,5,S01
4340,-11.20247,-2.49236,-3.15316,-26.0976,-16.1585,-31.2805,0.00,0.00,0.00,5,S01
4360,-11.23359,-2.59292,-2.51152,-8.0488,-26.5854,-46.9512,0.00,0.00,0.00,5,S01
4380,-11.48977,-2.17154,-2.38702,22.5000,-37.6829,-41.8293,0.00,0.00,0.00,5,S01
4400,-11.36767,-2.26731,-1.55863,41.2805,-36.2195,-23.2317,0.00,0.00,0.00,5,S01
4420,-10.16578,-2.77967,-1.18992,56.0976,-37.6829,-0.4878,0.00,0.00,0.00,5,S01
4440,-8.50660,-2.91135,-1.41737,78.9024,-33.4146,14.2683,0.00,0.00,0.00,5,S01
4460,-7.29274,-2.11887,-1.94409,104.1463,-18.1098,19.2683,0.00,0.00,0.00,5,S01
4480,-7.07008,-1.20189,-2.46842,123.7195,-1.9512,20.4268,0.00,0.00,0.00,5,S01
4500,-7.84819,-0.57700,-1.96564,133.5976,9.0854,20.7927,0.00,0.00,0.00,5,S01
4520,-8.77236,0.21308,-1.64721,136.6463,12.0732,20.7927,0.00,0.00,0.00,5,S01
4540,-9.32781,0.87388,-1.25935,133.6585,14.3293,21.2195,0.00,0.00,0.00,5,S01
4560,-9.65342,0.98881,-0.95529,126.8902,13.8415,21.0976,0.00,0.00,0.00,5,S01
4580,-9.63906,0.44053,-0.76375,121.7683,12.0122,20.6098,0.00,0.00,0.00,5,S01
4600,-9.15782,-0.46208,-0.56743,122.6220,12.1951,19.7561,0.00,0.00,0.00,5,S01
4620,-8.93277,0.03112,-0.54827,134.7561,17.9878,17.3171,0.00,0.00,0.00,5,S01
4640,-9.23204,0.81403,-0.48363,133.1098,17.0732,19.0854,0.00,0.00,0.00,5,S01
4660,-9.11951,1.46286,-0.63925,127.0732,11.7683,19.8171,0.00,0.00,0.00,5,S01
4680,-8.82503,1.87705,-0.73023,116.1585,6.2195,17.9268,0.00,0.00,0.00,5,S01
4700,-8.63110,2.03747,-0.62968,102.3171,2.5610,14.5122,0.00,0.00,0.00,5,S01
4720,-8.77236,2.18112,-0.21548,86.0366,1.3415,11.0976,0.00,0.00,0.00,5,S01
4740,-9.01178,2.21224,0.16041,69.2683,0.7927,7.6220,0.00,0.00,0.00,5,S01
4760,-9.09318,1.74537,0.50278,55.6098,-0.2439,4.0854,0.00,0.00,0.00,5,S01
4780,-8.99741,0.96965,0.56743,48.3537,-0.7927,0.9146,0.00,0.00,0.00,5,S01
4800,-8.88967,0.22266,0.62010,46.1585,-0.2439,-2.3171,0.00,0.00,0.00,5,S01
4820,-8.92558,-0.11492,0.48123,47.0122,-1.4634,-6.2805,0.00,0.00,0.00,5,S01
4840,-9.13627,-0.09098,0.48363,48.3537,-2.7439,-8.4146,0.00,0.00,0.00,5,S01
4860,-9.38288,0.25618,0.61292,49.5732,-5.7927,-6.9512,0.00,0.00,0.00,5,S01
4880,-9.26317,0.67277,0.90022,47.0732,-12.0122,-3.5976,0.00,0.00,0.00,5,S01
4900,-9.42118,0.31603,1.44370,43.7195,-18.7195,-2.4390,0.00,0.00,0.00,5,S01
4920,-9.26317,-0.53630,2.01831,46.8293,-22.0732,-2.9878,0.00,0.00,0.00,5,S01
4940,-9.37091,-0.94810,2.37744,56.2195,-17.0122,-2.8659,0.00,0.00,0.00,5,S01
4960,-11.75074,-0.00718,0.56503,67.9878,-7.9268,2.8659,0.00,0.00,0.00,5,S01
4980,-14.46577,0.99599,-2.20985,74.7561,8.8415,23.5976,0.00,0.00,0.00,5,S01
5000,-13.11304,1.08218,-3.23935,64.2683,25.4878,50.7927,0.00,0.00,0.00,5,S01
5020,-9.89763,0.62728,-3.36625,41.5854,16.4024,56.2195,0.00,0.00,0.00,5,S01
5040,-6.71334,0.60094,-4.49870,42.8659,-0.4878,41.8293,0.00,0.00,0.00,5,S01
5060,-6.57927,1.71185,-5.46596,47.9878,-1.1585,23.9634,0.00,0.00,0.00,5,S01
5080,-9.33020,2.43011,-4.02705,33.7195,1.4634,10.0000,0.00,0.00,0.00,5,S01
5100,-10.63983,1.35512,-2.63362,20.0610,-14.5122,1.3415,0.00,0.00,0.00,5,S01
5120,-9.86651,-0.14844,-1.78847,17.9268,-26.8902,-7.0732,0.00,0.00,0.00,5,S01
5140,-9.10754,-0.97444,-1.55863,24.0244,-29.4512,-18.7195,0.00,0.00,0.00,5,S01
5160,-8.89685,-0.38547,-1.79326,30.1829,-29.7561,-27.6220,0.00,0.00,0.00,5,S01
5180,-8.87770,0.38547,-1.55144,30.0000,-22.9268,-29.8171,0.00,0.00,0.00,5,S01
5200,-8.84418,0.52672,-1.19950,27.1341,-16.2805,-30.9146,0.00,0.00,0.00,5,S01
5220,-8.82263,0.30406,-0.96247,28.5976,-10.3659,-34.3902,0.00,0.00,0.00,5,S01
5240,-8.85376,0.19872,-0.95529,32.0122,-4.6951,-37.7439,0.00,0.00,0.00,5,S01
5260,-8.83460,0.26576,-1.08457,32.9878,-1.1585,-38.1098,0.00,0.00,0.00,5,S01
5280,-8.74362,0.08619,-0.76375,30.1829,1.0976,-35.6098,0.00,0.00,0.00,5,S01
5300,-8.70292,-0.18196,-0.43814,29.5122,0.9146,-32.7439,0.00,0.00,0.00,5,S01
5320,-8.76278,-0.40941,-0.03831,33.7195,2.9268,-24.7561,0.00,0.00,0.00,5,S01
5340,-8.76278,-0.40941,-0.03831,33.7195,2.9268,-24.7561,0.00,0.00,0.00,5,S01
5360,-8.69095,-0.34955,0.11971,35.6098,6.0366,-21.1585,0.00,0.00,0.00,5,S01
5380,-8.59758,-0.28491,0.27294,37.1341,7.7439,-18.2317,0.00,0.00,0.00,5,S01
5400,-8.67659,-0.18675,0.38786,37.3780,9.0244,-15.2439,0.00,0.00,0.00,5,S01
5420,-9.06205,-0.04788,0.60334,35.1220,10.6707,-12.0122,0.00,0.00,0.00,5,S01
5440,-9.38527,0.10056,0.79009,28.6585,9.4512,-8.3537,0.00,0.00,0.00,5,S01
5460,-9.39485,0.21069,0.78530,20.2439,5.1829,-5.3659,0.00,0.00,0.00,5,S01
5480,-9.51695,0.37350,0.67995,10.0610,-0.1220,-3.4146,0.00,0.00,0.00,5,S01
5500,-9.58638,0.24900,0.90501,-1.0366,-5.6707,-2.6220,0.00,0.00,0.00,5,S01
5520,-9.21289,-1.22583,0.97923,-5.4878,-10.7927,-3.2317,0.00,0.00,0.00,5,S01
5540,-8.97107,-1.69749,0.19393,4.2683,-10.1829,-5.3659,0.00,0.00,0.00,5,S01
5560,-8.87052,-1.22823,0.53870,4.3902,-4.3902,-7.5610,0.00,0.00,0.00,5,S01
5580,-8.98304,-0.38547,0.90022,2.8049,-5.5488,-11.8902,0.00,0.00,0.00,5,S01
5600,-10.03170,-0.06943,0.65601,0.6098,-10.2439,-16.3415,0.00,0.00,0.00,5,S01
5620,-12.02368,-1.10373,-1.37427,1.2195,-10.8537,-22.5610,0.00,0.00,0.00,5,S01
5640,-13.18487,-2.31519,-1.99198,10.0610,-5.7317,-32.6829,0.00,0.00,0.00,5,S01
5660,-12.13860,-1.61369,-2.38223,18.6585,-17.8659,-42.3780,0.00,0.00,0.00,5,S01
5680,-9.68455,0.20351,-2.88741,13.1098,-36.5854,-40.6098,0.00,0.00,0.00,5,S01
5700,-8.09240,0.38547,-3.12204,-1.5854,-37.6220,-26.8293,0.00,0.00,0.00,5,S01
5720,-9.32302,-0.73741,-1.65679,-6.0366,-18.9634,-18.2317,0.00,0.00,0.00,5,S01
5740,-10.70687,-1.37427,-0.91937,9.0854,-6.3415,-14.2073,0.00,0.00,0.00,5,S01
5760,-10.76672,-1.09176,-1.10612,28.4756,-3.2927,-6.3415,0.00,0.00,0.00,5,S01
5780,-10.03889,-0.47884,-1.38385,39.5732,-3.6585,5.3049,0.00,0.00,0.00,5,S01
5800,-9.36372,0.16281,-1.50595,45.0000,-2.7439,15.0000,0.00,0.00,0.00,5,S01
5820,-8.80827,0.41899,-1.33357,44.8780,1.0976,20.5488,0.00,0.00,0.00,5,S01
5840,-8.48744,0.20590,-1.01275,42.5610,3.8415,21.7073,0.00,0.00,0.00,5,S01
5860,-8.29351,0.01437,-1.38145,51.7683,8.7805,14.2073,0.00,0.00,0.00,5,S01
5880,-8.58561,-0.01437,-1.32878,55.1220,13.2317,11.9512,0.00,0.00,0.00,5,S01
5900,-8.93756,0.04310,-1.28569,57.6220,13.9024,11.0366,0.00,0.00,0.00,5,S01
5920,-8.95192,0.25618,-1.26893,58.7805,11.3415,11.4024,0.00,0.00,0.00,5,S01
5940,-8.73165,0.52433,-0.99838,56.0976,5.9146,12.7439,0.00,0.00,0.00,5,S01
5960,-8.76038,0.82600,-0.70390,51.4024,-0.3659,13.8415,0.00,0.00,0.00,5,S01
5980,-8.93756,1.03669,-0.62489,46.5854,-1.6463,13.4756,0.00,0.00,0.00,5,S01
6000,-9.15782,0.66319,-0.34955,41.3415,2.5610,11.3415,0.00,0.00,0.00,5,S01
6020,-9.32063,0.27294,-0.23942,40.7927,5.1220,7.0732,0.00,0.00,0.00,5,S01
6040,-9.24641,-0.03831,0.03352,41.4024,5.1829,3.8415,0.00,0.00,0.00,5,S01
6060,-9.04769,-0.19872,0.09098,45.0000,4.8780,1.8293,0.00,0.00,0.00,5,S01
6080,-8.82503,-0.41420,0.12929,47.4390,3.2317,0.2439,0.00,0.00,0.00,5,S01
6100,-8.61194,-0.39983,-0.15323,49.2073,2.8659,-1.7683,0.00,0.00,0.00,5,S01
6120,-8.65025,0.09098,-0.08380,49.5122,7.3780,-4.1463,0.00,0.00,0.00,5,S01
6140,-8.90882,0.59376,0.14844,46.7683,8.4146,-5.2439,0.00,0.00,0.00,5,S01
6160,-8.79151,0.64165,-0.05746,44.1463,5.0000,-5.1829,0.00,0.00,0.00,5,S01
6180,-8.29830,0.43335,-0.35195,43.5976,4.6951,-5.9146,0.00,0.00,0.00,5,S01
6200,-8.25760,0.56982,-0.45011,42.9268,6.1585,-7.7439,0.00,0.00,0.00,5,S01
6220,-8.62870,1.51553,-0.37828,36.8902,5.7927,-8.7195,0.00,0.00,0.00,5,S01
6240,-8.82742,2.07338,-0.28970,25.4268,5.3659,-5.4268,0.00,0.00,0.00,5,S01
6260,-8.38689,1.56820,-0.51954,17.6220,7.0732,-2.6829,0.00,0.00,0.00,5,S01
6280,-7.51779,1.08457,-0.80685,17.4390,12.1341,-6.0976,0.00,0.00,0.00,5,S01
6300,-7.08205,1.55623,-0.50518,14.4512,15.3049,-9.9390,0.00,0.00,0.00,5,S01
6320,-7.11557,1.54665,-0.15323,4.5732,10.7317,-5.3659,0.00,0.00,0.00,5,S01
6340,-7.10599,0.97923,-0.08859,1.4024,4.8780,1.0366,0.00,0.00,0.00,5,S01
6360,-6.90727,1.14203,-0.12929,5.4878,2.0122,0.7317,0.00,0.00,0.00,5,S01
6380,-7.16824,2.38462,1.00796,0.2439,-1.7073,-0.1829,0.00,0.00,0.00,5,S01
6400,-8.24084,3.03585,1.93451,-28.1707,-31.5244,1.1585,0.00,0.00,0.00,5,S01
6420,-8.24084,3.03585,1.93451,-28.1707,-31.5244,1.1585,0.00,0.00,0.00,5,S01
6440,-7.01262,1.91776,-0.05028,-25.0000,-25.0610,-6.9512,0.00,0.00,0.00,5,S01
6460,-5.70778,0.86670,-0.40941,-19.6951,-5.7927,-13.5366,0.00,0.00,0.00,5,S01
6480,-6.35900,1.92015,0.66559,-23.9024,-2.5610,-10.7317,0.00,0.00,0.00,5,S01
6500,-8.62391,3.12683,0.69192,-45.9756,-17.3780,4.2683,0.00,0.00,0.00,5,S01
6520,-10.74278,2.41336,0.32561,-51.7073,-13.7805,18.1098,0.00,0.00,0.00,5,S01
6540,-18.21748,1.66636,-5.59046,-30.4878,3.2317,23.5976,0.00,0.00,0.00,5,S01
6560,-21.46641,-3.05500,-4.21858,-32.4390,51.5244,48.4756,0.00,0.00,0.00,5,S01
6580,-19.88863,-6.73728,-1.20428,-76.2805,45.2439,61.9512,0.00,0.00,0.00,5,S01
6600,-15.63893,-3.99592,-2.57856,-67.5000,-16.3415,25.9756,0.00,0.00,0.00,5,S01
6620,-13.98453,-0.43574,-2.04704,-28.1098,-41.2195,-11.8293,0.00,0.00,0.00,5,S01
6640,-12.50970,-0.29449,-2.69348,-13.0488,-37.6829,-22.3780,0.00,0.00,0.00,5,S01
6660,-10.71166,-1.33836,-2.37744,-12.5610,-11.4634,-19.5732,0.00,0.00,0.00,5,S01
6680,-8.97586,-1.73580,-1.81959,-14.8171,1.3415,-19.6951,0.00,0.00,0.00,5,S01
6700,-7.01980,-1.19471,-1.86748,-18.7805,1.4024,-20.9756,0.00,0.00,0.00,5,S01
6720,-5.98550,-0.56743,-2.04704,-21.4024,11.4634,-19.0244,0.00,0.00,0.00,5,S01
6740,-6.24647,-0.41659,-1.52271,-18.0488,31.5854,-14.5122,0.00,0.00,0.00,5,S01
6760,-6.98149,-0.48123,-1.14682,-11.0366,39.3293,-10.9756,0.00,0.00,0.00,5,S01
6780,-7.71891,-0.85473,-0.45250,-6.1585,30.6098,-9.8171,0.00,0.00,0.00,5,S01
6800,-8.30788,-1.36469,0.32801,2.0732,14.1463,-12.1951,0.00,0.00,0.00,5,S01
6820,-8.88967,-1.41497,0.35434,16.8293,2.0122,-15.1220,0.00,0.00,0.00,5,S01
6840,-9.07402,-1.15161,0.03831,28.8415,-0.5488,-12.0732,0.00,0.00,0.00,5,S01
6860,-8.80348,-0.88346,-0.03831,32.8659,-0.5488,-4.8171,0.00,0.00,0.00,5,S01
6880,-8.05649,-0.67038,-0.03112,28.9634,-1.8902,-0.5488,0.00,0.00,0.00,5,S01
6900,-7.05332,-0.23224,-0.26576,22.5000,3.5976,-0.0610,0.00,0.00,0.00,5,S01
6920,-7.11557,0.10534,0.43096,14.5732,11.4024,-0.6098,0.00,0.00,0.00,5,S01
6940,-7.94396,0.30167,0.93374,5.5488,5.6707,0.6098,0.00,0.00,0.00,5,S01
6960,-7.78594,-0.05507,0.88825,-1.7683,-2.2561,4.0244,0.00,0.00,0.00,5,S01
6980,-6.41167,-0.71826,0.73981,-6.0976,-5.8537,3.4146,0.00,0.00,0.00,5,S01
7000,-5.63356,-0.90501,1.00796,-6.2195,-8.2927,-1.0976,0.00,0.00,0.00,5,S01
7020,-5.80115,-0.57221,0.53151,-1.8902,-9.1463,-3.5976,0.00,0.00,0.00,5,S01
7040,-6.14831,-0.59137,-0.52672,3.5366,-0.3049,1.7073,0.00,0.00,0.00,5,S01
7060,-7.18021,-1.50116,-0.16759,9.2683,20.1829,12.9878,0.00,0.00,0.00,5,S01
7080,-8.79869,-1.96803,0.52433,28.1707,16.0976,20.1220,0.00,0.00,0.00,5,S01
7100,-7.53695,-0.22027,-0.32322,33.5976,7.3780,12.6220,0.00,0.00,0.00,5,S01
7120,-7.14669,1.23780,-1.94888,28.5976,8.3537,5.3659,0.00,0.00,0.00,5,S01
7140,-8.42520,0.91219,-4.01268,23.8415,22.6220,1.0976,0.00,0.00,0.00,5,S01
7160,-10.14902,-0.05986,-3.76608,29.6341,35.9146,-5.1220,0.00,0.00,0.00,5,S01
7180,-12.80419,-0.67516,-1.06781,29.8780,9.7561,-9.4512,0.00,0.00,0.00,5,S01
7200,-18.11692,-1.60890,-2.01352,29.6951,-60.4268,-12.8659,0.00,0.00,0.00,5,S01
7220,-19.72583,0.92895,-2.65038,40.6098,-70.9146,-32.3171,0.00,0.00,0.00,5,S01
7240,-16.92701,3.28245,-1.58017,43.2317,-48.2317,-27.1341,0.00,0.00,0.00,5,S01
7260,-12.61984,2.22182,-1.13246,20.3659,-56.8902,10.4878,0.00,0.00,0.00,5,S01
7280,-12.49773,1.57538,0.06464,-10.9756,-37.0122,29.5732,0.00,0.00,0.00,5,S01
7300,-13.32373,1.17555,0.00000,-28.0488,-4.6951,21.7683,0.00,0.00,0.00,5,S01
7320,-12.36605,1.09176,-0.52912,-30.8537,10.4878,9.5732,0.00,0.00,0.00,5,S01
7340,-9.90960,0.87149,-0.54348,-25.9756,9.9390,9.6951,0.00,0.00,0.00,5,S01
7360,-7.32386,0.04788,-0.83079,-14.2073,8.3537,16.4634,0.00,0.00,0.00,5,S01
7380,-6.02381,-0.41420,-1.23541,-3.5366,20.3049,17.9878,0.00,0.00,0.00,5,S01
7400,-6.44759,-0.28012,-0.65601,0.0610,35.7317,12.0122,0.00,0.00,0.00,5,S01
7420,-7.38611,-0.13168,-0.22266,0.6707,38.5976,4.6341,0.00,0.00,0.00,5,S01
7440,-7.76918,-0.05507,-0.21069,4.2073,31.2195,-2.0122,0.00,0.00,0.00,5,S01
7460,-7.48667,-0.01676,-0.76854,10.6098,20.7927,-9.5122,0.00,0.00,0.00,5,S01
7480,-6.87136,-0.33040,-1.23780,16.6463,18.2317,-17.0732,0.00,0.00,0.00,5,S01
7500,-6.59363,-0.83318,-1.12288,28.0488,25.6098,-23.6585,0.00,0.00,0.00,5,S01
7520,-6.96473,-1.30963,-0.30167,45.1220,32.6829,-26.4634,0.00,0.00,0.00,5,S01
7540,-7.24485,-1.23780,0.04549,65.3659,27.7439,-25.8537,0.00,0.00,0.00,5,S01
7560,-6.47632,-0.38786,-0.00239,85.0000,17.6829,-21.2805,0.00,0.00,0.00,5,S01
7580,-5.65989,1.21865,-0.45969,94.9390,11.4634,-15.4268,0.00,0.00,0.00,5,S01
7600,-5.69820,2.00874,-1.01993,84.9390,14.2683,-8.5976,0.00,0.00,0.00,5,S01
7620,-6.85699,2.42293,-0.97683,69.0854,23.7805,-7.6829,0.00,0.00,0.00,5,S01
7640,-8.67898,3.39019,-0.07183,46.8902,21.2195,-9.4512,0.00,0.00,0.00,5,S01
7660,-9.42597,3.89776,-0.19632,15.4878,-3.1098,-8.5366,0.00,0.00,0.00,5,S01
7680,-8.55209,3.60088,-1.14443,-5.0000,-22.1341,-9.3902,0.00,0.00,0.00,5,S01
7700,-7.22091,2.26970,-1.76692,-15.4268,-23.1098,-11.3415,0.00,0.00,0.00,5,S01
7720,-7.13233,1.39821,-1.69509,-17.0122,-21.0366,-7.8659,0.00,0.00,0.00,5,S01
7740,-8.08522,0.33998,-2.06380,-20.9146,-28.4146,3.4146,0.00,0.00,0.00,5,S01
7760,-10.52491,-1.23780,-1.17316,-22.8049,-30.7927,11.9512,0.00,0.00,0.00,5,S01
7780,-19.43852,-2.20027,-6.43083,-0.7927,-42.5000,17.9878,0.00,0.00,0.00,5,S01
7800,-21.92131,-4.25928,-2.62165,0.6098,-30.5488,49.0854,0.00,0.00,0.00,5,S01
7820,-15.75864,-5.44920,-1.48201,-46.5244,-52.3171,67.8659,0.00,0.00,0.00,5,S01
7840,-11.16895,-1.60172,-1.08218,-32.9268,-63.4756,31.7683,0.00,0.00,0.00,5,S01
7860,-12.66533,0.12210,-1.34315,-15.6707,-42.9268,-16.4024,0.00,0.00,0.00,5,S01
7880,-14.31733,-0.88585,-0.41180,-19.0854,-17.3171,-37.6220,0.00,0.00,0.00,5,S01
7900,-12.89996,-1.67834,-0.43096,-16.0976,-7.6220,-35.9756,0.00,0.00,0.00,5,S01
7920,-9.93354,-2.13563,-0.70868,-16.7073,-9.6341,-27.5000,0.00,0.00,0.00,5,S01
7940,-8.10916,-1.45089,-0.90740,-16.2805,-4.8780,-24.2683,0.00,0.00,0.00,5,S01
7960,-7.68060,-0.60094,-0.75417,-10.1829,9.6341,-21.7683,0.00,0.00,0.00,5,S01
7980,-7.51779,-0.73981,-0.30646,-3.9634,20.3049,-15.5488,0.00,0.00,0.00,5,S01
8000,-7.46273,-0.84515,-0.25379,2.5610,20.9146,-9.5122,0.00,0.00,0.00,5,S01
8020,-7.38372,-0.75657,-0.20111,6.9512,19.0244,-2.8049,0.00,0.00,0.00,5,S01
8040,-7.86974,-0.73741,0.02634,8.3537,15.8537,2.1951,0.00,0.00,0.00,5,S01
8060,-8.52815,-1.01993,0.06704,10.0000,10.9146,5.3049,0.00,0.00,0.00,5,S01
8080,-8.94953,-1.02232,-0.13168,11.7073,6.8293,5.9146,0.00,0.00,0.00,5,S01
8100,-8.99980,-0.80445,-0.13168,9.6951,5.6707,5.9146,0.00,0.00,0.00,5,S01
8120,-8.92798,-0.84276,0.17478,5.4268,4.8780,6.0976,0.00,0.00,0.00,5,S01
8140,-9.14106,-1.00556,0.72544,4.6951,3.8415,5.1829,0.00,0.00,0.00,5,S01
8160,-9.32542,-1.11570,1.11809,5.4878,2.8049,4.5122,0.00,0.00,0.00,5,S01
8180,-9.10515,-1.01275,1.04148,5.9146,1.3415,6.2195,0.00,0.00,0.00,5,S01
8200,-8.60237,-0.90980,0.73741,5.9146,1.7683,10.1829,0.00,0.00,0.00,5,S01
8220,-7.67581,-1.20668,0.07901,6.8293,5.1829,13.5366,0.00,0.00,0.00,5,S01
8240,-6.79235,-1.14443,-0.85234,8.7195,14.5122,14.2073,0.00,0.00,0.00,5,S01
8260,-6.68940,-0.81403,-0.54109,6.4634,25.1220,12.3171,0.00,0.00,0.00,5,S01
8280,-6.88094,-0.53391,-0.31603,2.5610,23.5976,9.0854,0.00,0.00,0.00,5,S01
8300,-5.55934,-1.21386,-0.85234,6.2195,18.8415,3.3537,0.00,0.00,0.00,5,S01
8320,-5.49709,-1.32399,-0.42138,12.7439,25.7317,2.4390,0.00,0.00,0.00,5,S01
8340,-6.99586,-1.53708,1.27850,20.3659,21.4634,4.8780,0.00,0.00,0.00,5,S01
8360,-8.63589,-1.93691,1.95367,29.9390,5.2439,9.1463,0.00,0.00,0.00,5,S01
8380,-8.20014,-1.37906,-0.64165,38.9634,-0.1829,12.8049,0.00,0.00,0.00,5,S01
8400,-7.23288,-0.96965,-0.46448,30.7317,13.3537,11.7683,0.00,0.00,0.00,5,S01
8420,-7.15866,-1.13964,0.64165,22.0122,8.9634,4.3293,0.00,0.00,0.00,5,S01
8440,-8.15465,-1.25217,0.46687,19.8780,-3.2927,-4.9390,0.00,0.00,0.00,5,S01
8460,-9.10994,-0.52433,-2.74136,20.0610,-0.4878,-10.4268,0.00,0.00,0.00,5,S01
8480,-9.99819,0.63686,-3.49793,13.7195,15.9756,-13.7805,0.00,0.00,0.00,5,S01
8500,-11.85609,1.26653,-1.45807,2.4390,3.2927,-17.0122,0.00,0.00,0.00,5,S01
8520,-15.56949,-1.49638,-3.47878,-2.2561,-49.4512,-19.8780,0.00,0.00,0.00,5,S01
8540,-16.32606,2.41096,-1.51314,47.9268,-22.7439,-46.8902,0.00,0.00,0.00,5,S01
8560,-15.12896,2.09253,-1.86508,45.1220,-23.6585,-7.3780,0.00,0.00,0.00,5,S01
8580,-15.12896,2.09253,-1.86508,45.1220,-23.6585,-7.3780,0.00,0.00,0.00,5,S01
8600,-16.03876,1.49877,-0.22505,17.8659,-31.7073,22.1341,0.00,0.00,0.00,5,S01
8620,-14.53041,1.01035,-0.52194,3.5366,-27.0732,25.4268,0.00,0.00,0.00,5,S01
8640,-12.32296,1.24977,-1.38864,4.0854,-9.7561,14.6951,0.00,0.00,0.00,5,S01
8660,-9.88566,1.86508,-1.82199,7.0732,1.8293,12.0732,0.00,0.00,0.00,5,S01
8680,-7.69257,1.41018,-1.98240,9.2683,13.1707,19.3293,0.00,0.00,0.00,5,S01
8700,-6.80193,0.35195,-1.52271,10.5488,29.8171,22.3171,0.00,0.00,0.00,5,S01
8720,-7.07247,-0.18196,-1.03669,14.7561,40.3049,17.8049,0.00,0.00,0.00,5,S01
8740,-7.51540,-0.44293,-0.82361,20.7927,38.5976,12.6220,0.00,0.00,0.00,5,S01
8760,-7.62314,-0.36631,-0.65122,29.6951,30.0000,6.7073,0.00,0.00,0.00,5,S01
8780,-7.46033,0.00958,-1.17555,40.3049,18.6585,-0.9146,0.00,0.00,0.00,5,S01
8800,-7.40766,-0.10534,-1.33596,46.0366,13.8415,-6.8293,0.00,0.00,0.00,5,S01
8820,-8.20014,0.07661,-0.74220,50.9146,12.6829,-11.3415,0.00,0.00,0.00,5,S01
8840,-9.09557,0.25857,-0.19393,51.2805,4.3293,-13.2317,0.00,0.00,0.00,5,S01
8860,-8.97586,0.43574,-0.11732,50.2439,-5.6098,-11.5244,0.00,0.00,0.00,5,S01
8880,-8.14268,0.77333,-0.06704,48.3537,-8.2317,-8.7195,0.00,0.00,0.00,5,S01
8900,-7.74764,1.41258,0.14126,44.3293,-7.5610,-6.0976,0.00,0.00,0.00,5,S01
8920,-7.29753,1.24498,-0.17957,36.7073,-7.1341,-1.2805,0.00,0.00,0.00,5,S01
8940,-6.59363,0.92416,-0.95529,34.3902,2.5610,0.4878,0.00,0.00,0.00,5,S01
8960,-6.18901,1.47004,-1.57060,32.4390,19.0244,-3.1098,0.00,0.00,0.00,5,S01
8980,-6.89291,2.99515,-1.06542,16.2195,27.9878,-4.1463,0.00,0.00,0.00,5,S01
9000,-7.85777,3.15316,-0.68474,-13.2317,19.4512,2.3171,0.00,0.00,0.00,5,S01
9020,-8.09240,1.64721,-0.87628,-32.8659,10.0610,3.7805,0.00,0.00,0.00,5,S01
9040,-7.47949,0.48123,-1.50595,-32.8659,11.8902,-8.3537,0.00,0.00,0.00,5,S01
9060,-7.42203,1.01035,-0.45969,-30.6707,10.3659,-19.8780,0.00,0.00,0.00,5,S01
9080,-8.25042,1.47483,1.16598,-44.3293,-11.1585,-16.7683,0.00,0.00,0.00,5,S01
9100,-8.54251,1.52989,0.30406,-50.8537,-32.4390,-10.6098,0.00,0.00,0.00,5,S01
9120,-8.06607,0.86670,-0.57940,-51.5244,-27.1341,-8.8415,0.00,0.00,0.00,5,S01
9140,-8.03255,0.46208,-2.17872,-43.5366,-17.8049,-8.7805,0.00,0.00,0.00,5,S01
9160,-9.05487,0.60094,-2.66714,-36.4634,-20.4268,-1.7683,0.00,0.00,0.00,5,S01
9180,-10.53449,0.75178,-0.83797,-43.9634,-37.0122,8.4756,0.00,0.00,0.00,5,S01
9200,-16.32606,0.16999,-2.30083,-46.0366,-65.4878,15.0000,0.00,0.00,0.00,5,S01
9220,-18.72984,-1.55144,-3.27766,-38.0488,-46.5854,31.0976,0.00,0.00,0.00,5,S01
9240,-15.07629,-2.88262,-0.62249,-65.5488,-21.9512,40.9756,0.00,0.00,0.00,5,S01
9260,-11.47301,-1.51074,-0.63446,-55.2439,-34.8780,15.4878,0.00,0.00,0.00,5,S01
9280,-13.10347,-1.05584,-0.28970,-24.2073,-19.2073,-12.7439,0.00,0.00,0.00,5,S01
9300,-15.81131,-2.15239,0.69671,-7.8659,1.2805,-21.2805,0.00,0.00,0.00,5,S01
9320,-14.12818,-2.65038,-0.35913,8.3537,-1.1585,-19.1463,0.00,0.00,0.00,5,S01
9340,-10.66138,-2.25294,-1.37906,12.9268,-4.9390,-20.9756,0.00,0.00,0.00,5,S01
9360,-8.14507,-1.00317,-1.77171,10.4268,6.8902,-25.6098,0.00,0.00,0.00,5,S01
9380,-7.19936,0.32801,-1.88184,5.9146,27.1341,-25.3659,0.00,0.00,0.00,5,S01
9400,-7.07008,0.28491,-1.16837,0.1220,43.3537,-20.3049,0.00,0.00,0.00,5,S01
9420,-7.27119,-0.04788,-0.81163,-2.6829,41.5854,-16.3415,0.00,0.00,0.00,5,S01
9440,-7.20655,-0.04549,-1.05584,-4.1463,30.4878,-12.5610,0.00,0.00,0.00,5,S01
9460,-7.10360,0.05507,-1.13725,-7.7439,24.0244,-8.1707,0.00,0.00,0.00,5,S01
9480,-7.46751,-0.17957,-0.80685,-13.6585,19.0854,-3.2927,0.00,0.00,0.00,5,S01
9500,-8.34379,-0.60813,-0.31364,-24.1463,2.3171,1.8293,0.00,0.00,0.00,5,S01
9520,-8.54012,-0.58179,0.12929,-27.3780,-6.6463,4.6951,0.00,0.00,0.00,5,S01
9540,-7.90565,-0.34716,0.21069,-28.9024,-11.9512,9.3902,0.00,0.00,0.00,5,S01
9560,-7.20176,-0.45969,0.66080,-29.2683,-8.2317,13.9634,0.00,0.00,0.00,5,S01
9580,-6.76841,-1.04148,1.08697,-25.0610,-5.0610,16.7683,0.00,0.00,0.00,5,S01
9600,-6.49307,-1.76453,1.17795,-6.7683,2.6829,7.9268,0.00,0.00,0.00,5,S01
9620,-7.27598,-1.32160,-0.56503,6.7073,9.0854,5.4878,0.00,0.00,0.00,5,S01
9640,-7.27598,-1.32160,-0.56503,6.7073,9.0854,5.4878,0.00,0.00,0.00,5,S01
9660,-6.71574,-1.25456,-1.75016,14.3293,25.1829,11.8293,0.00,0.00,0.00,5,S01
9680,-6.50983,-1.97522,-0.13886,15.4878,37.0732,13.3537,0.00,0.00,0.00,5,S01
9700,-7.05092,-2.29604,1.10612,20.9756,21.8902,3.4756,0.00,0.00,0.00,5,S01
9720,-7.34541,-1.39343,0.38547,30.4878,2.0122,-7.1341,0.00,0.00,0.00,5,S01
9740,-6.81629,0.01915,-1.13246,30.7317,1.9512,-8.1707,0.00,0.00,0.00,5,S01
9760,-6.81869,0.53630,-1.31681,16.3415,10.3049,-4.3293,0.00,0.00,0.00,5,S01
9780,-8.68377,-0.28252,-1.35272,3.7195,4.4512,-8.2927,0.00,0.00,0.00,5,S01
9800,-11.81060,0.24181,-0.82839,-1.3415,-15.3659,-19.8171,0.00,0.00,0.00,5,S01
9820,-15.05235,0.32322,-0.42138,-7.8659,-42.8049,-19.6951,0.00,0.00,0.00,5,S01
9840,-18.45930,0.16759,-4.01986,5.6098,-57.0732,-18.7805,0.00,0.00,0.00,5,S01
9860,-18.06665,2.26731,-0.49799,19.5732,-31.4024,-32.7439,0.00,0.00,0.00,5,S01
9880,-14.18804,3.05021,-1.08218,24.1463,-44.5732,-16.8902,0.00,0.00,0.00,5,S01
9900,-12.62702,0.62489,-0.60334,7.3780,-44.5122,14.6341,0.00,0.00,0.00,5,S01
9920,-14.30536,-0.24181,0.48602,-10.0000,-13.4146,18.1707,0.00,0.00,0.00,5,S01
9940,-14.66927,0.83079,-0.17717,5.0610,10.1220,6.3415,0.00,0.00,0.00,5,S01
9960,-12.71560,2.45406,-1.16598,15.3049,9.5732,3.5366,0.00,0.00,0.00,5,S01
9980,-9.46428,2.95205,-1.48680,11.0976,7.6829,11.8293,0.00,0.00,0.00,5,S01
10000,-6.79714,1.62087,-1.71185,5.7317,18.4146,22.8659,0.00,0.00,0.00,5,S01
10020,-6.20338,0.45250,-1.67594,2.8049,38.2927,23.2927,0.00,0.00,0.00,5,S01
10040,-7.03416,-0.12210,-0.96965,-0.6707,52.9878,18.0488,0.00,0.00,0.00,5,S01
10060,-7.67821,-0.05746,-0.79009,4.3902,55.6707,12.9878,0.00,0.00,0.00,5,S01
10080,-7.30232,0.46208,-1.46525,12.0122,45.9146,9.2073,0.00,0.00,0.00,5,S01
10100,-6.83784,0.69192,-1.79565,11.5854,37.5610,10.6707,0.00,0.00,0.00,5,S01
10120,-7.27598,-0.20590,-1.17555,6.7073,34.7561,11.8293,0.00,0.00,0.00,5,S01
10140,-8.14268,-0.46208,-0.23942,22.1341,17.5000,-1.2805,0.00,0.00,0.00,5,S01
10160,-7.35738,0.08619,-0.74460,51.4634,-23.9024,-16.5244,0.00,0.00,0.00,5,S01
10180,-5.91607,0.01915,-0.49560,54.0244,-41.9512,-15.9756,0.00,0.00,0.00,5,S01
10200,-5.43484,0.13886,-0.10295,52.1951,-23.1098,-13.2317,0.00,0.00,0.00,5,S01
10220,-6.48589,0.94571,0.39025,52.3781,2.5000,-16.5244,0.00,0.00,0.00,5,S01
10240,-7.48427,1.89621,0.54109,46.5854,5.0610,-16.9512,0.00,0.00,0.00,5,S01
10260,-7.34302,2.56658,0.20111,31.4024,-12.8049,-11.2195,0.00,0.00,0.00,5,S01
10280,-6.98389,3.11486,-0.45490,8.1707,-28.5366,-5.3659,0.00,0.00,0.00,5,S01
10300,-7.46991,3.19626,-0.97205,-14.8780,-26.2195,-6.3415,0.00,0.00,0.00,5,S01
10320,-8.09480,2.49236,-0.42377,-32.3780,-15.9756,-10.9756,0.00,0.00,0.00,5,S01
10340,-8.35576,2.15718,-0.38547,-43.5366,-17.5610,-12.5610,0.00,0.00,0.00,5,S01
10360,-8.88728,2.05662,-1.48680,-56.7073,-23.6585,-7.1341,0.00,0.00,0.00,5,S01
10380,-9.46189,0.33279,-2.09493,-58.7195,-21.7683,4.3293,0.00,0.00,0.00,5,S01
10400,-10.52970,-1.64482,-0.81403,-52.0122,-23.9024,10.9756,0.00,0.00,0.00,5,S01
10420,-16.13692,-2.74854,-1.17795,-34.2073,-42.6220,7.9878,0.00,0.00,0.00,5,S01
10440,-20.07538,-1.75734,-2.77967,-14.4512,-41.5854,13.1707,0.00,0.00,0.00,5,S01
10460,-17.40345,-0.74939,0.40223,-40.7317,-36.4024,26.3415,0.00,0.00,0.00,5,S01
10480,-13.40514,0.92895,-2.12126,-39.4512,-59.5732,17.3171,0.00,0.00,0.00,5,S01
10500,-12.47140,0.25857,-0.78290,-33.9024,-37.6220,3.2317,0.00,0.00,0.00,5,S01
10520,-12.35887,-1.21625,-0.26576,-37.4390,-24.8780,-11.4024,0.00,0.00,0.00,5,S01
10540,-11.28148,-2.12366,-0.03112,-34.8780,-13.6585,-21.2805,0.00,0.00,0.00,5,S01
10560,-9.67736,-1.91536,-0.34477,-27.5610,3.1707,-25.1220,0.00,0.00,0.00,5,S01
10580,-8.42520,-1.01514,-0.60813,-22.2561,18.4756,-24.6341,0.00,0.00,0.00,5,S01
10600,-7.86974,-0.11971,-0.70629,-19.9390,28.9024,-22.1341,0.00,0.00,0.00,5,S01
10620,-7.92960,0.02155,-0.49799,-18.9634,35.0000,-18.2927,0.00,0.00,0.00,5,S01
10640,-7.03895,-0.54588,-0.30646,-20.9756,19.8171,-2.4390,0.00,0.00,0.00,5,S01
10660,-7.03895,-0.54588,-0.30646,-20.9756,19.8171,-2.4390,0.00,0.00,0.00,5,S01
10680,-7.03895,-0.54588,-0.30646,-20.9756,19.8171,-2.4390,0.00,0.00,0.00,5,S01
10700,-6.84742,-0.51236,-0.57461,-20.0610,21.5244,1.2805,0.00,0.00,0.00,5,S01
10720,-7.57286,-0.52912,-0.38307,-25.7927,24.6341,6.0366,0.00,0.00,0.00,5,S01
10740,-7.79791,-0.25618,0.06704,-30.1829,18.3537,8.2317,0.00,0.00,0.00,5,S01
10760,-7.54652,-0.08859,0.75178,-34.2683,4.5122,9.5732,0.00,0.00,0.00,5,S01
10780,-7.08684,-0.32801,1.43413,-34.2073,-12.1951,9.1463,0.00,0.00,0.00,5,S01
10800,-6.33985,-0.99599,1.55384,-30.9756,-19.0854,8.4146,0.00,0.00,0.00,5,S01
10820,-5.94720,-1.28090,0.28252,-25.6707,-9.0854,8.7805,0.00,0.00,0.00,5,S01
10840,-6.33027,-1.54187,0.31843,-23.1098,7.9878,9.1463,0.00,0.00,0.00,5,S01
10860,-7.15387,-2.13084,1.39582,-15.4268,7.8659,10.1829,0.00,0.00,0.00,5,S01
10880,-7.65666,-2.19788,1.34554,0.0610,-2.2561,11.2805,0.00,0.00,0.00,5,S01
10900,-7.23528,-1.51553,-0.56743,12.4390,2.3171,15.0000,0.00,0.00,0.00,5,S01
10920,-7.30232,-0.71108,-0.35195,11.9512,18.5366,16.0366,0.00,0.00,0.00,5,S01
10940,-8.96868,-0.53151,2.11408,9.8171,11.8902,10.6098,0.00,0.00,0.00,5,S01
10960,-10.76672,-1.41497,1.50356,18.3537,-18.0488,1.5854,0.00,0.00,0.00,5,S01
10980,-12.08593,-1.27372,-2.06380,31.6463,-17.5000,-10.2439,0.00,0.00,0.00,5,S01
11000,-11.99734,0.72305,-2.48758,29.4512,3.1707,-19.8780,0.00,0.00,0.00,5,S01
11020,-11.33654,2.17394,-1.73580,12.0732,-13.4146,-19.2073,0.00,0.00,0.00,5,S01
11040,-13.97017,1.39582,-0.90501,-11.3415,-50.3049,-15.9756,0.00,0.00,0.00,5,S01
11060,-16.49605,-0.28970,-0.59376,-15.1829,-49.6341,-29.7561,0.00,0.00,0.00,5,S01
11080,-15.44499,0.60573,0.48123,4.6951,-31.5854,-39.4512,0.00,0.00,0.00,5,S01
11100,-12.35169,1.21625,-0.23942,7.2561,-53.6585,-15.0610,0.00,0.00,0.00,5,S01
11120,-11.89200,0.76854,0.84276,-10.0000,-49.1463,15.2439,0.00,0.00,0.00,5,S01
11140,-12.98615,0.56264,1.25217,-13.4756,-16.2195,18.9024,0.00,0.00,0.00,5,S01
11160,-12.02129,0.77333,0.47884,-7.8049,-3.1707,7.3171,0.00,0.00,0.00,5,S01
11180,-10.02213,0.95768,-0.42617,-1.7683,-3.4756,5.5488,0.00,0.00,0.00,5,S01
11200,-8.66940,1.20907,-0.88346,1.4634,6.4024,12.6829,0.00,0.00,0.00,5,S01
11220,-8.19296,1.25935,-0.60094,-0.7317,23.7195,16.9512,0.00,0.00,0.00,5,S01
11240,-8.17141,1.17316,0.02873,-5.2439,32.3171,14.3902,0.00,0.00,0.00,5,S01
11260,-8.05409,0.73263,0.16520,-7.8049,28.9024,8.3537,0.00,0.00,0.00,5,S01
11280,-7.88889,0.30646,0.01915,-7.5000,24.3902,1.7073,0.00,0.00,0.00,5,S01
11300,-7.69975,0.33279,-0.16520,-6.7683,23.4756,-4.3902,0.00,0.00,0.00,5,S01
11320,-7.26401,0.27294,-0.33040,-5.5488,23.4756,-7.3780,0.00,0.00,0.00,5,S01
11340,-6.94318,-0.29928,-0.39504,0.2439,23.9634,-7.5610,0.00,0.00,0.00,5,S01
11360,-7.78594,-0.80685,-0.01197,8.6585,23.6585,-8.9024,0.00,0.00,0.00,5,S01
11380,-8.52096,-0.56743,0.30885,17.3171,17.3780,-14.0244,0.00,0.00,0.00,5,S01
11400,-7.52737,-0.11492,-0.19154,25.7317,7.6829,-16.2195,0.00,0.00,0.00,5,S01
11420,-6.27999,0.54827,-0.70629,33.9634,7.1951,-14.9390,0.00,0.00,0.00,5,S01
11440,-5.79876,1.31921,-0.55545,36.4634,12.6829,-10.6098,0.00,0.00,0.00,5,S01
11460,-5.60004,1.53468,-0.01197,31.0976,13.9024,-1.9512,0.00,0.00,0.00,5,S01
11480,-5.33428,1.25935,-0.04310,23.2927,10.1220,4.9390,0.00,0.00,0.00,5,S01
11500,-6.35661,1.77171,0.24900,14.6341,7.6829,5.1220,0.00,0.00,0.00,5,S01
11520,-8.23605,2.23858,0.77812,-3.1707,-0.4268,1.7683,0.00,0.00,0.00,5,S01
11540,-9.05008,2.03986,0.17478,-13.2927,-9.0244,-5.1220,0.00,0.00,0.00,5,S01
11560,-8.47308,1.88903,-0.16041,-9.9390,-5.7927,-11.8293,0.00,0.00,0.00,5,S01
11580,-7.75721,1.84114,0.25857,-15.7927,-11.2195,-8.8415,0.00,0.00,0.00,5,S01
11600,-8.56645,2.00395,-0.30167,-26.8293,-25.8537,2.6829,0.00,0.00,0.00,5,S01
11620,-9.47146,-0.24660,-0.29449,-33.1707,-25.0000,16.4024,0.00,0.00,0.00,5,S01
11640,-12.87123,-2.34632,1.02711,-12.1341,-19.9390,15.8537,0.00,0.00,0.00,5,S01
11660,-19.14643,-3.28963,-4.72376,22.6829,-40.5488,14.1463,0.00,0.00,0.00,5,S01
11680,-18.27494,-3.21302,0.56024,4.3293,-25.6707,37.0732,0.00,0.00,0.00,5,S01
11700,-14.39394,1.04387,0.09577,-5.6707,-27.2561,-13.2317,0.00,0.00,0.00,5,S01
11720,-14.39394,1.04387,0.09577,-5.6707,-27.2561,-13.2317,0.00,0.00,0.00,5,S01
11740,-15.01164,-0.78530,0.86670,-17.5610,-7.8049,-16.8293,0.00,0.00,0.00,5,S01
11760,-15.01164,-0.78530,0.86670,-17.5610,-7.8049,-16.8293,0.00,0.00,0.00,5,S01
11780,-12.15776,-2.14999,0.00239,-23.6585,-4.8780,-10.6707,0.00,0.00,0.00,5,S01
11800,-9.72285,-2.39899,-0.48602,-25.1829,2.8659,-14.8780,0.00,0.00,0.00,5,S01
11820,-8.79390,-1.31681,-0.53870,-20.0610,17.5000,-23.7805,0.00,0.00,0.00,5,S01
11840,-8.64067,-0.40462,-0.30167,-10.9146,30.2439,-24.0244,0.00,0.00,0.00,5,S01
11860,-8.16902,-0.61770,0.00239,-6.8293,32.1341,-15.4878,0.00,0.00,0.00,5,S01
11880,-7.35020,-1.07500,0.16759,-5.0000,27.9268,-6.1585,0.00,0.00,0.00,5,S01
11900,-7.10838,-1.17316,-0.00718,-3.2927,29.8780,0.2439,0.00,0.00,0.00,5,S01
11920,-8.19296,-1.15161,0.13168,2.0732,35.3049,3.7195,0.00,0.00,0.00,5,S01
11940,-8.86333,-1.19950,0.46448,3.8415,25.6707,6.8293,0.00,0.00,0.00,5,S01
11960,-8.66462,-0.96965,0.38786,5.1220,14.3293,9.8171,0.00,0.00,0.00,5,S01
11980,-8.32464,-0.62010,0.44293,6.4024,6.2805,11.2805,0.00,0.00,0.00,5,S01
12000,-8.50899,-0.44772,0.90740,6.6463,-2.8049,11.6463,0.00,0.00,0.00,5,S01
12020,-7.82665,-0.50278,0.62489,8.3537,-8.4756,12.3171,0.00,0.00,0.00,5,S01
12040,-6.76601,-0.65122,-0.04070,8.1707,1.2195,13.7195,0.00,0.00,0.00,5,S01
12060,-5.87058,-1.04627,-0.43335,7.4390,17.3780,15.6098,0.00,0.00,0.00,5,S01
12080,-5.73172,-1.68312,0.14365,10.7927,30.1220,15.3659,0.00,0.00,0.00,5,S01
12100,-6.55293,-1.62087,0.60334,20.3049,33.4756,10.7927,0.00,0.00,0.00,5,S01
12120,-6.85221,-0.87628,-0.53630,28.7805,29.5122,7.3780,0.00,0.00,0.00,5,S01
12140,-6.19619,-0.05986,-1.62327,30.1220,30.1829,8.1707,0.00,0.00,0.00,5,S01
12160,-6.35421,-0.08619,-0.08140,26.7073,32.1341,9.2683,0.00,0.00,0.00,5,S01
12180,-8.02536,-0.73981,1.59214,28.7195,17.8659,8.7195,0.00,0.00,0.00,5,S01
12200,-8.60476,-1.13725,1.02232,34.0854,-1.4024,7.3171,0.00,0.00,0.00,5,S01
12220,-7.67102,-0.68714,0.33279,32.1341,-9.5122,2.6829,0.00,0.00,0.00,5,S01
12240,-7.36696,-0.76136,0.73981,23.5976,-13.2317,-4.1463,0.00,0.00,0.00,5,S01
12260,-8.95431,-1.26653,-0.43574,28.0488,-18.4146,-11.2805,0.00,0.00,0.00,5,S01
12280,-10.86728,0.50996,-1.24977,34.0854,-15.0000,-19.3902,0.00,0.00,0.00,5,S01
12300,-12.15297,2.03268,-0.85952,17.6829,-15.9756,-16.9512,0.00,0.00,0.00,5,S01
12320,-16.23508,1.57060,-3.79960,12.9878,-27.3171,-11.2195,0.00,0.00,0.00,5,S01
12340,-18.36592,1.44849,-2.38223,24.4512,-9.6951,-23.2927,0.00,0.00,0.00,5,S01
12360,-15.55752,2.34871,-1.18752,23.5976,-22.4390,-27.0122,0.00,0.00,0.00,5,S01
12380,-12.35408,2.09732,-1.10133,13.4756,-41.2805,-5.0000,0.00,0.00,0.00,5,S01
12400,-13.40274,1.54665,-0.29449,-5.3659,-24.2073,15.6707,0.00,0.00,0.00,5,S01
12420,-14.13297,0.79009,-0.06464,-13.4146,0.6098,13.0488,0.00,0.00,0.00,5,S01
12440,-13.05558,1.06063,-0.50757,-2.9878,9.6951,-1.7073,0.00,0.00,0.00,5,S01
12460,-10.99178,1.36469,-1.13964,5.0000,8.5976,-1.6463,0.00,0.00,0.00,5,S01
12480,-9.04769,1.21865,-1.17076,8.4756,11.3415,7.8049,0.00,0.00,0.00,5,S01
12500,-7.66145,0.93134,-1.12767,9.1463,19.9390,12.6220,0.00,0.00,0.00,5,S01
12520,-7.00304,0.69911,-1.01993,7.6220,28.7805,11.1585,0.00,0.00,0.00,5,S01
12540,-7.06050,0.56743,-0.55306,4.3902,32.2561,6.4634,0.00,0.00,0.00,5,S01
12560,-7.23049,0.47645,-0.47884,5.0610,29.6951,2.3171,0.00,0.00,0.00,5,S01
12580,-7.33583,0.56743,-0.59376,7.5000,24.7561,-1.8293,0.00,0.00,0.00,5,S01
12600,-7.30950,0.67038,-0.90261,10.9146,19.6341,-5.9146,0.00,0.00,0.00,5,S01
12620,-7.60159,0.78051,-0.76854,12.7439,15.7927,-8.7805,0.00,0.00,0.00,5,S01
12640,-7.87214,0.63925,-0.39265,13.1707,9.9390,-9.3293,0.00,0.00,0.00,5,S01
12660,-7.12036,0.54588,-0.27294,15.3659,2.4390,-9.0244,0.00,0.00,0.00,5,S01
12680,-6.22732,0.19393,-0.14365,17.9268,-0.4878,-9.5732,0.00,0.00,0.00,5,S01
12700,-6.40449,0.20590,0.13408,21.5244,0.8537,-12.1951,0.00,0.00,0.00,5,S01
12720,-6.64391,0.86191,0.51236,21.6463,2.5000,-14.4512,0.00,0.00,0.00,5,S01
12740,-6.47632,1.37667,0.28012,18.7195,1.5244,-14.9390,0.00,0.00,0.00,5,S01
12760,-7.42442,1.60890,-0.22984,-6.1585,-6.4024,-9.8171,0.00,0.00,0.00,5,S01
12780,-7.42442,1.60890,-0.22984,-6.1585,-6.4024,-9.8171,0.00,0.00,0.00,5,S01
12800,-7.42442,1.60890,-0.22984,-6.1585,-6.4024,-9.8171,0.00,0.00,0.00,5,S01
12820,-7.81228,1.31921,0.01197,-15.6707,-15.4878,-10.2439,0.00,0.00,0.00,5,S01
12840,-7.71172,1.24259,-0.24660,-15.7927,-19.5732,-10.4878,0.00,0.00,0.00,5,S01
12860,-7.60159,1.49398,0.44532,-20.8537,-27.1341,-6.9512,0.00,0.00,0.00,5,S01
12880,-8.65025,2.09971,-0.76854,-27.5610,-36.5854,0.8537,0.00,0.00,0.00,5,S01
12900,-9.31584,-0.12450,-1.66636,-25.2439,-28.9024,13.2927,0.00,0.00,0.00,5,S01
12920,-14.26705,-1.92733,-0.15802,-2.8049,-25.9146,18.0488,0.00,0.00,0.00,5,S01
12940,-19.30684,-3.02148,-4.71179,16.9512,-44.3293,26.2805,0.00,0.00,0.00,5,S01
12960,-17.87750,-4.20661,2.68151,-20.0610,-36.5854,38.9634,0.00,0.00,0.00,5,S01
12980,-13.21120,-0.67277,0.18675,-18.1098,-87.8049,9.9390,0.00,0.00,0.00,5,S01
13000,-12.97657,1.94888,-0.03831,9.8171,-69.6951,-14.2073,0.00,0.00,0.00,5,S01
13020,-13.33092,0.87628,-0.11492,1.9512,-31.7073,-6.7683,0.00,0.00,0.00,5,S01
13040,-12.99333,-1.57538,1.59214,-14.5732,-13.5976,-4.6951,0.00,0.00,0.00,5,S01
13060,-11.37725,-3.35428,1.32878,-1.6463,-7.9878,-14.0244,0.00,0.00,0.00,5,S01
13080,-10.11550,-2.44687,0.26576,12.6829,0.7927,-24.7561,0.00,0.00,0.00,5,S01
13100,-9.44752,-0.23942,0.00000,15.4878,17.3171,-25.3659,0.00,0.00,0.00,5,S01
13120,-9.03811,0.73741,0.13647,14.6341,27.3171,-17.9268,0.00,0.00,0.00,5,S01
13140,-7.96790,-0.96247,0.98641,12.3171,18.7805,-6.2805,0.00,0.00,0.00,5,S01
13160,-7.60159,-1.66876,0.95529,16.4024,21.0976,-4.1463,0.00,0.00,0.00,5,S01
13180,-7.33583,-1.54187,0.46687,24.3902,26.6463,-3.2317,0.00,0.00,0.00,5,S01
13200,-7.12036,-1.13006,-0.09577,27.5610,28.2317,-1.0976,0.00,0.00,0.00,5,S01
13220,-7.04374,-0.75657,-0.09098,25.3659,27.9878,2.5000,0.00,0.00,0.00,5,S01
13240,-7.02219,-0.53151,0.34237,21.8293,23.6585,5.5488,0.00,0.00,0.00,5,S01
13260,-7.24725,-0.29688,0.58419,19.2683,15.0610,6.7073,0.00,0.00,0.00,5,S01
13280,-7.15387,-0.50757,0.68474,19.0244,6.8902,8.9634,0.00,0.00,0.00,5,S01
13300,-6.41646,-1.15161,0.73981,20.9146,5.3049,12.7439,0.00,0.00,0.00,5,S01
13320,-6.19141,-1.58017,0.71108,22.5610,15.4878,15.6098,0.00,0.00,0.00,5,S01
13340,-7.09402,-1.41018,0.69911,22.8659,25.9146,16.4634,0.00,0.00,0.00,5,S01
13360,-6.94797,-1.66636,0.59855,25.9756,23.9024,15.7927,0.00,0.00,0.00,5,S01
13380,-6.36139,-2.38462,0.80924,37.7439,20.4268,9.8780,0.00,0.00,0.00,5,S01
13400,-6.47632,-1.53229,0.18675,53.0488,20.3659,0.5488,0.00,0.00,0.00,5,S01
13420,-7.83383,-0.05507,0.11732,53.7805,25.3049,-1.8902,0.00,0.00,0.00,5,S01
13440,-8.82982,1.18274,0.70629,43.5366,24.0244,5.7317,0.00,0.00,0.00,5,S01
13460,-8.54491,0.49081,1.39582,29.5732,13.9634,12.5610,0.00,0.00,0.00,5,S01
13480,-8.26957,-1.06303,0.39504,19.0244,5.6098,5.9146,0.00,0.00,0.00,5,S01
13500,-9.02135,-0.80924,-1.35272,16.0366,12.0732,-12.6829,0.00,0.00,0.00,5,S01
13520,-10.13226,1.14682,-1.15161,11.0976,18.5366,-26.5244,0.00,0.00,0.00,5,S01
13540,-13.88398,1.64721,-0.78530,3.5366,-5.4878,-26.5854,0.00,0.00,0.00,5,S01
13560,-18.53830,-0.62249,-3.08373,7.1951,-42.3780,-33.4756,0.00,0.00,0.00,5,S01
13580,-18.06665,-0.22505,-0.94810,36.1585,-39.7561,-51.4634,0.00,0.00,0.00,5,S01
13600,-13.63019,0.32801,-1.16119,59.0854,-60.2439,-31.1585,0.00,0.00,0.00,5,S01
13620,-11.87524,0.48123,0.05028,43.1098,-76.5244,3.7195,0.00,0.00,0.00,5,S01
13640,-13.02685,1.12527,-0.67038,21.5854,-43.9634,17.9268,0.00,0.00,0.00,5,S01
13660,-13.34767,1.26414,-0.39025,14.8171,7.6220,12.5000,0.00,0.00,0.00,5,S01
13680,-11.78666,1.43652,-0.70629,15.0000,15.4878,6.5854,0.00,0.00,0.00,5,S01
13700,-9.02853,0.79487,-1.09894,19.6951,10.9756,14.9390,0.00,0.00,0.00,5,S01
13720,-7.00543,-0.20351,-1.86987,26.4634,21.5244,24.0854,0.00,0.00,0.00,5,S01
13740,-6.77559,-0.24660,-1.49398,27.6220,40.9756,21.5854,0.00,0.00,0.00,5,S01
13760,-7.57525,0.28252,-0.23703,24.0854,49.8171,12.5000,0.00,0.00,0.00,5,S01
13780,-7.88650,0.66080,0.05986,26.7683,41.8293,6.2195,0.00,0.00,0.00,5,S01
13800,-7.41245,0.59376,-0.75657,29.5732,25.4268,0.6707,0.00,0.00,0.00,5,S01
13820,-7.52737,0.56743,-0.65841,29.7561,23.9634,-2.8659,0.00,0.00,0.00,5,S01
13840,-7.52737,0.56743,-0.65841,29.7561,23.9634,-2.8659,0.00,0.00,0.00,5,S01
13860,-7.54413,0.54588,-0.45011,29.1463,20.4268,-6.4634,0.00,0.00,0.00,5,S01
13880,-7.34781,0.71347,-0.21069,29.3293,17.1341,-8.4756,0.00,0.00,0.00,5,S01
13900,-7.58962,1.02472,0.44532,27.5000,15.6707,-7.5000,0.00,0.00,0.00,5,S01
13920,-7.71891,1.04387,0.51475,24.0854,14.3293,-4.5732,0.00,0.00,0.00,5,S01
13940,-6.99586,0.82839,0.04549,26.7683,19.7561,-1.8293,0.00,0.00,0.00,5,S01
13960,-6.33985,0.90501,-0.14844,31.6463,27.9878,0.6098,0.00,0.00,0.00,5,S01
13980,-7.25443,1.60890,1.17076,25.4268,28.6585,5.3049,0.00,0.00,0.00,5,S01
14000,-9.23683,2.65038,2.41096,9.0244,18.7195,8.6585,0.00,0.00,0.00,5,S01
14020,-10.41957,3.50990,1.84114,-4.3902,10.1220,5.4268,0.00,0.00,0.00,5,S01
14040,-9.58399,3.01909,0.49081,-11.7073,6.0976,-0.4878,0.00,0.00,0.00,5,S01
14060,-7.76679,1.62566,-0.49560,-11.5244,-1.9512,-1.3415,0.00,0.00,0.00,5,S01
14080,-5.59764,-0.22745,-0.47884,-2.1951,-5.8537,5.7317,0.00,0.00,0.00,5,S01
14100,-4.93206,-0.58179,-0.47405,14.6951,-6.8902,13.7195,0.00,0.00,0.00,5,S01
14120,-6.96713,-0.33040,-1.47243,32.5000,-4.0244,26.4024,0.00,0.00,0.00,5,S01
14140,-9.22965,-2.32956,-1.44610,53.1098,6.6463,44.2073,0.00,0.00,0.00,5,S01
14160,-17.69794,-0.74939,-6.57687,84.0244,-11.6463,52.6829,0.00,0.00,0.00,5,S01
14180,-23.31713,0.30885,-6.59124,54.9390,-7.7439,73.1707,0.00,0.00,0.00,5,S01
14200,-19.90779,-2.45406,-3.80918,-17.9878,-16.1585,76.8293,0.00,0.00,0.00,5,S01
14220,-14.05157,-1.58496,-2.75573,-14.1463,-75.6707,33.1098,0.00,0.00,0.00,5,S01
14240,-13.26148,-1.66876,-1.01993,7.3780,-102.9878,-10.9756,0.00,0.00,0.00,5,S01
14260,-13.45302,-1.72861,-1.16119,29.2683,-66.5854,-30.6707,0.00,0.00,0.00,5,S01
14280,-12.05241,-0.96486,-1.09176,39.9390,-33.3537,-28.2927,0.00,0.00,0.00,5,S01
14300,-9.80186,0.33758,-1.77171,37.0732,-18.2317,-24.7561,0.00,0.00,0.00,5,S01
14320,-7.58244,0.97205,-2.22182,27.7439,3.4756,-29.2683,0.00,0.00,0.00,5,S01
14340,-6.10043,0.42377,-1.76213,21.8293,24.3902,-37.5000,0.00,0.00,0.00,5,S01
14360,-6.10521,-0.56264,-0.79966,14.5122,37.0732,-31.2195,0.00,0.00,0.00,5,S01
14380,-6.32309,-0.84515,-0.21308,11.5854,35.6098,-18.0488,0.00,0.00,0.00,5,S01
14400,-6.95516,-0.87149,0.27533,13.4146,29.6341,-10.3049,0.00,0.00,0.00,5,S01
14420,-7.82904,-0.52433,0.38786,17.9878,22.6220,-6.8902,0.00,0.00,0.00,5,S01
14440,-8.57124,-0.06704,0.42138,17.9878,14.1463,-3.9024,0.00,0.00,0.00,5,S01
14460,-8.66222,0.28491,0.37828,12.2561,4.8171,-0.1829,0.00,0.00,0.00,5,S01
14480,-9.03811,0.43814,0.76854,2.0732,-2.6220,1.5244,0.00,0.00,0.00,5,S01
14500,-9.84256,-0.17957,1.80523,-5.4878,-9.7561,1.7683,0.00,0.00,0.00,5,S01
14520,-10.47942,-1.41258,2.12845,-2.0122,-14.8780,2.0122,0.00,0.00,0.00,5,S01
14540,-10.64223,-1.42934,1.39821,6.3415,-11.9512,-0.3659,0.00,0.00,0.00,5,S01
14560,-10.46745,-0.86431,1.23541,3.2317,-7.2561,-5.1829,0.00,0.00,0.00,5,S01
14580,-10.49379,-0.53391,0.52433,-1.2195,-8.9024,-9.8780,0.00,0.00,0.00,5,S01
14600,-11.24557,-1.51792,-1.83396,-4.4512,-9.0854,-14.6341,0.00,0.00,0.00,5,S01
14620,-12.21522,-2.48279,-3.37104,2.0122,2.2561,-26.8902,0.00,0.00,0.00,5,S01
14640,-11.33894,-1.46046,-3.34231,13.3537,1.0366,-41.0976,0.00,0.00,0.00,5,S01
14660,-10.09874,0.01915,-3.40455,15.6707,-16.9512,-46.4024,0.00,0.00,0.00,5,S01
14680,-10.48660,0.20590,-3.56736,18.3537,-28.5366,-39.6951,0.00,0.00,0.00,5,S01
14700,-11.35570,-0.93134,-2.71742,16.0976,-29.4512,-25.3659,0.00,0.00,0.00,5,S01
14720,-10.88404,-1.61848,-1.78129,22.8049,-26.7073,-8.5976,0.00,0.00,0.00,5,S01
14740,-9.63187,-1.65679,-1.37667,40.3659,-21.4634,5.9146,0.00,0.00,0.00,5,S01
14760,-8.42520,-1.21865,-1.88663,61.8902,-13.3537,16.4024,0.00,0.00,0.00,5,S01
14780,-7.87932,-0.91219,-1.96803,77.0732,-1.6463,24.0244,0.00,0.00,0.00,5,S01
14800,-7.85538,-0.93613,-1.62566,87.6829,6.5244,25.9146,0.00,0.00,0.00,5,S01
14820,-7.92720,-0.60094,-1.61130,96.2805,7.5610,25.4268,0.00,0.00,0.00,5,S01
14840,-8.13550,0.02634,-1.72383,99.9390,7.9878,24.8780,0.00,0.00,0.00,5,S01
14860,-9.26556,0.23463,-1.60172,99.7561,8.7195,21.5244,0.00,0.00,0.00,5,S01
14880,-9.26556,0.23463,-1.60172,99.7561,8.7195,21.5244,0.00,0.00,0.00,5,S01
14900,-9.19852,0.33758,-1.24020,98.8415,4.3293,18.2927,0.00,0.00,0.00,5,S01
14920,-8.86573,0.34237,-1.04627,95.2439,-2.4390,14.0854,0.00,0.00,0.00,5,S01
14940,-8.77714,0.22984,-0.84276,92.3781,-6.7683,9.8171,0.00,0.00,0.00,5,S01
14960,-8.97347,0.41180,-0.70150,90.3659,-5.7317,7.4390,0.00,0.00,0.00,5,S01
14980,-9.09318,0.62010,-0.60094,84.8171,-3.7195,8.3537,0.00,0.00,0.00,5,S01
15000,-9.00220,0.69671,-0.45011,78.3537,-2.3780,9.5122,0.00,0.00,0.00,5,S01
15020,-8.85855,0.66798,-0.16999,73.7195,-0.9756,7.9878,0.00,0.00,0.00,5,S01
15040,-8.82024,0.46448,0.18196,71.7073,-1.3415,5.0000,0.00,0.00,0.00,5,S01
15060,-8.97107,0.28730,0.50518,71.5244,-3.3537,2.0122,0.00,0.00,0.00,5,S01
15080,-9.22486,0.08380,0.73741,71.5244,-5.6098,-0.4878,0.00,0.00,0.00,5,S01
15100,-9.27514,-0.14605,0.85952,73.7195,-9.0244,-2.8049,0.00,0.00,0.00,5,S01
15120,-9.07402,-0.29928,0.90022,78.2927,-14.2073,-5.0000,0.00,0.00,0.00,5,S01
15140,-9.08839,-0.04070,0.82121,82.8659,-18.5366,-5.9146,0.00,0.00,0.00,5,S01
15160,-9.32781,1.14682,0.31364,82.4390,-18.5366,-4.3902,0.00,0.00,0.00,5,S01
15180,-9.22725,1.98000,0.05507,72.5000,-13.9634,0.4268,0.00,0.00,0.00,5,S01
15200,-9.32781,2.14760,0.64165,61.3415,-10.1829,4.1463,0.00,0.00,0.00,5,S01
15220,-9.26795,1.14443,1.68791,54.3293,-12.9878,6.2195,0.00,0.00,0.00,5,S01
15240,-9.16022,-0.22745,2.22661,57.9878,-12.4390,6.7073,0.00,0.00,0.00,5,S01
15260,-10.57040,-0.45011,0.87867,66.4024,-3.7195,5.9146,0.00,0.00,0.00,5,S01
15280,-12.45943,0.71347,-1.52989,70.0000,12.1951,11.5854,0.00,0.00,0.00,5,S01
15300,-12.90475,1.05105,-2.32477,60.0610,23.8415,26.7073,0.00,0.00,0.00,5,S01
15320,-11.34852,-0.38547,-2.24097,48.5366,13.5976,37.0732,0.00,0.00,0.00,5,S01
15340,-8.95910,-2.32238,-2.75333,59.3902,-1.7073,31.7683,0.00,0.00,0.00,5,S01
15360,-7.94636,-2.54504,-3.45244,86.1585,-2.2561,16.2805,0.00,0.00,0.00,5,S01
15380,-9.12191,-0.72544,-3.61285,98.1098,2.7439,5.6098,0.00,0.00,0.00,5,S01
15400,-10.16817,0.83079,-3.20344,83.7805,1.2805,2.8659,0.00,0.00,0.00,5,S01
15420,-9.73482,1.12767,-2.51391,64.8171,-5.3659,-1.8293,0.00,0.00,0.00,5,S01
15440,-9.06924,0.41180,-1.81480,52.6829,-11.5854,-11.8293,0.00,0.00,0.00,5,S01
15460,-8.79390,-0.37589,-1.38145,48.5976,-10.4268,-21.5854,0.00,0.00,0.00,5,S01
15480,-8.69813,-0.70868,-1.12527,48.0488,-5.9146,-28.2317,0.00,0.00,0.00,5,S01
15500,-8.77236,-0.66798,-1.04387,47.9268,-3.7805,-31.1585,0.00,0.00,0.00,5,S01
15520,-8.74841,-0.43335,-1.01035,46.3415,-0.9756,-31.3415,0.00,0.00,0.00,5,S01
15540,-8.73644,-0.47405,-0.91698,45.5488,3.2927,-30.5488,0.00,0.00,0.00,5,S01
15560,-8.94234,-0.78769,-0.99599,48.2927,5.8537,-29.5122,0.00,0.00,0.00,5,S01
15580,-9.25598,-0.71108,-0.97923,49.0244,5.8537,-27.2561,0.00,0.00,0.00,5,S01
15600,-8.93277,-0.50996,-0.51715,43.7805,1.9512,-20.3049,0.00,0.00,0.00,5,S01
15620,-8.82263,-0.42856,-0.45011,43.3537,0.9756,-17.4390,0.00,0.00,0.00,5,S01
15640,-8.99023,-0.38547,-0.49321,41.1585,2.6829,-13.9634,0.00,0.00,0.00,5,S01
15660,-9.12670,-0.36871,-0.39504,38.5976,4.3293,-10.8537,0.00,0.00,0.00,5,S01
15680,-9.12191,-0.37350,-0.23942,35.6707,3.4756,-8.7195,0.00,0.00,0.00,5,S01
15700,-8.96868,-0.41420,-0.04549,33.4146,2.7439,-6.8293,0.00,0.00,0.00,5,S01
15720,-8.89446,-0.51715,0.19393,32.5000,2.5000,-4.3293,0.00,0.00,0.00,5,S01
15740,-8.87291,-0.69192,0.53391,32.4390,2.0732,-0.7317,0.00,0.00,0.00,5,S01
15760,-8.80587,-0.96965,0.79248,32.9878,1.3415,3.3537,0.00,0.00,0.00,5,S01
15780,-8.93277,-1.22823,0.74460,33.8415,0.7317,6.3415,0.00,0.00,0.00,5,S01
15800,-8.92798,-1.11330,0.38547,33.2927,1.5244,7.9878,0.00,0.00,0.00,5,S01
15820,-8.76757,-0.65601,0.19872,28.5366,2.9268,9.8171,0.00,0.00,0.00,5,S01
15840,-9.22007,0.13647,-0.11732,21.2805,4.2073,12.0732,0.00,0.00,0.00,5,S01
15860,-9.67018,-0.17957,-0.03831,14.6951,4.0854,14.4512,0.00,0.00,0.00,5,S01
15880,-9.82820,-0.52433,0.53870,17.1951,0.3659,12.8659,0.00,0.00,0.00,5,S01
15900,-10.12268,-0.30885,1.30484,14.5732,-4.8171,6.1585,0.00,0.00,0.00,5,S01
15920,-10.90559,-0.63686,0.84515,-4.3293,-8.4756,-7.9878,0.00,0.00,0.00,5,S01
15940,-10.90559,-0.63686,0.84515,-4.3293,-8.4756,-7.9878,0.00,0.00,0.00,5,S01
15960,-11.92073,-1.52511,-0.36392,-8.1707,-8.2927,-13.5366,0.00,0.00,0.00,5,S01
15980,-12.21761,-2.76291,-1.69749,-7.0732,-7.2561,-19.8171,0.00,0.00,0.00,5,S01
16000,-10.62068,-2.77249,-2.15718,4.2683,-7.9268,-26.0366,0.00,0.00,0.00,5,S01
16020,-8.35337,-2.03747,-2.43730,17.5610,-12.5610,-28.3537,0.00,0.00,0.00,5,S01
16040,-7.30950,-0.92656,-2.67432,24.2073,-14.5122,-26.2195,0.00,0.00,0.00,5,S01
16060,-8.72926,-0.56982,-1.94170,23.9024,-10.0610,-21.2195,0.00,0.00,0.00,5,S01
16080,-10.32859,-0.97205,-1.22344,29.4512,-10.4878,-12.5000,0.00,0.00,0.00,5,S01
16100,-10.21366,-1.38145,-1.62327,45.7927,-16.1585,-4.3902,0.00,0.00,0.00,5,S01
16120,-9.68694,-1.89860,-1.47722,61.4634,-13.8415,1.5244,0.00,0.00,0.00,5,S01
16140,-9.44513,-1.65439,-2.02789,79.0244,-9.5732,6.7073,0.00,0.00,0.00,5,S01
16160,-9.22246,-1.12527,-2.18830,88.4146,-5.7927,12.5000,0.00,0.00,0.00,5,S01
16180,-8.93037,-0.49081,-1.97522,91.7073,-3.4146,16.5244,0.00,0.00,0.00,5,S01
16200,-8.82742,0.16041,-1.65439,92.1951,-0.9756,18.2927,0.00,0.00,0.00,5,S01
16220,-8.93756,0.52672,-1.16358,88.9024,2.7439,17.9268,0.00,0.00,0.00,5,S01
16240,-9.00699,0.30406,-0.83079,83.9634,4.8171,19.5122,0.00,0.00,0.00,5,S01
16260,-9.09797,-0.29449,-0.50996,83.2317,7.1951,20.6707,0.00,0.00,0.00,5,S01
16280,-8.97107,-0.42617,-0.56503,88.4146,8.9024,19.0854,0.00,0.00,0.00,5,S01
16300,-8.80109,-0.21787,-0.67277,91.2805,10.4268,17.5000,0.00,0.00,0.00,5,S01
16320,-8.79869,0.13886,-0.69432,90.9146,12.7439,16.2805,0.00,0.00,0.00,5,S01
16340,-8.91361,0.52672,-0.70390,88.5366,14.3293,15.4268,0.00,0.00,0.00,5,S01
16360,-9.04290,0.77572,-0.59376,83.5366,13.5976,14.6341,0.00,0.00,0.00,5,S01
16380,-9.06924,0.91698,-0.38307,77.3171,11.0976,12.7439,0.00,0.00,0.00,5,S01
16400,-9.05008,1.02951,-0.23703,70.7317,7.6829,10.1220,0.00,0.00,0.00,5,S01
16420,-9.01178,1.04387,-0.06943,63.5976,6.0976,7.8049,0.00,0.00,0.00,5,S01
16440,-8.93995,0.78769,0.15802,57.1341,5.8537,5.4878,0.00,0.00,0.00,5,S01
16460,-8.87052,0.44772,0.34955,54.9390,6.1585,3.9634,0.00,0.00,0.00,5,S01
16480,-8.93756,0.15323,0.70629,54.5732,5.1220,2.6829,0.00,0.00,0.00,5,S01
16500,-9.22007,0.05028,0.96726,55.3659,1.5854,0.9756,0.00,0.00,0.00,5,S01
16520,-9.44273,0.07661,0.98162,56.2195,-3.9024,-1.5244,0.00,0.00,0.00,5,S01
16540,-9.25119,0.35195,0.79248,56.3415,-9.0854,-4.3293,0.00,0.00,0.00,5,S01
16560,-8.95431,0.98162,0.33519,54.2683,-10.4268,-4.7561,0.00,0.00,0.00,5,S01
16580,-9.05966,1.57299,-0.11732,47.4390,-6.8293,-0.7317,0.00,0.00,0.00,5,S01
16600,-8.94953,1.41976,0.17957,38.2317,-3.6585,4.6951,0.00,0.00,0.00,5,S01
16620,-8.72208,0.85712,1.03908,32.6220,-4.6951,5.7317,0.00,0.00,0.00,5,S01
16640,-9.21289,0.19632,1.59693,33.4146,-4.7561,3.5366,0.00,0.00,0.00,5,S01
16660,-10.88883,-0.39025,1.04387,40.8537,-3.7195,3.8415,0.00,0.00,0.00,5,S01
16680,-12.36845,0.01915,-1.14682,48.2927,1.4024,11.7683,0.00,0.00,0.00,5,S01
16700,-12.81377,0.73502,-2.24097,44.5732,12.6829,27.3171,0.00,0.00,0.00,5,S01
16720,-11.71483,0.06225,-2.44687,34.5122,10.4878,38.1098,0.00,0.00,0.00,5,S01
16740,-9.66539,-1.33118,-2.42293,38.9024,-1.2195,37.2561,0.00,0.00,0.00,5,S01
16760,-7.95593,-1.70467,-3.42610,63.7195,-7.3780,26.8293,0.00,0.00,0.00,5,S01
16780,-8.44196,-0.28730,-3.98874,83.6585,-1.5244,16.8293,0.00,0.00,0.00,5,S01
16800,-10.00776,1.31681,-3.39498,76.5244,4.6341,11.0366,0.00,0.00,0.00,5,S01
16820,-10.31662,1.66636,-2.61686,62.1951,4.1463,5.4878,0.00,0.00,0.00,5,S01
16840,-9.30866,0.21787,-1.94888,46.5854,-3.0488,-10.8537,0.00,0.00,0.00,5,S01
16860,-8.91840,0.10534,-2.02310,44.1463,-3.3537,-18.2927,0.00,0.00,0.00,5,S01
16880,-8.55209,0.05986,-1.74298,40.9756,-4.2683,-21.4634,0.00,0.00,0.00,5,S01
16900,-8.21211,0.05028,-1.59454,40.1829,-4.3293,-21.0976,0.00,0.00,0.00,5,S01
16920,-8.20493,-0.06704,-1.58496,40.3049,-0.9146,-20.7317,0.00,0.00,0.00,5,S01
16940,-8.44435,-0.04788,-1.49159,40.9756,4.5732,-20.8537,0.00,0.00,0.00,5,S01
16960,-8.83700,-0.07422,-1.23780,40.2439,6.2805,-18.7195,0.00,0.00,0.00,5,S01
16980,-9.09318,-0.12210,-0.93613,39.3902,3.2927,-15.6707,0.00,0.00,0.00,5,S01
17000,-9.20092,-0.14844,-0.76136,38.7805,-0.7317,-12.2561,0.00,0.00,0.00,5,S01
17020,-9.19373,-0.11013,-0.58419,37.6829,-3.2927,-9.1463,0.00,0.00,0.00,5,S01
17040,-8.89207,0.02634,-0.38547,35.3659,-5.3049,-6.6463,0.00,0.00,0.00,5,S01
17060,-8.88009,0.27773,-0.16041,31.4024,-5.9146,-4.9390,0.00,0.00,0.00,5,S01
17080,-8.94474,0.50278,-0.08140,24.6341,-8.7195,-3.5976,0.00,0.00,0.00,5,S01
17100,-8.61673,0.55306,-0.17957,16.2195,-13.9634,-3.1707,0.00,0.00,0.00,5,S01
17120,-7.72609,0.24421,-0.21308,7.5000,-19.8171,-4.0854,0.00,0.00,0.00,5,S01
17140,-6.11240,-0.24900,-0.59137,0.7927,-24.0854,-5.3049,0.00,0.00,0.00,5,S01
17160,-4.36942,-0.36392,-1.25935,-4.5122,-19.5732,-7.4390,0.00,0.00,0.00,5,S01
17180,-4.01029,0.00958,-1.16837,-10.4268,-7.0122,-10.0000,0.00,0.00,0.00,5,S01
17200,-5.32710,-0.21787,0.48123,-13.9024,1.2195,-8.7805,0.00,0.00,0.00,5,S01
17220,-6.35900,-0.97923,1.13485,-7.2561,-2.7439,-2.5610,0.00,0.00,0.00,5,S01
17240,-6.34463,-1.58975,0.28012,5.1220,-5.0610,3.7805,0.00,0.00,0.00,5,S01
17260,-5.80594,-1.69749,-0.58658,16.2805,-0.7317,4.8171,0.00,0.00,0.00,5,S01
17280,-5.89692,-1.75974,0.11013,20.3659,-0.2439,0.1829,0.00,0.00,0.00,5,S01
17300,-6.97431,-1.24977,0.23703,28.0488,-10.6707,-5.2439,0.00,0.00,0.00,5,S01
17320,-8.22887,-0.61770,-1.08936,33.2317,-17.9268,-3.4756,0.00,0.00,0.00,5,S01
17340,-9.55526,-1.24020,-3.59609,30.5488,-7.2561,0.6098,0.00,0.00,0.00,5,S01
17360,-11.63582,0.91698,-3.50751,30.8537,10.7317,-8.2317,0.00,0.00,0.00,5,S01
17380,-14.34366,2.38223,-0.97444,12.5000,-8.1707,-12.4390,0.00,0.00,0.00,5,S01
17400,-17.81525,0.67756,-3.01669,6.5244,-55.9146,-5.8537,0.00,0.00,0.00,5,S01
17420,-17.18797,1.73340,-0.59616,20.0000,-40.3659,-15.9146,0.00,0.00,0.00,5,S01
17440,-13.52485,2.55461,0.33279,11.5244,-42.3780,-9.5122,0.00,0.00,0.00,5,S01
17460,-12.33253,1.78607,0.17238,-0.7927,-47.9268,12.3780,0.00,0.00,0.00,5,S01
17480,-15.31092,1.11330,1.29287,-19.3902,-24.6951,18.1707,0.00,0.00,0.00,5,S01
17500,-15.86877,0.45011,1.12049,-18.1707,-3.5366,4.4512,0.00,0.00,0.00,5,S01
17520,-13.80257,1.07978,-0.17478,0.1220,-4.3293,-8.2317,0.00,0.00,0.00,5,S01
17540,-10.67335,1.41737,-1.27372,5.5488,-8.7195,-4.3293,0.00,0.00,0.00,5,S01
17560,-8.44196,1.01275,-1.52271,2.2561,0.8537,3.7805,0.00,0.00,0.00,5,S01
17580,-7.54892,0.85234,-1.50116,0.6098,17.4390,5.3659,0.00,0.00,0.00,5,S01
17600,-7.46273,0.88825,-1.05105,-3.1098,27.8659,5.0610,0.00,0.00,0.00,5,S01
17620,-7.63990,0.88107,-0.61292,-8.5366,28.0488,5.7927,0.00,0.00,0.00,5,S01
17640,-7.76679,1.03190,-0.66798,-8.5366,26.2195,5.6707,0.00,0.00,0.00,5,S01
17660,-7.68060,1.14443,-0.78051,-7.5000,23.5366,3.6585,0.00,0.00,0.00,5,S01
17680,-7.64947,0.94332,-0.75417,-7.7439,19.7561,-0.0610,0.00,0.00,0.00,5,S01
17700,-7.89608,0.64883,-0.51715,-7.9268,14.8780,-4.3293,0.00,0.00,0.00,5,S01
17720,-8.07085,0.38547,-0.17717,-7.9878,10.3049,-7.7439,0.00,0.00,0.00,5,S01
17740,-8.29830,0.45729,0.30406,-7.3780,6.5244,-10.1829,0.00,0.00,0.00,5,S01
17760,-8.44435,0.69432,0.66798,-8.6585,2.0732,-10.7317,0.00,0.00,0.00,5,S01
17780,-7.86974,0.70390,0.28491,-9.3293,0.1829,-9.5122,0.00,0.00,0.00,5,S01
17800,-7.13712,0.83558,-0.05746,-6.9512,3.7195,-8.8415,0.00,0.00,0.00,5,S01
17820,-7.48667,0.78530,0.21069,-5.9756,6.7073,-7.6220,0.00,0.00,0.00,5,S01
17840,-7.94636,0.59616,0.19393,-4.8171,4.6341,-7.0732,0.00,0.00,0.00,5,S01
17860,-7.26161,0.43096,-0.32801,1.2195,6.0366,-10.5488,0.00,0.00,0.00,5,S01
17880,-7.14430,1.43892,-0.22745,5.3659,11.7073,-15.3049,0.00,0.00,0.00,5,S01
17900,-7.80510,2.64320,0.80685,-6.9512,5.3049,-12.4390,0.00,0.00,0.00,5,S01
17920,-7.75482,2.36068,1.02472,-23.6585,-11.2805,-2.8049,0.00,0.00,0.00,5,S01
17940,-7.14909,1.15401,0.10295,-27.8049,-16.5854,-0.1829,0.00,0.00,0.00,5,S01
17960,-6.81869,0.76375,-0.12929,-22.6829,-7.1951,-7.1951,0.00,0.00,0.00,5,S01
17980,-7.66145,1.74537,2.28646,-30.0610,-7.4390,-11.6463,0.00,0.00,0.00,5,S01
18000,-9.65821,3.10049,4.18028,-49.8781,-27.3780,-11.4634,0.00,0.00,0.00,5,S01
18020,-10.50336,3.53384,1.97282,-57.6220,-36.7683,-14.3293,0.00,0.00,0.00,5,S01
18040,-9.89284,-0.56982,-2.50194,-48.5976,5.0610,-14.5732,0.00,0.00,0.00,5,S01
18060,-9.79468,-3.91691,-1.39343,-40.4268,-2.2561,2.4390,0.00,0.00,0.00,5,S01
18080,-13.69005,-5.10444,-0.47884,-15.9756,-31.5244,14.5122,0.00,0.00,0.00,5,S01
18100,-15.64850,-3.55060,-2.33195,12.1951,-43.2927,24.0244,0.00,0.00,0.00,5,S01
18120,-13.67568,-0.78051,-0.18435,4.8171,-35.3659,30.1220,0.00,0.00,0.00,5,S01
18140,-10.81700,1.10852,-0.64165,-9.4512,-55.5488,18.7805,0.00,0.00,0.00,5,S01
18160,-11.82017,0.64883,0.29209,-12.3171,-39.8171,-2.2561,0.00,0.00,0.00,5,S01
18180,-13.64695,-1.42694,0.57461,-15.9756,-13.4756,-10.7317,0.00,0.00,0.00,5,S01
18200,-13.32134,-3.09331,0.52912,-16.1585,1.8902,-8.7195,0.00,0.00,0.00,5,S01
18220,-11.64779,-2.53546,-0.20351,-14.3902,0.5488,-10.9756,0.00,0.00,0.00,5,S01
18240,-10.34295,-0.96726,-0.46448,-17.1341,-3.2317,-15.7927,0.00,0.00,0.00,5,S01
18260,-9.31105,0.20590,0.05746,-16.6463,-0.9756,-16.4634,0.00,0.00,0.00,5,S01
18280,-8.30070,-0.05746,0.47645,-12.8049,-1.0976,-12.3780,0.00,0.00,0.00,5,S01
18300,-7.50103,-1.23301,0.78290,-8.4146,0.1220,-6.2195,0.00,0.00,0.00,5,S01
18320,-6.98867,-2.12366,0.90022,0.7927,7.8659,-1.6463,0.00,0.00,0.00,5,S01
18340,-6.86657,-1.87945,0.39744,13.2927,18.5366,0.6098,0.00,0.00,0.00,5,S01
18360,-6.64870,-1.28329,0.05746,18.5976,27.9878,3.1098,0.00,0.00,0.00,5,S01
18380,-6.31590,-0.45250,-0.33758,17.0732,31.4634,5.2439,0.00,0.00,0.00,5,S01
18400,-6.79953,0.05267,0.16281,11.1585,28.6585,7.8659,0.00,0.00,0.00,5,S01
18420,-7.31668,-0.11732,0.93853,7.0122,12.9878,13.2317,0.00,0.00,0.00,5,S01
18440,-6.85221,-0.59855,0.84755,7.6220,-2.0122,17.8049,0.00,0.00,0.00,5,S01
18460,-6.00945,-1.36469,0.41899,10.4268,-0.1829,17.5610,0.00,0.00,0.00,5,S01
18480,-5.13317,-2.19069,0.12210,19.1463,7.0732,12.3780,0.00,0.00,0.00,5,S01
18500,-5.57370,-1.71185,0.66080,30.1829,10.9756,5.2439,0.00,0.00,0.00,5,S01
18520,-7.45076,-0.53391,0.92177,36.3415,8.5976,3.2317,0.00,0.00,0.00,5,S01
18540,-7.76918,0.04549,-0.25857,43.7195,9.0854,9.8780,0.00,0.00,0.00,5,S01
18560,-6.81390,-0.03831,0.08859,40.0610,17.0732,15.5488,0.00,0.00,0.00,5,S01
18580,-6.59842,-0.92656,1.92973,30.0610,14.1463,10.5488,0.00,0.00,0.00,5,S01
18600,-7.13951,-1.46286,1.05105,27.8049,1.8293,-3.9024,0.00,0.00,0.00,5,S01
18620,-8.97347,-1.37188,-1.99916,29.5732,9.2073,-20.4878,0.00,0.00,0.00,5,S01
18640,-11.64061,0.72544,-2.62644,28.3537,31.7073,-32.4390,0.00,0.00,0.00,5,S01
18660,-13.70202,2.97599,-0.83797,15.4878,21.2805,-28.9634,0.00,0.00,0.00,5,S01
18680,-17.42021,2.35111,-1.47483,-5.4268,-35.3659,-9.9390,0.00,0.00,0.00,5,S01
18700,-18.82321,0.57221,0.55545,-14.0244,-52.3781,-10.2439,0.00,0.00,0.00,5,S01
18720,-15.98369,0.20590,0.63207,-0.2439,-40.9146,-19.3902,0.00,0.00,0.00,5,S01
18740,-13.42429,-0.91937,0.80685,6.9512,-41.1585,-9.5732,0.00,0.00,0.00,5,S01
18760,-13.80018,0.22505,1.03908,10.4878,-25.9146,0.9146,0.00,0.00,0.00,5,S01
18780,-13.26388,1.26174,0.80685,11.5244,-7.1341,9.5122,0.00,0.00,0.00,5,S01
18800,-11.96143,1.97761,0.00000,14.0854,5.4268,9.6341,0.00,0.00,0.00,5,S01
18820,-9.96706,2.25294,-0.84994,15.0000,11.4024,9.3293,0.00,0.00,0.00,5,S01
18840,-7.94396,1.45807,-1.21386,10.7927,17.8659,13.4146,0.00,0.00,0.00,5,S01
18860,-6.81869,0.20590,-1.49638,12.0122,29.1463,15.4268,0.00,0.00,0.00,5,S01
18880,-7.23528,0.05267,-1.10852,13.6585,40.7317,10.1220,0.00,0.00,0.00,5,S01
18900,-7.93917,0.43096,-0.47166,10.9756,44.0854,5.9146,0.00,0.00,0.00,5,S01
18920,-8.23127,0.57940,-0.24900,8.5976,38.3537,5.4268,0.00,0.00,0.00,5,S01
18940,-8.05888,0.32322,-0.41899,6.4634,29.5732,5.1220,0.00,0.00,0.00,5,S01
18960,-8.23366,0.06464,-0.40462,7.3171,24.8780,3.0488,0.00,0.00,0.00,5,S01
18980,-8.99502,-0.04549,-0.31603,13.2927,19.0244,-2.0122,0.00,0.00,0.00,5,S01
19000,-9.49301,0.10774,-0.38068,21.8293,9.4512,-8.4756,0.00,0.00,0.00,5,S01
19020,-9.23204,0.54348,-0.38786,27.1951,0.9756,-11.5244,0.00,0.00,0.00,5,S01
19040,-9.12191,1.03430,0.02634,25.0000,-2.9268,-10.1220,0.00,0.00,0.00,5,S01
19060,-9.11712,0.97444,0.26336,20.8537,-4.3902,-6.0976,0.00,0.00,0.00,5,S01
19080,-8.90882,0.57700,0.33040,18.8415,-3.4146,-2.5000,0.00,0.00,0.00,5,S01
19100,-8.58321,0.59616,0.02634,20.4268,-0.3659,-6.4024,0.00,0.00,0.00,5,S01
19120,-8.22887,1.30723,0.13168,19.3902,1.7683,-8.1707,0.00,0.00,0.00,5,S01
19140,-8.22887,1.30723,0.13168,19.3902,1.7683,-8.1707,0.00,0.00,0.00,5,S01
19160,-7.76440,1.61848,0.06704,14.8780,3.3537,-7.4390,0.00,0.00,0.00,5,S01
19180,-7.38851,1.67355,0.04310,10.9146,8.0488,-7.7439,0.00,0.00,0.00,5,S01
19200,-6.53378,0.90740,-0.46687,7.0122,10.7317,-7.8049,0.00,0.00,0.00,5,S01
19220,-6.09803,0.49799,-1.09415,7.3171,15.0610,-7.6829,0.00,0.00,0.00,5,S01
19240,-6.04057,0.63446,-1.13485,3.5976,20.0000,-7.6220,0.00,0.00,0.00,5,S01
19260,-6.31351,1.30245,-0.28012,-2.3780,24.5122,-6.7073,0.00,0.00,0.00,5,S01
19280,-7.19936,1.54905,0.61531,-12.4390,24.0854,-6.3415,0.00,0.00,0.00,5,S01
19300,-8.69813,2.15957,1.16837,-23.9024,3.5976,-12.4390,0.00,0.00,0.00,5,S01
19320,-8.39886,1.90578,0.54827,-30.0000,-9.7561,-15.4268,0.00,0.00,0.00,5,S01
19340,-7.86974,1.68312,0.64404,-34.2073,-15.3659,-16.4634,0.00,0.00,0.00,5,S01
19360,-7.53934,1.30245,0.67756,-37.7439,-18.7805,-14.3902,0.00,0.00,0.00,5,S01
19380,-7.76200,1.02951,-0.96486,-33.4756,-18.1707,-7.8659,0.00,0.00,0.00,5,S01
19400,-8.20014,-0.67756,-2.01352,-27.0122,-11.6463,3.3537,0.00,0.00,0.00,5,S01
19420,-9.89045,-2.26491,-1.59454,-15.2439,-10.0610,8.6585,0.00,0.00,0.00,5,S01
19440,-16.37873,-2.35350,-2.99275,4.1463,-26.5244,9.4512,0.00,0.00,0.00,5,S01
19460,-18.07143,-2.17633,-2.25294,9.3293,-28.1098,25.4268,0.00,0.00,0.00,5,S01
19480,-14.46337,-1.88184,0.23942,-24.3293,-32.5000,32.4390,0.00,0.00,0.00,5,S01
19500,-12.22479,-0.05267,-0.55785,-26.5854,-53.5976,12.9268,0.00,0.00,0.00,5,S01
19520,-14.84884,0.28012,-0.54348,-13.4146,-36.0366,-9.8780,0.00,0.00,0.00,5,S01
19540,-15.57189,-1.02232,-0.05028,-14.2073,-22.7439,-16.0366,0.00,0.00,0.00,5,S01
19560,-12.69645,-2.53307,0.20111,-16.5854,-23.2927,-15.6707,0.00,0.00,0.00,5,S01
19580,-9.98382,-2.77727,-0.03831,-10.3659,-17.6829,-21.2195,0.00,0.00,0.00,5,S01
19600,-8.95910,-1.54426,-0.77572,-5.1220,-4.5732,-27.7439,0.00,0.00,0.00,5,S01
19620,-8.83460,-0.42856,-0.57940,-3.7805,14.3293,-25.4268,0.00,0.00,0.00,5,S01
19640,-8.72447,-0.64883,0.14844,-2.4390,25.6098,-17.1951,0.00,0.00,0.00,5,S01
19660,-8.34140,-1.14922,0.52672,0.3049,24.3902,-10.9146,0.00,0.00,0.00,5,S01
19680,-7.80749,-1.26414,0.28730,6.4634,24.0854,-8.4756,0.00,0.00,0.00,5,S01
19700,-7.51779,-1.18513,0.15083,14.1463,26.9512,-7.1951,0.00,0.00,0.00,5,S01
19720,-7.51061,-1.12288,0.04549,19.0244,26.5244,-4.7561,0.00,0.00,0.00,5,S01
19740,-7.28556,-1.01275,0.14126,19.0244,20.9756,-1.8902,0.00,0.00,0.00,5,S01
19760,-7.09163,-0.66080,0.33998,15.6098,11.6463,0.6098,0.00,0.00,0.00,5,S01
19780,-7.40287,-0.17478,0.41899,11.2805,1.2195,5.7927,0.00,0.00,0.00,5,S01
19800,-6.84263,-0.67277,0.22027,7.0122,-3.5366,16.2195,0.00,0.00,0.00,5,S01
19820,-6.37097,-1.96085,0.47166,10.0610,2.8049,23.9024,0.00,0.00,0.00,5,S01
19840,-6.90727,-2.81798,0.29688,22.0122,8.5976,20.7317,0.00,0.00,0.00,5,S01
19860,-6.98389,-2.43490,-0.20351,33.2927,5.7317,11.5854,0.00,0.00,0.00,5,S01
19880,-6.04536,-1.67355,-0.20830,40.0610,-0.1829,3.7195,0.00,0.00,0.00,5,S01
19900,-5.49948,-0.58897,0.14844,48.1098,-5.1220,-1.5244,0.00,0.00,0.00,5,S01
19920,-5.96156,0.53151,-0.26576,54.6341,-6.2195,0.5488,0.00,0.00,0.00,5,S01
19940,-6.18662,0.75657,-0.51236,45.6098,-0.3049,9.4512,0.00,0.00,0.00,5,S01
19960,-6.64870,0.42377,0.74939,31.5854,5.1829,13.2927,0.00,0.00,0.00,5,S01
19980,-8.23605,-0.69192,2.64559,22.0122,-4.3902,9.8171,0.00,0.00,0.00,5,S01
20000,-10.75715,-1.48201,0.44532,28.5976,-20.9146,2.9268,0.00,0.00,0.00,5,S01
20020,-11.94467,0.33758,-1.59693,35.1220,-8.2317,-4.0854,0.00,0.00,0.00,5,S01
20040,-12.41394,1.30963,-1.04866,17.1951,-1.9512,-1.8902,0.00,0.00,0.00,5,S01
20060,-16.22790,1.26893,-2.40617,10.2439,-26.9512,-4.2073,0.00,0.00,0.00,5,S01
20080,-19.86948,1.51074,-1.50835,5.7317,-32.6829,-22.5000,0.00,0.00,0.00,5,S01
20100,-17.56865,1.87945,-0.57940,5.3049,-45.6707,-30.1829,0.00,0.00,0.00,5,S01
20120,-12.63899,0.78769,0.07661,0.9756,-71.5854,-8.0488,0.00,0.00,0.00,5,S01
20140,-11.51132,-0.28491,0.93853,-15.3049,-56.1585,14.9390,0.00,0.00,0.00,5,S01
20160,-12.34929,0.34955,0.96965,-4.5732,6.5244,10.1829,0.00,0.00,0.00,5,S01
20180,-10.39562,0.80685,0.09337,8.9024,6.5854,8.8415,0.00,0.00,0.00,5,S01
20200,-10.39562,0.80685,0.09337,8.9024,6.5854,8.8415,0.00,0.00,0.00,5,S01
20220,-8.49223,0.56982,-0.92177,21.4634,11.2195,13.1707,0.00,0.00,0.00,5,S01
20240,-7.44836,0.22984,-1.27611,31.7073,25.1220,12.8049,0.00,0.00,0.00,5,S01
20260,-7.07965,0.17717,-1.02232,33.8415,35.3049,7.8659,0.00,0.00,0.00,5,S01
20280,-7.08205,0.41899,-0.69432,31.8902,35.4878,2.4390,0.00,0.00,0.00,5,S01
20300,-7.34781,0.41420,-0.30406,26.4634,29.9390,-1.0366,0.00,0.00,0.00,5,S01
20320,-7.53455,0.04788,-0.39504,22.4390,24.0244,-2.4390,0.00,0.00,0.00,5,S01
20340,-7.93438,-0.22505,-0.61052,23.4146,24.8780,-2.4390,0.00,0.00,0.00,5,S01
20360,-8.59279,-0.30885,-0.70629,26.8902,23.5976,-5.9146,0.00,0.00,0.00,5,S01
20380,-9.10515,0.42377,-0.61531,32.6220,16.4024,-12.2561,0.00,0.00,0.00,5,S01
20400,-9.39006,0.90980,-0.18675,31.8293,5.9756,-14.4512,0.00,0.00,0.00,5,S01
20420,-8.94234,0.83318,-0.29449,29.5732,-2.8659,-10.4878,0.00,0.00,0.00,5,S01
20440,-7.89368,0.54827,-0.61770,29.8780,-1.6463,-4.5732,0.00,0.00,0.00,5,S01
20460,-7.77158,0.70629,-0.33040,28.7805,6.0976,0.3049,0.00,0.00,0.00,5,S01
20480,-8.86573,1.37667,0.56503,22.0122,10.4268,3.1098,0.00,0.00,0.00,5,S01
20500,-10.33577,1.84832,1.54187,11.6463,6.0976,1.4024,0.00,0.00,0.00,5,S01
20520,-8.79869,1.05105,-0.31125,14.7561,-0.3659,-16.8293,0.00,0.00,0.00,5,S01
20540,-6.98628,0.73023,-1.38864,13.0488,5.3049,-17.3780,0.00,0.00,0.00,5,S01
20560,-5.74608,0.71826,-2.00395,10.2439,15.4878,-10.1829,0.00,0.00,0.00,5,S01
20580,-6.24168,1.87705,-0.82600,0.8537,24.5122,-1.4024,0.00,0.00,0.00,5,S01
20600,-8.07325,2.63841,1.14203,-23.1098,16.4024,7.5000,0.00,0.00,0.00,5,S01
20620,-8.79869,1.85072,0.50278,-36.7073,-1.0366,8.5976,0.00,0.00,0.00,5,S01
20640,-7.70215,1.24977,-0.66080,-29.8780,1.2195,-4.6341,0.00,0.00,0.00,5,S01
20660,-7.25204,1.99198,0.71347,-31.6463,5.0000,-14.6951,0.00,0.00,0.00,5,S01
20680,-8.56885,2.67432,2.64080,-54.4512,-17.8049,-10.4878,0.00,0.00,0.00,5,S01
20700,-9.60314,2.49476,1.60651,-70.0610,-38.4146,-6.2195,0.00,0.00,0.00,5,S01
20720,-8.50181,0.86191,-0.26336,-65.0000,-22.9878,-12.1341,0.00,0.00,0.00,5,S01
20740,-7.24246,-0.05267,-1.01275,-48.9634,-5.0610,-18.5366,0.00,0.00,0.00,5,S01
20760,-7.27119,-0.53151,-1.00317,-41.7073,-11.3415,-9.7561,0.00,0.00,0.00,5,S01
20780,-8.39886,-1.17316,-0.65122,-45.0610,-25.4268,10.3659,0.00,0.00,0.00,5,S01
20800,-9.90960,-1.63524,-0.64404,-41.0976,-22.0122,20.6098,0.00,0.00,0.00,5,S01
20820,-16.66843,-1.05584,-0.87388,-23.1707,-16.2195,19.0854,0.00,0.00,0.00,5,S01
20840,-19.32600,-0.79248,-2.54504,-18.5976,-17.0732,32.5000,0.00,0.00,0.00,5,S01
20860,-15.90468,-1.80044,0.22027,-48.5366,-11.7683,40.5488,0.00,0.00,0.00,5,S01
20880,-11.99495,-0.67038,-0.66080,-56.0976,-41.9512,13.1098,0.00,0.00,0.00,5,S01
20900,-11.82975,-0.66080,0.64643,-43.6585,-45.6098,-17.5610,0.00,0.00,0.00,5,S01
20920,-12.40197,-1.25935,0.45969,-28.2927,-29.1463,-28.9634,0.00,0.00,0.00,5,S01
20940,-12.13142,-1.76453,0.59616,-22.4390,-7.5000,-22.9268,0.00,0.00,0.00,5,S01
20960,-10.20648,-2.03507,0.17238,-18.2317,0.5488,-13.2317,0.00,0.00,0.00,5,S01
20980,-8.70292,-1.47004,-0.52672,-15.5488,5.0000,-14.2683,0.00,0.00,0.00,5,S01
21000,-7.94636,-0.58419,-0.53870,-16.0366,17.9268,-16.9512,0.00,0.00,0.00,5,S01
21020,-7.43639,-0.39504,-0.21069,-15.8537,30.0610,-12.5610,0.00,0.00,0.00,5,S01
21040,-7.40527,-0.62728,0.19632,-15.3049,32.2561,-5.5488,0.00,0.00,0.00,5,S01
21060,-7.89608,-0.94092,0.75896,-12.8049,29.2683,-1.4634,0.00,0.00,0.00,5,S01
21080,-8.28873,-1.01035,0.74460,-2.3171,27.4390,0.0000,0.00,0.00,0.00,5,S01
21100,-8.46829,-0.88585,0.23703,8.3537,24.9390,2.0122,0.00,0.00,0.00,5,S01
21120,-8.63828,-0.67995,0.01915,12.0122,21.4024,5.4878,0.00,0.00,0.00,5,S01
21140,-9.04051,-0.43574,0.08140,11.2195,16.2805,8.7195,0.00,0.00,0.00,5,S01
21160,-9.09557,-0.49799,0.54588,7.6220,8.0488,12.5610,0.00,0.00,0.00,5,S01
21180,-8.66462,-0.76854,0.94332,6.0976,-1.1585,14.2683,0.00,0.00,0.00,5,S01
21200,-6.25605,-1.08218,-0.05986,8.4146,1.0976,8.1098,0.00,0.00,0.00,5,S01
21220,-6.25605,-1.08218,-0.05986,8.4146,1.0976,8.1098,0.00,0.00,0.00,5,S01
21240,-5.28640,-1.43892,0.00239,12.9878,14.2073,5.5488,0.00,0.00,0.00,5,S01
21260,-6.42125,-0.80685,0.52672,20.6098,25.0610,3.1098,0.00,0.00,0.00,5,S01
21280,-7.85538,-0.55306,0.49321,21.8902,23.3537,6.0976,0.00,0.00,0.00,5,S01
21300,-7.62074,-0.84994,0.05267,23.5366,19.0854,9.9390,0.00,0.00,0.00,5,S01
21320,-7.98706,-0.69432,0.57940,28.5366,17.1951,7.9268,0.00,0.00,0.00,5,S01
21340,-8.48026,-1.10373,0.79248,30.4878,8.2927,11.0976,0.00,0.00,0.00,5,S01
21360,-7.91523,-0.99599,-0.28970,37.9268,6.5244,16.9512,0.00,0.00,0.00,5,S01
21380,-7.28795,-0.80206,-0.24181,36.7683,12.3171,15.9146,0.00,0.00,0.00,5,S01
21400,-7.27358,-0.67516,0.92895,36.0976,8.5976,7.6829,0.00,0.00,0.00,5,S01
21420,-7.41005,-0.26336,1.10852,39.9390,-3.8415,-1.8293,0.00,0.00,0.00,5,S01
21440,-7.67581,0.00718,0.60094,39.2683,-8.1707,-5.0000,0.00,0.00,0.00,5,S01
21460,-8.54251,0.01915,-1.28329,33.7195,-0.6098,-3.5366,0.00,0.00,0.00,5,S01
21480,-10.28070,0.13886,-1.87945,25.9146,14.7561,-5.4878,0.00,0.00,0.00,5,S01
21500,-12.00932,0.29688,-0.62728,18.5976,9.3293,-12.9268,0.00,0.00,0.00,5,S01
21520,-15.32768,-0.05507,-0.91219,15.8537,-25.9756,-19.5122,0.00,0.00,0.00,5,S01
21540,-17.20234,-0.06225,-2.90177,30.3049,-30.9146,-33.7805,0.00,0.00,0.00,5,S01
21560,-16.84800,2.98557,-0.35674,42.4390,-12.2561,-48.8415,0.00,0.00,0.00,5,S01
21580,-14.87278,2.86347,-1.41976,38.2317,-44.0854,-25.1829,0.00,0.00,0.00,5,S01
21600,-14.47534,0.62968,0.30167,20.8537,-47.5610,9.6951,0.00,0.00,0.00,5,S01
21620,-14.09945,0.73741,0.30885,7.4390,-31.4634,18.8415,0.00,0.00,0.00,5,S01
21640,-12.70842,1.70707,0.09577,0.5488,-22.1341,10.4268,0.00,0.00,0.00,5,S01
21660,-10.31901,2.16675,-0.66559,3.1098,-15.2439,7.9268,0.00,0.00,0.00,5,S01
21680,-7.53455,1.10852,-1.14682,12.2561,-4.5732,15.4878,0.00,0.00,0.00,5,S01
21700,-6.01184,-0.28491,-1.12049,21.7073,11.2195,18.6585,0.00,0.00,0.00,5,S01
21720,-6.07170,-0.66080,-1.09894,31.8293,29.8780,14.5122,0.00,0.00,0.00,5,S01
21740,-8.26000,0.27054,-0.47645,31.5244,40.7317,1.0366,0.00,0.00,0.00,5,S01
21760,-8.40365,0.67995,-0.64643,30.6707,27.6829,-3.4146,0.00,0.00,0.00,5,S01
21780,-8.28394,0.59137,-0.84036,28.7805,16.4024,-7.7439,0.00,0.00,0.00,5,S01
21800,-8.50181,0.29209,-0.76854,27.9268,13.2317,-12.3780,0.00,0.00,0.00,5,S01
21820,-8.79390,-0.16999,-0.54588,31.2195,10.9146,-16.0366,0.00,0.00,0.00,5,S01
21840,-9.16500,-0.35195,-0.28491,37.0732,5.0610,-17.1951,0.00,0.00,0.00,5,S01
21860,-9.38288,-0.05986,0.10534,38.4146,-0.4878,-14.8780,0.00,0.00,0.00,5,S01
21880,-9.31823,0.25379,0.30167,36.4024,-3.6585,-11.4024,0.00,0.00,0.00,5,S01
21900,-9.22246,0.24181,0.12450,34.8171,-3.2317,-10.3049,0.00,0.00,0.00,5,S01
21920,-8.67180,0.11971,-0.45011,36.3415,1.0366,-11.4634,0.00,0.00,0.00,5,S01
21940,-7.53934,0.71587,-1.02711,39.8171,8.9634,-11.7073,0.00,0.00,0.00,5,S01
21960,-6.26084,1.29766,-1.34794,38.2927,18.2317,-7.5610,0.00,0.00,0.00,5,S01
21980,-5.73411,1.29766,-1.49638,34.8171,27.7439,1.4634,0.00,0.00,0.00,5,S01
22000,-6.08367,0.91937,-1.36469,32.1951,35.4878,9.0854,0.00,0.00,0.00,5,S01
22020,-6.71095,1.48680,-0.52194,26.1585,35.6707,10.6098,0.00,0.00,0.00,5,S01
22040,-7.90565,2.27210,0.77812,6.0366,19.6951,7.3780,0.00,0.00,0.00,5,S01
22060,-8.92798,2.74376,0.64643,-14.6341,-1.5854,-1.3415,0.00,0.00,0.00,5,S01
22080,-8.20972,2.91614,-0.56982,-21.6463,-6.7683,-13.0488,0.00,0.00,0.00,5,S01
22100,-7.45315,3.11964,-0.24421,-28.6585,-6.2805,-18.2317,0.00,0.00,0.00,5,S01
22120,-7.91044,2.62883,0.21308,-47.1341,-17.8659,-13.3537,0.00,0.00,0.00,5,S01
22140,-8.54491,1.65679,-0.07422,-61.5244,-21.2195,-8.5366,0.00,0.00,0.00,5,S01
22160,-8.12113,1.02472,-0.23703,-64.1463,-14.7561,-10.8537,0.00,0.00,0.00,5,S01
22180,-7.91762,1.35991,-0.27054,-63.2927,-17.6829,-12.8049,0.00,0.00,0.00,5,S01
22200,-9.46189,2.30562,-0.91459,-71.4634,-29.8780,-4.6341,0.00,0.00,0.00,5,S01
22220,-10.47224,0.67756,-0.58897,-81.8902,-35.0610,12.7439,0.00,0.00,0.00,5,S01
22240,-12.97657,-1.24020,0.02873,-64.0854,-27.3780,17.9878,0.00,0.00,0.00,5,S01
22260,-17.86314,-2.55701,-1.06063,-53.8415,4.7561,52.5000,0.00,0.00,0.00,5,S01
22280,-17.86314,-2.55701,-1.06063,-53.8415,4.7561,52.5000,0.00,0.00,0.00,5,S01
22300,-13.68286,-1.25456,-0.06943,-68.9024,-36.2805,42.3171,0.00,0.00,0.00,5,S01
22320,-11.98537,0.64643,-1.55863,-55.3659,-54.6341,3.8415,0.00,0.00,0.00,5,S01
22340,-13.06755,0.24660,-0.26815,-46.3415,-29.8780,-19.5122,0.00,0.00,0.00,5,S01
22360,-12.52646,-0.99599,0.18675,-42.5000,-27.0122,-27.0732,0.00,0.00,0.00,5,S01
22380,-10.25197,-2.11169,-0.01676,-40.1829,-30.4268,-23.9634,0.00,0.00,0.00,5,S01
22400,-8.49463,-2.07577,-0.36871,-37.8049,-14.0854,-18.5366,0.00,0.00,0.00,5,S01
22420,-8.14747,-1.22583,-0.46926,-35.9756,10.6707,-16.7073,0.00,0.00,0.00,5,S01
22440,-8.57124,-0.57700,-0.08859,-33.1098,26.6463,-15.4878,0.00,0.00,0.00,5,S01
22460,-8.65743,-0.62010,0.19154,-28.1707,28.2927,-11.8902,0.00,0.00,0.00,5,S01
22480,-8.14986,-0.59616,-0.16999,-20.3659,21.0976,-7.6220,0.00,0.00,0.00,5,S01
22500,-7.72369,-0.54588,-0.29449,-13.9024,18.1098,-3.6585,0.00,0.00,0.00,5,S01
22520,-7.69975,-0.45969,-0.20351,-10.7927,19.2683,0.3049,0.00,0.00,0.00,5,S01
22540,-8.22648,-0.35674,-0.28730,-9.3902,21.0366,4.0244,0.00,0.00,0.00,5,S01
22560,-8.73405,-0.25379,-0.39025,-10.4878,22.0122,8.0488,0.00,0.00,0.00,5,S01
22580,-9.12670,-0.10774,-0.10295,-13.4146,18.9634,11.7073,0.00,0.00,0.00,5,S01
22600,-9.53132,0.11013,0.23224,-17.8049,7.1951,13.2927,0.00,0.00,0.00,5,S01
22620,-9.29429,0.01437,0.40462,-23.3537,-7.8049,12.1951,0.00,0.00,0.00,5,S01
22640,-8.06367,-0.38307,0.04310,-26.1585,-14.6341,7.4390,0.00,0.00,0.00,5,S01
22660,-6.56011,-0.93613,-0.46208,-28.4146,-8.3537,-0.5488,0.00,0.00,0.00,5,S01
22680,-5.32231,-1.38145,-0.85234,-29.4512,6.0366,-9.7561,0.00,0.00,0.00,5,S01
22700,-5.41808,-1.39343,-1.08218,-23.5976,21.5244,-16.7073,0.00,0.00,0.00,5,S01
22720,-6.76362,-1.40061,-0.50039,-12.4390,34.0244,-12.9878,0.00,0.00,0.00,5,S01
22740,-7.87932,-2.32238,0.80206,0.5488,35.9146,2.8659,0.00,0.00,0.00,5,S01
22760,-8.43238,-1.96325,0.46208,19.2683,31.0976,14.1463,0.00,0.00,0.00,5,S01
22780,-7.95593,-1.34075,-0.23463,25.4878,29.3902,15.3049,0.00,0.00,0.00,5,S01
22800,-6.80193,-0.81882,-0.29449,29.0854,23.7195,10.7317,0.00,0.00,0.00,5,S01
22820,-6.40210,0.04310,-0.16759,33.2927,7.1951,3.1707,0.00,0.00,0.00,5,S01
22840,-7.41484,0.25618,0.29928,31.5854,-6.7683,0.4268,0.00,0.00,0.00,5,S01
22860,-8.58561,-0.62728,1.83396,29.8171,-10.9146,5.9756,0.00,0.00,0.00,5,S01
22880,-8.72686,-0.85712,1.35033,33.5366,-13.2317,12.8659,0.00,0.00,0.00,5,S01
22900,-9.12909,-1.05105,0.11732,29.2683,-5.6707,12.6829,0.00,0.00,0.00,5,S01
22920,-10.58237,-0.04070,-1.31921,32.8659,3.6585,-0.1829,0.00,0.00,0.00,5,S01
22940,-11.34612,1.47004,-1.54665,29.0854,4.5732,-15.7927,0.00,0.00,0.00,5,S01
22960,-12.17930,1.22104,-1.92015,22.9268,-11.6463,-19.0854,0.00,0.00,0.00,5,S01
22980,-15.28219,0.99838,-2.19309,24.3902,-24.6341,-31.4024,0.00,0.00,0.00,5,S01
23000,-14.95658,2.26970,-0.35674,16.6463,-16.4634,-24.8780,0.00,0.00,0.00,5,S01
23020,-13.19684,1.83396,-0.17957,8.3537,-25.8537,-0.1829,0.00,0.00,0.00,5,S01
23040,-12.73236,-0.08380,-0.17957,5.4268,-14.6951,19.8780,0.00,0.00,0.00,5,S01
23060,-13.19923,-0.22984,0.08380,8.8415,5.7927,11.3415,0.00,0.00,0.00,5,S01
23080,-12.37802,1.39582,-0.69671,17.8659,8.4756,-2.5000,0.00,0.00,0.00,5,S01
23100,-10.80024,2.97839,-1.41497,17.5000,5.9756,3.5976,0.00,0.00,0.00,5,S01
23120,-9.37569,3.05979,-1.55384,4.6341,13.3537,17.6829,0.00,0.00,0.00,5,S01
23140,-8.22887,1.92973,-1.36469,-7.5000,24.2683,21.7073,0.00,0.00,0.00,5,S01
23160,-7.49625,0.57461,-1.49638,-11.4024,29.8780,15.7317,0.00,0.00,0.00,5,S01
23180,-7.60159,-0.39265,-1.11091,-10.0000,31.2805,8.7195,0.00,0.00,0.00,5,S01
23200,-8.26000,-0.77333,-0.71108,-2.7439,27.3780,5.3049,0.00,0.00,0.00,5,S01
23220,-8.74362,-0.28730,-0.56024,5.8537,21.4634,5.1829,0.00,0.00,0.00,5,S01
23240,-8.69813,0.26336,-0.57461,10.9756,16.5244,4.6951,0.00,0.00,0.00,5,S01
23260,-8.27436,0.32082,-0.80445,16.5854,10.4268,1.0366,0.00,0.00,0.00,5,S01
23280,-7.71172,0.20590,-0.99599,22.9878,6.3415,-3.5366,0.00,0.00,0.00,5,S01
23300,-7.91523,0.48842,-0.61052,27.0732,6.2805,-8.7195,0.00,0.00,0.00,5,S01
23320,-7.91523,0.48842,-0.61052,27.0732,6.2805,-8.7195,0.00,0.00,0.00,5,S01
23340,-8.04691,0.82121,-0.35434,24.9390,1.7073,-7.9878,0.00,0.00,0.00,5,S01
23360,-7.37893,1.20668,-0.45011,22.9268,-3.0488,-4.3293,0.00,0.00,0.00,5,S01
23380,-6.86418,1.27611,-0.38786,20.0000,-5.4268,0.0000,0.00,0.00,0.00,5,S01
23400,-6.60560,1.63285,-0.36631,16.4024,-8.2317,0.1220,0.00,0.00,0.00,5,S01
23420,-6.39252,1.89860,0.04310,10.0610,-8.1098,-2.0732,0.00,0.00,0.00,5,S01
23440,-7.15627,2.03986,0.24421,0.8537,-8.5366,-4.1463,0.00,0.00,0.00,5,S01
23460,-8.14268,2.42054,0.07183,-9.5732,-12.8659,-8.0488,0.00,0.00,0.00,5,S01
23480,-8.17620,2.77727,-0.20351,-23.7805,-19.5732,-10.8537,0.00,0.00,0.00,5,S01
23500,-8.14986,3.44286,0.00718,-40.0000,-26.0976,-10.5488,0.00,0.00,0.00,5,S01
23520,-8.00861,3.28006,0.14605,-61.4634,-32.3780,-7.9878,0.00,0.00,0.00,5,S01
23540,-7.84819,2.51152,0.43335,-74.0854,-30.9756,-7.1341,0.00,0.00,0.00,5,S01
23560,-7.96551,1.65679,0.39983,-80.1829,-26.8293,-9.0854,0.00,0.00,0.00,5,S01
23580,-9.02375,1.44610,-1.33357,-79.5732,-19.9390,-7.7439,0.00,0.00,0.00,5,S01
23600,-10.71884,0.26336,-0.89783,-78.1707,-12.0122,3.8415,0.00,0.00,0.00,5,S01
23620,-11.59272,-2.20985,-0.60573,-68.7195,-22.0122,12.0732,0.00,0.00,0.00,5,S01
23640,-13.10347,-4.26168,-0.71587,-45.7927,-32.3171,4.4512,0.00,0.00,0.00,5,S01
23660,-15.96214,-2.31998,-2.54025,-14.3902,-34.6951,-1.8293,0.00,0.00,0.00,5,S01
23680,-15.41148,-0.53870,0.81163,-19.3293,-28.2927,15.6707,0.00,0.00,0.00,5,S01
23700,-13.74032,0.81642,-1.33836,-23.8415,-41.5244,23.4146,0.00,0.00,0.00,5,S01
23720,-13.29979,0.29209,-0.90501,-23.5976,-29.5122,13.7195,0.00,0.00,0.00,5,S01
23740,-12.48576,-1.34315,-0.54827,-26.9512,-25.0610,-2.6220,0.00,0.00,0.00,5,S01
23760,-11.33176,-2.35589,-0.16041,-25.4268,-19.5732,-15.7927,0.00,0.00,0.00,5,S01
23780,-10.28788,-2.18112,-0.02155,-15.4878,-3.6585,-19.4512,0.00,0.00,0.00,5,S01
23800,-9.57441,-0.87388,-0.31603,-5.9146,8.8415,-17.3171,0.00,0.00,0.00,5,S01
23820,-9.13148,0.32082,-0.54588,-4.8171,15.9146,-14.2073,0.00,0.00,0.00,5,S01
23840,-8.97107,0.16041,-0.03591,-8.3537,19.3902,-12.6829,0.00,0.00,0.00,5,S01
23860,-8.57603,-0.72065,0.22266,-8.7195,13.3537,-10.0000,0.00,0.00,0.00,5,S01
23880,-7.76918,-1.19231,0.19154,-7.0122,9.8171,-6.2805,0.00,0.00,0.00,5,S01
23900,-7.16345,-0.97683,0.06943,-4.1463,12.6829,-2.8049,0.00,0.00,0.00,5,S01
23920,-7.05811,-0.61770,-0.12929,-0.9756,17.8049,0.1829,0.00,0.00,0.00,5,S01
23940,-7.42921,-0.53151,0.11253,0.9146,23.4756,3.1098,0.00,0.00,0.00,5,S01
23960,-7.27598,-0.72305,0.45250,0.8537,21.6463,6.3415,0.00,0.00,0.00,5,S01
23980,-6.80193,-0.38307,0.41659,-0.7927,14.6951,6.2195,0.00,0.00,0.00,5,S01
24000,-7.67581,0.55785,0.34716,-3.2317,7.9878,5.2439,0.00,0.00,0.00,5,S01
24020,-7.72848,0.38068,0.19632,-6.6463,1.9512,12.3780,0.00,0.00,0.00,5,S01
24040,-6.93840,-0.94332,0.36392,-9.0854,5.0000,20.9146,0.00,0.00,0.00,5,S01
24060,-6.95276,-1.76213,0.35674,-7.8659,13.9024,19.5732,0.00,0.00,0.00,5,S01
24080,-7.31429,-1.79805,0.00479,-1.2805,17.3780,11.6463,0.00,0.00,0.00,5,S01
24100,-7.09402,-1.66636,0.06225,11.5854,15.7927,3.1707,0.00,0.00,0.00,5,S01
24120,-6.85460,-1.38145,1.19950,26.9512,10.1829,-2.4390,0.00,0.00,0.00,5,S01
24140,-6.77799,-1.36469,2.02310,38.8415,-3.2317,-4.3293,0.00,0.00,0.00,5,S01
24160,-6.51462,0.02634,0.51954,46.5854,-8.1707,-2.8049,0.00,0.00,0.00,5,S01
24180,-7.44357,1.87466,-0.42138,33.2927,6.3415,1.8902,0.00,0.00,0.00,5,S01
24200,-10.14902,-0.47166,1.83396,5.5488,7.3780,20.9146,0.00,0.00,0.00,5,S01
24220,-11.29824,-1.23541,-0.86670,18.8415,-3.8415,12.6220,0.00,0.00,0.00,5,S01
24240,-11.42274,0.39983,-1.60172,25.4878,7.5000,-4.1463,0.00,0.00,0.00,5,S01
24260,-12.40915,1.72383,-1.80044,25.5488,1.5244,-11.2195,0.00,0.00,0.00,5,S01
24280,-15.30613,1.87227,-1.48201,21.1585,-18.4756,-11.5854,0.00,0.00,0.00,5,S01
24300,-17.05390,0.34477,-1.30963,21.1585,-18.2317,-11.9512,0.00,0.00,0.00,5,S01
24320,-15.88553,0.71587,-0.00718,27.9268,-15.4878,-13.0488,0.00,0.00,0.00,5,S01
24340,-13.43147,1.27132,-0.02155,22.1341,-37.8659,-0.7317,0.00,0.00,0.00,5,S01
24360,-12.26310,0.89064,0.01676,14.5732,-31.7683,13.1707,0.00,0.00,0.00,5,S01
24380,-11.40119,0.77093,-0.13408,14.9390,-10.7317,10.6707,0.00,0.00,0.00,5,S01
24400,-9.76595,1.19231,-0.64643,17.0732,-3.2927,2.9268,0.00,0.00,0.00,5,S01
24420,-8.37492,1.47722,-1.29526,19.1463,3.7195,1.8293,0.00,0.00,0.00,5,S01
24440,-7.98706,1.77650,-1.13246,19.6951,17.9268,2.3780,0.00,0.00,0.00,5,S01
24460,-8.19056,1.86269,-0.97444,15.0000,30.0610,1.6463,0.00,0.00,0.00,5,S01
24480,-8.52096,1.72143,-0.73981,7.1951,33.8415,2.7439,0.00,0.00,0.00,5,S01
24500,-8.74123,1.36469,-0.25379,-4.2073,30.5488,3.7805,0.00,0.00,0.00,5,S01
24520,-8.60955,0.74460,-0.04549,-10.3049,23.8415,1.6463,0.00,0.00,0.00,5,S01
24540,-8.38449,0.38068,-0.23942,-11.0976,17.6220,-4.7561,0.00,0.00,0.00,5,S01
24560,-8.32943,-0.01437,-0.29209,-11.1585,15.9146,-12.8659,0.00,0.00,0.00,5,S01
24580,-8.58082,-0.15083,-0.43814,-4.7561,16.8293,-21.0366,0.00,0.00,0.00,5,S01
24600,-8.88728,-0.27054,-0.59137,4.5732,17.5000,-24.7561,0.00,0.00,0.00,5,S01
24620,-9.11712,-0.50757,-0.43814,14.3293,14.6341,-23.7805,0.00,0.00,0.00,5,S01
24640,-8.83221,-0.50278,-0.42617,23.9024,7.0122,-20.8537,0.00,0.00,0.00,5,S01
24660,-8.13550,-0.44532,-0.21308,31.8902,1.0366,-15.9756,0.00,0.00,0.00,5,S01
24680,-7.38372,-0.50278,-0.49081,40.2439,-1.4024,-9.5122,0.00,0.00,0.00,5,S01
24700,-6.57208,-0.36152,-1.08936,49.8171,4.5732,-4.6341,0.00,0.00,0.00,5,S01
24720,-6.16268,0.05746,-0.95529,57.5000,16.2195,-1.8293,0.00,0.00,0.00,5,S01
24740,-7.31429,1.12767,-0.43096,54.5732,16.5244,-1.8902,0.00,0.00,0.00,5,S01
24760,-8.71968,2.01831,-0.32801,42.6220,5.9756,-4.0854,0.00,0.00,0.00,5,S01
24780,-8.60715,2.72939,-0.73502,29.9390,-1.8902,-4.7561,0.00,0.00,0.00,5,S01
24800,-8.35098,3.13640,0.27294,9.7561,-10.9146,-1.8293,0.00,0.00,0.00,5,S01
24820,-8.32703,2.03268,0.68953,-12.3171,-26.2805,0.0610,0.00,0.00,0.00,5,S01
24840,-8.23845,0.77333,-0.18196,-18.2317,-20.7317,-7.2561,0.00,0.00,0.00,5,S01
24860,-8.03494,0.33758,-0.23703,-16.1585,-0.7927,-18.9634,0.00,0.00,0.00,5,S01
24880,-8.38210,1.23301,0.64404,-17.1341,1.8293,-21.2195,0.00,0.00,0.00,5,S01
24900,-9.04769,1.66636,1.95846,-30.6707,-17.8659,-11.2805,0.00,0.00,0.00,5,S01
24920,-8.83700,1.24259,1.54905,-37.6220,-32.6829,-3.6585,0.00,0.00,0.00,5,S01
24940,-8.50420,1.10373,-0.25857,-34.0854,-19.8171,-5.0000,0.00,0.00,0.00,5,S01
24960,-8.87770,1.00556,-1.56581,-28.5366,-2.9268,-2.4390,0.00,0.00,0.00,5,S01
24980,-10.35492,0.83797,-0.85234,-29.3293,-8.2317,9.8171,0.00,0.00,0.00,5,S01
25000,-11.72919,-0.19632,1.28808,-42.5000,-35.6098,18.9634,0.00,0.00,0.00,5,S01
25020,-13.35486,-1.02472,0.76375,-40.8537,-50.1829,12.8049,0.00,0.00,0.00,5,S01
25040,-16.74984,-0.85712,-1.95846,-22.6220,-35.8537,7.8049,0.00,0.00,0.00,5,S01
25060,-16.77138,-1.92015,-0.15562,-21.4024,-20.5488,23.5976,0.00,0.00,0.00,5,S01
25080,-12.76110,-1.84593,-1.02711,-27.8049,-29.7561,29.4512,0.00,0.00,0.00,5,S01
25100,-10.71645,-0.80206,-0.54827,-27.9268,-21.7073,10.2439,0.00,0.00,0.00,5,S01
25120,-11.37964,-0.53391,-0.39744,-16.0976,-11.3415,-14.0854,0.00,0.00,0.00,5,S01
25140,-11.43710,-0.91219,-0.03352,-10.7927,-0.6707,-24.2683,0.00,0.00,0.00,5,S01
25160,-10.09635,-0.96486,-0.40462,-8.7195,6.0976,-19.7561,0.00,0.00,0.00,5,S01
25180,-8.47069,-0.65122,-1.43652,-9.2683,11.5854,-12.9268,0.00,0.00,0.00,5,S01
25200,-7.97269,-0.46687,-1.34075,-15.1829,22.8659,-11.4024,0.00,0.00,0.00,5,S01
25220,-8.13071,-0.64883,-0.68953,-16.7683,29.1463,-11.4634,0.00,0.00,0.00,5,S01
25240,-8.18338,-0.79966,-0.35195,-13.9024,26.0366,-8.5366,0.00,0.00,0.00,5,S01
25260,-8.00142,-0.77572,-0.22266,-10.4268,20.5488,-3.8415,0.00,0.00,0.00,5,S01
25280,-7.88650,-0.73502,-0.27294,-5.0000,15.9146,-1.5244,0.00,0.00,0.00,5,S01
25300,-7.99424,-0.59855,-0.41899,-0.1829,14.6341,-2.0122,0.00,0.00,0.00,5,S01
25320,-8.18099,-0.50278,-0.48363,2.1951,15.5488,-1.8902,0.00,0.00,0.00,5,S01
25340,-8.07325,-0.50278,-0.49799,0.4878,13.7805,-0.4268,0.00,0.00,0.00,5,S01
25360,-7.91044,-0.49560,-0.25857,-6.2195,8.4146,-0.2439,0.00,0.00,0.00,5,S01
25380,-8.06607,-0.24900,-0.00479,-11.9512,1.0976,-0.9756,0.00,0.00,0.00,5,S01
25400,-7.71172,0.09816,-0.07661,-16.0976,-5.0000,2.2561,0.00,0.00,0.00,5,S01
25420,-7.21373,-0.09337,0.34477,-20.0000,-4.1463,9.9390,0.00,0.00,0.00,5,S01
25440,-6.61518,-1.50835,1.92973,-20.0000,-2.4390,12.4390,0.00,0.00,0.00,5,S01
25460,-6.11479,-0.96726,1.78368,-13.9024,-7.3171,3.2317,0.00,0.00,0.00,5,S01
25480,-6.22492,0.32801,0.11732,-9.2683,-3.1098,-3.2927,0.00,0.00,0.00,5,S01
25500,-7.23528,0.53630,-0.85473,-6.8902,14.6951,0.1220,0.00,0.00,0.00,5,S01
25520,-8.92319,-1.11330,0.79966,-8.1098,25.0000,8.0488,0.00,0.00,0.00,5,S01
25540,-9.74440,-3.01669,2.00395,-3.8415,10.2439,10.8537,0.00,0.00,0.00,5,S01
25560,-8.91361,-3.25372,1.69270,7.4390,-9.9390,4.3293,0.00,0.00,0.00,5,S01
25580,-7.46033,-1.56341,0.69671,16.6463,-17.0732,-6.5244,0.00,0.00,0.00,5,S01
25600,-7.57047,0.22266,0.45969,19.1463,-8.1707,-12.8049,0.00,0.00,0.00,5,S01
25620,-10.05804,0.34477,1.30484,17.9268,-2.3780,-12.9878,0.00,0.00,0.00,5,S01
25640,-12.19367,-0.08619,-0.32082,21.0976,-11.5244,-12.2561,0.00,0.00,0.00,5,S01
25660,-12.11466,0.04549,-1.02951,17.7439,-12.2561,-15.3659,0.00,0.00,0.00,5,S01
25680,-11.13304,0.63925,-0.65122,16.2805,-25.1220,-17.1951,0.00,0.00,0.00,5,S01
25700,-11.74117,0.77572,0.36152,14.0244,-41.8293,-15.0000,0.00,0.00,0.00,5,S01
25720,-16.03876,-0.67995,-0.28730,16.7073,-32.9268,-18.5366,0.00,0.00,0.00,5,S01
25740,-18.34916,0.76854,0.23224,30.0000,-4.8780,-38.2927,0.00,0.00,0.00,5,S01
25760,-15.80413,2.13563,-1.05824,37.2561,-13.9024,-28.6585,0.00,0.00,0.00,5,S01
25780,-12.27986,1.64242,-0.72784,27.9268,-25.4878,9.0854,0.00,0.00,0.00,5,S01
25800,-10.53449,1.37427,-0.10774,16.4024,-13.9024,35.0000,0.00,0.00,0.00,5,S01
25820,-9.48583,1.42216,-0.40941,5.2439,1.0976,35.7927,0.00,0.00,0.00,5,S01
25840,-7.94636,1.34554,-0.74699,-0.8537,13.2317,22.9268,0.00,0.00,0.00,5,S01
25860,-7.06289,1.17555,-0.93613,-0.4878,20.9756,13.9634,0.00,0.00,0.00,5,S01
25880,-7.94157,1.18992,-0.73741,0.0000,30.8537,10.3659,0.00,0.00,0.00,5,S01
25900,-8.94234,1.20428,-0.37828,-1.0366,43.3537,6.5854,0.00,0.00,0.00,5,S01
25920,-8.92319,0.94571,-0.56024,-3.2317,42.6220,3.0488,0.00,0.00,0.00,5,S01
25940,-8.22887,0.39744,-0.54827,-9.3902,30.7317,0.7927,0.00,0.00,0.00,5,S01
25960,-7.43160,-0.05746,-0.51236,-13.5366,22.1951,-1.8902,0.00,0.00,0.00,5,S01
25980,-7.14430,-0.29209,-0.33758,-12.8659,21.5244,-5.7927,0.00,0.00,0.00,5,S01
26000,-8.02776,-0.75896,0.16759,-9.4512,20.5488,-10.8537,0.00,0.00,0.00,5,S01
26020,-9.39485,-0.93134,0.30646,2.2561,15.9146,-18.1707,0.00,0.00,0.00,5,S01
26040,-9.58399,-1.00317,0.23942,19.1463,11.0976,-25.4268,0.00,0.00,0.00,5,S01
26060,-9.40203,-0.27533,0.25857,34.3902,5.0610,-27.6220,0.00,0.00,0.00,5,S01
26080,-8.59997,0.07661,0.12210,41.7683,-6.0366,-22.5610,0.00,0.00,0.00,5,S01
26100,-6.94318,0.22027,-0.26097,50.1220,-11.8902,-13.5366,0.00,0.00,0.00,5,S01
26120,-5.38935,0.15802,-0.52433,55.2439,-6.2195,-2.3171,0.00,0.00,0.00,5,S01
26140,-5.34146,0.51715,-0.51954,53.1098,5.9146,5.3049,0.00,0.00,0.00,5,S01
26160,-6.71813,2.10690,-0.11971,45.0610,14.6341,4.9390,0.00,0.00,0.00,5,S01
26180,-7.83622,3.33752,0.33040,26.4634,13.1707,4.6341,0.00,0.00,0.00,5,S01
26200,-8.11634,3.32315,-0.41659,9.3902,6.9512,4.0854,0.00,0.00,0.00,5,S01
26220,-8.23366,2.94966,-0.14844,-4.6951,4.5732,-1.0976,0.00,0.00,0.00,5,S01
26240,-8.62631,2.42533,0.89783,-26.4634,-7.8659,-5.0610,0.00,0.00,0.00,5,S01
26260,-8.68856,1.91776,0.64883,-40.9756,-21.6463,-7.3780,0.00,0.00,0.00,5,S01
26280,-8.36055,1.42694,0.09337,-44.6341,-19.7561,-9.0244,0.00,0.00,0.00,5,S01
26300,-8.94713,1.77889,-1.12049,-39.9390,-12.6829,-7.9878,0.00,0.00,0.00,5,S01
26320,-11.28627,2.12366,-0.45490,-45.2439,-12.0122,4.3902,0.00,0.00,0.00,5,S01
26340,-12.97418,0.63446,0.30646,-58.4756,-28.1098,20.3659,0.00,0.00,0.00,5,S01
26360,-13.00530,-2.60489,0.82839,-60.6707,-37.6829,21.7073,0.00,0.00,0.00,5,S01
26380,-14.43704,-2.80122,-2.34153,-35.4268,-36.0976,9.0244,0.00,0.00,0.00,5,S01
26400,-14.23592,-1.47722,-1.38145,-27.5000,-14.2683,17.0122,0.00,0.00,0.00,5,S01
26420,-13.13220,-0.97683,-0.75417,-42.6829,-8.1707,32.3171,0.00,0.00,0.00,5,S01
26440,-13.86003,-0.70150,-0.61770,-47.6220,-11.2195,24.8780,0.00,0.00,0.00,5,S01
26460,-14.08509,-0.90261,-0.36631,-44.4512,-14.7561,6.4634,0.00,0.00,0.00,5,S01
26480,-12.34450,-1.25935,-0.27773,-42.5610,-18.7805,-6.0976,0.00,0.00,0.00,5,S01
26500,-10.50576,-1.16598,-0.48602,-41.0976,-10.9146,-10.5488,0.00,0.00,0.00,5,S01
26520,-9.26077,-0.90022,-0.63207,-42.9878,-1.8293,-11.8293,0.00,0.00,0.00,5,S01
26540,-8.50660,-0.58419,-0.62249,-45.3049,4.6341,-13.8415,0.00,0.00,0.00,5,S01
26560,-8.36534,-0.61292,-0.22266,-44.2683,9.6341,-15.7927,0.00,0.00,0.00,5,S01
26580,-8.19056,-0.84515,0.17957,-40.2439,8.6585,-14.4512,0.00,0.00,0.00,5,S01
26600,-7.87453,-0.87149,0.39025,-36.5244,3.9634,-9.3293,0.00,0.00,0.00,5,S01
26620,-7.62553,-0.82121,0.42138,-33.2927,2.6829,-3.5366,0.00,0.00,0.00,5,S01
26640,-7.60638,-0.78530,0.31364,-28.7805,4.8780,0.7927,0.00,0.00,0.00,5,S01
26660,-8.20493,-0.94571,0.31603,-22.6829,5.9146,5.9146,0.00,0.00,0.00,5,S01
26680,-8.37492,-0.89304,0.33040,-23.9634,1.7683,5.0610,0.00,0.00,0.00,5,S01
26700,-8.53054,-0.93134,0.34955,-24.5732,-2.3780,2.9268,0.00,0.00,0.00,5,S01
26720,-8.37013,-1.21386,0.35674,-22.2561,-4.9390,2.2561,0.00,0.00,0.00,5,S01
26740,-7.48188,-1.50835,-0.09577,-19.1463,-2.9268,1.1585,0.00,0.00,0.00,5,S01
26760,-6.27041,-1.71664,-0.08859,-16.6463,9.2073,-1.5854,0.00,0.00,0.00,5,S01
26780,-5.20978,-1.77171,0.53870,-14.4512,25.6707,-3.8415,0.00,0.00,0.00,5,S01
26800,-5.24330,-1.07978,1.00317,-10.3659,38.1707,-3.5366,0.00,0.00,0.00,5,S01
26820,-6.57448,-0.39983,1.30005,-4.3293,45.0610,3.1098,0.00,0.00,0.00,5,S01
26840,-7.82904,-0.53391,1.35033,1.6463,43.9024,14.8171,0.00,0.00,0.00,5,S01
26860,-8.52815,-0.85952,0.88346,9.5122,39.5122,22.1951,0.00,0.00,0.00,5,S01
26880,-8.34858,-1.44610,0.64883,13.5976,37.6829,24.5122,0.00,0.00,0.00,5,S01
26900,-8.49942,-2.03268,1.61848,17.0732,30.5488,22.1951,0.00,0.00,0.00,5,S01
26920,-9.04769,-1.62806,1.75734,27.1341,12.3780,16.2195,0.00,0.00,0.00,5,S01
26940,-9.12191,-0.70390,0.65122,37.3171,7.5000,13.7805,0.00,0.00,0.00,5,S01
26960,-9.18655,0.08380,0.81163,38.4146,15.2439,14.1463,0.00,0.00,0.00,5,S01
26980,-10.03649,-0.86191,2.13323,35.3049,6.4634,13.5366,0.00,0.00,0.00,5,S01
27000,-12.01650,-2.47800,2.11647,42.3780,-11.0976,4.5732,0.00,0.00,0.00,5,S01
27020,-13.67329,-1.78607,0.35434,47.9268,-14.0854,-13.1098,0.00,0.00,0.00,5,S01
27040,-14.03960,0.67995,-1.30245,51.5854,-10.1829,-23.4756,0.00,0.00,0.00,5,S01
27060,-13.57512,2.66235,-2.31998,48.3537,-24.6951,-22.8659,0.00,0.00,0.00,5,S01
27080,-13.56076,2.65996,-2.07817,23.1707,-48.9024,-19.3293,0.00,0.00,0.00,5,S01
27100,-13.87679,0.47166,-1.61130,5.7317,-55.7317,-20.0000,0.00,0.00,0.00,5,S01
27120,-13.54639,-1.26174,-0.40462,10.6707,-44.6341,-18.7195,0.00,0.00,0.00,5,S01
27140,-11.87524,-0.82121,-0.38786,23.1098,-39.4512,-5.4268,0.00,0.00,0.00,5,S01
27160,-10.42435,0.90022,-1.09894,28.5976,-27.5610,10.9756,0.00,0.00,0.00,5,S01
27180,-9.37091,2.02549,-1.43652,26.4024,-8.2927,19.4512,0.00,0.00,0.00,5,S01
27200,-8.51618,2.31280,-1.77889,23.4146,7.2561,17.9268,0.00,0.00,0.00,5,S01
27220,-7.80270,2.05662,-1.80283,18.5366,17.5000,13.7195,0.00,0.00,0.00,5,S01
27240,-7.69975,1.52032,-1.42934,13.2927,24.3293,11.7683,0.00,0.00,0.00,5,S01
27260,-8.34858,1.08457,-1.00796,10.3659,31.8902,10.9756,0.00,0.00,0.00,5,S01
27280,-8.75320,0.76375,-0.75178,10.1829,37.1341,9.5732,0.00,0.00,0.00,5,S01
27300,-8.61913,0.67995,-0.77812,9.4512,34.8780,7.8049,0.00,0.00,0.00,5,S01
27320,-8.41323,0.38786,-0.68953,8.6585,32.0732,6.9512,0.00,0.00,0.00,5,S01
27340,-8.44914,-0.15562,-0.56982,13.2927,30.5488,7.3171,0.00,0.00,0.00,5,S01
27360,-8.78433,-0.55785,-0.28970,22.3171,27.8659,6.8293,0.00,0.00,0.00,5,S01
27380,-9.39245,-0.80685,0.20590,33.2317,22.0732,3.6585,0.00,0.00,0.00,5,S01
27400,-9.90242,-0.85234,0.61052,48.0488,14.6951,0.0000,0.00,0.00,0.00,5,S01
27420,-9.70849,-0.57700,0.61770,63.8415,7.9878,-0.5488,0.00,0.00,0.00,5,S01
27440,-9.25119,-0.41899,0.59616,76.5244,4.3902,1.4634,0.00,0.00,0.00,5,S01
27460,-9.26317,-0.03831,0.35913,87.1341,2.9878,1.3415,0.00,0.00,0.00,5,S01
27480,-9.47864,0.63446,0.16999,90.7317,3.0488,0.4268,0.00,0.00,0.00,5,S01
27500,-9.61751,1.52989,0.02394,87.8049,2.1951,0.4268,0.00,0.00,0.00,5,S01
27520,-9.62469,2.52109,-0.21069,80.2439,-0.9756,2.2561,0.00,0.00,0.00,5,S01
27540,-9.51456,2.85628,-0.01676,70.9146,-4.3902,5.5488,0.00,0.00,0.00,5,S01
27560,-9.48104,2.35589,0.87388,65.3049,-9.6951,8.1098,0.00,0.00,0.00,5,S01
27580,-8.90404,1.42934,1.57778,66.4024,-15.7927,8.2317,0.00,0.00,0.00,5,S01
27600,-9.12191,0.93134,1.01754,73.5976,-17.6829,2.9268,0.00,0.00,0.00,5,S01
27620,-11.71962,1.03669,-2.16675,83.4146,-11.7073,-0.6707,0.00,0.00,0.00,5,S01
27640,-13.29261,0.82600,-3.62961,85.4268,8.4756,10.8537,0.00,0.00,0.00,5,S01
27660,-11.74835,-1.10133,-2.43251,69.1463,8.4756,30.5488,0.00,0.00,0.00,5,S01
27680,-9.41400,-3.37104,-1.50116,68.4756,-16.4024,35.0610,0.00,0.00,0.00,5,S01
27700,-8.76996,-2.85868,-3.12443,92.6829,-22.9878,22.3780,0.00,0.00,0.00,5,S01
27720,-9.79468,-0.02155,-3.42131,97.1341,-4.3902,10.1220,0.00,0.00,0.00,5,S01
27740,-10.52730,1.70946,-2.87065,75.1220,5.4268,5.0610,0.00,0.00,0.00,5,S01
27760,-10.32619,1.20428,-2.33674,52.0122,3.9024,-2.3171,0.00,0.00,0.00,5,S01
27780,-9.73004,-0.01437,-2.03507,38.8415,1.2805,-14.6951,0.00,0.00,0.00,5,S01
27800,-9.16740,-0.44772,-1.89142,30.4878,-0.1220,-27.3780,0.00,0.00,0.00,5,S01
27820,-8.67659,-0.62968,-1.48201,22.0122,-1.4024,-32.6829,0.00,0.00,0.00,5,S01
27840,-8.41562,-1.15640,-1.05584,20.7927,0.1829,-31.5244,0.00,0.00,0.00,5,S01
27860,-8.60237,-1.54665,-1.03669,27.8659,3.1707,-29.8780,0.00,0.00,0.00,5,S01
27880,-8.68138,-1.23301,-1.36948,35.0000,5.0610,-27.8659,0.00,0.00,0.00,5,S01
27900,-8.28633,-0.46208,-1.61848,40.7927,9.0244,-18.4756,0.00,0.00,0.00,5,S01
27920,-8.74841,-0.66080,-1.47243,42.2561,10.5488,-13.8415,0.00,0.00,0.00,5,S01
27940,-8.92319,-0.97444,-1.18992,42.2561,8.9024,-11.0976,0.00,0.00,0.00,5,S01
27960,-9.10036,-1.18034,-0.99599,43.9024,6.9512,-9.0244,0.00,0.00,0.00,5,S01
27980,-9.08839,-1.13246,-1.04866,46.5854,5.3659,-8.1707,0.00,0.00,0.00,5,S01
28000,-9.07402,-1.03190,-0.82839,48.1707,4.3293,-7.0122,0.00,0.00,0.00,5,S01
28020,-9.22965,-0.96726,-0.51715,50.0610,2.5000,-4.7561,0.00,0.00,0.00,5,S01
28040,-9.16500,-0.88346,-0.25618,51.4634,-0.1220,-1.4024,0.00,0.00,0.00,5,S01
28060,-8.90643,-0.77333,-0.03352,51.8902,-2.1951,1.4634,0.00,0.00,0.00,5,S01
28080,-8.51857,-0.66798,-0.00958,52.3171,-3.2317,3.0488,0.00,0.00,0.00,5,S01
28100,-8.52336,-0.50996,0.14365,50.9756,-2.1951,3.7195,0.00,0.00,0.00,5,S01
28120,-9.04290,-0.79966,0.41180,48.4756,-3.2317,5.1829,0.00,0.00,0.00,5,S01
28140,-9.15303,-1.11330,0.24181,48.7195,-5.0610,7.9268,0.00,0.00,0.00,5,S01
28160,-8.91361,-0.71347,0.14844,45.6707,-4.1463,10.9146,0.00,0.00,0.00,5,S01
28180,-9.04051,-0.30406,-0.08859,40.0610,-3.1098,14.2683,0.00,0.00,0.00,5,S01
28200,-9.39006,-0.06943,-0.16999,38.6585,-2.5000,16.4024,0.00,0.00,0.00,5,S01
28220,-9.96706,0.31364,0.09098,34.6951,-6.8902,15.0000,0.00,0.00,0.00,5,S01
28240,-10.77391,0.82361,0.52912,22.1341,-14.3293,9.5732,0.00,0.00,0.00,5,S01
28260,-11.07558,0.31125,0.04788,7.4390,-20.6707,1.4634,0.00,0.00,0.00,5,S01
28280,-11.61906,-1.00556,-1.38385,-2.6829,-20.0000,-6.8902,0.00,0.00,0.00,5,S01
28300,-11.45147,-1.99676,-1.98958,-10.0000,-16.0976,-13.9634,0.00,0.00,0.00,5,S01
28320,-9.79468,-2.32477,-2.04704,-10.0000,-18.9024,-20.4878,0.00,0.00,0.00,5,S01
28340,-8.06846,-1.96803,-1.81002,-0.2439,-24.4512,-24.0244,0.00,0.00,0.00,5,S01
28360,-8.49942,-1.30005,-1.35033,7.8049,-26.9512,-23.7805,0.00,0.00,0.00,5,S01
28380,-10.11790,-0.90261,-1.28090,14.9390,-23.3537,-17.6829,0.00,0.00,0.00,5,S01
28400,-10.93911,-1.17316,-0.96965,22.8049,-19.1463,-8.4146,0.00,0.00,0.00,5,S01
28420,-10.28788,-1.87227,-0.93853,37.8659,-18.9024,0.3049,0.00,0.00,0.00,5,S01
28440,-9.48583,-1.93691,-1.49638,58.3537,-17.2561,6.2195,0.00,0.00,0.00,5,S01
28460,-8.72447,-1.43413,-2.00874,73.1707,-12.9268,11.4024,0.00,0.00,0.00,5,S01
28480,-8.21690,-0.84994,-2.15718,81.0976,-6.4634,15.6707,0.00,0.00,0.00,5,S01
28500,-8.44196,-0.49799,-1.80283,84.3293,0.7317,16.7683,0.00,0.00,0.00,5,S01
28520,-8.98783,-0.37589,-1.20668,85.6707,5.3659,17.9268,0.00,0.00,0.00,5,S01
28540,-9.42118,-0.47405,-0.50518,87.3781,3.4146,19.2683,0.00,0.00,0.00,5,S01
28560,-9.36851,-0.56264,-0.52194,90.8537,-3.1098,18.5366,0.00,0.00,0.00,5,S01
28580,-8.92319,-0.54827,-0.82361,94.5732,-4.5122,17.0732,0.00,0.00,0.00,5,S01
28600,-8.44674,-0.40462,-0.79966,95.8537,-1.8902,14.9390,0.00,0.00,0.00,5,S01
28620,-8.36534,0.07422,-0.64165,96.4634,2.9878,11.5854,0.00,0.00,0.00,5,S01
28640,-8.70532,0.50039,-0.47405,95.1829,8.2927,9.4512,0.00,0.00,0.00,5,S01
28660,-9.06445,0.59855,-0.27294,92.1951,11.7683,9.3293,0.00,0.00,0.00,5,S01
28680,-9.12430,0.64165,-0.39983,89.5732,13.0488,9.0244,0.00,0.00,0.00,5,S01
28700,-8.99741,0.64883,-0.44772,85.2439,14.0854,7.9268,0.00,0.00,0.00,5,S01
28720,-8.98304,0.64165,-0.23942,81.3415,15.6098,6.5244,0.00,0.00,0.00,5,S01
28740,-9.14106,0.63686,0.07901,78.0488,15.9146,5.7927,0.00,0.00,0.00,5,S01
28760,-9.49062,0.51954,0.27294,78.4146,13.7805,5.9146,0.00,0.00,0.00,5,S01
28780,-9.66779,0.49560,0.41180,81.0976,8.3537,5.8537,0.00,0.00,0.00,5,S01
28800,-9.60793,0.59616,0.62010,82.0122,0.4878,4.6951,0.00,0.00,0.00,5,S01
28820,-9.28471,0.92895,0.34477,80.9756,-6.8293,2.9268,0.00,0.00,0.00,5,S01
28840,-9.02614,1.56581,-0.24900,75.6707,-8.4146,1.7073,0.00,0.00,0.00,5,S01
28860,-9.24880,2.44209,-0.73502,64.5122,-5.5488,3.2927,0.00,0.00,0.00,5,S01
28880,-9.81623,2.62405,-0.51715,50.1829,-4.3293,9.2073,0.00,0.00,0.00,5,S01
28900,-9.98861,1.97043,0.29449,39.6341,-10.6707,15.6707,0.00,0.00,0.00,5,S01
28920,-9.68694,1.15401,1.15161,35.9146,-20.4878,17.1341,0.00,0.00,0.00,5,S01
28940,-9.30387,0.35913,1.74298,37.9268,-23.7805,14.5732,0.00,0.00,0.00,5,S01
28960,-9.39006,-0.05986,1.88903,44.6951,-21.5854,10.7927,0.00,0.00,0.00,5,S01
28980,-10.56322,0.38307,0.88825,52.9268,-15.4878,10.1829,0.00,0.00,0.00,5,S01
29000,-11.75553,1.32639,-0.20351,52.3171,-3.0488,19.0854,0.00,0.00,0.00,5,S01
29020,-11.62385,0.83797,-0.70868,45.8537,5.7927,32.4390,0.00,0.00,0.00,5,S01
29040,-10.24000,-0.30167,-1.07260,46.8293,7.5000,34.2683,0.00,0.00,0.00,5,S01
29060,-8.39168,-1.35991,-1.94888,57.8659,5.6707,23.5366,0.00,0.00,0.00,5,S01
29080,-7.19936,-0.86191,-3.25133,73.9634,5.3049,11.2805,0.00,0.00,0.00,5,S01
29100,-7.81228,0.52912,-3.70622,78.2927,5.4268,8.8415,0.00,0.00,0.00,5,S01
29120,-9.58878,1.57538,-3.31358,64.6951,-4.2073,10.4878,0.00,0.00,0.00,5,S01
29140,-10.74278,-0.25857,-1.19231,41.1585,-22.5000,-1.5244,0.00,0.00,0.00,5,S01
29160,-10.12987,-1.57299,-0.62249,44.5732,-28.4146,-15.1220,0.00,0.00,0.00,5,S01
29180,-9.21528,-1.37667,-0.94092,53.0488,-31.2195,-27.6220,0.00,0.00,0.00,5,S01
29200,-8.64307,-0.34955,-1.04387,56.7683,-24.4512,-34.3293,0.00,0.00,0.00,5,S01
29220,-8.64546,0.28012,-0.80924,54.3293,-14.6341,-37.0122,0.00,0.00,0.00,5,S01
29240,-8.79390,0.27294,-0.67756,53.2927,-6.0976,-39.5732,0.00,0.00,0.00,5,S01
29260,-8.87052,0.04310,-0.47884,52.1341,-1.0976,-42.4390,0.00,0.00,0.00,5,S01
29280,-8.85376,-0.14126,-0.49081,49.7561,-0.9146,-43.0488,0.00,0.00,0.00,5,S01
29300,-8.89207,-0.22745,-0.26336,45.4268,-0.4268,-42.3780,0.00,0.00,0.00,5,S01
29320,-9.01178,-0.32082,0.02634,42.7439,0.3659,-40.7927,0.00,0.00,0.00,5,S01
29340,-8.97347,-0.63686,0.29928,41.8293,1.2195,-37.1951,0.00,0.00,0.00,5,S01
29360,-8.70292,-0.85234,0.38307,41.4024,2.1951,-31.8902,0.00,0.00,0.00,5,S01
29380,-8.49702,-0.90980,0.41899,38.9634,4.8171,-25.3659,0.00,0.00,0.00,5,S01
29400,-8.59758,-0.80924,0.60334,36.9512,9.0244,-20.1220,0.00,0.00,0.00,5,S01
29420,-9.01896,-0.71826,1.04866,35.9756,10.3049,-15.3659,0.00,0.00,0.00,5,S01
29440,-9.14824,-0.69911,1.39343,32.9878,6.9512,-9.5122,0.00,0.00,0.00,5,S01
29460,-8.79151,-0.82600,1.43413,27.6829,4.5122,-3.7805,0.00,0.00,0.00,5,S01
29480,-8.57603,-1.13725,1.38385,21.5244,6.4634,0.3659,0.00,0.00,0.00,5,S01
29500,-8.65265,-1.59454,0.78051,16.5244,10.1829,2.9268,0.00,0.00,0.00,5,S01
29520,-9.14106,-1.78607,-0.13168,16.2805,15.7927,4.1463,0.00,0.00,0.00,5,S01
29540,-9.90721,-1.90578,0.02634,22.4390,16.4634,5.6098,0.00,0.00,0.00,5,S01
29560,-10.57279,-0.91937,1.62087,25.9146,5.0000,2.1951,0.00,0.00,0.00,5,S01
29580,-11.19050,0.72784,1.26414,17.5000,-8.5366,-7.8659,0.00,0.00,0.00,5,S01
29600,-11.58315,1.27132,0.19393,2.4390,-11.8902,-15.7317,0.00,0.00,0.00,5,S01
29620,-12.02368,-0.20351,-0.97683,-14.2683,-13.4756,-19.5732,0.00,0.00,0.00,5,S01
29640,-12.12184,-2.16675,-1.10852,-19.8780,-13.5366,-25.7317,0.00,0.00,0.00,5,S01
29660,-10.51773,-2.35829,-1.60412,-12.6829,-19.6951,-29.2683,0.00,0.00,0.00,5,S01
29680,-8.20972,-1.09894,-2.32716,-4.7561,-21.7073,-24.3902,0.00,0.00,0.00,5,S01
29700,-7.52498,-0.36631,-2.54025,-6.4024,-14.1463,-14.7561,0.00,0.00,0.00,5,S01
29720,-8.99980,-0.61292,-1.64242,-8.5976,-1.7073,-7.5000,0.00,0.00,0.00,5,S01
29740,-10.09156,-1.36469,-0.87628,2.2561,1.5244,-1.7073,0.00,0.00,0.00,5,S01
29760,-9.86651,-1.71664,-0.89783,23.5976,-3.9634,1.4024,0.00,0.00,0.00,5,S01
29780,-9.32542,-1.42934,-1.49159,39.8780,-6.2195,4.8171,0.00,0.00,0.00,5,S01
29800,-9.26077,-0.69192,-1.91057,49.3293,-1.2805,10.7317,0.00,0.00,0.00,5,S01
29820,-9.14106,-0.05986,-1.92254,53.7805,2.8049,16.2195,0.00,0.00,0.00,5,S01
29840,-9.00938,0.09577,-1.59454,55.1829,2.8659,18.4146,0.00,0.00,0.00,5,S01
29860,-8.92319,0.15083,-1.41497,57.9878,1.2195,17.5610,0.00,0.00,0.00,5,S01
29880,-8.98304,0.26097,-1.01275,58.7195,2.6829,16.8902,0.00,0.00,0.00,5,S01
29900,-9.00699,0.37350,-0.68235,55.8537,2.7439,17.7439,0.00,0.00,0.00,5,S01
29920,-8.99262,0.41659,-0.30167,51.3415,1.3415,18.1707,0.00,0.00,0.00,5,S01
29940,-8.78672,0.38547,-0.19872,49.8781,0.2439,17.3171,0.00,0.00,0.00,5,S01
29960,-8.61434,0.44053,-0.18196,49.0854,2.2561,15.6707,0.00,0.00,0.00,5,S01
29980,-8.67898,0.42617,-0.07661,46.4024,5.9756,13.9024,0.00,0.00,0.00,5,S01
# DONE 1500 samples in 30.0s
