timestamp,ax,ay,az,gx,gy,gz,mx,my,mz,label,subject_id
0,-9.36372,-0.15802,-0.03112,-0.7317,-0.6098,-1.2195,0.00,0.00,0.00,6,S01
20,-9.36612,-0.15323,-0.02634,-0.4878,-0.5488,-1.1585,0.00,0.00,0.00,6,S01
40,-9.36851,-0.12210,-0.01676,-0.9756,-0.5488,-1.0366,0.00,0.00,0.00,6,S01
60,-9.35415,-0.12450,-0.03591,-1.5244,-0.4878,-1.1585,0.00,0.00,0.00,6,S01
80,-9.36612,-0.15083,-0.05267,-1.3415,-0.1220,-1.2195,0.00,0.00,0.00,6,S01
100,-9.37809,-0.17957,-0.04788,-0.9146,0.0000,-1.1585,0.00,0.00,0.00,6,S01
120,-9.35175,-0.17957,-0.03591,-0.7927,-0.2439,-1.0976,0.00,0.00,0.00,6,S01
140,-9.36133,-0.14844,-0.01197,-0.9756,-0.2439,-1.0366,0.00,0.00,0.00,6,S01
160,-9.37809,-0.14365,-0.00479,-1.0366,-0.3049,-1.1585,0.00,0.00,0.00,6,S01
180,-9.35893,-0.14605,-0.02394,-0.7927,-0.2439,-1.4024,0.00,0.00,0.00,6,S01
200,-9.34218,-0.15323,-0.01676,-0.5488,0.0000,-1.4024,0.00,0.00,0.00,6,S01
220,-9.37569,-0.14365,0.00000,-0.4878,0.1220,-1.2195,0.00,0.00,0.00,6,S01
240,-9.39006,-0.13408,-0.01437,-0.5488,-0.1220,-1.2195,0.00,0.00,0.00,6,S01
260,-9.37091,-0.14365,-0.01437,-0.6098,-0.1829,-1.4024,0.00,0.00,0.00,6,S01
280,-9.37091,-0.14844,-0.00958,-0.5488,-0.1829,-1.4024,0.00,0.00,0.00,6,S01
300,-9.38048,-0.12450,0.01437,-0.7317,-0.2439,-1.2805,0.00,0.00,0.00,6,S01
320,-9.37809,-0.16520,0.00958,-1.0366,-0.6707,-1.1585,0.00,0.00,0.00,6,S01
340,-9.40442,-0.20830,-0.02873,-0.9756,-0.9756,-1.2805,0.00,0.00,0.00,6,S01
360,-9.40203,-0.20830,0.03831,-0.7317,-0.7927,-1.5854,0.00,0.00,0.00,6,S01
380,-9.37809,-0.19154,0.04549,-0.3049,-1.2805,-1.5244,0.00,0.00,0.00,6,S01
400,-9.33260,-0.18675,-0.00479,-0.0610,-1.5244,-1.3415,0.00,0.00,0.00,6,S01
420,-9.31823,-0.16520,-0.00958,0.1220,-0.8537,-1.3415,0.00,0.00,0.00,6,S01
440,-9.34696,-0.13168,0.00479,0.0610,-0.3659,-1.2195,0.00,0.00,0.00,6,S01
460,-9.41640,-0.13647,0.03352,-0.5488,-0.5488,-1.2195,0.00,0.00,0.00,6,S01
480,-9.36372,-0.15083,-0.00239,-0.6707,-0.8537,-1.3415,0.00,0.00,0.00,6,S01
500,-9.32781,-0.14605,-0.02155,-0.5488,-0.6098,-1.5244,0.00,0.00,0.00,6,S01
520,-9.33499,-0.15562,-0.00239,-0.6707,-0.1220,-1.4634,0.00,0.00,0.00,6,S01
540,-9.34457,-0.17957,0.00479,-0.6707,0.1829,-1.4024,0.00,0.00,0.00,6,S01
560,-9.35415,-0.16999,0.01197,-0.6098,0.4268,-1.4024,0.00,0.00,0.00,6,S01
580,-9.34457,-0.12689,0.02634,-0.6707,0.7317,-1.5244,0.00,0.00,0.00,6,S01
600,-9.36133,-0.10056,0.09337,-0.8537,0.7317,-1.4024,0.00,0.00,0.00,6,S01
620,-9.31105,-0.15562,0.05507,-0.7317,0.1220,-1.1585,0.00,0.00,0.00,6,S01
640,-9.20810,-0.26097,-0.02873,-0.0610,0.4268,-0.7927,0.00,0.00,0.00,6,S01
660,-9.15064,-0.35195,-0.02155,1.4024,1.5244,-0.4268,0.00,0.00,0.00,6,S01
680,-9.22007,-0.40941,0.08380,3.0488,2.8049,0.1220,0.00,0.00,0.00,6,S01
700,-9.38766,-0.51715,0.13886,4.7561,3.6585,0.4268,0.00,0.00,0.00,6,S01
720,-9.48104,-0.52433,0.16759,6.8293,3.4146,0.0000,0.00,0.00,0.00,6,S01
740,-9.43794,-0.41899,0.12450,8.5366,2.3171,-0.7317,0.00,0.00,0.00,6,S01
760,-9.40682,-0.28970,0.11013,9.0854,1.6463,-1.0976,0.00,0.00,0.00,6,S01
780,-9.33978,-0.23224,0.10534,7.9878,1.7073,-0.9146,0.00,0.00,0.00,6,S01
800,-9.32302,-0.28730,0.06464,7.1341,2.4390,-0.9146,0.00,0.00,0.00,6,S01
820,-9.39485,-0.20830,0.09577,6.4634,3.2927,-0.9146,0.00,0.00,0.00,6,S01
840,-9.37569,-0.16041,0.05028,4.8780,3.0488,-1.1585,0.00,0.00,0.00,6,S01
860,-9.41161,-0.26097,-0.08859,4.3293,3.4146,-1.6463,0.00,0.00,0.00,6,S01
880,-9.49062,-0.34237,-0.06704,4.6951,3.9634,-1.9512,0.00,0.00,0.00,6,S01
900,-9.50019,-0.36871,-0.16281,5.1220,2.5000,-2.0122,0.00,0.00,0.00,6,S01
920,-9.38048,-0.41899,-0.41420,5.6707,1.0976,-2.3780,0.00,0.00,0.00,6,S01
940,-9.29429,-0.34955,-0.50996,5.9146,1.7073,-2.5610,0.00,0.00,0.00,6,S01
960,-9.23444,-0.28491,-0.59616,5.4268,2.5000,-2.1341,0.00,0.00,0.00,6,S01
980,-9.16740,-0.40701,-0.59137,5.1220,3.2927,-1.6463,0.00,0.00,0.00,6,S01
1000,-9.07642,-0.59855,-0.54827,5.8537,4.5732,-1.6463,0.00,0.00,0.00,6,S01
1020,-8.98783,-0.64643,-0.47166,6.9512,6.6463,-2.5000,0.00,0.00,0.00,6,S01
1040,-8.86333,-0.52194,-0.44053,6.8902,9.7561,-3.5366,0.00,0.00,0.00,6,S01
1060,-8.91122,-0.45729,-0.35434,6.5244,13.7805,-3.6585,0.00,0.00,0.00,6,S01
1080,-8.99980,-0.63686,-0.21548,6.8902,17.0732,-2.9268,0.00,0.00,0.00,6,S01
1100,-9.11233,-0.50996,-0.16281,7.6829,18.7195,-2.3780,0.00,0.00,0.00,6,S01
1120,-9.27993,-0.28970,0.19632,3.6585,19.0854,-2.2561,0.00,0.00,0.00,6,S01
1140,-9.47625,-0.29449,0.04549,-2.7439,18.3537,-3.5976,0.00,0.00,0.00,6,S01
1160,-9.38766,-0.44053,-0.45250,-6.7683,18.9024,-6.8293,0.00,0.00,0.00,6,S01
1180,-9.26795,-0.62010,-0.35913,-8.4146,21.4024,-9.7561,0.00,0.00,0.00,6,S01
1200,-9.30147,-0.67038,-0.07901,-7.4390,21.1585,-10.3659,0.00,0.00,0.00,6,S01
1220,-9.22725,-0.59855,-0.06225,-6.8293,18.5366,-9.0244,0.00,0.00,0.00,6,S01
1240,-9.24162,-0.57940,-0.39025,-7.7439,17.0732,-7.1341,0.00,0.00,0.00,6,S01
1260,-9.64863,-0.33758,-0.39504,-10.4268,16.3415,-6.5244,0.00,0.00,0.00,6,S01
1280,-9.71328,-0.25618,0.13408,-9.8780,13.2317,-6.2805,0.00,0.00,0.00,6,S01
1300,-9.84975,-0.49560,0.31364,-4.7561,9.6951,-4.0854,0.00,0.00,0.00,6,S01
1320,-9.78271,-0.71587,-0.23703,2.8659,6.4024,-1.8902,0.00,0.00,0.00,6,S01
1340,-9.55047,-0.53391,-0.78290,7.2561,6.4024,-0.6098,0.00,0.00,0.00,6,S01
1360,-9.50737,-0.16520,-0.85952,5.4268,7.8659,1.2195,0.00,0.00,0.00,6,S01
1380,-9.34457,0.07422,-0.90022,2.5610,7.7439,3.6585,0.00,0.00,0.00,6,S01
1400,-8.96150,0.12210,-0.93134,1.4024,7.1341,5.5488,0.00,0.00,0.00,6,S01
1420,-8.65504,-0.03352,-1.02711,1.5854,8.2317,6.7683,0.00,0.00,0.00,6,S01
1440,-8.65265,-0.08619,-0.97205,1.2195,10.4878,7.5610,0.00,0.00,0.00,6,S01
1460,-8.88249,-0.11971,-0.65362,-1.2805,10.9756,7.3171,0.00,0.00,0.00,6,S01
1480,-9.20092,-0.17957,-0.78290,-1.5244,8.9024,5.8537,0.00,0.00,0.00,6,S01
1500,-9.25838,-0.28252,-1.38145,1.2195,7.3171,5.0000,0.00,0.00,0.00,6,S01
1520,-8.80827,-0.44772,-1.81002,4.7561,8.2317,5.1829,0.00,0.00,0.00,6,S01
1540,-8.69095,0.17717,-1.33836,4.9390,11.2195,4.9390,0.00,0.00,0.00,6,S01
1560,-9.13627,0.99838,-0.25139,-5.6707,10.1829,5.2439,0.00,0.00,0.00,6,S01
1580,-9.23922,0.74220,-0.06225,-13.9024,5.3659,7.6829,0.00,0.00,0.00,6,S01
1600,-9.09797,-0.14844,-0.94810,-9.8171,2.1951,7.0732,0.00,0.00,0.00,6,S01
1620,-8.88728,-0.31843,-1.67594,-1.5244,5.5488,2.9268,0.00,0.00,0.00,6,S01
1640,-8.70292,0.60334,-1.38624,-0.3659,11.8293,2.2561,0.00,0.00,0.00,6,S01
1660,-9.05966,1.43652,-0.40462,-8.0488,13.5976,7.0122,0.00,0.00,0.00,6,S01
1680,-9.81862,1.35751,0.62968,-14.6341,12.1951,12.1341,0.00,0.00,0.00,6,S01
1700,-10.10353,0.53151,0.52194,-8.6585,9.9390,12.6829,0.00,0.00,0.00,6,S01
1720,-9.86172,0.09337,0.16281,2.5610,7.2561,10.3049,0.00,0.00,0.00,6,S01
1740,-9.23922,0.56503,-0.35674,7.1951,2.5610,11.0976,0.00,0.00,0.00,6,S01
1760,-8.93037,0.92177,-0.45011,6.2805,1.2805,15.6098,0.00,0.00,0.00,6,S01
1780,-8.94953,0.75178,-0.44053,8.3537,4.0244,18.9024,0.00,0.00,0.00,6,S01
1800,-8.58082,0.77333,-0.95050,14.6341,6.1585,19.8171,0.00,0.00,0.00,6,S01
1820,-8.12353,0.89783,-1.42455,19.6341,6.8902,20.1829,0.00,0.00,0.00,6,S01
1840,-8.38928,0.79487,-1.24259,21.8902,8.5366,20.8537,0.00,0.00,0.00,6,S01
1860,-8.81306,0.58179,-1.19231,28.2317,10.0000,20.1220,0.00,0.00,0.00,6,S01
1880,-8.65743,1.01035,-1.68073,36.0976,6.5244,17.1951,0.00,0.00,0.00,6,S01
1900,-8.73884,1.83396,-1.45807,37.6220,1.2195,15.9146,0.00,0.00,0.00,6,S01
1920,-9.66300,2.43730,0.23703,29.6341,-4.9390,17.3780,0.00,0.00,0.00,6,S01
1940,-9.39245,1.23780,0.40223,26.3415,-13.7805,19.1463,0.00,0.00,0.00,6,S01
1960,-8.28154,0.30646,-0.97444,36.7683,-15.3049,13.4146,0.00,0.00,0.00,6,S01
1980,-7.60877,0.28252,-1.96085,40.3659,-8.8415,5.3659,0.00,0.00,0.00,6,S01
2000,-7.98466,1.12049,-2.24097,40.3659,6.8902,3.4756,0.00,0.00,0.00,6,S01
2020,-9.39724,2.36787,-0.88825,33.7195,24.3293,3.5976,0.00,0.00,0.00,6,S01
2040,-10.05325,2.72221,0.32801,24.5732,18.9634,3.4756,0.00,0.00,0.00,6,S01
2060,-9.53850,2.32956,0.45490,22.9878,-4.5122,-0.2439,0.00,0.00,0.00,6,S01
2080,-8.25281,1.14922,0.28970,28.1098,-19.7561,-1.2195,0.00,0.00,0.00,6,S01
2100,-7.64947,0.86191,0.03352,35.3049,-18.2927,-0.1829,0.00,0.00,0.00,6,S01
2120,-7.75961,1.06542,-0.03591,37.5610,-7.6829,-1.8902,0.00,0.00,0.00,6,S01
2140,-7.87692,1.03908,-0.44053,42.9878,4.8780,-5.4878,0.00,0.00,0.00,6,S01
2160,-7.72369,0.94332,-0.16759,45.7317,17.8659,-7.1951,0.00,0.00,0.00,6,S01
2180,-8.41083,1.75734,-0.22266,47.3781,28.8415,-8.6585,0.00,0.00,0.00,6,S01
2200,-9.88326,2.74854,0.70390,44.3293,41.1585,-12.5000,0.00,0.00,0.00,6,S01
2220,-10.78588,2.48279,2.05901,45.0610,42.3171,-14.1463,0.00,0.00,0.00,6,S01
2240,-10.37168,2.24576,2.88022,52.5000,27.5610,-13.2927,0.00,0.00,0.00,6,S01
2260,-9.33978,2.74136,2.78685,52.8659,14.0244,-15.0000,0.00,0.00,0.00,6,S01
2280,-9.45470,3.45483,3.06458,48.1098,20.1220,-21.3415,0.00,0.00,0.00,6,S01
2300,-11.07079,3.25133,4.63757,43.8415,38.1098,-27.3171,0.00,0.00,0.00,6,S01
2320,-11.40837,2.56898,4.50589,49.3293,46.1585,-23.5366,0.00,0.00,0.00,6,S01
2340,-10.09874,3.67749,3.09091,42.7439,46.5854,-18.0488,0.00,0.00,0.00,6,S01
2360,-8.96389,4.81235,0.76136,16.9512,44.2683,-14.7561,0.00,0.00,0.00,6,S01
2380,-8.12831,4.46040,-1.39821,-7.8659,46.3415,-12.4390,0.00,0.00,0.00,6,S01
2400,-7.14909,2.44687,-2.76530,-19.2683,44.0244,-5.3659,0.00,0.00,0.00,6,S01
2420,-5.35104,0.81642,-2.40138,-27.1951,21.2805,-0.3659,0.00,0.00,0.00,6,S01
2440,-2.96881,0.33998,-1.26174,-42.9878,-35.1829,1.0366,0.00,0.00,0.00,6,S01
2460,-0.89064,-1.15879,-1.17076,-60.1829,-116.5854,4.3902,0.00,0.00,0.00,6,S01
2480,-0.80685,-2.31280,-3.83791,-20.6098,-241.1585,-20.4268,0.00,0.00,0.00,6,S01
2500,-1.70228,-0.03352,-5.50188,-9.6341,-264.4512,-31.5854,0.00,0.00,0.00,6,S01
2520,-2.40617,-0.50996,-6.62236,-34.0854,-263.9634,-25.6098,0.00,0.00,0.00,6,S01
2540,-2.64559,-4.54419,-6.70137,-45.1829,-236.3415,-10.9146,0.00,0.00,0.00,6,S01
2560,-2.31519,-4.62560,-6.80672,-15.9146,-193.3537,-9.9390,0.00,0.00,0.00,6,S01
2580,-2.10211,-0.24900,-6.23450,-8.1098,-143.9024,-8.4756,0.00,0.00,0.00,6,S01
2600,-2.61447,0.89543,-7.19936,-66.5244,-107.0732,18.5976,0.00,0.00,0.00,6,S01
2620,-6.26802,-0.27294,-16.23748,-162.3781,-79.2683,45.6707,0.00,0.00,0.00,6,S01
2640,-17.59020,-4.24492,-18.24621,-283.2927,-7.5610,50.6098,0.00,0.00,0.00,6,S01
2660,-39.85628,-27.66979,9.65582,-380.2439,379.3293,57.5000,0.00,0.00,0.00,6,S01
2680,-35.76937,-15.91426,31.05280,-270.9756,599.0854,34.2683,0.00,0.00,0.00,6,S01
2700,-26.73366,-5.46357,12.18170,-75.7317,318.4756,9.7561,0.00,0.00,0.00,6,S01
2720,-19.98440,4.76686,5.28161,-61.7683,123.4756,-27.6220,0.00,0.00,0.00,6,S01
2740,-11.23599,2.38941,4.06296,-142.6829,8.4756,-8.5976,0.00,0.00,0.00,6,S01
2760,-4.28323,-3.96001,3.17232,-175.2439,-71.8902,19.6341,0.00,0.00,0.00,6,S01
2780,-2.47082,-7.49625,-0.24900,-135.6098,-127.1341,21.6463,0.00,0.00,0.00,6,S01
2800,-7.88889,-0.79487,-6.32788,-102.5610,-136.8293,-3.5366,0.00,0.00,0.00,6,S01
2820,-23.50867,-6.87854,-27.38248,-23.2927,-105.4878,4.7561,0.00,0.00,0.00,6,S01
2840,-31.69205,7.39569,-11.87524,-61.7073,79.5732,-49.4512,0.00,0.00,0.00,6,S01
2860,-23.39375,4.77643,-6.25126,-51.6463,141.4024,-11.4024,0.00,0.00,0.00,6,S01
2880,-14.41788,-2.60729,-6.32069,5.3659,81.7073,61.8293,0.00,0.00,0.00,6,S01
2900,-11.37964,-2.32716,-6.32548,25.7317,16.7683,81.4634,0.00,0.00,0.00,6,S01
2920,-13.36443,3.16513,-6.52181,21.8902,-15.8537,62.2561,0.00,0.00,0.00,6,S01
2940,-15.74188,3.84509,-3.60567,8.5366,-1.7073,41.8293,0.00,0.00,0.00,6,S01
2960,-12.19127,2.25055,-1.89142,13.7195,7.3171,37.0732,0.00,0.00,0.00,6,S01
2980,-6.78996,0.68474,-0.91219,27.2561,1.1585,36.0366,0.00,0.00,0.00,6,S01
3000,-2.83234,-0.48842,-0.21308,30.9756,-2.8049,36.9512,0.00,0.00,0.00,6,S01
3020,-3.83791,1.14203,-0.97923,38.4146,17.3171,18.3537,0.00,0.00,0.00,6,S01
3040,-8.07085,4.59926,0.16520,44.2683,73.2927,-11.0976,0.00,0.00,0.00,6,S01
3060,-9.51935,3.96240,1.69270,38.8415,103.8415,-18.9024,0.00,0.00,0.00,6,S01
3080,-7.63032,0.77812,1.33118,38.3537,79.6341,-10.1829,0.00,0.00,0.00,6,S01
3100,-5.23373,-1.15640,-0.47166,52.8659,50.0000,-2.0122,0.00,0.00,0.00,6,S01
3120,-4.45082,-1.18513,-4.30238,79.7561,41.8902,0.9146,0.00,0.00,0.00,6,S01
3140,-8.46590,-0.13408,-5.34865,101.0976,53.4146,-5.9146,0.00,0.00,0.00,6,S01
3160,-14.33409,2.37026,-2.56658,59.5122,28.9024,-24.0854,0.00,0.00,0.00,6,S01
3180,-10.57998,2.71742,-4.92727,39.3902,-29.3293,-12.8049,0.00,0.00,0.00,6,S01
3200,-9.32302,1.47722,-7.32147,39.3902,-46.3415,-9.1463,0.00,0.00,0.00,6,S01
3220,-9.73243,-1.09176,-7.08205,13.8415,-31.4024,-7.7439,0.00,0.00,0.00,6,S01
3240,-10.74039,-2.58574,-5.31513,-7.6829,-9.3902,0.1829,0.00,0.00,0.00,6,S01
3260,-11.26472,-2.61686,-6.62954,6.9512,-0.5488,-5.6707,0.00,0.00,0.00,6,S01
3280,-10.20409,-1.75734,-6.72771,28.4146,7.2561,-20.1829,0.00,0.00,0.00,6,S01
3300,-8.44674,-1.75016,-5.31992,28.0488,5.4878,-27.5610,0.00,0.00,0.00,6,S01
3320,-8.11156,-2.43251,-4.71179,25.1829,-6.7073,-25.1220,0.00,0.00,0.00,6,S01
3340,-9.28232,-2.31998,-4.81474,21.8293,-18.4756,-22.2561,0.00,0.00,0.00,6,S01
3360,-9.02375,-2.37984,-5.05895,17.2561,-19.7561,-19.9390,0.00,0.00,0.00,6,S01
3380,-7.72848,-2.52588,-3.64398,15.0000,-11.0976,-19.3293,0.00,0.00,0.00,6,S01
3400,-6.22014,-1.58496,-2.58334,11.9512,-11.8293,-17.4390,0.00,0.00,0.00,6,S01
3420,-6.16028,-0.58658,-3.00472,8.7805,-12.6829,-12.8659,0.00,0.00,0.00,6,S01
3440,-7.54652,-0.80924,-3.54581,-1.8293,-11.5854,-5.7317,0.00,0.00,0.00,6,S01
3460,-6.83066,-1.41497,-2.51631,-19.5732,-8.7195,4.1463,0.00,0.00,0.00,6,S01
3480,-5.59285,-2.15718,-1.53708,-28.4756,-14.5122,10.0610,0.00,0.00,0.00,6,S01
3500,-5.02782,-1.83156,-1.40300,-31.4634,-26.5854,12.2561,0.00,0.00,0.00,6,S01
3520,-4.71658,-1.69509,-1.60172,-32.8049,-31.6463,17.3171,0.00,0.00,0.00,6,S01
3540,-5.20978,-1.40779,-1.49159,-32.9878,-34.6951,18.1098,0.00,0.00,0.00,6,S01
3560,-6.34463,-1.38624,-0.62968,-34.2073,-42.2561,13.0488,0.00,0.00,0.00,6,S01
3580,-7.08205,-1.55384,-0.39025,-34.2683,-57.0122,7.0122,0.00,0.00,0.00,6,S01
3600,-6.97192,-0.87628,-0.54348,-28.9634,-68.4146,3.5366,0.00,0.00,0.00,6,S01
3620,-7.24246,0.46687,-0.51475,-23.0488,-75.7317,1.2195,0.00,0.00,0.00,6,S01
3640,-8.50899,1.41018,-0.55785,-20.1220,-86.9512,4.2683,0.00,0.00,0.00,6,S01
3660,-9.55765,-0.38307,-0.53151,-20.9756,-96.5854,18.3537,0.00,0.00,0.00,6,S01
3680,-9.33499,-1.10133,-0.94092,-19.8171,-98.8415,25.8537,0.00,0.00,0.00,6,S01
3700,-9.07402,0.28970,-1.41976,-12.2561,-93.0488,21.9512,0.00,0.00,0.00,6,S01
3720,-9.27274,1.68552,-0.92177,-5.2439,-84.1463,19.2683,0.00,0.00,0.00,6,S01
3740,-11.09713,1.05105,0.16999,-25.1829,-82.0732,28.0488,0.00,0.00,0.00,6,S01
3760,-10.94868,-0.05267,0.32082,-25.8537,-77.1341,28.4756,0.00,0.00,0.00,6,S01
3780,-11.10431,0.16041,0.28970,-22.3780,-71.2805,22.0732,0.00,0.00,0.00,6,S01
3800,-11.37246,1.42216,0.18914,-22.0732,-68.4146,17.3171,0.00,0.00,0.00,6,S01
3820,-11.76990,1.86748,0.80924,-31.7073,-59.2073,21.0976,0.00,0.00,0.00,6,S01
3840,-13.17529,0.87149,1.40779,-42.0122,-48.1098,25.1829,0.00,0.00,0.00,6,S01
3860,-13.66610,0.20351,1.56341,-48.9024,-46.4634,27.4390,0.00,0.00,0.00,6,S01
3880,-13.54639,-0.08619,1.66636,-51.2805,-48.3537,27.8049,0.00,0.00,0.00,6,S01
3900,-13.63258,0.51715,1.86269,-49.0854,-47.7439,25.3659,0.00,0.00,0.00,6,S01
3920,-13.76427,0.91698,1.91057,-47.0732,-43.3537,23.2927,0.00,0.00,0.00,6,S01
3940,-14.18086,1.61609,1.42216,-46.6463,-34.3902,23.4756,0.00,0.00,0.00,6,S01
3960,-13.83849,2.04465,1.07260,-44.0244,-20.8537,26.2195,0.00,0.00,0.00,6,S01
3980,-13.02206,2.15718,1.08936,-40.8537,-5.5488,30.9756,0.00,0.00,0.00,6,S01
4000,-12.62223,1.63285,1.33118,-38.7805,11.4634,33.2317,0.00,0.00,0.00,6,S01
4020,-11.88242,0.78530,1.44131,-36.0366,23.1098,32.0732,0.00,0.00,0.00,6,S01
4040,-10.78827,0.41180,1.64721,-30.3659,30.5488,28.7195,0.00,0.00,0.00,6,S01
4060,-9.72525,0.61531,1.88903,-25.0610,35.9146,24.0854,0.00,0.00,0.00,6,S01
4080,-8.87770,0.98162,2.09493,-23.3537,41.4634,19.8171,0.00,0.00,0.00,6,S01
4100,-8.54730,1.17555,2.20506,-23.7195,44.6951,16.4634,0.00,0.00,0.00,6,S01
4120,-8.07564,1.15401,2.27210,-24.0854,42.3171,14.2683,0.00,0.00,0.00,6,S01
4140,-7.58483,0.95289,2.35350,-22.9878,38.2317,12.9878,0.00,0.00,0.00,6,S01
4160,-7.27358,0.79009,2.41814,-19.8780,34.3293,11.4634,0.00,0.00,0.00,6,S01
4180,-7.07487,0.92656,2.57616,-16.8293,29.7561,9.0854,0.00,0.00,0.00,6,S01
4200,-7.09641,1.07739,2.65517,-14.8171,24.1463,6.4634,0.00,0.00,0.00,6,S01
4220,-7.28556,1.08697,2.68390,-13.5366,16.2805,5.1220,0.00,0.00,0.00,6,S01
4240,-7.29513,1.24738,2.63602,-13.0488,7.0732,5.0610,0.00,0.00,0.00,6,S01
4260,-7.23049,1.29526,2.53546,-12.7439,-0.4268,5.2439,0.00,0.00,0.00,6,S01
4280,-7.42203,1.24259,2.43969,-11.5244,-6.0976,4.5732,0.00,0.00,0.00,6,S01
4300,-7.87932,1.47483,2.34632,-9.5122,-9.6951,2.8659,0.00,0.00,0.00,6,S01
4320,-8.41801,1.79086,2.20745,-8.5366,-12.1951,0.6707,0.00,0.00,0.00,6,S01
4340,-9.06205,2.01352,2.06380,-8.7805,-15.0000,-0.7317,0.00,0.00,0.00,6,S01
4360,-9.60554,2.12366,1.88424,-9.8171,-18.1707,-0.3659,0.00,0.00,0.00,6,S01
4380,-9.90242,2.24816,1.49159,-9.9390,-18.0488,1.7073,0.00,0.00,0.00,6,S01
4400,-10.36450,2.10450,1.30484,-10.1220,-12.7439,4.4512,0.00,0.00,0.00,6,S01
4420,-11.01093,1.84354,1.14922,-8.2317,-3.4146,4.8171,0.00,0.00,0.00,6,S01
4440,-11.39640,1.58975,0.90980,-4.6951,4.4512,3.3537,0.00,0.00,0.00,6,S01
4460,-11.30063,1.38385,0.66319,-1.6463,9.3293,0.4268,0.00,0.00,0.00,6,S01
4480,-10.88644,1.26414,0.65601,1.5244,14.9390,-2.9268,0.00,0.00,0.00,6,S01
4500,-10.49379,1.29526,0.76854,4.6951,22.1951,-4.8780,0.00,0.00,0.00,6,S01
4520,-10.15860,1.23541,1.01754,6.8293,29.5732,-5.6707,0.00,0.00,0.00,6,S01
4540,-9.65821,1.13964,1.24259,8.3537,32.8659,-6.2195,0.00,0.00,0.00,6,S01
4560,-9.11712,1.01275,1.43652,9.6951,33.5976,-6.6463,0.00,0.00,0.00,6,S01
4580,-8.66222,1.06063,1.41497,10.5488,33.3537,-7.6220,0.00,0.00,0.00,6,S01
4600,-8.32943,1.16119,1.36469,10.1220,32.8659,-7.8659,0.00,0.00,0.00,6,S01
4620,-8.20732,0.99599,1.50356,9.1463,33.0488,-6.8293,0.00,0.00,0.00,6,S01
4640,-8.14507,0.83318,1.62327,8.8415,33.1098,-5.4878,0.00,0.00,0.00,6,S01
4660,-8.21929,0.89543,1.52271,9.1463,32.0732,-4.7561,0.00,0.00,0.00,6,S01
4680,-8.29830,0.96007,1.38864,7.8049,27.5610,-4.1463,0.00,0.00,0.00,6,S01
4700,-8.45632,0.91219,1.29526,4.9390,22.5610,-3.8415,0.00,0.00,0.00,6,S01
4720,-8.66940,0.96247,1.05345,3.4146,17.3780,-4.7561,0.00,0.00,0.00,6,S01
4740,-8.88967,0.84755,0.68235,3.1707,10.6098,-5.5488,0.00,0.00,0.00,6,S01
4760,-8.85855,0.95289,0.21069,2.7439,4.8171,-5.6098,0.00,0.00,0.00,6,S01
4780,-9.00699,1.26414,-0.20351,1.7073,5.8537,-5.9756,0.00,0.00,0.00,6,S01
4800,-9.68933,1.37906,-0.29688,-0.4268,11.6463,-5.4878,0.00,0.00,0.00,6,S01
4820,-10.20169,1.29287,-0.55067,-3.3537,13.2317,-4.2683,0.00,0.00,0.00,6,S01
4840,-10.13466,1.14682,-0.51475,-5.4268,11.2805,-3.7805,0.00,0.00,0.00,6,S01
4860,-9.94551,1.15161,-0.51236,-4.5732,9.6341,-4.3902,0.00,0.00,0.00,6,S01
4880,-9.93594,1.35991,-0.50039,-2.2561,9.7561,-5.0000,0.00,0.00,0.00,6,S01
4900,-9.87369,1.44131,-0.38068,-1.2195,11.0366,-3.5976,0.00,0.00,0.00,6,S01
4920,-9.83299,1.33596,-0.18435,-2.1341,11.7073,-1.3415,0.00,0.00,0.00,6,S01
4940,-9.68933,1.19231,-0.15802,-3.0488,9.3293,-0.1220,0.00,0.00,0.00,6,S01
4960,-9.48104,1.02711,-0.14605,-2.5000,5.4268,0.1829,0.00,0.00,0.00,6,S01
4980,-9.19852,0.88585,-0.10295,-1.4024,1.2805,-0.7927,0.00,0.00,0.00,6,S01
5000,-8.87052,0.85234,-0.11253,1.4634,-3.7195,-3.7805,0.00,0.00,0.00,6,S01
5020,-8.83221,0.85712,-0.04549,3.1707,-3.4756,-3.7195,0.00,0.00,0.00,6,S01
5040,-8.72686,0.85473,0.04788,4.7561,-3.2927,-3.5976,0.00,0.00,0.00,6,S01
5060,-8.80827,0.79727,0.23224,6.4634,-3.7805,-3.5366,0.00,0.00,0.00,6,S01
5080,-8.99262,0.74460,0.35913,8.4146,-5.0000,-3.1707,0.00,0.00,0.00,6,S01
5100,-9.03332,0.84755,0.34477,9.6341,-6.4024,-2.7439,0.00,0.00,0.00,6,S01
5120,-9.16500,0.91459,0.28491,9.1463,-7.6829,-2.3171,0.00,0.00,0.00,6,S01
5140,-9.41879,0.83079,0.30646,7.6829,-8.5366,-1.6463,0.00,0.00,0.00,6,S01
5160,-9.56005,0.79009,0.15083,6.3415,-9.2073,-1.3415,0.00,0.00,0.00,6,S01
5180,-9.42118,0.87867,0.06943,5.0000,-9.5122,-1.2195,0.00,0.00,0.00,6,S01
5200,-9.49062,0.92177,0.16041,3.1707,-7.3780,-0.4878,0.00,0.00,0.00,6,S01
5220,-9.74919,0.93134,0.27533,0.7317,-4.2683,0.4878,0.00,0.00,0.00,6,S01
5240,-9.78510,0.98641,0.26576,-1.5244,-3.2927,1.0976,0.00,0.00,0.00,6,S01
5260,-9.52653,1.01514,0.29688,-2.4390,-3.7805,1.4024,0.00,0.00,0.00,6,S01
5280,-9.50259,1.07021,0.37828,-2.9268,-1.8293,1.7683,0.00,0.00,0.00,6,S01
5300,-9.61990,1.08936,0.36152,-4.0244,0.7317,2.1341,0.00,0.00,0.00,6,S01
5320,-9.44991,1.03669,0.35674,-5.3049,0.4878,2.5000,0.00,0.00,0.00,6,S01
5340,-9.11233,0.96486,0.40701,-5.0000,-0.3049,2.6829,0.00,0.00,0.00,6,S01
5360,-9.12191,1.04866,0.43814,-3.3537,1.5854,2.3171,0.00,0.00,0.00,6,S01
5380,-9.27035,1.19231,0.48123,-2.3780,2.9268,1.6463,0.00,0.00,0.00,6,S01
5400,-9.30147,1.24977,0.53391,-2.5610,1.0366,1.3415,0.00,0.00,0.00,6,S01
5420,-9.01656,1.18992,0.45969,-2.1951,-1.9512,1.5244,0.00,0.00,0.00,6,S01
5440,-8.96389,1.19710,0.48842,-0.7927,-2.3780,1.3415,0.00,0.00,0.00,6,S01
5460,-9.10754,1.27611,0.53870,0.4268,-1.9512,0.5488,0.00,0.00,0.00,6,S01
5480,-9.22246,1.35512,0.52672,0.8537,-2.5610,-0.0610,0.00,0.00,0.00,6,S01
5500,-9.26795,1.33357,0.47405,0.6707,-3.6585,-0.1829,0.00,0.00,0.00,6,S01
5520,-9.23444,1.28090,0.36152,0.7927,-4.5122,-0.1220,0.00,0.00,0.00,6,S01
5540,-9.23204,1.31442,0.31125,1.2805,-3.7805,-0.3659,0.00,0.00,0.00,6,S01
5560,-9.36372,1.28329,0.33040,1.3415,-2.3780,-0.8537,0.00,0.00,0.00,6,S01
5580,-9.43316,1.23301,0.32801,1.4024,-1.8902,-1.4634,0.00,0.00,0.00,6,S01
5600,-9.28711,1.23780,0.35913,2.5000,-2.2561,-2.3171,0.00,0.00,0.00,6,S01
5620,-9.26077,1.26414,0.42138,3.9634,-1.1585,-2.9878,0.00,0.00,0.00,6,S01
5640,-9.34218,1.27372,0.51954,4.6341,1.0366,-3.2317,0.00,0.00,0.00,6,S01
5660,-9.38766,1.19231,0.54588,4.2683,1.7683,-2.9878,0.00,0.00,0.00,6,S01
5680,-9.27035,1.13725,0.49799,3.6585,1.1585,-2.5000,0.00,0.00,0.00,6,S01
5700,-9.17219,1.06542,0.48123,3.2317,1.4024,-2.4390,0.00,0.00,0.00,6,S01
5720,-9.24880,1.04627,0.45011,2.8659,2.0732,-2.6220,0.00,0.00,0.00,6,S01
5740,-9.25119,1.06063,0.39504,2.1951,2.0122,-2.8659,0.00,0.00,0.00,6,S01
5760,-9.18176,1.05105,0.38786,1.8293,1.5244,-2.9878,0.00,0.00,0.00,6,S01
5780,-9.20331,1.04627,0.40941,2.1341,1.7073,-2.6829,0.00,0.00,0.00,6,S01
5800,-9.32063,1.07739,0.44532,2.3171,2.3780,-2.3780,0.00,0.00,0.00,6,S01
5820,-9.37569,1.07021,0.42617,2.0122,2.0122,-1.9512,0.00,0.00,0.00,6,S01
5840,-9.31584,1.07021,0.33519,1.7073,1.1585,-1.4024,0.00,0.00,0.00,6,S01
5860,-9.27274,1.08218,0.26815,1.1585,1.2195,-0.9756,0.00,0.00,0.00,6,S01
5880,-9.29429,1.03669,0.27773,0.4268,1.9512,-0.6098,0.00,0.00,0.00,6,S01
5900,-9.32781,1.00317,0.31125,0.0610,2.1951,-0.4268,0.00,0.00,0.00,6,S01
5920,-9.27274,1.04387,0.31603,0.4268,2.2561,-0.6098,0.00,0.00,0.00,6,S01
5940,-9.29669,1.10373,0.28491,0.9146,2.9268,-0.6707,0.00,0.00,0.00,6,S01
5960,-9.37330,1.14443,0.34716,0.9146,2.9878,-0.7927,0.00,0.00,0.00,6,S01
5980,-9.35175,1.15401,0.34955,0.9146,2.1951,-0.8537,0.00,0.00,0.00,6,S01
6000,-9.29908,1.10852,0.28012,1.5244,1.7073,-0.4878,0.00,0.00,0.00,6,S01
6020,-9.20331,1.10373,0.25857,1.9512,1.9512,-0.3049,0.00,0.00,0.00,6,S01
6040,-9.23683,1.10373,0.29209,1.8293,2.5000,-0.4268,0.00,0.00,0.00,6,S01
6060,-9.28711,1.09654,0.31125,1.5854,3.3537,-0.4878,0.00,0.00,0.00,6,S01
6080,-9.27753,1.10852,0.30406,1.4024,4.2073,-0.3659,0.00,0.00,0.00,6,S01
6100,-9.23204,1.15401,0.23224,1.0366,4.6341,-0.4268,0.00,0.00,0.00,6,S01
6120,-9.25359,1.13246,0.23703,0.4268,4.5122,-0.7317,0.00,0.00,0.00,6,S01
6140,-9.28711,1.12049,0.24421,0.3049,4.7561,-0.8537,0.00,0.00,0.00,6,S01
6160,-9.29429,1.21386,0.19872,0.4268,5.7317,-0.9146,0.00,0.00,0.00,6,S01
6180,-9.32542,1.25696,0.14365,-0.0610,6.2805,-0.9146,0.00,0.00,0.00,6,S01
6200,-9.33260,1.21865,0.14605,-0.9146,5.5488,-0.7317,0.00,0.00,0.00,6,S01
6220,-9.29908,1.18992,0.12450,-0.7927,4.5732,-0.5488,0.00,0.00,0.00,6,S01
6240,-9.31823,1.25456,0.11253,-0.5488,4.4512,-0.6098,0.00,0.00,0.00,6,S01
6260,-9.33739,1.24020,0.04788,-1.2805,3.5976,-0.6098,0.00,0.00,0.00,6,S01
6280,-9.24162,1.20428,0.01676,-1.6463,2.3171,-0.3049,0.00,0.00,0.00,6,S01
6300,-9.13627,1.24738,0.03591,-1.8293,2.0732,-0.3659,0.00,0.00,0.00,6,S01
6320,-9.29190,1.24259,0.11732,-2.6829,2.8049,-0.7317,0.00,0.00,0.00,6,S01
6340,-9.38527,1.18034,0.07661,-2.6829,2.0122,-1.0976,0.00,0.00,0.00,6,S01
6360,-9.29190,1.19710,0.01437,-2.1951,0.0610,-1.0976,0.00,0.00,0.00,6,S01
6380,-9.20331,1.24020,0.03352,-1.9512,-1.0366,-1.4024,0.00,0.00,0.00,6,S01
6400,-9.18655,1.25456,0.08619,-2.0122,-1.0366,-1.8902,0.00,0.00,0.00,6,S01
6420,-9.28232,1.23541,0.14126,-2.1951,0.0000,-2.1341,0.00,0.00,0.00,6,S01
6440,-9.33499,1.23780,0.09577,-1.6463,0.1829,-2.2561,0.00,0.00,0.00,6,S01
6460,-9.24162,1.20907,0.08140,-1.4634,-0.6098,-2.0732,0.00,0.00,0.00,6,S01
6480,-9.20092,1.16119,0.15323,-1.1585,-0.5488,-1.9512,0.00,0.00,0.00,6,S01
6500,-9.27274,1.15401,0.20111,-1.1585,0.7927,-2.0122,0.00,0.00,0.00,6,S01
6520,-9.33020,1.10612,0.15562,-0.8537,1.7073,-2.0122,0.00,0.00,0.00,6,S01
6540,-9.27993,1.09415,0.16520,-0.7317,1.1585,-1.9512,0.00,0.00,0.00,6,S01
6560,-9.30387,1.13246,0.21548,-0.4268,0.7317,-2.2561,0.00,0.00,0.00,6,S01
6580,-9.35175,1.14203,0.19154,-0.1829,0.6707,-2.3780,0.00,0.00,0.00,6,S01
6600,-9.39006,1.13964,0.14126,-0.2439,0.9146,-2.3171,0.00,0.00,0.00,6,S01
6620,-9.36851,1.12049,0.13168,-0.4268,0.3659,-2.1341,0.00,0.00,0.00,6,S01
6640,-9.35175,1.13246,0.12929,-0.3659,0.4878,-1.8902,0.00,0.00,0.00,6,S01
6660,-9.39964,1.15161,0.11253,-0.3659,1.2195,-1.8293,0.00,0.00,0.00,6,S01
6680,-9.40442,1.13006,0.05507,-0.7317,1.6463,-1.6463,0.00,0.00,0.00,6,S01
6700,-9.31105,1.07978,0.01437,-1.0366,2.3171,-1.2195,0.00,0.00,0.00,6,S01
6720,-9.29190,1.08936,0.00239,-1.0366,3.4756,-1.1585,0.00,0.00,0.00,6,S01
6740,-9.29669,1.07739,0.00000,-0.6098,4.0854,-1.5244,0.00,0.00,0.00,6,S01
6760,-9.31823,1.08218,0.02873,-0.4268,4.6951,-1.9512,0.00,0.00,0.00,6,S01
6780,-9.26795,1.09415,0.05746,0.2439,4.3293,-2.1341,0.00,0.00,0.00,6,S01
6800,-9.23204,1.15879,0.06943,0.6707,3.4756,-2.1341,0.00,0.00,0.00,6,S01
6820,-9.24401,1.17316,0.07422,0.7317,2.6220,-2.4390,0.00,0.00,0.00,6,S01
6840,-9.29190,1.16598,0.04788,0.8537,2.0122,-2.6220,0.00,0.00,0.00,6,S01
6860,-9.29669,1.16837,-0.00718,0.7927,1.5244,-2.3780,0.00,0.00,0.00,6,S01
6880,-9.28471,1.17555,-0.02634,0.3659,1.2195,-2.0732,0.00,0.00,0.00,6,S01
6900,-9.28950,1.17795,-0.02394,-0.3659,1.0976,-1.7683,0.00,0.00,0.00,6,S01
6920,-9.34457,1.15640,-0.00239,-1.1585,1.1585,-1.5244,0.00,0.00,0.00,6,S01
6940,-9.36851,1.10373,-0.00958,-1.7683,1.0976,-1.2805,0.00,0.00,0.00,6,S01
6960,-9.31823,1.06303,-0.01437,-2.0732,0.9146,-0.9146,0.00,0.00,0.00,6,S01
6980,-9.28711,1.08936,-0.02634,-2.2561,0.8537,-0.8537,0.00,0.00,0.00,6,S01
7000,-9.29669,1.06303,-0.03112,-2.3780,0.7927,-0.9756,0.00,0.00,0.00,6,S01
7020,-9.30866,1.02232,-0.03591,-2.0732,1.0366,-1.0366,0.00,0.00,0.00,6,S01
7040,-9.27514,1.04866,-0.03112,-1.6463,1.0366,-1.0976,0.00,0.00,0.00,6,S01
7060,-9.29190,1.05345,0.00718,-1.1585,0.9146,-1.2195,0.00,0.00,0.00,6,S01
7080,-9.27753,0.96965,0.02873,-0.3659,0.7317,-1.3415,0.00,0.00,0.00,6,S01
7100,-9.33739,0.97205,-0.00239,1.1585,0.9146,-1.5854,0.00,0.00,0.00,6,S01
7120,-9.31584,1.08218,-0.00239,2.3780,0.0610,-2.3171,0.00,0.00,0.00,6,S01
7140,-9.33739,1.06063,-0.00958,2.6220,-0.3659,-2.8659,0.00,0.00,0.00,6,S01
7160,-9.33260,0.99838,-0.00718,3.1707,-0.4878,-2.9268,0.00,0.00,0.00,6,S01
7180,-9.32302,1.07260,-0.01915,4.5122,-0.1220,-3.1707,0.00,0.00,0.00,6,S01
7200,-9.34457,1.14443,-0.03591,4.6951,0.3049,-3.1098,0.00,0.00,0.00,6,S01
7220,-9.37091,1.12767,-0.03112,4.0244,0.7927,-2.6829,0.00,0.00,0.00,6,S01
7240,-9.34218,1.04866,0.00718,3.7195,1.2805,-2.0122,0.00,0.00,0.00,6,S01
7260,-9.28711,0.96007,0.02634,4.6951,2.3780,-1.1585,0.00,0.00,0.00,6,S01
7280,-9.35175,1.01275,0.03352,5.8537,4.5732,-0.7317,0.00,0.00,0.00,6,S01
7300,-9.38288,1.05345,0.02394,5.6098,5.9756,-0.8537,0.00,0.00,0.00,6,S01
7320,-9.39006,0.94332,0.01437,5.3659,6.0366,-0.4268,0.00,0.00,0.00,6,S01
7340,-9.36612,0.96007,0.06464,6.0366,6.2195,-0.1829,0.00,0.00,0.00,6,S01
7360,-9.35175,1.02232,0.07183,7.0122,7.0732,-0.2439,0.00,0.00,0.00,6,S01
7380,-9.28232,0.96007,0.02394,7.3780,8.1707,0.3049,0.00,0.00,0.00,6,S01
7400,-9.35415,1.02232,-0.00718,7.3171,9.4512,0.4268,0.00,0.00,0.00,6,S01
7420,-9.39006,1.20668,0.02873,6.2805,10.9756,0.1220,0.00,0.00,0.00,6,S01
7440,-9.49062,1.14443,-0.01437,5.0610,11.0366,1.0366,0.00,0.00,0.00,6,S01
7460,-9.48822,1.06063,-0.01437,5.6098,9.2073,1.9512,0.00,0.00,0.00,6,S01
7480,-9.17458,1.17555,-0.16520,7.6220,8.7805,2.5000,0.00,0.00,0.00,6,S01
7500,-9.42358,1.16598,-0.25379,6.3415,14.3902,2.6220,0.00,0.00,0.00,6,S01
7520,-9.48343,1.20428,-0.36152,4.6951,17.1951,2.0732,0.00,0.00,0.00,6,S01
7540,-9.28232,1.32639,-0.49799,3.3537,19.1463,1.8293,0.00,0.00,0.00,6,S01
7560,-9.11233,1.35991,-0.55545,0.7927,20.8537,2.5000,0.00,0.00,0.00,6,S01
7580,-9.12670,1.25456,-0.45729,-1.5854,23.7195,3.5976,0.00,0.00,0.00,6,S01
7600,-9.32302,1.12767,-0.29928,-2.4390,27.6829,4.4512,0.00,0.00,0.00,6,S01
7620,-9.53371,1.00556,-0.27294,-1.4024,31.4634,5.9756,0.00,0.00,0.00,6,S01
7640,-9.53371,1.10852,-0.50757,0.4878,32.3171,7.2561,0.00,0.00,0.00,6,S01
7660,-9.53132,1.15640,-0.77812,0.6098,29.9390,8.4756,0.00,0.00,0.00,6,S01
7680,-9.40682,1.23541,-0.88825,-1.0366,27.3780,8.5366,0.00,0.00,0.00,6,S01
7700,-9.18416,1.32399,-0.92656,-1.7683,27.8659,7.6829,0.00,0.00,0.00,6,S01
7720,-9.19852,1.52989,-1.12767,0.1220,31.0366,6.2195,0.00,0.00,0.00,6,S01
7740,-9.42358,1.63045,-1.35512,2.5610,34.8780,5.4268,0.00,0.00,0.00,6,S01
7760,-9.41879,1.54905,-1.52511,4.1463,36.6463,6.2805,0.00,0.00,0.00,6,S01
7780,-9.21289,1.63045,-1.59214,4.1463,37.5000,7.5610,0.00,0.00,0.00,6,S01
7800,-9.00938,1.60412,-1.57299,3.2927,39.8171,9.2073,0.00,0.00,0.00,6,S01
7820,-8.96150,1.55623,-1.58017,2.9878,43.2927,10.1220,0.00,0.00,0.00,6,S01
7840,-8.88488,1.69270,-1.77410,3.5976,46.7683,9.3902,0.00,0.00,0.00,6,S01
7860,-8.70053,1.71425,-1.95606,2.3171,48.6585,8.1098,0.00,0.00,0.00,6,S01
7880,-8.76038,1.33357,-2.07338,0.4268,53.0488,6.5854,0.00,0.00,0.00,6,S01
7900,-9.31823,1.40061,-2.13563,0.7317,56.2195,2.1341,0.00,0.00,0.00,6,S01
7920,-9.35893,1.88663,-2.48997,1.9512,46.3415,-4.3293,0.00,0.00,0.00,6,S01
7940,-9.16979,2.02071,-2.72221,5.3659,34.2073,-7.9878,0.00,0.00,0.00,6,S01
7960,-9.00459,1.96325,-2.93529,9.6341,30.7927,-8.7195,0.00,0.00,0.00,6,S01
7980,-8.64067,1.80762,-3.27527,12.1341,33.5976,-6.5244,0.00,0.00,0.00,6,S01
8000,-8.50420,1.73819,-3.20105,12.4390,37.3171,-4.9390,0.00,0.00,0.00,6,S01
8020,-8.52575,1.68312,-3.29203,13.9024,39.1463,-5.0610,0.00,0.00,0.00,6,S01
8040,-8.58800,1.57538,-3.60327,18.1098,39.5732,-5.5488,0.00,0.00,0.00,6,S01
8060,-8.52096,1.62087,-3.81396,20.9756,38.9634,-5.4878,0.00,0.00,0.00,6,S01
8080,-8.33422,1.64482,-3.97437,20.3659,38.1707,-5.3049,0.00,0.00,0.00,6,S01
8100,-8.30070,1.56581,-4.09408,17.3171,39.4512,-4.8780,0.00,0.00,0.00,6,S01
8120,-8.34858,1.41018,-4.36224,14.5732,41.8902,-4.6341,0.00,0.00,0.00,6,S01
8140,-8.24324,1.13246,-4.56095,13.9024,45.4268,-3.8415,0.00,0.00,0.00,6,S01
8160,-8.20972,1.01514,-4.59447,16.6463,51.0976,-3.1707,0.00,0.00,0.00,6,S01
8180,-8.39168,0.99838,-4.71658,17.7439,54.4512,-1.0366,0.00,0.00,0.00,6,S01
8200,-8.29591,0.90980,-4.96318,14.8780,53.2927,2.3171,0.00,0.00,0.00,6,S01
8220,-8.05170,0.76614,-5.03979,12.6220,53.2927,2.2561,0.00,0.00,0.00,6,S01
8240,-7.79552,0.64404,-5.12120,13.5366,55.6098,0.8537,0.00,0.00,0.00,6,S01
8260,-7.81228,0.36631,-5.23133,13.9634,54.0244,0.8537,0.00,0.00,0.00,6,S01
8280,-7.71412,0.36392,-5.46596,12.8049,47.6220,-0.4878,0.00,0.00,0.00,6,S01
8300,-7.59441,0.81163,-5.68144,10.3659,37.1951,-3.5366,0.00,0.00,0.00,6,S01
8320,-7.54413,1.20668,-5.71257,9.3902,29.0244,-5.3049,0.00,0.00,0.00,6,S01
8340,-7.76440,1.26414,-6.12676,14.6951,23.5976,-5.3659,0.00,0.00,0.00,6,S01
8360,-8.30309,1.23301,-6.36379,17.5000,15.5488,-5.1220,0.00,0.00,0.00,6,S01
8380,-8.30788,0.96965,-6.24168,11.0976,5.2439,-4.0244,0.00,0.00,0.00,6,S01
8400,-7.86256,0.78051,-5.89213,5.4268,-1.3415,-2.9268,0.00,0.00,0.00,6,S01
8420,-7.53934,0.95529,-5.79876,8.1098,-2.7439,-3.2317,0.00,0.00,0.00,6,S01
8440,-7.07726,0.92177,-5.70059,10.3659,-2.3780,-2.6829,0.00,0.00,0.00,6,S01
8460,-6.54096,0.65841,-5.55934,10.0000,-0.3659,-2.1951,0.00,0.00,0.00,6,S01
8480,-6.58405,0.74460,-5.63356,13.8415,4.6341,-4.9390,0.00,0.00,0.00,6,S01
8500,-7.30950,1.39343,-5.96156,18.7195,9.0244,-6.5854,0.00,0.00,0.00,6,S01
8520,-7.59441,1.59214,-6.09085,20.4268,12.2561,-3.1098,0.00,0.00,0.00,6,S01
8540,-7.10838,0.81642,-5.70059,19.5122,13.5976,-0.1829,0.00,0.00,0.00,6,S01
8560,-7.11078,0.73263,-6.00945,20.6707,12.1951,-2.9268,0.00,0.00,0.00,6,S01
8580,-7.46273,0.54348,-6.12197,23.9634,15.1220,-7.1951,0.00,0.00,0.00,6,S01
8600,-7.62793,0.66798,-6.22732,29.5122,17.4390,-9.6341,0.00,0.00,0.00,6,S01
8620,-7.64708,0.54827,-6.85699,32.0732,15.6098,-8.9634,0.00,0.00,0.00,6,S01
8640,-7.66145,0.28252,-6.84502,31.7683,15.5488,-7.6829,0.00,0.00,0.00,6,S01
8660,-7.46991,0.20830,-6.88333,32.3780,15.4268,-7.4390,0.00,0.00,0.00,6,S01
8680,-7.33105,0.31364,-6.76601,32.3780,15.4878,-9.2683,0.00,0.00,0.00,6,S01
8700,-7.29992,0.36152,-6.79714,32.2561,16.4024,-10.6098,0.00,0.00,0.00,6,S01
8720,-7.34781,-0.04788,-6.87136,28.9634,18.5976,-10.4268,0.00,0.00,0.00,6,S01
8740,-7.22570,-0.78051,-6.41407,20.5488,17.6829,-8.1707,0.00,0.00,0.00,6,S01
8760,-7.21612,0.11013,-6.42604,17.7439,12.3780,-10.5488,0.00,0.00,0.00,6,S01
8780,-7.30471,0.45729,-6.84502,9.6951,11.0976,-12.0732,0.00,0.00,0.00,6,S01
8800,-7.58244,-0.73502,-6.69179,-2.3780,17.3780,-8.1098,0.00,0.00,0.00,6,S01
8820,-7.59680,-1.89621,-6.73968,-8.2317,20.0610,-3.9634,0.00,0.00,0.00,6,S01
8840,-7.68539,-1.76213,-6.83066,-8.0488,16.0366,-3.9024,0.00,0.00,0.00,6,S01
8860,-7.71891,-0.27533,-6.80432,-8.3537,9.7561,-5.0610,0.00,0.00,0.00,6,S01
8880,-7.37654,0.46926,-7.26161,-16.3415,5.1220,-6.2805,0.00,0.00,0.00,6,S01
8900,-7.05811,-0.36152,-6.97910,-30.1829,9.3902,-5.0000,0.00,0.00,0.00,6,S01
8920,-7.01022,-1.15879,-6.58645,-37.6220,15.6707,-3.5366,0.00,0.00,0.00,6,S01
8940,-7.08444,-0.93134,-6.42604,-36.1585,15.6707,-3.4146,0.00,0.00,0.00,6,S01
8960,-7.15148,-0.03352,-6.51702,-32.3780,10.6098,-4.7561,0.00,0.00,0.00,6,S01
8980,-7.05571,0.33040,-6.56969,-30.9146,7.8049,-6.2805,0.00,0.00,0.00,6,S01
9000,-6.78038,-0.00718,-6.77080,-31.7073,9.1463,-4.8780,0.00,0.00,0.00,6,S01
9020,-6.65109,-0.32561,-6.80432,-30.0000,14.0854,-1.7073,0.00,0.00,0.00,6,S01
9040,-6.68940,0.04310,-6.78277,-27.8659,16.5854,2.5610,0.00,0.00,0.00,6,S01
9060,-6.84263,0.85952,-6.93600,-25.0610,14.3293,5.3049,0.00,0.00,0.00,6,S01
9080,-7.23767,1.09654,-6.91685,-22.8049,12.4390,5.6707,0.00,0.00,0.00,6,S01
9100,-7.29274,0.84515,-6.88572,-22.3780,10.7317,6.8902,0.00,0.00,0.00,6,S01
9120,-7.16345,0.61292,-6.84981,-22.1341,6.6463,11.1585,0.00,0.00,0.00,6,S01
9140,-6.91206,0.68235,-6.76362,-21.8293,1.8293,17.8049,0.00,0.00,0.00,6,S01
9160,-6.70855,1.06542,-6.52181,-19.0854,-1.0366,20.9146,0.00,0.00,0.00,6,S01
9180,-6.72052,1.21147,-6.87136,-12.9268,-1.3415,20.1829,0.00,0.00,0.00,6,S01
9200,-6.78277,1.18752,-7.04374,-7.8659,0.5488,18.5366,0.00,0.00,0.00,6,S01
9220,-6.72531,1.06781,-6.86896,-5.9146,0.9146,17.1341,0.00,0.00,0.00,6,S01
9240,-6.40688,1.47243,-6.72292,-5.7317,-0.3049,16.2195,0.00,0.00,0.00,6,S01
9260,-6.11479,1.57778,-6.79714,-6.8902,0.3049,14.2073,0.00,0.00,0.00,6,S01
9280,-6.55532,1.78607,-6.86178,-5.0000,3.7805,10.1829,0.00,0.00,0.00,6,S01
9300,-6.53378,1.56581,-7.22810,-4.7561,8.3537,11.5244,0.00,0.00,0.00,6,S01
9320,-6.56490,1.55623,-7.31907,-7.8049,14.3902,11.0366,0.00,0.00,0.00,6,S01
9340,-6.40210,1.52032,-7.05332,-13.7195,17.6829,8.4146,0.00,0.00,0.00,6,S01
9360,-6.31590,1.42455,-7.16106,-18.4146,16.4634,5.1829,0.00,0.00,0.00,6,S01
9380,-6.62715,1.57060,-7.22570,-17.4390,18.1098,1.8902,0.00,0.00,0.00,6,S01
9400,-6.78517,1.64721,-7.24485,-18.1707,21.2195,-0.4268,0.00,0.00,0.00,6,S01
9420,-6.84023,1.31681,-7.31189,-20.4878,20.4268,-0.8537,0.00,0.00,0.00,6,S01
9440,-6.80911,1.36469,-7.14669,-21.7683,18.7195,-2.0732,0.00,0.00,0.00,6,S01
9460,-6.62476,1.77171,-6.99107,-22.3171,18.4756,-3.9024,0.00,0.00,0.00,6,S01
9480,-6.47871,1.88184,-7.14909,-23.2317,17.6220,-5.0000,0.00,0.00,0.00,6,S01
9500,-6.27520,1.73340,-6.97910,-26.8293,16.9512,-6.4024,0.00,0.00,0.00,6,S01
9520,-5.88495,1.20428,-7.38372,-28.5976,17.0122,-7.0732,0.00,0.00,0.00,6,S01
9540,-6.14592,1.60890,-7.97987,-22.6220,19.5732,-6.8293,0.00,0.00,0.00,6,S01
9560,-6.58884,2.79882,-7.15866,-17.9878,23.3537,-11.2805,0.00,0.00,0.00,6,S01
9580,-6.38055,2.48279,-8.01579,-19.6951,17.4390,-11.4634,0.00,0.00,0.00,6,S01
9600,-6.39252,1.72383,-8.16423,-21.4024,12.6829,-8.2927,0.00,0.00,0.00,6,S01
9620,-6.14831,1.61848,-7.80989,-20.7317,14.1463,-8.0488,0.00,0.00,0.00,6,S01
9640,-5.95917,2.07338,-7.72848,-16.4024,17.8049,-9.5122,0.00,0.00,0.00,6,S01
9660,-5.78200,2.39420,-7.79313,-16.3415,17.5610,-9.8171,0.00,0.00,0.00,6,S01
9680,-5.71496,2.64559,-7.99424,-20.4268,17.0122,-10.7317,0.00,0.00,0.00,6,S01
9700,-5.69581,2.48997,-8.20253,-29.3293,19.0244,-11.4024,0.00,0.00,0.00,6,S01
9720,-5.82509,2.20985,-8.37252,-36.5244,26.5244,-12.9878,0.00,0.00,0.00,6,S01
9740,-6.09803,2.36787,-8.44914,-40.3659,33.9024,-14.5122,0.00,0.00,0.00,6,S01
9760,-6.02621,2.53546,-8.31746,-45.3659,30.3049,-13.9634,0.00,0.00,0.00,6,S01
9780,-5.67426,2.86586,-8.46350,-52.9268,20.0610,-14.3902,0.00,0.00,0.00,6,S01
9800,-5.45160,2.91853,-8.61434,-60.6707,17.1951,-14.9390,0.00,0.00,0.00,6,S01
9820,-5.44202,3.01909,-8.43956,-68.9024,21.9512,-15.3049,0.00,0.00,0.00,6,S01
9840,-5.68623,3.25372,-8.25760,-77.5000,25.9756,-15.6098,0.00,0.00,0.00,6,S01
9860,-5.86819,3.26569,-8.16662,-85.4268,23.7805,-15.1220,0.00,0.00,0.00,6,S01
9880,-5.69341,3.30639,-8.09001,-91.4024,15.2439,-15.4268,0.00,0.00,0.00,6,S01
9900,-5.43723,3.40695,-7.68060,-95.6098,5.1220,-16.4634,0.00,0.00,0.00,6,S01
9920,-5.40850,3.52426,-7.23528,-97.6220,-0.8537,-17.5610,0.00,0.00,0.00,6,S01
9940,-5.62637,3.60567,-6.95755,-95.1829,-3.4756,-17.6829,0.00,0.00,0.00,6,S01
9960,-5.53061,3.51469,-6.61997,-92.3171,-10.0000,-17.0732,0.00,0.00,0.00,6,S01
9980,-5.08528,3.33991,-6.16507,-89.8171,-18.2927,-17.2561,0.00,0.00,0.00,6,S01
10000,-5.02782,3.69665,-5.84903,-81.7073,-19.9390,-19.2073,0.00,0.00,0.00,6,S01
10020,-5.39653,4.21380,-5.67665,-74.6341,-14.5122,-22.0122,0.00,0.00,0.00,6,S01
10040,-5.41329,4.35745,-5.57610,-69.2073,-11.6463,-21.9512,0.00,0.00,0.00,6,S01
10060,-5.39174,4.31435,-5.70538,-65.1220,-12.4390,-21.1585,0.00,0.00,0.00,6,S01
10080,-5.56891,4.59687,-5.68623,-60.1829,-12.6220,-21.0976,0.00,0.00,0.00,6,S01
10100,-5.92804,4.86741,-5.39414,-54.0244,-10.4268,-20.2439,0.00,0.00,0.00,6,S01
10120,-6.13873,4.63996,-5.24809,-46.8902,-9.8171,-16.6463,0.00,0.00,0.00,6,S01
10140,-5.83706,4.34069,-4.90572,-38.0488,-10.3049,-12.1341,0.00,0.00,0.00,6,S01
10160,-5.51624,4.48673,-5.15472,-28.9024,-10.3049,-9.2073,0.00,0.00,0.00,6,S01
10180,-5.86101,4.98473,-5.58088,-23.7805,-6.4634,-7.8659,0.00,0.00,0.00,6,S01
10200,-6.56490,5.23612,-5.30076,-23.4756,-1.2195,-5.9756,0.00,0.00,0.00,6,S01
10220,-6.50744,4.83629,-4.56095,-24.4512,-2.6829,-3.4756,0.00,0.00,0.00,6,S01
10240,-5.99029,4.72376,-4.78362,-23.1707,-10.1220,-2.8049,0.00,0.00,0.00,6,S01
10260,-5.80833,5.13796,-5.17148,-20.3049,-12.4390,-4.2073,0.00,0.00,0.00,6,S01
10280,-6.09564,5.48272,-5.02064,-18.7195,-9.5732,-5.3049,0.00,0.00,0.00,6,S01
10300,-6.23929,5.22175,-4.97276,-19.9390,-9.3293,-3.9634,0.00,0.00,0.00,6,S01
10320,-6.21056,4.81474,-5.11401,-20.4268,-9.5732,-1.8293,0.00,0.00,0.00,6,S01
10340,-6.23690,4.97515,-5.03979,-18.8415,-6.2195,0.1829,0.00,0.00,0.00,6,S01
10360,-6.34703,5.94959,-5.14753,-17.0732,-1.8902,1.7073,0.00,0.00,0.00,6,S01
10380,-6.24168,6.19380,-5.15232,-18.0488,1.4024,2.3780,0.00,0.00,0.00,6,S01
10400,-6.17704,5.45878,-5.27203,-20.7317,1.7073,1.7683,0.00,0.00,0.00,6,S01
10420,-6.01902,4.77164,-4.93684,-20.9146,2.7439,0.3049,0.00,0.00,0.00,6,S01
10440,-6.22253,5.29119,-4.71418,-15.7927,6.4634,-3.0488,0.00,0.00,0.00,6,S01
10460,-6.64391,6.16986,-4.80995,-12.5610,9.5122,-5.4878,0.00,0.00,0.00,6,S01
10480,-6.74925,5.94241,-4.51068,-15.0000,6.0366,-5.4268,0.00,0.00,0.00,6,S01
10500,-6.20577,4.87699,-4.27365,-17.6829,-3.3537,-2.6220,0.00,0.00,0.00,6,S01
10520,-5.82509,4.82671,-4.32393,-15.3049,-8.7195,-1.0976,0.00,0.00,0.00,6,S01
10540,-5.83228,5.79636,-4.55377,-10.6707,-5.2439,-1.8293,0.00,0.00,0.00,6,S01
10560,-6.35661,6.20098,-4.84108,-11.0366,-0.6098,-2.5000,0.00,0.00,0.00,6,S01
10580,-6.77559,5.39174,-4.55856,-13.5366,-0.1829,-1.3415,0.00,0.00,0.00,6,S01
10600,-6.49068,4.64715,-4.22816,-13.2317,-3.9634,-0.3659,0.00,0.00,0.00,6,S01
10620,-6.05494,4.91530,-4.38139,-6.4634,-5.2439,-1.4024,0.00,0.00,0.00,6,S01
10640,-6.20098,5.71975,-4.80037,0.9146,-2.3171,-3.2317,0.00,0.00,0.00,6,S01
10660,-6.84263,5.93523,-4.77883,1.6463,1.2805,-3.1098,0.00,0.00,0.00,6,S01
10680,-6.97192,5.41329,-4.25689,-2.9268,0.3659,0.3659,0.00,0.00,0.00,6,S01
10700,-6.48829,4.75010,-4.37660,-3.9634,-4.0854,5.3659,0.00,0.00,0.00,6,S01
10720,-6.42125,4.88417,-4.81474,-0.3659,-3.6585,8.2927,0.00,0.00,0.00,6,S01
10740,-6.64870,5.48272,-4.68785,3.4146,4.2073,9.3902,0.00,0.00,0.00,6,S01
10760,-6.94079,5.56173,-4.34787,4.2073,8.1098,10.4878,0.00,0.00,0.00,6,S01
10780,-6.72292,5.03261,-4.30238,3.8415,1.5244,12.2561,0.00,0.00,0.00,6,S01
10800,-6.26084,4.78122,-4.29759,5.2439,-5.7927,11.5244,0.00,0.00,0.00,6,S01
10820,-6.09564,5.50666,-4.53701,9.5732,-5.9146,8.1707,0.00,0.00,0.00,6,S01
10840,-6.18662,5.99029,-4.63517,10.3659,-1.1585,6.0366,0.00,0.00,0.00,6,S01
10860,-6.28239,5.55934,-4.66391,6.6463,1.6463,7.9878,0.00,0.00,0.00,6,S01
10880,-6.06691,4.84586,-4.52983,5.8537,3.1707,12.2561,0.00,0.00,0.00,6,S01
10900,-6.07648,5.14275,-4.50828,9.1463,4.9390,15.3049,0.00,0.00,0.00,6,S01
10920,-6.44040,6.16268,-4.76925,11.9512,9.1463,19.9390,0.00,0.00,0.00,6,S01
10940,-6.45237,6.12437,-4.83868,12.0732,15.4878,26.8293,0.00,0.00,0.00,6,S01
10960,-6.32788,5.63834,-4.67348,10.4268,17.2561,30.0000,0.00,0.00,0.00,6,S01
10980,-6.09564,5.32710,-4.65912,11.2195,13.7805,28.7195,0.00,0.00,0.00,6,S01
11000,-5.87058,5.66947,-4.80037,14.8171,11.2195,24.8171,0.00,0.00,0.00,6,S01
11020,-5.92804,6.15549,-5.05416,17.9268,12.0732,20.0610,0.00,0.00,0.00,6,S01
11040,-6.14592,6.22732,-5.36780,22.9268,15.0000,15.3049,0.00,0.00,0.00,6,S01
11060,-6.17465,6.12676,-4.96557,27.8049,15.7927,8.9634,0.00,0.00,0.00,6,S01
11080,-5.94959,6.37336,-5.37259,32.1951,9.0854,3.1707,0.00,0.00,0.00,6,S01
11100,-5.89692,6.89051,-6.06212,33.9634,5.4268,-1.5854,0.00,0.00,0.00,6,S01
11120,-5.85382,6.89291,-6.25126,31.0366,8.8415,-4.5732,0.00,0.00,0.00,6,S01
11140,-5.84185,6.27041,-5.94480,24.2683,12.6829,-5.3659,0.00,0.00,0.00,6,S01
11160,-5.63834,5.63356,-5.94480,20.9756,15.9146,-4.8171,0.00,0.00,0.00,6,S01
11180,-5.69341,5.49948,-5.88974,22.4390,21.8293,-5.4268,0.00,0.00,0.00,6,S01
11200,-5.99269,5.57849,-5.65750,24.0244,22.5000,-7.0122,0.00,0.00,0.00,6,S01
11220,-5.94720,5.37738,-5.55934,21.8293,14.1463,-8.7195,0.00,0.00,0.00,6,S01
11240,-5.21936,5.45399,-6.09324,18.0488,1.4634,-10.7317,0.00,0.00,0.00,6,S01
11260,-5.45639,5.65989,-6.25126,14.2073,3.5976,-9.3902,0.00,0.00,0.00,6,S01
11280,-5.66708,5.39174,-6.02381,8.4146,4.8780,-6.5244,0.00,0.00,0.00,6,S01
11300,-5.44441,4.82671,-5.98790,5.3049,2.8049,-3.2927,0.00,0.00,0.00,6,S01
11320,-5.04698,4.68785,-6.24168,7.0732,2.3171,-0.3659,0.00,0.00,0.00,6,S01
11340,-4.98952,4.98473,-6.41646,9.4512,5.4268,1.7683,0.00,0.00,0.00,6,S01
11360,-5.27682,5.05416,-6.31112,10.8537,9.3293,2.9268,0.00,0.00,0.00,6,S01
11380,-5.54737,4.77643,-6.49547,11.2195,11.0366,3.2317,0.00,0.00,0.00,6,S01
11400,-5.52582,4.51546,-6.42604,12.0732,9.2683,1.5854,0.00,0.00,0.00,6,S01
11420,-5.42047,4.93684,-6.64870,13.6585,4.8780,-1.2805,0.00,0.00,0.00,6,S01
11440,-5.23133,5.60483,-6.86657,12.6220,2.0732,-2.7439,0.00,0.00,0.00,6,S01
11460,-5.11641,5.60961,-6.78996,6.4634,0.4268,-2.9268,0.00,0.00,0.00,6,S01
11480,-5.20499,4.98952,-6.58645,0.2439,0.5488,-1.8902,0.00,0.00,0.00,6,S01
11500,-5.08289,4.62081,-6.35661,-2.9878,1.3415,0.1829,0.00,0.00,0.00,6,S01
11520,-5.03022,4.73094,-6.44040,-2.8049,2.3171,1.3415,0.00,0.00,0.00,6,S01
11540,-5.19542,4.85544,-6.48829,-3.2317,3.9024,1.0976,0.00,0.00,0.00,6,S01
11560,-5.31034,4.94403,-6.31590,-4.0244,4.3293,0.0000,0.00,0.00,0.00,6,S01
11580,-5.27682,4.85065,-6.18183,-3.8415,2.2561,-1.2805,0.00,0.00,0.00,6,S01
11600,-5.33428,4.78840,-6.31590,-1.5854,1.2195,-3.5976,0.00,0.00,0.00,6,S01
11620,-5.44681,4.94163,-6.50505,0.6707,1.2805,-5.1220,0.00,0.00,0.00,6,S01
11640,-5.47315,5.37738,-6.60560,0.9146,0.0610,-4.7561,0.00,0.00,0.00,6,S01
11660,-5.31273,5.59046,-6.70137,-1.2195,-2.6220,-3.2927,0.00,0.00,0.00,6,S01
11680,-5.08768,5.32470,-6.80432,-5.9146,-4.4512,-1.7683,0.00,0.00,0.00,6,S01
11700,-5.04698,4.81474,-6.77080,-9.5732,-2.0732,-1.1585,0.00,0.00,0.00,6,S01
11720,-5.21936,4.85784,-6.38055,-8.8415,3.9024,-1.6463,0.00,0.00,0.00,6,S01
11740,-5.42766,5.15472,-6.25844,-7.3780,6.4634,-1.3415,0.00,0.00,0.00,6,S01
11760,-5.45160,5.26006,-6.10521,-8.3537,4.6951,-0.3659,0.00,0.00,0.00,6,S01
11780,-5.16190,5.10204,-5.90410,-10.1220,1.1585,0.4268,0.00,0.00,0.00,6,S01
11800,-4.98952,5.01825,-6.02142,-9.3293,-1.5854,-0.2439,0.00,0.00,0.00,6,S01
11820,-5.12599,5.21697,-6.36618,-8.3537,-1.2805,-0.7317,0.00,0.00,0.00,6,S01
11840,-5.30076,5.49469,-6.27760,-9.3902,1.8293,0.0610,0.00,0.00,0.00,6,S01
11860,-5.35344,5.45639,-6.33745,-11.0366,2.5000,0.7317,0.00,0.00,0.00,6,S01
11880,-5.39414,5.18105,-6.45477,-11.6463,2.0122,0.7317,0.00,0.00,0.00,6,S01
11900,-5.35583,5.13796,-6.20817,-10.1220,3.5366,-0.2439,0.00,0.00,0.00,6,S01
11920,-5.31034,5.33907,-6.05254,-7.0732,3.2317,-1.4634,0.00,0.00,0.00,6,S01
11940,-5.28879,5.53539,-6.20098,-3.9024,1.5244,-2.7439,0.00,0.00,0.00,6,S01
11960,-5.31752,5.71496,-6.16986,-3.2927,0.1829,-3.9634,0.00,0.00,0.00,6,S01
11980,-5.17866,5.47554,-5.99508,-5.0610,-1.8293,-3.7805,0.00,0.00,0.00,6,S01
12000,-5.12120,5.20260,-6.05254,-5.3049,-4.6341,-3.9634,0.00,0.00,0.00,6,S01
12020,-5.28879,5.46357,-6.28478,-3.4146,-5.0000,-4.6951,0.00,0.00,0.00,6,S01
12040,-5.38935,5.69102,-6.15789,-2.4390,-2.3780,-4.0854,0.00,0.00,0.00,6,S01
12060,-5.32949,5.43963,-5.96635,-3.3537,-2.6829,-1.7073,0.00,0.00,0.00,6,S01
12080,-5.14035,4.95839,-5.97593,-4.0244,-5.3659,1.0366,0.00,0.00,0.00,6,S01
12100,-5.00867,4.96079,-5.65510,-2.1341,-4.0854,2.0122,0.00,0.00,0.00,6,S01
12120,-5.18105,5.51624,-5.83467,0.2439,-0.8537,2.0732,0.00,0.00,0.00,6,S01
12140,-5.48512,5.82270,-6.15310,-0.6707,0.5488,2.2561,0.00,0.00,0.00,6,S01
12160,-5.49469,5.43963,-6.04057,-4.0854,-1.0366,2.3780,0.00,0.00,0.00,6,S01
12180,-5.36301,5.22894,-6.12916,-4.4512,-3.1707,1.5854,0.00,0.00,0.00,6,S01
12200,-5.39892,5.30795,-6.23690,-2.7439,-1.7683,0.4878,0.00,0.00,0.00,6,S01
12220,-5.54018,5.52821,-6.18662,-0.9146,0.3049,-0.7317,0.00,0.00,0.00,6,S01
12240,-5.46596,5.54018,-6.19380,0.2439,-0.4878,-1.5244,0.00,0.00,0.00,6,S01
12260,-5.24809,5.33668,-6.23929,-0.3049,-2.4390,-2.0732,0.00,0.00,0.00,6,S01
12280,-5.07092,5.13077,-6.19859,-0.4878,-1.9512,-2.5610,0.00,0.00,0.00,6,S01
12300,-5.08768,5.14753,-6.18183,-0.1829,0.3049,-3.6585,0.00,0.00,0.00,6,S01
12320,-5.28879,5.36541,-6.18183,-0.4878,2.8659,-5.1220,0.00,0.00,0.00,6,S01
12340,-5.42287,5.32949,-5.99269,-2.4390,3.9634,-5.9146,0.00,0.00,0.00,6,S01
12360,-5.30795,4.89135,-5.82509,-4.2683,2.1341,-5.4268,0.00,0.00,0.00,6,S01
12380,-5.12359,4.71179,-5.88974,-3.5366,0.8537,-5.3659,0.00,0.00,0.00,6,S01
12400,-5.33189,5.26724,-6.12197,-2.0732,2.3780,-6.7073,0.00,0.00,0.00,6,S01
12420,-5.60004,5.72214,-6.25126,-3.2317,5.0000,-7.3780,0.00,0.00,0.00,6,S01
12440,-5.67665,5.48512,-6.16268,-6.9512,3.5976,-7.1951,0.00,0.00,0.00,6,S01
12460,-5.57610,5.04219,-6.06451,-8.4146,0.4268,-6.5244,0.00,0.00,0.00,6,S01
12480,-5.60004,5.90171,-6.23929,-4.2073,1.1585,-6.4024,0.00,0.00,0.00,6,S01
12500,-5.71735,6.05254,-6.25605,-5.8537,1.0366,-6.6463,0.00,0.00,0.00,6,S01
12520,-5.63595,5.69102,-6.08606,-9.0854,-0.5488,-5.9146,0.00,0.00,0.00,6,S01
12540,-5.47793,5.37977,-6.01663,-10.4268,-1.0976,-4.5732,0.00,0.00,0.00,6,S01
12560,-5.45399,5.41329,-5.83228,-9.5732,-0.3049,-4.8171,0.00,0.00,0.00,6,S01
12580,-5.50666,5.74608,-5.81312,-8.2927,-0.2439,-6.3415,0.00,0.00,0.00,6,S01
12600,-5.43005,5.85861,-5.73411,-8.4146,-1.0976,-7.6829,0.00,0.00,0.00,6,S01
12620,-5.37019,5.55215,-5.66708,-9.8171,-2.9878,-8.1707,0.00,0.00,0.00,6,S01
12640,-5.38695,5.26246,-5.69581,-10.1220,-4.2073,-8.1707,0.00,0.00,0.00,6,S01
12660,-5.42766,5.37019,-5.61919,-8.3537,-3.6585,-8.6585,0.00,0.00,0.00,6,S01
12680,-5.48033,5.82270,-5.82509,-7.1951,-3.1098,-8.5976,0.00,0.00,0.00,6,S01
12700,-5.48033,5.76045,-5.81552,-8.7195,-3.0488,-7.1341,0.00,0.00,0.00,6,S01
12720,-5.54737,5.44202,-5.62398,-9.8171,-2.7439,-6.4024,0.00,0.00,0.00,6,S01
12740,-5.58088,5.40371,-5.61680,-8.5366,-1.7683,-6.2195,0.00,0.00,0.00,6,S01
12760,-5.65750,5.66229,-5.71017,-7.0122,-1.0366,-6.2195,0.00,0.00,0.00,6,S01
12780,-5.77003,5.89692,-5.67426,-6.4634,-0.6098,-6.9512,0.00,0.00,0.00,6,S01
12800,-5.74848,5.68862,-5.51145,-6.5854,-1.4634,-7.6220,0.00,0.00,0.00,6,S01
12820,-5.63834,5.30316,-5.39414,-5.4268,-2.8659,-7.8659,0.00,0.00,0.00,6,S01
12840,-5.65750,5.41808,-5.43244,-1.8293,-3.0488,-8.3537,0.00,0.00,0.00,6,S01
12860,-5.74848,5.82509,-5.58328,0.0610,-2.4390,-8.1707,0.00,0.00,0.00,6,S01
12880,-5.80594,5.85382,-5.58807,-1.8902,-1.8293,-7.1341,0.00,0.00,0.00,6,S01
12900,-5.81073,5.42526,-5.59046,-4.6341,-2.2561,-5.9756,0.00,0.00,0.00,6,S01
12920,-5.91128,5.25527,-5.66708,-4.6341,-2.0732,-5.6098,0.00,0.00,0.00,6,S01
12940,-5.89692,5.51863,-5.74369,-3.1707,-1.8902,-5.5488,0.00,0.00,0.00,6,S01
12960,-5.88974,5.77960,-5.66708,-3.3537,-2.9878,-5.6707,0.00,0.00,0.00,6,S01
12980,-5.82270,5.54018,-5.55215,-4.6341,-3.2927,-5.6707,0.00,0.00,0.00,6,S01
13000,-5.73411,5.08768,-5.49469,-5.4878,-3.2317,-5.3659,0.00,0.00,0.00,6,S01
13020,-5.78679,4.96797,-5.44920,-3.8415,-2.2561,-5.1829,0.00,0.00,0.00,6,S01
13040,-5.85622,5.38695,-5.64792,-2.0732,-0.5488,-5.3049,0.00,0.00,0.00,6,S01
13060,-5.94241,5.57849,-5.67426,-3.7195,0.1220,-6.2805,0.00,0.00,0.00,6,S01
13080,-6.00226,5.17148,-5.54018,-6.5244,-0.9146,-7.3171,0.00,0.00,0.00,6,S01
13100,-6.01184,4.87938,-5.43723,-7.0732,-1.7683,-8.3537,0.00,0.00,0.00,6,S01
13120,-5.99987,5.21218,-5.52582,-5.6098,-1.8293,-9.2683,0.00,0.00,0.00,6,S01
13140,-6.06212,5.66229,-5.53539,-5.5488,-1.2195,-9.0244,0.00,0.00,0.00,6,S01
13160,-5.98550,5.48990,-5.41090,-7.6220,-1.8902,-7.1341,0.00,0.00,0.00,6,S01
13180,-5.81312,4.99191,-5.40611,-8.9634,-2.0732,-4.5122,0.00,0.00,0.00,6,S01
13200,-5.92565,4.85784,-5.27443,-7.1951,-0.4268,-2.2561,0.00,0.00,0.00,6,S01
13220,-6.00705,5.16429,-5.19781,-3.9024,-0.1220,-0.7927,0.00,0.00,0.00,6,S01
13240,-6.03578,5.35104,-5.26964,-1.6463,-0.7927,0.4268,0.00,0.00,0.00,6,S01
13260,-6.06212,5.08528,-5.32231,-1.8902,-1.7073,1.3415,0.00,0.00,0.00,6,S01
13280,-6.10043,5.00149,-5.31273,-1.5244,-2.5610,0.9756,0.00,0.00,0.00,6,S01
13300,-6.06930,5.47315,-5.45878,0.3049,-3.4756,-0.4878,0.00,0.00,0.00,6,S01
13320,-5.97832,5.77481,-5.54497,0.1829,-4.7561,-1.6463,0.00,0.00,0.00,6,S01
13340,-5.86579,5.48272,-5.45639,-1.8293,-4.8780,-2.0122,0.00,0.00,0.00,6,S01
13360,-5.78439,5.18345,-5.47315,-2.5000,-3.4146,-1.7073,0.00,0.00,0.00,6,S01
13380,-5.90410,5.38456,-5.39653,-1.1585,-0.4878,-1.5854,0.00,0.00,0.00,6,S01
13400,-6.00945,5.66229,-5.40611,-0.0610,1.2805,-1.0366,0.00,0.00,0.00,6,S01
13420,-5.99748,5.57370,-5.31034,-0.7927,1.0976,-0.1220,0.00,0.00,0.00,6,S01
13440,-5.97353,5.37977,-5.12120,-1.0366,0.6707,0.5488,0.00,0.00,0.00,6,S01
13460,-5.90889,5.33907,-5.21697,0.7317,0.8537,1.2805,0.00,0.00,0.00,6,S01
13480,-5.94241,5.48751,-5.35344,1.7073,1.3415,1.8902,0.00,0.00,0.00,6,S01
13500,-5.99029,5.59046,-5.20499,1.8293,1.3415,1.7683,0.00,0.00,0.00,6,S01
13520,-5.91847,5.44441,-5.14514,3.2317,0.9756,1.2195,0.00,0.00,0.00,6,S01
13540,-5.93762,5.28879,-5.30555,4.5732,1.6463,1.0366,0.00,0.00,0.00,6,S01
13560,-6.02142,5.46596,-5.72932,6.5244,2.3780,1.3415,0.00,0.00,0.00,6,S01
13580,-6.06691,5.62637,-5.59525,6.3415,1.4024,1.7073,0.00,0.00,0.00,6,S01
13600,-5.87777,5.56412,-5.64792,3.7805,-1.8902,1.8293,0.00,0.00,0.00,6,S01
13620,-5.76524,5.37498,-5.50906,1.6463,-2.9878,1.6463,0.00,0.00,0.00,6,S01
13640,-5.72214,5.28161,-5.45160,1.7683,-1.8293,1.4634,0.00,0.00,0.00,6,S01
13660,-5.68862,5.30795,-5.55455,1.8902,-1.8902,1.4634,0.00,0.00,0.00,6,S01
13680,-5.69341,5.41090,-5.53779,0.6098,-2.9878,1.3415,0.00,0.00,0.00,6,S01
13700,-5.72932,5.38695,-5.35344,-0.7317,-3.0488,1.2195,0.00,0.00,0.00,6,S01
13720,-5.88255,5.37019,-5.37019,-0.4268,-1.8902,0.9146,0.00,0.00,0.00,6,S01
13740,-5.86340,5.43963,-5.58807,-0.7927,-4.4512,1.3415,0.00,0.00,0.00,6,S01
13760,-5.76284,5.59046,-5.43963,-2.4390,-6.6463,1.0366,0.00,0.00,0.00,6,S01
13780,-5.88255,5.59285,-5.27921,-1.9512,-4.8171,0.7927,0.00,0.00,0.00,6,S01
13800,-6.09085,5.52582,-5.45160,-0.0610,-2.6829,1.2805,0.00,0.00,0.00,6,S01
13820,-6.14113,5.58328,-5.47793,0.0000,-3.7805,1.4024,0.00,0.00,0.00,6,S01
13840,-5.92086,5.70059,-5.44441,-0.9146,-6.5854,0.7317,0.00,0.00,0.00,6,S01
13860,-5.94480,5.66229,-5.35583,-2.0122,-7.3171,-0.0610,0.00,0.00,0.00,6,S01
13880,-5.89931,5.43244,-5.18584,-2.4390,-6.1585,-0.3049,0.00,0.00,0.00,6,S01
13900,-5.86579,5.42526,-5.21457,-1.6463,-5.7317,-0.6707,0.00,0.00,0.00,6,S01
13920,-5.83228,5.64792,-5.29837,-1.1585,-6.1585,-0.8537,0.00,0.00,0.00,6,S01
13940,-5.79397,5.61919,-5.28640,-2.4390,-6.8902,-0.8537,0.00,0.00,0.00,6,S01
13960,-5.67665,5.50906,-5.31752,-4.0854,-7.2561,-1.1585,0.00,0.00,0.00,6,S01
13980,-5.72214,5.48272,-5.21457,-4.3293,-6.2805,-2.0732,0.00,0.00,0.00,6,S01
14000,-5.95438,5.63116,-5.07571,-3.7805,-5.1220,-2.9268,0.00,0.00,0.00,6,S01
14020,-6.05972,5.71257,-5.05895,-3.7195,-5.7317,-3.5366,0.00,0.00,0.00,6,S01
14040,-5.96156,5.56891,-5.05895,-4.2683,-6.9512,-3.7805,0.00,0.00,0.00,6,S01
14060,-5.79876,5.42287,-5.12120,-3.9634,-7.1951,-3.5366,0.00,0.00,0.00,6,S01
14080,-5.93283,5.55215,-5.12359,-2.0122,-5.7927,-3.7805,0.00,0.00,0.00,6,S01
14100,-6.13394,5.81552,-5.08050,-1.0366,-5.1829,-4.4512,0.00,0.00,0.00,6,S01
14120,-6.08367,5.80115,-5.01825,-1.9512,-6.1585,-5.0000,0.00,0.00,0.00,6,S01
14140,-5.91847,5.49469,-4.97515,-2.5000,-7.6220,-5.0610,0.00,0.00,0.00,6,S01
14160,-5.89931,5.32949,-4.94403,-0.6707,-7.1341,-5.4268,0.00,0.00,0.00,6,S01
14180,-6.05733,5.54976,-4.94403,1.2805,-5.9146,-5.7317,0.00,0.00,0.00,6,S01
14200,-6.21295,5.80115,-4.91769,1.4634,-5.6098,-5.5488,0.00,0.00,0.00,6,S01
14220,-6.26802,5.60243,-4.88657,-0.2439,-6.3415,-4.7561,0.00,0.00,0.00,6,S01
14240,-6.25605,5.24091,-4.85784,-0.9756,-6.4634,-3.5976,0.00,0.00,0.00,6,S01
14260,-6.27520,5.23612,-4.77643,0.7927,-5.7927,-2.6829,0.00,0.00,0.00,6,S01
14280,-6.34224,5.44920,-4.90572,2.9268,-5.7317,-1.9512,0.00,0.00,0.00,6,S01
14300,-6.51462,5.45160,-4.97515,3.1098,-5.6707,-2.1341,0.00,0.00,0.00,6,S01
14320,-6.48589,5.23373,-4.92008,2.0732,-5.9756,-2.6220,0.00,0.00,0.00,6,S01
14340,-6.37336,5.16669,-4.95600,2.3780,-6.5244,-2.9268,0.00,0.00,0.00,6,S01
14360,-6.40210,5.43484,-5.12838,3.3537,-6.2195,-3.5976,0.00,0.00,0.00,6,S01
14380,-6.54575,5.57131,-5.09007,1.8902,-5.9756,-4.3902,0.00,0.00,0.00,6,S01
14400,-6.56730,5.34386,-5.03022,-0.4268,-5.7317,-4.5732,0.00,0.00,0.00,6,S01
14420,-6.49547,5.06852,-4.98473,-1.2805,-4.5122,-4.2683,0.00,0.00,0.00,6,S01
14440,-6.49307,5.09726,-4.93445,-0.4878,-2.6829,-3.7805,0.00,0.00,0.00,6,S01
14460,-6.60081,5.35822,-4.90811,0.3049,-1.3415,-3.3537,0.00,0.00,0.00,6,S01
14480,-6.59124,5.42766,-4.87459,-0.0610,-0.3049,-3.1098,0.00,0.00,0.00,6,S01
14500,-6.67982,5.25527,-4.81953,-0.8537,1.0976,-3.1707,0.00,0.00,0.00,6,S01
14520,-6.67743,5.17387,-4.78601,-0.9756,0.7317,-3.6585,0.00,0.00,0.00,6,S01
14540,-6.66306,5.40611,-4.89614,-0.3049,-0.0610,-4.2073,0.00,0.00,0.00,6,S01
14560,-6.64391,5.73890,-5.06613,-0.1829,1.3415,-4.6341,0.00,0.00,0.00,6,S01
14580,-6.58405,5.62637,-5.03740,-0.7927,3.9634,-4.1463,0.00,0.00,0.00,6,S01
14600,-6.55772,5.26964,-4.94881,0.0000,6.0976,-3.2927,0.00,0.00,0.00,6,S01
14620,-6.45956,5.15472,-4.93684,1.7073,7.5000,-2.6829,0.00,0.00,0.00,6,S01
14640,-6.45237,5.23851,-4.91530,3.4756,8.9024,-2.4390,0.00,0.00,0.00,6,S01
14660,-6.56969,5.18824,-4.86262,5.0000,10.4268,-2.2561,0.00,0.00,0.00,6,S01
14680,-6.55293,5.02304,-4.86502,4.4512,11.0366,-1.5854,0.00,0.00,0.00,6,S01
14700,-6.47632,4.88896,-4.89375,2.6829,10.4268,-0.4878,0.00,0.00,0.00,6,S01
14720,-6.55054,5.10923,-4.96557,1.2805,9.5732,-0.4268,0.00,0.00,0.00,6,S01
14740,-6.67025,5.36780,-5.07092,-0.1829,9.2073,-0.8537,0.00,0.00,0.00,6,S01
14760,-6.56490,5.21697,-5.08289,-2.2561,8.5976,-0.9756,0.00,0.00,0.00,6,S01
14780,-6.41167,4.94642,-5.11880,-2.5610,7.6220,-1.0976,0.00,0.00,0.00,6,S01
14800,-6.30872,4.98473,-5.17626,-0.3049,7.5000,-1.0366,0.00,0.00,0.00,6,S01
14820,-6.28957,5.30555,-5.26006,1.4024,7.1951,-0.1829,0.00,0.00,0.00,6,S01
14840,-6.27281,5.28879,-5.20739,0.2439,6.7683,0.7317,0.00,0.00,0.00,6,S01
14860,-6.13873,4.96557,-5.15950,-1.0976,6.7683,1.7683,0.00,0.00,0.00,6,S01
14880,-6.08606,4.96318,-5.15711,0.0610,7.8049,2.5610,0.00,0.00,0.00,6,S01
14900,-6.17225,5.35104,-5.21936,1.5244,9.2073,2.8049,0.00,0.00,0.00,6,S01
14920,-6.18422,5.49469,-5.20021,0.5488,9.6341,2.5610,0.00,0.00,0.00,6,S01
14940,-6.08606,5.14275,-5.15950,-0.7317,9.2683,2.3171,0.00,0.00,0.00,6,S01
14960,-6.08845,5.10683,-5.28161,0.9146,9.8780,1.8902,0.00,0.00,0.00,6,S01
14980,-6.24647,5.60243,-5.38456,3.3537,10.3659,1.2195,0.00,0.00,0.00,6,S01
# DONE 750 samples in 15.0s
