timestamp,ax,ay,az,gx,gy,gz,mx,my,mz,label,subject_id
0,-11.06361,2.72700,0.20111,34.4512,-0.6098,38.3537,0.00,0.00,0.00,3,S01
20,-9.94312,1.53229,0.02873,36.9512,0.5488,39.0854,0.00,0.00,0.00,3,S01
40,-8.67659,1.80044,-2.19548,51.2805,-2.9878,3.7195,0.00,0.00,0.00,3,S01
60,-8.67659,1.80044,-2.19548,51.2805,-2.9878,3.7195,0.00,0.00,0.00,3,S01
80,-8.69813,3.49793,-2.14999,41.0366,-3.4756,-6.7683,0.00,0.00,0.00,3,S01
100,-8.71011,3.84988,-1.94888,25.7317,-6.2195,-8.0488,0.00,0.00,0.00,3,S01
120,-8.81306,2.77967,-1.30484,12.6829,-3.4146,-6.5854,0.00,0.00,0.00,3,S01
140,-9.39485,1.63045,-0.24660,6.5854,1.4024,-11.6463,0.00,0.00,0.00,3,S01
160,-9.92875,0.93374,0.06943,6.9512,1.7073,-22.6220,0.00,0.00,0.00,3,S01
180,-9.84017,0.85234,0.41659,9.6341,-0.6707,-34.3902,0.00,0.00,0.00,3,S01
200,-9.34696,1.34554,0.14605,11.0976,-5.6098,-43.2927,0.00,0.00,0.00,3,S01
220,-8.86812,1.65679,-0.11013,8.9634,-7.4390,-46.1585,0.00,0.00,0.00,3,S01
240,-8.68377,1.51314,0.11492,7.7439,-6.0366,-44.2683,0.00,0.00,0.00,3,S01
260,-8.64786,1.03430,0.38068,9.4512,-5.0610,-40.6707,0.00,0.00,0.00,3,S01
280,-8.57842,0.50278,0.50518,11.3415,-4.2683,-38.1098,0.00,0.00,0.00,3,S01
300,-8.51378,0.54109,0.70150,13.0488,-3.7195,-37.0732,0.00,0.00,0.00,3,S01
320,-8.33182,0.73502,0.81882,13.7805,-3.9024,-33.9634,0.00,0.00,0.00,3,S01
340,-8.18817,0.88825,0.96486,13.1707,-1.8293,-28.5976,0.00,0.00,0.00,3,S01
360,-8.22169,0.81403,1.18274,12.6220,2.4390,-23.0488,0.00,0.00,0.00,3,S01
380,-8.38928,0.35195,1.68312,15.9146,7.9268,-15.6707,0.00,0.00,0.00,3,S01
400,-8.38928,0.35195,1.68312,15.9146,7.9268,-15.6707,0.00,0.00,0.00,3,S01
420,-8.48026,0.56982,2.04944,17.5610,7.0732,-13.5366,0.00,0.00,0.00,3,S01
440,-8.37731,0.99838,2.31280,15.4268,4.6341,-10.1220,0.00,0.00,0.00,3,S01
460,-8.22648,1.02711,2.36068,9.3902,2.8659,-4.5122,0.00,0.00,0.00,3,S01
480,-8.45393,0.68235,2.35111,5.3049,2.0732,1.5854,0.00,0.00,0.00,3,S01
500,-8.85136,0.50278,1.92494,3.4146,-0.4878,5.9146,0.00,0.00,0.00,3,S01
520,-9.46428,0.11732,1.64960,-2.5000,-2.8049,5.9146,0.00,0.00,0.00,3,S01
540,-9.67018,0.83079,2.22900,-8.5366,-4.5122,0.8537,0.00,0.00,0.00,3,S01
560,-10.00537,1.46525,2.37026,-18.6585,-7.9268,-4.6951,0.00,0.00,0.00,3,S01
580,-12.10508,0.52194,1.44370,-24.0854,-14.9390,-9.4512,0.00,0.00,0.00,3,S01
600,-13.82891,-0.22984,-0.57461,-11.8293,-18.0488,-15.0000,0.00,0.00,0.00,3,S01
620,-13.42190,0.86910,-0.17238,-8.5976,-14.6341,-23.4756,0.00,0.00,0.00,3,S01
640,-11.61667,2.43969,-1.10612,-20.4878,-23.4146,-28.5976,0.00,0.00,0.00,3,S01
660,-9.91439,3.25851,-2.61447,-31.8293,-26.9512,-23.9634,0.00,0.00,0.00,3,S01
680,-9.20331,1.91057,-3.15795,-40.7317,-15.7317,-14.3293,0.00,0.00,0.00,3,S01
700,-10.00297,0.65601,-0.89783,-37.3171,6.7683,-8.2927,0.00,0.00,0.00,3,S01
720,-10.53928,0.19632,0.67516,-17.9878,17.4390,-1.7683,0.00,0.00,0.00,3,S01
740,-10.20888,0.53391,0.52433,-1.8902,13.8415,5.7927,0.00,0.00,0.00,3,S01
760,-9.69652,1.13964,0.45011,2.4390,10.5488,10.9756,0.00,0.00,0.00,3,S01
780,-8.91122,1.65918,0.30406,1.2805,7.5610,14.5122,0.00,0.00,0.00,3,S01
800,-8.00382,1.84832,0.08140,1.2195,5.3659,18.3537,0.00,0.00,0.00,3,S01
820,-7.37893,1.83396,-0.23463,2.6829,5.3659,21.4024,0.00,0.00,0.00,3,S01
840,-7.35978,1.95367,-0.33279,2.0122,9.6341,23.2317,0.00,0.00,0.00,3,S01
860,-7.55371,1.96085,-0.38786,-3.0488,13.5976,24.9390,0.00,0.00,0.00,3,S01
880,-7.68299,2.00634,-0.34716,-10.2439,15.8537,25.4878,0.00,0.00,0.00,3,S01
900,-7.93917,1.71664,-0.26576,-17.0122,16.8902,25.0610,0.00,0.00,0.00,3,S01
920,-8.23605,1.47962,-0.15802,-18.5976,18.7805,23.5366,0.00,0.00,0.00,3,S01
940,-8.31985,1.38145,-0.05267,-15.9756,21.2805,21.4634,0.00,0.00,0.00,3,S01
960,-8.42759,1.54665,0.01915,-13.5366,22.0122,18.1707,0.00,0.00,0.00,3,S01
980,-8.63589,1.83396,0.20351,-12.1951,21.7683,14.8171,0.00,0.00,0.00,3,S01
1000,-8.46590,1.87705,0.11732,-11.4634,19.2683,12.4390,0.00,0.00,0.00,3,S01
1020,-8.07085,2.01352,0.01197,-11.2195,17.8049,9.4512,0.00,0.00,0.00,3,S01
1040,-7.93678,2.08774,0.24900,-13.3537,18.7805,5.6098,0.00,0.00,0.00,3,S01
1060,-8.08043,2.12845,0.47166,-14.9390,20.0000,2.1341,0.00,0.00,0.00,3,S01
1080,-8.22408,1.96325,0.70390,-13.7195,22.1341,-1.2195,0.00,0.00,0.00,3,S01
1100,-8.31746,1.81959,1.18752,-7.1341,21.0976,-9.3902,0.00,0.00,0.00,3,S01
1120,-8.62152,1.88184,1.11809,-2.2561,18.7195,-10.7927,0.00,0.00,0.00,3,S01
1140,-8.62152,1.88184,1.11809,-2.2561,18.7195,-10.7927,0.00,0.00,0.00,3,S01
1160,-9.31344,2.14042,1.17795,1.4634,15.7317,-10.3049,0.00,0.00,0.00,3,S01
1180,-10.05325,2.45406,1.26653,3.7805,9.1463,-8.9024,0.00,0.00,0.00,3,S01
1200,-10.38126,2.54982,1.50835,6.5854,1.4024,-7.0732,0.00,0.00,0.00,3,S01
1220,-10.30464,2.73897,1.93691,10.2439,-3.2317,-5.4268,0.00,0.00,0.00,3,S01
1240,-9.92157,3.00951,2.77009,13.9024,-4.5732,-3.2927,0.00,0.00,0.00,3,S01
1260,-9.63187,3.39977,2.89698,18.1098,-4.4512,0.3049,0.00,0.00,0.00,3,S01
1280,-10.08677,4.16591,1.78847,18.1707,-1.8293,6.0366,0.00,0.00,0.00,3,S01
1300,-10.95108,4.59687,-0.11253,14.5122,7.0122,15.4268,0.00,0.00,0.00,3,S01
1320,-11.09952,3.12443,-0.06225,11.2805,19.3902,25.0610,0.00,0.00,0.00,3,S01
1340,-11.61188,2.02071,-1.18274,15.0000,16.1585,27.3171,0.00,0.00,0.00,3,S01
1360,-11.84172,1.03908,-1.90818,20.4878,7.3171,21.9512,0.00,0.00,0.00,3,S01
1380,-11.49217,2.01352,-2.17394,24.3902,-2.5000,11.4634,0.00,0.00,0.00,3,S01
1400,-11.06121,2.59771,-2.43969,18.4146,-8.4146,4.5732,0.00,0.00,0.00,3,S01
1420,-10.92714,2.26252,-1.96564,6.3415,-6.8293,0.4878,0.00,0.00,0.00,3,S01
1440,-10.59913,2.22661,-1.82199,-3.2927,-7.1951,-6.3415,0.00,0.00,0.00,3,S01
1460,-9.69173,2.09493,-1.70946,-13.9634,-8.5366,-14.0854,0.00,0.00,0.00,3,S01
1480,-9.11233,1.94409,-1.52032,-23.1098,-6.5244,-23.3537,0.00,0.00,0.00,3,S01
1500,-8.61913,1.34794,-1.14922,-29.6951,-2.1341,-34.5732,0.00,0.00,0.00,3,S01
1520,-8.13310,0.20830,-0.94571,-31.3415,-0.1829,-42.4390,0.00,0.00,0.00,3,S01
1540,-7.49146,-0.73741,-0.27294,-27.5000,2.8659,-47.1341,0.00,0.00,0.00,3,S01
1560,-7.05092,-0.79966,-0.39504,-20.6707,0.0000,-50.2439,0.00,0.00,0.00,3,S01
1580,-6.79714,-0.39983,-0.59376,-18.4756,-1.4024,-50.7317,0.00,0.00,0.00,3,S01
1600,-6.86657,-0.39025,-0.03352,-16.5244,0.3659,-48.3537,0.00,0.00,0.00,3,S01
1620,-6.90727,-0.15083,0.53630,-9.2073,-1.7073,-43.4756,0.00,0.00,0.00,3,S01
1640,-6.97670,0.09098,0.34716,-2.0732,-5.7317,-35.9756,0.00,0.00,0.00,3,S01
1660,-7.15387,0.24181,0.09577,-0.5488,-7.6220,-26.7683,0.00,0.00,0.00,3,S01
1680,-6.88333,0.15562,0.57221,-0.8537,-4.5732,-18.2317,0.00,0.00,0.00,3,S01
1700,-6.73010,0.35195,0.94571,-0.2439,-2.3171,-13.4146,0.00,0.00,0.00,3,S01
1720,-7.12993,0.87867,1.18992,-2.5000,2.9878,-8.7195,0.00,0.00,0.00,3,S01
1740,-8.75799,0.68714,1.14443,-13.2927,12.6220,-0.6098,0.00,0.00,0.00,3,S01
1760,-10.05804,0.81642,1.58017,-19.4512,13.9634,1.7683,0.00,0.00,0.00,3,S01
1780,-11.32697,0.53630,2.79882,-29.7561,13.4146,3.9634,0.00,0.00,0.00,3,S01
1800,-11.64779,0.26336,4.17549,-35.3659,11.6463,1.2195,0.00,0.00,0.00,3,S01
1820,-11.48259,0.11013,4.76207,-37.1341,8.9024,-5.7927,0.00,0.00,0.00,3,S01
1840,-11.26232,0.53151,3.78523,-37.5000,5.9756,-17.5610,0.00,0.00,0.00,3,S01
1860,-11.21923,0.56982,0.74939,-39.3293,2.3780,-30.3659,0.00,0.00,0.00,3,S01
1880,-10.81461,1.51074,-1.46765,-44.2073,-0.1829,-34.5122,0.00,0.00,0.00,3,S01
1900,-10.40520,-0.25857,-2.11408,-61.9512,1.9512,-25.7317,0.00,0.00,0.00,3,S01
1920,-9.64384,-2.04704,-2.16675,-55.0610,4.1463,-17.6220,0.00,0.00,0.00,3,S01
1940,-8.91840,-2.03747,-2.25773,-35.5488,-0.8537,-12.8659,0.00,0.00,0.00,3,S01
1960,-8.95671,-1.55623,-2.88022,-18.8415,3.5366,-6.9512,0.00,0.00,0.00,3,S01
1980,-9.89045,-0.27773,-2.78446,-3.7195,18.1098,-2.0122,0.00,0.00,0.00,3,S01
2000,-11.18571,-0.04788,-1.80044,4.3293,26.6463,2.8659,0.00,0.00,0.00,3,S01
2020,-11.40598,-0.18196,-0.77333,12.1341,27.3780,7.3780,0.00,0.00,0.00,3,S01
2040,-11.39879,0.08859,0.28491,17.6829,26.7683,9.8780,0.00,0.00,0.00,3,S01
2060,-12.55041,1.58257,1.53468,18.0488,25.0000,12.3171,0.00,0.00,0.00,3,S01
2080,-13.92468,3.22499,1.41258,12.5610,23.3537,25.2439,0.00,0.00,0.00,3,S01
2100,-14.23353,4.04141,1.23541,2.2561,25.7317,51.4634,0.00,0.00,0.00,3,S01
2120,-13.21360,3.86424,1.04148,-4.3902,22.1341,80.4878,0.00,0.00,0.00,3,S01
2140,-11.74595,3.01191,0.16281,-8.2317,16.7683,99.2683,0.00,0.00,0.00,3,S01
2160,-10.67814,3.00712,0.87388,-16.6463,24.3902,95.3659,0.00,0.00,0.00,3,S01
2180,-9.10036,2.38462,0.79727,-21.1585,22.3780,71.7073,0.00,0.00,0.00,3,S01
2200,-7.07965,0.69192,0.93613,-19.0244,10.9146,46.7683,0.00,0.00,0.00,3,S01
2220,-5.49709,-0.54588,2.04225,-16.0976,0.4878,26.5854,0.00,0.00,0.00,3,S01
2240,-4.71418,0.54827,3.22499,-20.0000,-13.1707,1.4634,0.00,0.00,0.00,3,S01
2260,-3.86424,1.77650,2.27928,-24.0854,-39.6341,-18.1707,0.00,0.00,0.00,3,S01
2280,-2.92811,1.71904,0.09577,-15.0610,-67.9878,-27.3171,0.00,0.00,0.00,3,S01
2300,-2.26013,1.45089,-2.17633,-3.0488,-89.3902,-26.5244,0.00,0.00,0.00,3,S01
2320,-3.77326,0.74460,-5.77960,-1.8293,-104.1463,-22.1951,0.00,0.00,0.00,3,S01
2340,-8.90882,-1.43413,-10.67335,-8.6585,-90.7317,-23.1098,0.00,0.00,0.00,3,S01
2360,-11.63582,-1.66876,-5.46357,-15.6098,5.9146,-21.2805,0.00,0.00,0.00,3,S01
2380,-12.05481,-0.22984,2.59292,-19.3902,53.1098,-6.7683,0.00,0.00,0.00,3,S01
2400,-11.99734,2.18112,-2.92093,27.7439,9.2073,9.6951,0.00,0.00,0.00,3,S01
2420,-15.10262,1.40061,-0.71347,38.9634,27.0732,29.3293,0.00,0.00,0.00,3,S01
2440,-20.49676,2.86586,2.88262,37.1951,47.5000,34.4512,0.00,0.00,0.00,3,S01
2460,-19.30924,4.13479,2.65517,41.5244,23.1707,14.0244,0.00,0.00,0.00,3,S01
2480,-15.82088,2.96881,1.38145,27.0732,-17.9878,-21.0366,0.00,0.00,0.00,3,S01
2500,-12.04762,1.42216,0.23942,18.7805,-36.7683,-48.1098,0.00,0.00,0.00,3,S01
2520,-9.14585,0.74699,-0.13886,18.5366,-31.4634,-54.2073,0.00,0.00,0.00,3,S01
2540,-6.81629,0.93853,0.07901,14.5732,-18.2317,-49.8781,0.00,0.00,0.00,3,S01
2560,-5.18345,1.72143,0.77333,8.4146,-10.5488,-39.0854,0.00,0.00,0.00,3,S01
2580,-3.52187,0.68714,1.41018,3.5366,-17.7439,-24.8780,0.00,0.00,0.00,3,S01
2600,-3.25611,0.26576,1.67355,-2.8049,-32.8659,-16.8902,0.00,0.00,0.00,3,S01
2620,-3.06937,-0.40462,1.45807,-1.0976,-50.0610,-7.4390,0.00,0.00,0.00,3,S01
2640,-1.63524,-0.60813,0.42856,10.5488,-67.3781,6.8902,0.00,0.00,0.00,3,S01
2660,-0.96486,-0.91219,-1.34075,11.0366,-84.9390,16.8293,0.00,0.00,0.00,3,S01
2680,-1.50356,-2.33914,-3.34231,3.3537,-89.6951,16.0976,0.00,0.00,0.00,3,S01
2700,-5.22175,-5.94720,-6.98867,12.8049,-67.0122,-3.5976,0.00,0.00,0.00,3,S01
2720,-12.97657,-1.65439,-8.62870,32.1951,5.0000,-61.8293,0.00,0.00,0.00,3,S01
2740,-21.34191,11.46344,0.66559,4.6341,66.4634,-66.3415,0.00,0.00,0.00,3,S01
2760,-18.96208,6.16746,0.39983,-39.2683,24.8780,10.9146,0.00,0.00,0.00,3,S01
2780,-15.95496,0.48842,-2.76530,-48.2927,2.3780,22.7439,0.00,0.00,0.00,3,S01
2800,-16.38592,-0.93853,0.86670,-52.3171,31.7683,-1.8293,0.00,0.00,0.00,3,S01
2820,-16.09861,0.56743,1.38624,-34.3293,38.4146,-7.1951,0.00,0.00,0.00,3,S01
2840,-12.87123,2.03986,0.61770,-17.1951,29.6341,15.0000,0.00,0.00,0.00,3,S01
2860,-9.28471,1.89142,0.31364,-9.2683,25.6098,44.5732,0.00,0.00,0.00,3,S01
2880,-7.30232,2.20985,-0.35434,-0.9146,27.6220,59.4512,0.00,0.00,0.00,3,S01
2900,-6.38055,1.69988,-0.20830,3.9024,31.7073,60.0000,0.00,0.00,0.00,3,S01
2920,-6.40688,0.53151,2.14281,4.8780,32.1951,49.3902,0.00,0.00,0.00,3,S01
2940,-6.34463,-0.22505,3.48835,9.5122,16.3415,34.2683,0.00,0.00,0.00,3,S01
2960,-4.91769,1.36709,3.03585,-0.8537,-22.2561,16.0366,0.00,0.00,0.00,3,S01
2980,-3.96719,1.50835,1.82917,-9.0854,-28.7195,11.1585,0.00,0.00,0.00,3,S01
3000,-3.69186,0.87628,-0.38786,-5.4268,-28.9024,6.4634,0.00,0.00,0.00,3,S01
3020,-3.97677,0.31125,-1.35033,-0.3049,-26.7683,0.6098,0.00,0.00,0.00,3,S01
3040,-6.33745,2.68390,-2.52349,6.2195,-24.4512,-1.4024,0.00,0.00,0.00,3,S01
3060,-11.90876,1.69270,-8.44674,14.5732,-5.2439,9.1463,0.00,0.00,0.00,3,S01
3080,-18.81603,0.50757,1.39582,15.7927,43.6585,34.5122,0.00,0.00,0.00,3,S01
3100,-19.34036,-1.89860,0.18914,25.0000,1.6463,62.2561,0.00,0.00,0.00,3,S01
3120,-16.83124,2.60010,-3.48117,65.4878,-25.8537,58.5976,0.00,0.00,0.00,3,S01
3140,-14.44901,5.14753,-1.83156,53.3537,-14.6951,25.4878,0.00,0.00,0.00,3,S01
3160,-12.79940,4.96557,-1.39343,23.1098,-12.6220,-14.2073,0.00,0.00,0.00,3,S01
3180,-10.50336,3.60806,-1.05824,-4.5732,-8.5976,-41.6463,0.00,0.00,0.00,3,S01
3200,-7.53216,0.76854,-0.41659,-14.3293,3.1098,-53.7805,0.00,0.00,0.00,3,S01
3220,-2.51391,-1.53947,0.21548,-0.9146,0.7317,-64.3902,0.00,0.00,0.00,3,S01
3240,-2.51391,-1.53947,0.21548,-0.9146,0.7317,-64.3902,0.00,0.00,0.00,3,S01
3260,-1.74298,-1.27850,-0.51236,3.7195,-14.0854,-63.5976,0.00,0.00,0.00,3,S01
3280,-2.54025,-0.19872,-1.56581,10.1829,-14.6951,-61.8902,0.00,0.00,0.00,3,S01
3300,-4.08690,0.57700,-2.88741,12.8659,-5.9146,-55.3659,0.00,0.00,0.00,3,S01
3320,-5.58567,0.88825,-3.04064,10.4878,26.6463,-45.2439,0.00,0.00,0.00,3,S01
3340,-7.53455,1.28569,3.37343,3.7805,71.4634,-34.2683,0.00,0.00,0.00,3,S01
3360,-9.16022,0.11732,5.59764,1.4634,57.5610,-19.3902,0.00,0.00,0.00,3,S01
3380,-10.93192,1.14682,3.08613,7.9268,17.9268,-15.9146,0.00,0.00,0.00,3,S01
3400,-12.04762,1.87705,3.08613,-0.7927,7.5000,-16.1585,0.00,0.00,0.00,3,S01
3420,-11.46344,0.87628,4.12760,-9.1463,5.6098,-9.4512,0.00,0.00,0.00,3,S01
3440,-10.63983,-0.34477,3.56975,-10.6098,2.3171,-3.4756,0.00,0.00,0.00,3,S01
3460,-11.63821,-0.96486,1.01035,-12.1951,9.3293,-8.2317,0.00,0.00,0.00,3,S01
3480,-11.95664,1.31442,0.95529,-15.5488,18.2927,-22.6220,0.00,0.00,0.00,3,S01
3500,-10.54406,-0.14844,-0.21069,-28.0488,1.7073,-21.7073,0.00,0.00,0.00,3,S01
3520,-10.52252,-1.34075,-2.69348,-16.8902,-8.9634,-15.1829,0.00,0.00,0.00,3,S01
3540,-12.35647,1.52750,-1.38145,-9.3293,11.4634,-14.3902,0.00,0.00,0.00,3,S01
3560,-13.72117,1.43173,-1.82917,-6.8902,23.8415,-1.5244,0.00,0.00,0.00,3,S01
3580,-14.30775,2.29604,-1.53229,-5.3659,29.4512,7.3171,0.00,0.00,0.00,3,S01
3600,-14.23832,1.67355,-0.67516,-10.4268,34.9390,15.7317,0.00,0.00,0.00,3,S01
3620,-13.65174,1.47243,-0.07183,-20.8537,33.6585,17.3780,0.00,0.00,0.00,3,S01
3640,-13.36683,1.80762,0.46208,-24.5122,28.9634,19.8780,0.00,0.00,0.00,3,S01
3660,-12.91432,2.08535,1.25217,-20.4268,23.1098,25.3659,0.00,0.00,0.00,3,S01
3680,-11.02051,2.08774,0.95529,-13.7805,10.6707,32.9268,0.00,0.00,0.00,3,S01
3700,-9.07163,1.99676,0.47884,-10.9146,6.4024,37.4390,0.00,0.00,0.00,3,S01
3720,-7.66145,1.78607,0.87867,-11.1585,8.0488,36.0976,0.00,0.00,0.00,3,S01
3740,-6.58405,0.73263,1.42455,-8.2317,5.7927,31.7073,0.00,0.00,0.00,3,S01
3760,-5.12599,-0.02155,2.22900,-0.5488,-1.7073,28.5366,0.00,0.00,0.00,3,S01
3780,-4.17070,0.47405,2.11647,2.8659,-16.7683,23.9634,0.00,0.00,0.00,3,S01
3800,-3.38540,0.89543,1.68312,-7.4390,-39.7561,14.0854,0.00,0.00,0.00,3,S01
3820,-2.20506,0.28012,0.78769,-12.4390,-65.2439,5.9146,0.00,0.00,0.00,3,S01
3840,-0.86431,-0.08140,-1.08218,4.6341,-81.3415,1.5854,0.00,0.00,0.00,3,S01
3860,-1.41976,2.21464,-3.88818,20.9146,-80.6707,-1.2805,0.00,0.00,0.00,3,S01
3880,-5.97353,2.21942,-8.45153,19.5122,-63.7195,2.2561,0.00,0.00,0.00,3,S01
3900,-12.80659,-2.05662,-9.10036,15.9146,-0.8537,4.3902,0.00,0.00,0.00,3,S01
3920,-17.36514,-1.65679,4.79798,2.5610,78.2927,4.3293,0.00,0.00,0.00,3,S01
3940,-18.78970,2.78206,-1.93451,39.3293,27.4390,6.7073,0.00,0.00,0.00,3,S01
3960,-18.16481,4.43167,-2.77967,42.6829,9.0244,-11.8293,0.00,0.00,0.00,3,S01
3980,-16.68519,3.05261,-0.40941,17.6220,13.0488,-33.2317,0.00,0.00,0.00,3,S01
4000,-15.14811,2.41575,0.06943,4.0854,6.4634,-51.3415,0.00,0.00,0.00,3,S01
4020,-13.06516,2.04704,0.15802,-0.7317,-1.0976,-57.0122,0.00,0.00,0.00,3,S01
4040,-10.70687,1.36948,0.03831,-2.9878,-8.4756,-50.4268,0.00,0.00,0.00,3,S01
4060,-8.90882,0.99838,0.10774,-5.8537,-7.6220,-38.2317,0.00,0.00,0.00,3,S01
4080,-6.75644,-0.07422,0.91937,-7.0122,-5.4268,-23.1707,0.00,0.00,0.00,3,S01
4100,-4.42209,-0.34237,1.49638,-3.7195,-8.9024,-12.9268,0.00,0.00,0.00,3,S01
4120,-3.46920,0.69911,1.83396,-2.6829,-16.5244,-10.0000,0.00,0.00,0.00,3,S01
4140,-2.54025,0.04549,1.76453,-4.2683,-27.7439,-4.7561,0.00,0.00,0.00,3,S01
4160,-1.38385,-1.13725,1.48680,-1.4634,-35.0610,0.4268,0.00,0.00,0.00,3,S01
4180,-1.65679,-0.80206,-0.93134,2.8049,-50.3049,2.8659,0.00,0.00,0.00,3,S01
4200,-4.13479,-3.64158,-4.13239,3.4146,-54.6951,-1.7683,0.00,0.00,0.00,3,S01
4220,-10.40281,-4.44603,-8.97826,21.8902,-22.2561,-39.4512,0.00,0.00,0.00,3,S01
4240,-19.07221,10.56322,1.23062,-8.1098,52.2561,-84.9390,0.00,0.00,0.00,3,S01
4260,-18.88307,7.58004,1.83396,-54.0244,20.7927,-23.5976,0.00,0.00,0.00,3,S01
4280,-15.83046,2.13084,-2.08056,-56.3415,-17.0732,25.2439,0.00,0.00,0.00,3,S01
4300,-17.70752,0.29928,0.90022,-52.5610,49.1463,32.5000,0.00,0.00,0.00,3,S01
4320,-15.72512,1.49159,-0.01437,-34.4512,35.7317,36.5244,0.00,0.00,0.00,3,S01
4340,-15.72512,1.49159,-0.01437,-34.4512,35.7317,36.5244,0.00,0.00,0.00,3,S01
4360,-12.67730,1.97043,-0.02155,-20.6098,23.9024,46.4634,0.00,0.00,0.00,3,S01
4380,-9.87608,1.83875,-0.11492,-13.4756,21.2805,53.5366,0.00,0.00,0.00,3,S01
4400,-7.79552,1.42694,-0.53630,-4.6341,21.8902,56.0366,0.00,0.00,0.00,3,S01
4420,-6.12197,0.93853,0.21308,-3.6585,26.2805,54.8171,0.00,0.00,0.00,3,S01
4440,-5.30316,0.65841,1.42455,-4.1463,26.2805,49.7561,0.00,0.00,0.00,3,S01
4460,-5.05416,0.16999,1.89142,-7.8049,16.7073,42.6829,0.00,0.00,0.00,3,S01
4480,-4.52265,0.33040,1.04866,-17.7439,-3.4756,28.8415,0.00,0.00,0.00,3,S01
4500,-2.62644,-0.38307,0.07183,-21.3415,-25.2439,18.9634,0.00,0.00,0.00,3,S01
4520,-1.17076,-0.36152,-1.03190,-14.0244,-39.0854,14.0244,0.00,0.00,0.00,3,S01
4540,-1.56581,0.75896,-2.65278,-4.1463,-40.2439,2.3780,0.00,0.00,0.00,3,S01
4560,-3.83791,3.67989,-3.54821,-8.8415,-30.7317,-9.0854,0.00,0.00,0.00,3,S01
4580,-9.29908,3.33752,-7.31429,-16.0976,-7.4390,-7.1951,0.00,0.00,0.00,3,S01
4600,-16.29494,-1.29047,0.95050,-11.8293,38.1098,7.7439,0.00,0.00,0.00,3,S01
4620,-18.32522,-1.71185,0.88585,-0.1220,17.6220,18.5976,0.00,0.00,0.00,3,S01
4640,-17.58541,3.10289,-2.98318,29.6341,-8.6585,12.3171,0.00,0.00,0.00,3,S01
4660,-16.87433,4.49392,-1.52989,28.9024,5.2439,-6.5244,0.00,0.00,0.00,3,S01
4680,-16.13453,3.18429,-0.13408,14.3293,9.0244,-26.4024,0.00,0.00,0.00,3,S01
4700,-14.43943,0.58179,-0.14605,13.1098,-0.4268,-36.6463,0.00,0.00,0.00,3,S01
4720,-12.11705,-0.48123,0.22505,18.4146,-4.1463,-44.8171,0.00,0.00,0.00,3,S01
4740,-9.98143,0.42377,0.05986,20.6707,-6.8902,-53.7805,0.00,0.00,0.00,3,S01
4760,-8.04931,1.12767,-0.26336,24.2073,-8.3537,-53.1098,0.00,0.00,0.00,3,S01
4780,-6.63673,0.93613,0.76375,23.1098,0.6707,-43.2927,0.00,0.00,0.00,3,S01
4800,-5.65510,0.53630,2.65517,18.1707,8.5976,-34.0244,0.00,0.00,0.00,3,S01
4820,-4.89854,0.46448,3.29921,18.9024,1.8293,-26.7683,0.00,0.00,0.00,3,S01
4840,-4.69503,-0.04070,3.44526,20.6098,-11.8293,-20.4878,0.00,0.00,0.00,3,S01
4860,-4.48434,0.12689,3.17711,25.3049,-24.8171,-15.2439,0.00,0.00,0.00,3,S01
4880,-3.51948,0.56264,1.72383,32.8049,-39.6341,-7.0732,0.00,0.00,0.00,3,S01
4900,-2.54025,-0.29928,-0.65601,33.1707,-58.4756,8.1098,0.00,0.00,0.00,3,S01
4920,-1.94649,-0.79009,-3.05021,24.6341,-66.7683,19.6341,0.00,0.00,0.00,3,S01
4940,-3.69904,-2.43011,-5.28400,11.4024,-48.6585,12.6220,0.00,0.00,0.00,3,S01
4960,-10.16099,0.67995,-5.79397,21.0976,7.3171,-19.4512,0.00,0.00,0.00,3,S01
4980,-19.34036,6.56011,0.88585,-5.1829,66.0976,-35.3049,0.00,0.00,0.00,3,S01
5000,-19.39782,5.57370,1.32878,-28.9634,32.8659,-4.8780,0.00,0.00,0.00,3,S01
5020,-15.66526,3.39258,-3.06697,-25.3659,-7.8659,13.7195,0.00,0.00,0.00,3,S01
5040,-15.89989,1.95367,0.05267,-32.8049,24.0854,13.1098,0.00,0.00,0.00,3,S01
5060,-15.78018,1.77650,0.78530,-22.7439,37.6220,16.8293,0.00,0.00,0.00,3,S01
5080,-13.36922,2.25294,-0.09577,-7.9268,27.6220,31.6463,0.00,0.00,0.00,3,S01
5100,-11.04445,2.62165,-0.28252,-7.9268,25.0610,42.5000,0.00,0.00,0.00,3,S01
5120,-8.80827,1.70467,-0.15562,-8.5976,24.9390,42.6829,0.00,0.00,0.00,3,S01
5140,-7.25204,1.52750,0.05267,-5.4268,22.6829,31.5854,0.00,0.00,0.00,3,S01
5160,-6.45237,1.30963,1.05584,-4.5122,22.6829,19.4512,0.00,0.00,0.00,3,S01
5180,-6.07409,0.65601,1.86748,-5.6098,15.3049,10.0610,0.00,0.00,0.00,3,S01
5200,-5.61919,0.62249,2.29604,-10.0000,-0.3049,3.7195,0.00,0.00,0.00,3,S01
5220,-4.93684,1.60651,2.22900,-22.6220,-19.9390,0.9146,0.00,0.00,0.00,3,S01
5240,-3.77087,1.08218,1.36948,-30.2439,-36.8293,2.6220,0.00,0.00,0.00,3,S01
5260,-3.49793,0.44053,-0.43096,-19.1463,-41.6463,8.2317,0.00,0.00,0.00,3,S01
5280,-3.75890,0.73263,-2.10929,-4.3293,-32.2561,12.8659,0.00,0.00,0.00,3,S01
5300,-5.40850,2.51391,-3.07416,-2.8049,-19.0244,17.0732,0.00,0.00,0.00,3,S01
5320,-8.70532,0.52672,-6.08127,1.2805,-1.3415,25.9756,0.00,0.00,0.00,3,S01
5340,-13.11304,-2.29843,5.26485,2.8659,23.8415,29.5122,0.00,0.00,0.00,3,S01
5360,-15.76582,5.37019,0.20351,47.8049,-5.3049,-18.9024,0.00,0.00,0.00,3,S01
5380,-15.76582,5.37019,0.20351,47.8049,-5.3049,-18.9024,0.00,0.00,0.00,3,S01
5400,-15.77061,3.75890,0.07422,31.5244,2.8049,-29.3902,0.00,0.00,0.00,3,S01
5420,-14.85842,2.09014,0.63207,16.0976,9.5732,-43.2927,0.00,0.00,0.00,3,S01
5440,-13.67089,1.03908,0.87867,14.6341,10.1829,-56.0366,0.00,0.00,0.00,3,S01
5460,-12.26550,-0.03352,0.74460,18.5366,3.1098,-59.9390,0.00,0.00,0.00,3,S01
5480,-10.38365,-0.44053,0.27054,21.5244,0.9146,-54.0854,0.00,0.00,0.00,3,S01
5500,-8.75560,0.82361,0.33040,25.2439,9.0854,-45.5488,0.00,0.00,0.00,3,S01
5520,-7.43160,1.86987,0.99359,23.4756,12.1341,-33.1098,0.00,0.00,0.00,3,S01
5540,-5.77242,1.88184,2.06380,15.7927,5.4268,-21.7683,0.00,0.00,0.00,3,S01
5560,-4.78601,1.47004,2.62644,9.5122,-10.2439,-13.4146,0.00,0.00,0.00,3,S01
5580,-3.11246,-0.39983,2.31759,10.4878,-25.0610,-1.2805,0.00,0.00,0.00,3,S01
5600,-2.44209,0.60573,1.05105,13.4146,-33.5976,4.7561,0.00,0.00,0.00,3,S01
5620,-2.32477,0.85712,-0.84036,10.3659,-37.4390,15.2439,0.00,0.00,0.00,3,S01
5640,-1.53947,-0.09337,-2.85628,7.5000,-38.9024,26.2805,0.00,0.00,0.00,3,S01
5660,-1.92494,-1.17076,-3.92410,-8.6585,-21.2195,20.0000,0.00,0.00,0.00,3,S01
5680,-6.84742,-2.42772,-3.83551,-20.0610,13.5366,-13.0488,0.00,0.00,0.00,3,S01
5700,-16.47211,4.32872,-1.56102,-29.8780,46.8902,-66.7073,0.00,0.00,0.00,3,S01
5720,-19.63485,5.98072,2.53307,-54.0244,41.7073,-57.1341,0.00,0.00,0.00,3,S01
5740,-17.04911,3.56018,-0.58897,-63.7195,2.8049,-27.8659,0.00,0.00,0.00,3,S01
5760,-16.27818,0.80206,-1.45089,-69.6341,14.1463,-20.6098,0.00,0.00,0.00,3,S01
5780,-17.78174,0.40223,1.30484,-67.6220,46.4024,-12.5610,0.00,0.00,0.00,3,S01
5800,-16.40986,0.97205,0.79966,-46.4634,46.6463,8.5976,0.00,0.00,0.00,3,S01
5820,-13.58231,2.04944,0.20111,-31.8293,33.3537,27.5000,0.00,0.00,0.00,3,S01
5840,-10.42675,2.16915,0.07901,-24.5732,25.3659,37.7439,0.00,0.00,0.00,3,S01
5860,-8.16183,1.73340,0.06225,-17.6220,22.3171,34.6951,0.00,0.00,0.00,3,S01
5880,-6.66785,1.39103,0.37350,-11.0976,19.6951,27.6829,0.00,0.00,0.00,3,S01
5900,-5.29597,-0.19632,1.22583,-11.9512,14.5732,25.1829,0.00,0.00,0.00,3,S01
5920,-4.62320,-0.57700,2.34392,-15.4268,3.9024,18.9024,0.00,0.00,0.00,3,S01
5940,-4.00311,0.01197,1.94409,-17.8659,-17.3171,10.8537,0.00,0.00,0.00,3,S01
5960,-3.29682,0.05028,1.17076,-17.7439,-38.2317,4.2683,0.00,0.00,0.00,3,S01
5980,-2.04704,-1.03430,0.34716,-5.6098,-51.4634,4.6951,0.00,0.00,0.00,3,S01
6000,-1.39103,-0.46208,-0.85473,13.7195,-59.2073,3.4756,0.00,0.00,0.00,3,S01
6020,-1.81002,1.05105,-2.63123,24.4512,-65.9756,1.1585,0.00,0.00,0.00,3,S01
6040,-6.02621,2.37265,-7.12993,25.9146,-54.3902,2.1341,0.00,0.00,0.00,3,S01
6060,-14.11382,-0.18435,-10.08438,5.9756,8.5366,0.9756,0.00,0.00,0.00,3,S01
6080,-19.51035,-2.13563,7.17542,-19.5732,69.2073,-12.6220,0.00,0.00,0.00,3,S01
6100,-17.90384,-0.39983,0.27533,18.9024,-4.6341,-22.1951,0.00,0.00,0.00,3,S01
6120,-16.62294,3.73735,-1.63524,42.3171,-17.0732,-24.6341,0.00,0.00,0.00,3,S01
6140,-16.97968,4.03662,0.12210,16.7683,8.5976,-20.4268,0.00,0.00,0.00,3,S01
6160,-15.83046,2.02071,0.75896,-2.5610,9.2683,-20.9146,0.00,0.00,0.00,3,S01
6180,-13.05079,-0.06704,0.69671,-6.4634,-0.0610,-23.6585,0.00,0.00,0.00,3,S01
6200,-9.65103,-0.59855,0.11971,-3.2927,-4.8171,-28.2927,0.00,0.00,0.00,3,S01
6220,-7.43639,-0.98881,-0.48602,0.6707,-1.6463,-24.6951,0.00,0.00,0.00,3,S01
6240,-7.67581,-0.91937,0.56024,8.2317,17.7439,-18.9024,0.00,0.00,0.00,3,S01
6260,-7.93438,-0.24660,3.20584,13.3537,31.0366,-14.2073,0.00,0.00,0.00,3,S01
6280,-6.78996,-0.01915,3.05979,18.8415,11.5244,-7.6220,0.00,0.00,0.00,3,S01
6300,-5.29358,0.00000,2.72939,18.5976,-15.9756,-5.1220,0.00,0.00,0.00,3,S01
6320,-4.12282,1.05824,2.37026,14.5732,-35.0000,-7.1341,0.00,0.00,0.00,3,S01
6340,-3.64398,1.64242,0.51715,14.3293,-45.4878,-5.4878,0.00,0.00,0.00,3,S01
6360,-3.21302,-0.01915,-1.37427,11.0366,-48.4756,4.3293,0.00,0.00,0.00,3,S01
6380,-2.33435,-0.54348,-2.46124,2.9878,-43.4146,7.1951,0.00,0.00,0.00,3,S01
6400,-2.60010,-0.22745,-3.00951,-18.9634,-27.7439,0.8537,0.00,0.00,0.00,3,S01
6420,-18.59576,4.22816,2.63362,-61.4024,38.7195,-47.3781,0.00,0.00,0.00,3,S01
6440,-18.59576,4.22816,2.63362,-61.4024,38.7195,-47.3781,0.00,0.00,0.00,3,S01
6460,-18.59576,4.22816,2.63362,-61.4024,38.7195,-47.3781,0.00,0.00,0.00,3,S01
6480,-15.65568,0.91459,0.34477,-62.8659,-7.8049,-12.3780,0.00,0.00,0.00,3,S01
6500,-13.78342,-0.94571,1.04387,-59.5732,-5.6707,1.9512,0.00,0.00,0.00,3,S01
6520,-15.08826,-0.73502,2.08774,-50.5488,30.1829,13.7805,0.00,0.00,0.00,3,S01
6540,-14.79617,0.82121,1.36709,-30.4268,49.3293,26.4024,0.00,0.00,0.00,3,S01
6560,-13.12501,1.75734,0.43096,-17.1951,48.5366,40.0000,0.00,0.00,0.00,3,S01
6580,-11.61427,1.49638,-0.07422,-7.5610,47.9878,51.3415,0.00,0.00,0.00,3,S01
6600,-10.59195,1.52511,0.64404,-6.0976,49.6951,47.0122,0.00,0.00,0.00,3,S01
6620,-7.82425,1.76453,0.96965,-9.0854,32.1341,25.1829,0.00,0.00,0.00,3,S01
6640,-6.11479,0.35913,1.56820,-9.6951,23.4756,24.4512,0.00,0.00,0.00,3,S01
6660,-5.14275,-0.07422,2.27210,-13.0488,13.2317,24.3293,0.00,0.00,0.00,3,S01
6680,-4.64715,0.24421,2.56419,-22.3171,-1.0976,20.3049,0.00,0.00,0.00,3,S01
6700,-3.44765,-0.62249,1.70467,-25.9146,-19.9390,15.6707,0.00,0.00,0.00,3,S01
6720,-2.67911,-1.15879,0.54588,-10.7317,-29.5732,8.4756,0.00,0.00,0.00,3,S01
6740,-2.32956,-0.92895,0.35434,7.5000,-31.9512,3.3537,0.00,0.00,0.00,3,S01
6760,-3.32315,1.62327,-0.91219,19.0244,-39.5732,5.6707,0.00,0.00,0.00,3,S01
6780,-7.23767,2.08535,-5.51385,18.4146,-42.5000,14.5732,0.00,0.00,0.00,3,S01
6800,-12.16254,-0.62968,-7.11078,8.2927,-6.0366,16.2805,0.00,0.00,0.00,3,S01
6820,-14.74828,-2.23858,5.34146,-2.5000,27.1951,-1.7073,0.00,0.00,0.00,3,S01
6840,-15.50485,-0.49560,-0.00239,27.0732,-14.8171,-17.9878,0.00,0.00,0.00,3,S01
6860,-16.75462,1.50835,0.29449,46.5854,-6.5854,-22.5610,0.00,0.00,0.00,3,S01
6880,-18.08819,0.92656,1.84114,40.3659,14.7561,-22.1951,0.00,0.00,0.00,3,S01
6900,-17.23586,0.81642,1.80044,38.9024,13.5366,-25.2439,0.00,0.00,0.00,3,S01
6920,-14.97334,0.88585,0.83558,40.1829,5.3049,-29.3293,0.00,0.00,0.00,3,S01
6940,-12.94784,1.01993,-0.17717,38.4756,2.0122,-33.4756,0.00,0.00,0.00,3,S01
6960,-11.19289,0.50518,0.00239,33.4146,6.5244,-29.8171,0.00,0.00,0.00,3,S01
6980,-9.38527,0.12210,1.11570,25.7317,11.7683,-20.6098,0.00,0.00,0.00,3,S01
7000,-7.63511,0.66798,2.03986,18.7195,9.0244,-12.3780,0.00,0.00,0.00,3,S01
7020,-6.21774,1.12049,2.49476,15.4268,-6.0976,-7.3780,0.00,0.00,0.00,3,S01
7040,-4.40054,0.04070,2.48279,16.8902,-29.3293,-4.0244,0.00,0.00,0.00,3,S01
7060,-2.75812,-0.19393,2.46603,17.3780,-46.2805,-5.9146,0.00,0.00,0.00,3,S01
7080,-1.82438,0.79487,1.32878,22.2561,-56.1585,-2.3780,0.00,0.00,0.00,3,S01
7100,-1.09176,0.79248,-0.22505,19.3902,-66.8293,13.6585,0.00,0.00,0.00,3,S01
7120,-0.69192,-0.58897,-1.94888,9.5732,-76.5854,25.1220,0.00,0.00,0.00,3,S01
7140,-2.34871,-2.55222,-4.42688,3.5976,-73.2317,14.5122,0.00,0.00,0.00,3,S01
7160,-7.22570,-3.19626,-8.01100,2.3171,-40.3659,-23.7195,0.00,0.00,0.00,3,S01
7180,-14.63815,4.35984,-6.66306,-20.6707,50.5488,-75.0000,0.00,0.00,0.00,3,S01
7200,-19.07700,5.84664,5.69341,-57.1341,115.1829,-57.3171,0.00,0.00,0.00,3,S01
7220,-17.83920,1.57299,1.84354,-65.7317,51.0366,-12.9268,0.00,0.00,0.00,3,S01
7240,-18.20072,0.64643,1.78847,-63.9634,34.1463,-4.0244,0.00,0.00,0.00,3,S01
7260,-18.51915,0.74220,2.14999,-55.5488,49.1463,6.2195,0.00,0.00,0.00,3,S01
7280,-17.02996,1.23062,1.77171,-42.0732,42.4390,23.3537,0.00,0.00,0.00,3,S01
7300,-14.09227,1.13006,0.71108,-28.9024,30.3659,44.4512,0.00,0.00,0.00,3,S01
7320,-11.38204,1.20668,0.24660,-21.7073,29.0854,54.4512,0.00,0.00,0.00,3,S01
7340,-9.26077,0.79727,0.85473,-16.7683,32.1951,51.6463,0.00,0.00,0.00,3,S01
7360,-7.60159,0.44532,1.35991,-7.6829,25.9756,42.0732,0.00,0.00,0.00,3,S01
7380,-5.58328,-0.42138,1.78129,-1.3415,11.0366,37.1951,0.00,0.00,0.00,3,S01
7400,-3.61524,-0.78290,1.74058,-2.6220,-6.0366,36.7683,0.00,0.00,0.00,3,S01
7420,-2.40138,-0.34237,1.22823,-10.0000,-21.5244,30.0610,0.00,0.00,0.00,3,S01
7440,-1.69988,-0.85952,0.42138,-11.1585,-38.8415,19.3293,0.00,0.00,0.00,3,S01
7460,-1.12527,-1.40540,-0.60813,1.7683,-51.9512,11.9512,0.00,0.00,0.00,3,S01
7480,-2.43011,2.12605,-3.76129,18.5366,-60.1220,-2.1951,0.00,0.00,0.00,3,S01
7500,-8.65504,1.16358,-8.24563,11.0366,-35.9146,-7.5000,0.00,0.00,0.00,3,S01
7520,-8.65504,1.16358,-8.24563,11.0366,-35.9146,-7.5000,0.00,0.00,0.00,3,S01
7540,-16.26621,-2.06620,-3.99353,1.6463,37.6829,-17.6220,0.00,0.00,0.00,3,S01
7560,-19.18953,-4.28802,5.86340,-4.5732,56.5244,-29.3902,0.00,0.00,0.00,3,S01
7580,-18.01397,0.53870,-1.61848,57.7439,-5.5488,-33.2317,0.00,0.00,0.00,3,S01
7600,-17.21671,2.67432,-0.95050,65.4878,7.9268,-29.0854,0.00,0.00,0.00,3,S01
7620,-17.26459,2.27449,1.27611,41.3415,26.5244,-31.2805,0.00,0.00,0.00,3,S01
7640,-16.19199,1.97522,0.65601,34.2073,19.7561,-40.0000,0.00,0.00,0.00,3,S01
7660,-13.79300,0.69432,0.44532,32.5000,13.5976,-37.2561,0.00,0.00,0.00,3,S01
7680,-10.77151,-0.62968,0.35195,35.2439,13.4146,-26.9512,0.00,0.00,0.00,3,S01
7700,-8.16183,-1.07978,0.56743,35.4268,17.2561,-19.8780,0.00,0.00,0.00,3,S01
7720,-6.42604,-0.61292,1.44131,30.7317,17.2561,-18.9634,0.00,0.00,0.00,3,S01
7740,-5.52582,0.59855,2.40857,31.2805,6.2805,-20.9146,0.00,0.00,0.00,3,S01
7760,-4.36942,0.68714,2.74136,33.2317,-15.3049,-16.7073,0.00,0.00,0.00,3,S01
7780,-2.81319,1.04627,2.35829,34.3902,-35.0000,-8.5976,0.00,0.00,0.00,3,S01
7800,-1.79805,1.94409,0.62968,32.3780,-53.4146,6.0366,0.00,0.00,0.00,3,S01
7820,-1.39582,0.04070,-1.64242,28.4756,-71.7073,26.2805,0.00,0.00,0.00,3,S01
7840,-2.28886,-2.38702,-5.42047,8.6585,-71.8902,3.5366,0.00,0.00,0.00,3,S01
7860,-8.04452,-3.76129,-8.45871,-4.8171,-20.1220,-43.4146,0.00,0.00,0.00,3,S01
7880,-19.23023,5.90889,0.54109,-32.7439,71.7683,-106.4024,0.00,0.00,0.00,3,S01
7900,-22.21819,4.92966,2.71263,-45.0000,54.2073,-65.4268,0.00,0.00,0.00,3,S01
7920,-17.87271,0.85473,-0.18675,-44.8780,-11.7683,-14.6341,0.00,0.00,0.00,3,S01
7940,-16.22551,-0.62010,-0.24181,-49.3293,-6.4024,-1.2805,0.00,0.00,0.00,3,S01
7960,-17.31008,0.06225,1.22823,-43.4146,36.6463,12.2561,0.00,0.00,0.00,3,S01
7980,-15.95257,1.07739,1.37188,-31.2195,45.1829,29.2073,0.00,0.00,0.00,3,S01
8000,-13.45541,2.04225,0.27054,-20.0000,37.9878,43.4756,0.00,0.00,0.00,3,S01
8020,-10.77151,1.47962,-0.10295,-17.1951,38.0488,51.7683,0.00,0.00,0.00,3,S01
8040,-8.41562,0.89064,0.22266,-13.2317,36.7073,49.2073,0.00,0.00,0.00,3,S01
8060,-6.53617,0.64404,1.07021,-9.0244,27.3780,42.5000,0.00,0.00,0.00,3,S01
8080,-4.70939,-0.15802,1.87705,-10.2439,11.5854,39.6951,0.00,0.00,0.00,3,S01
8100,-3.60088,0.05267,2.05901,-17.8659,-5.3049,33.4756,0.00,0.00,0.00,3,S01
8120,-3.00233,0.34716,1.72143,-27.0732,-25.1829,24.3293,0.00,0.00,0.00,3,S01
8140,-2.18112,-0.73023,0.73263,-19.5732,-46.3415,21.2805,0.00,0.00,0.00,3,S01
8160,-0.92895,-0.63925,-0.67756,1.0366,-66.3415,21.4024,0.00,0.00,0.00,3,S01
8180,-0.36871,0.13647,-2.11169,7.8659,-86.4634,19.0854,0.00,0.00,0.00,3,S01
8200,-1.18034,1.01754,-4.19704,5.6707,-93.5366,17.9268,0.00,0.00,0.00,3,S01
8220,-6.92164,0.84276,-8.58082,0.5488,-53.7195,8.2927,0.00,0.00,0.00,3,S01
8240,-16.95095,-0.96007,-7.87453,-30.8537,43.8415,-12.6220,0.00,0.00,0.00,3,S01
8260,-21.90455,-3.84748,9.50498,-37.9268,90.6707,-25.3659,0.00,0.00,0.00,3,S01
8280,-19.07700,-1.77889,1.63763,18.9024,-5.9146,-27.9268,0.00,0.00,0.00,3,S01
8300,-16.63252,1.59933,-1.29526,44.6951,-17.6220,-29.3293,0.00,0.00,0.00,3,S01
8320,-17.14727,1.84354,2.01113,27.2561,18.5366,-29.0854,0.00,0.00,0.00,3,S01
8340,-16.73547,0.91937,2.22661,17.5610,26.0976,-34.0854,0.00,0.00,0.00,3,S01
8360,-14.37479,0.10295,1.03669,22.0732,19.1463,-31.7683,0.00,0.00,0.00,3,S01
8380,-11.42274,-0.74460,0.52912,23.1707,12.6220,-21.3415,0.00,0.00,0.00,3,S01
8400,-9.24162,-0.55545,1.07021,20.9756,13.7805,-10.5488,0.00,0.00,0.00,3,S01
8420,-7.49625,-0.38068,2.40378,16.8293,15.5488,-3.7195,0.00,0.00,0.00,3,S01
8440,-6.49068,0.86431,3.06937,18.4756,1.2805,-3.1098,0.00,0.00,0.00,3,S01
8460,-4.92487,0.41180,2.39181,25.7927,-26.9512,3.5976,0.00,0.00,0.00,3,S01
8480,-2.74136,0.22266,1.49877,28.9024,-49.0244,11.7073,0.00,0.00,0.00,3,S01
8500,-1.23780,0.30646,0.42138,30.0610,-60.7927,20.9756,0.00,0.00,0.00,3,S01
8520,-0.57700,-0.32322,-1.18513,32.0732,-75.0000,29.4512,0.00,0.00,0.00,3,S01
8540,-0.48842,-1.27850,-3.08373,22.9878,-93.2317,24.5732,0.00,0.00,0.00,3,S01
8560,-5.58088,-4.07014,-7.98227,-6.2195,-54.2683,-28.3537,0.00,0.00,0.00,3,S01
8580,-14.08509,0.47166,-8.41323,-19.1463,52.7439,-100.6098,0.00,0.00,0.00,3,S01
8600,-14.08509,0.47166,-8.41323,-19.1463,52.7439,-100.6098,0.00,0.00,0.00,3,S01
8620,-23.58049,7.70215,7.88171,-58.1098,152.4390,-114.8171,0.00,0.00,0.00,3,S01
8640,-20.98518,2.72221,3.45244,-64.9390,75.4878,-33.7805,0.00,0.00,0.00,3,S01
8660,-17.48964,-0.25139,0.99838,-64.4512,21.1585,-2.1951,0.00,0.00,0.00,3,S01
8680,-17.73864,-0.35674,2.43730,-63.1707,38.6585,9.0244,0.00,0.00,0.00,3,S01
8700,-16.47690,0.44772,2.11887,-43.2927,47.1951,27.3780,0.00,0.00,0.00,3,S01
8720,-13.70920,0.88585,0.99120,-22.2561,35.4268,48.8415,0.00,0.00,0.00,3,S01
8740,-10.45548,0.21308,0.29688,-7.8659,28.5366,63.7195,0.00,0.00,0.00,3,S01
8760,-8.10916,0.14605,0.34716,0.1829,29.5122,58.9634,0.00,0.00,0.00,3,S01
8780,-6.40449,0.79966,1.03908,5.6098,29.7561,42.5610,0.00,0.00,0.00,3,S01
8800,-4.89854,0.85473,1.77650,7.4390,21.0366,29.8171,0.00,0.00,0.00,3,S01
8820,-3.45244,-0.29209,2.09493,4.3902,5.5488,23.3537,0.00,0.00,0.00,3,S01
8840,-2.98796,-0.04310,1.82438,-2.2561,-14.5732,13.5976,0.00,0.00,0.00,3,S01
8860,-2.29604,-0.73023,1.01514,-6.7073,-32.7439,4.0244,0.00,0.00,0.00,3,S01
8880,-1.34554,-0.73023,0.00000,2.0732,-47.4390,-3.7195,0.00,0.00,0.00,3,S01
8900,-1.04387,-0.08140,-1.54187,15.7317,-66.0366,-10.5488,0.00,0.00,0.00,3,S01
8920,-2.84671,1.92015,-4.21140,18.9634,-85.0000,-11.5854,0.00,0.00,0.00,3,S01
8940,-9.79468,2.22421,-9.73722,11.5854,-62.1951,-9.2073,0.00,0.00,0.00,3,S01
8960,-20.65717,-1.46046,-4.54419,-12.9878,53.5976,-8.6585,0.00,0.00,0.00,3,S01
8980,-24.47592,-5.01106,7.87692,-27.8049,103.4756,-3.9634,0.00,0.00,0.00,3,S01
9000,-20.76970,-0.19872,0.38547,38.4146,8.4146,-8.2927,0.00,0.00,0.00,3,S01
9020,-16.61337,3.11486,-1.44131,48.9634,-13.1707,-8.2317,0.00,0.00,0.00,3,S01
9040,-14.14015,4.15873,-0.04070,20.6098,2.3171,-7.3780,0.00,0.00,0.00,3,S01
9060,-7.70694,-0.00718,-0.41420,0.6707,-8.4756,-9.8171,0.00,0.00,0.00,3,S01
9080,-3.55778,-1.65200,-0.16281,2.9878,-20.5488,-8.5366,0.00,0.00,0.00,3,S01
9100,-1.37188,-1.86987,-0.56982,10.0000,-26.4024,-10.4268,0.00,0.00,0.00,3,S01
9120,-2.79403,-1.33357,-1.82917,18.2927,-17.5610,-20.1829,0.00,0.00,0.00,3,S01
9140,-5.81312,-0.70629,-2.78685,21.0976,5.6707,-33.9024,0.00,0.00,0.00,3,S01
9160,-7.56807,-0.33279,-2.33435,18.4146,34.5122,-41.0366,0.00,0.00,0.00,3,S01
9180,-7.82665,-0.10774,6.27520,19.8171,59.2683,-37.3171,0.00,0.00,0.00,3,S01
9200,-7.30710,-0.15083,4.66630,34.3293,30.6098,-28.1707,0.00,0.00,0.00,3,S01
9220,-8.90882,1.58257,1.87705,41.5244,14.8780,-25.3049,0.00,0.00,0.00,3,S01
9240,-10.53928,1.58736,2.58095,21.3415,22.4390,-17.5000,0.00,0.00,0.00,3,S01
9260,-9.69173,0.72544,3.84748,6.6463,14.3293,-8.5366,0.00,0.00,0.00,3,S01
9280,-8.04691,0.87388,1.88424,-5.6707,-8.0488,-7.3780,0.00,0.00,0.00,3,S01
9300,-7.79073,0.91698,-0.90980,-20.1829,-15.5488,-11.8293,0.00,0.00,0.00,3,S01
9320,-8.71489,-0.78290,-3.16992,-23.7195,-14.6341,-19.6951,0.00,0.00,0.00,3,S01
9340,-11.04206,0.65841,-3.66073,-30.3659,-8.9024,-28.4146,0.00,0.00,0.00,3,S01
9360,-13.80497,1.83875,0.39504,-47.0122,20.0610,-22.5610,0.00,0.00,0.00,3,S01
9380,-15.34204,0.37110,-1.09894,-41.4634,36.2805,-7.8049,0.00,0.00,0.00,3,S01
9400,-17.22149,0.75417,0.41420,-45.1220,50.6707,-6.2195,0.00,0.00,0.00,3,S01
9420,-17.59738,1.17316,0.80445,-47.2561,50.8537,1.3415,0.00,0.00,0.00,3,S01
9440,-16.24226,0.60573,0.36392,-44.8780,39.2073,15.9146,0.00,0.00,0.00,3,S01
9460,-14.16170,0.29688,0.60094,-38.5366,27.1951,27.9268,0.00,0.00,0.00,3,S01
9480,-11.79144,0.90022,0.37589,-28.7195,17.0122,33.5366,0.00,0.00,0.00,3,S01
9500,-9.66060,1.73340,0.39983,-22.2561,12.1951,32.9268,0.00,0.00,0.00,3,S01
9520,-7.47470,1.73819,0.31603,-16.5244,6.9512,35.7927,0.00,0.00,0.00,3,S01
9540,-5.19542,0.05507,0.51236,-15.3659,-0.9756,45.8537,0.00,0.00,0.00,3,S01
9560,-3.16035,-1.81959,1.56341,-21.2195,-6.4024,47.8049,0.00,0.00,0.00,3,S01
9580,-2.39181,-1.17795,2.46603,-25.8537,-14.3293,30.1829,0.00,0.00,0.00,3,S01
9600,-0.92895,-0.64883,0.16281,-8.1707,-61.0976,3.0488,0.00,0.00,0.00,3,S01
9620,-0.92895,-0.64883,0.16281,-8.1707,-61.0976,3.0488,0.00,0.00,0.00,3,S01
9640,-0.40701,-0.54348,-1.30005,5.8537,-71.8293,-0.9146,0.00,0.00,0.00,3,S01
9660,-0.73263,1.69031,-2.87304,13.3537,-70.8537,-5.0000,0.00,0.00,0.00,3,S01
9680,-5.14753,1.41737,-6.81390,11.7683,-53.9634,-9.5732,0.00,0.00,0.00,3,S01
9700,-13.16093,-2.35589,-9.10515,4.8171,8.6585,-29.5122,0.00,0.00,0.00,3,S01
9720,-19.36191,-1.86508,7.06768,-8.4146,86.5244,-46.0976,0.00,0.00,0.00,3,S01
9740,-19.76174,-0.04070,0.78290,27.0122,26.7683,-31.8293,0.00,0.00,0.00,3,S01
9760,-19.11052,0.97923,0.22745,49.3293,12.3171,-25.3049,0.00,0.00,0.00,3,S01
9780,-18.55506,0.72305,1.71425,44.3902,20.7317,-25.3659,0.00,0.00,0.00,3,S01
9800,-16.87433,1.21865,0.33758,42.1341,11.4634,-28.4756,0.00,0.00,0.00,3,S01
9820,-14.41788,1.60651,-0.24421,35.4268,5.6098,-25.1220,0.00,0.00,0.00,3,S01
9840,-11.54005,0.89783,-0.36152,27.5610,1.3415,-12.7439,0.00,0.00,0.00,3,S01
9860,-8.88728,0.45490,0.16999,18.0488,1.8293,1.0976,0.00,0.00,0.00,3,S01
9880,-6.41646,-0.11971,1.10852,9.3902,3.8415,11.3415,0.00,0.00,0.00,3,S01
9900,-4.92727,-0.06225,1.82917,5.0610,-4.6341,10.9756,0.00,0.00,0.00,3,S01
9920,-3.65355,-0.50996,1.93451,9.0244,-26.0366,3.6585,0.00,0.00,0.00,3,S01
9940,-2.05901,-0.28730,1.94409,18.5976,-41.3415,-3.6585,0.00,0.00,0.00,3,S01
9960,-0.95289,0.95529,1.06781,25.7927,-52.4390,-3.0488,0.00,0.00,0.00,3,S01
9980,-0.80924,0.72065,-0.96965,20.9146,-73.2317,8.4146,0.00,0.00,0.00,3,S01
10000,-1.12527,0.07183,-3.22738,2.5610,-89.0244,14.6341,0.00,0.00,0.00,3,S01
10020,-3.63919,-4.03184,-5.76284,-13.5366,-72.8049,5.9756,0.00,0.00,0.00,3,S01
10040,-10.23042,-5.66468,-9.51456,-8.9024,-7.6220,-44.5122,0.00,0.00,0.00,3,S01
10060,-21.99074,8.65983,-0.13168,-42.9268,109.1463,-114.6341,0.00,0.00,0.00,3,S01
10080,-23.30995,6.40688,3.45244,-72.1951,106.5244,-55.3659,0.00,0.00,0.00,3,S01
10100,-19.27332,1.21386,-0.91219,-81.8902,28.0488,5.0000,0.00,0.00,0.00,3,S01
10120,-17.20952,-1.62327,-0.87388,-90.5488,17.5000,16.8293,0.00,0.00,0.00,3,S01
10140,-16.38592,-0.86670,0.78530,-76.4634,38.3537,23.8415,0.00,0.00,0.00,3,S01
10160,-14.76504,0.16281,0.00958,-61.4024,32.5610,37.0122,0.00,0.00,0.00,3,S01
10180,-12.23676,0.75896,0.34477,-50.9756,23.4756,47.5000,0.00,0.00,0.00,3,S01
10200,-9.56244,0.99599,0.76854,-36.8902,15.1829,51.8902,0.00,0.00,0.00,3,S01
10220,-6.94797,0.59616,1.13006,-24.9390,4.3902,54.1463,0.00,0.00,0.00,3,S01
10240,-4.48673,-0.36152,1.89860,-19.3902,-6.1585,54.5732,0.00,0.00,0.00,3,S01
10260,-2.74615,-0.62010,2.05901,-13.9634,-15.6707,51.4634,0.00,0.00,0.00,3,S01
10280,-1.66158,-0.81163,1.31681,-15.9756,-32.2561,27.0122,0.00,0.00,0.00,3,S01
10300,-1.04148,-1.48441,0.08380,-1.5244,-44.8780,16.2195,0.00,0.00,0.00,3,S01
10320,-0.38547,-0.74939,-1.14682,13.3537,-55.7927,3.4756,0.00,0.00,0.00,3,S01
10340,-1.47004,1.16358,-2.82995,15.9146,-68.7195,-5.4878,0.00,0.00,0.00,3,S01
10360,-6.80911,2.17154,-7.22570,13.7805,-60.7927,-7.8659,0.00,0.00,0.00,3,S01
10380,-15.20079,-1.81720,-10.05804,-1.4024,3.2317,-8.3537,0.00,0.00,0.00,3,S01
10400,-19.50796,-5.59046,10.20648,-7.8659,72.6829,-15.8537,0.00,0.00,0.00,3,S01
10420,-19.28051,-2.52588,2.30562,39.6341,-2.3780,-30.7317,0.00,0.00,0.00,3,S01
10440,-18.58140,1.94170,-1.37427,80.2439,-12.2561,-36.5244,0.00,0.00,0.00,3,S01
10460,-18.06425,1.87466,1.44610,61.4634,14.9390,-26.2805,0.00,0.00,0.00,3,S01
10480,-16.59421,1.27132,0.87867,50.5488,14.0244,-23.8415,0.00,0.00,0.00,3,S01
10500,-14.36282,0.73741,0.34716,47.0122,7.2561,-24.8171,0.00,0.00,0.00,3,S01
10520,-11.52808,-0.89783,0.21787,44.5122,-0.7927,-20.0000,0.00,0.00,0.00,3,S01
10540,-8.98783,-1.21386,0.68714,43.3537,0.4268,-15.6098,0.00,0.00,0.00,3,S01
10560,-6.95755,-0.60573,1.11330,45.7927,5.9146,-10.3659,0.00,0.00,0.00,3,S01
10580,-5.40132,0.40462,0.92177,43.0488,-0.9756,-4.2073,0.00,0.00,0.00,3,S01
10600,-4.10606,0.26097,1.57060,34.7561,-13.5366,-3.2927,0.00,0.00,0.00,3,S01
10620,-2.84671,0.33040,2.07817,31.7683,-31.9512,-10.1220,0.00,0.00,0.00,3,S01
10640,-1.69270,1.36948,1.73340,33.1098,-47.0122,-13.3537,0.00,0.00,0.00,3,S01
10660,-1.05824,-1.10852,-1.79805,38.1707,-94.4512,-0.2439,0.00,0.00,0.00,3,S01
10680,-1.05824,-1.10852,-1.79805,38.1707,-94.4512,-0.2439,0.00,0.00,0.00,3,S01
10700,-3.37104,-4.26168,-5.14753,29.5122,-96.7073,-12.2561,0.00,0.00,0.00,3,S01
10720,-9.65582,-3.37343,-9.20092,15.7317,-41.6463,-62.6220,0.00,0.00,0.00,3,S01
10740,-20.21664,7.87453,-3.98395,-25.1220,86.6463,-125.3049,0.00,0.00,0.00,3,S01
10760,-22.68985,7.52976,6.78038,-62.8049,125.2439,-71.5854,0.00,0.00,0.00,3,S01
10780,-19.08179,2.05183,1.23780,-84.5122,31.2195,-0.7927,0.00,0.00,0.00,3,S01
10800,-17.17122,-0.82361,-1.39582,-91.0976,9.2683,18.2317,0.00,0.00,0.00,3,S01
10820,-16.64688,-0.98402,1.27850,-77.5610,40.0000,27.3780,0.00,0.00,0.00,3,S01
10840,-14.66688,-0.34477,1.26414,-65.9146,36.2195,37.4390,0.00,0.00,0.00,3,S01
10860,-11.84412,0.48123,0.34716,-52.3781,17.6829,45.0000,0.00,0.00,0.00,3,S01
10880,-9.44273,0.63207,0.03591,-41.4024,13.7195,47.9878,0.00,0.00,0.00,3,S01
10900,-8.32703,1.17076,-0.23703,-33.1098,17.2561,51.5244,0.00,0.00,0.00,3,S01
10920,-5.79397,-0.52433,1.39582,-26.8902,16.1585,60.1220,0.00,0.00,0.00,3,S01
10940,-4.22337,-0.90261,1.84832,-27.4390,-2.9268,51.6463,0.00,0.00,0.00,3,S01
10960,-3.23935,-0.67038,1.38145,-28.1098,-21.6463,34.1463,0.00,0.00,0.00,3,S01
10980,-2.53546,-0.99599,0.68714,-24.3293,-38.1098,17.3171,0.00,0.00,0.00,3,S01
11000,-1.43652,-1.30723,-0.30646,-9.3902,-52.5000,7.1951,0.00,0.00,0.00,3,S01
11020,-1.13246,0.00958,-1.47722,2.3780,-62.8049,-0.5488,0.00,0.00,0.00,3,S01
11040,-1.87466,0.83079,-2.77727,1.2805,-71.8902,0.0000,0.00,0.00,0.00,3,S01
11060,-4.36463,0.47645,-5.57131,1.8293,-66.5244,8.2927,0.00,0.00,0.00,3,S01
11080,-10.32140,-2.50912,-8.34619,-0.7927,-4.0244,6.0366,0.00,0.00,0.00,3,S01
11100,-16.55112,-1.62806,8.16902,-11.5244,97.8049,-5.0610,0.00,0.00,0.00,3,S01
11120,-17.02756,-0.87628,3.54102,8.1707,43.4756,-7.1951,0.00,0.00,0.00,3,S01
11140,-16.36916,2.42533,0.36871,35.0000,11.1585,-19.0854,0.00,0.00,0.00,3,S01
11160,-17.91581,2.02789,3.78763,18.6585,34.4512,-27.3171,0.00,0.00,0.00,3,S01
11180,-18.22706,0.51954,3.54342,14.1463,40.7317,-34.6951,0.00,0.00,0.00,3,S01
11200,-16.28297,0.03831,2.40138,18.8415,33.5976,-40.4268,0.00,0.00,0.00,3,S01
11220,-12.96939,-0.01676,1.15401,20.3049,24.1463,-36.0976,0.00,0.00,0.00,3,S01
11240,-10.03410,-0.51954,0.14365,24.4512,20.9756,-27.0122,0.00,0.00,0.00,3,S01
11260,-8.20253,-1.05345,-0.00958,32.5000,34.0244,-15.8537,0.00,0.00,0.00,3,S01
11280,-7.73806,-0.22984,2.07098,25.1829,52.8049,-9.2683,0.00,0.00,0.00,3,S01
11300,-6.58645,0.58658,3.07416,21.0976,43.5366,-5.1829,0.00,0.00,0.00,3,S01
11320,-4.87938,0.50039,2.23140,26.0366,6.6463,0.7317,0.00,0.00,0.00,3,S01
11340,-2.73418,-0.21069,1.38145,28.1098,-22.7439,7.4390,0.00,0.00,0.00,3,S01
11360,-1.32878,0.26097,0.25379,33.8415,-36.5854,9.3293,0.00,0.00,0.00,3,S01
11380,-1.23541,0.24181,-1.35991,35.1829,-50.5488,11.0366,0.00,0.00,0.00,3,S01
11400,-1.50835,0.00718,-2.91374,23.4146,-64.6951,9.5732,0.00,0.00,0.00,3,S01
11420,-3.99832,-3.40934,-5.48990,3.5976,-63.9024,-0.9756,0.00,0.00,0.00,3,S01
11440,-10.02213,-2.77488,-8.57364,3.8415,-19.0854,-50.5488,0.00,0.00,0.00,3,S01
11460,-18.56225,8.67419,0.47884,-26.4634,68.6585,-101.0366,0.00,0.00,0.00,3,S01
11480,-19.11770,5.16190,3.05740,-68.6585,58.5366,-34.2073,0.00,0.00,0.00,3,S01
11500,-17.14248,0.10534,-0.08140,-85.3659,17.5610,11.1585,0.00,0.00,0.00,3,S01
11520,-16.51520,0.54348,0.77093,-75.0000,33.4756,19.0854,0.00,0.00,0.00,3,S01
11540,-14.97573,0.45011,0.15562,-63.0488,25.6707,29.0244,0.00,0.00,0.00,3,S01
11560,-12.49534,0.35434,0.71347,-50.4878,18.7195,35.9756,0.00,0.00,0.00,3,S01
11580,-10.56801,1.26414,0.82121,-39.6951,15.3049,35.4878,0.00,0.00,0.00,3,S01
11600,-8.60237,1.45567,0.89783,-33.1707,10.3049,37.0122,0.00,0.00,0.00,3,S01
11620,-6.52181,0.60334,1.33118,-30.5488,1.8293,39.3293,0.00,0.00,0.00,3,S01
11640,-4.52744,-0.67277,1.69031,-24.2073,-8.2317,40.0610,0.00,0.00,0.00,3,S01
11660,-3.04782,-1.17076,1.38385,-17.0732,-16.6463,36.1585,0.00,0.00,0.00,3,S01
11680,-2.53785,-0.77812,0.74939,-13.7195,-26.0366,22.8049,0.00,0.00,0.00,3,S01
11700,-1.02472,-0.73263,-1.14203,7.3171,-53.9634,0.4268,0.00,0.00,0.00,3,S01
11720,-1.02472,-0.73263,-1.14203,7.3171,-53.9634,0.4268,0.00,0.00,0.00,3,S01
11740,-1.98000,2.28167,-2.63123,10.3049,-63.9024,-6.7073,0.00,0.00,0.00,3,S01
11760,-6.46195,3.39977,-6.51702,-0.1829,-60.8537,0.0610,0.00,0.00,0.00,3,S01
11780,-13.74032,-1.05584,-9.32781,-18.7195,-7.3780,6.6463,0.00,0.00,0.00,3,S01
11800,-18.00919,-5.52103,8.94713,-21.0976,73.4146,-0.9146,0.00,0.00,0.00,3,S01
11820,-18.78491,-3.09570,2.61447,17.7439,12.0732,-22.2561,0.00,0.00,0.00,3,S01
11840,-18.39226,2.51391,-2.55940,63.3537,-8.3537,-32.0732,0.00,0.00,0.00,3,S01
11860,-17.19995,2.79643,-0.31843,43.2317,15.1220,-22.8049,0.00,0.00,0.00,3,S01
11880,-15.25825,1.60172,0.37110,23.1098,17.6829,-19.7561,0.00,0.00,0.00,3,S01
11900,-12.83053,0.58658,-0.11253,19.5122,10.4268,-24.2683,0.00,0.00,0.00,3,S01
11920,-10.47942,-0.60573,0.00958,21.5854,5.4878,-24.6951,0.00,0.00,0.00,3,S01
11940,-8.42759,-0.67995,0.61052,22.6829,8.2927,-19.0244,0.00,0.00,0.00,3,S01
11960,-6.90967,-0.34955,0.98881,22.6829,16.8293,-10.0610,0.00,0.00,0.00,3,S01
11980,-6.00945,0.29928,1.69988,19.8780,15.7927,-6.4024,0.00,0.00,0.00,3,S01
12000,-4.63278,0.14605,2.17154,18.4756,-0.2439,-4.5732,0.00,0.00,0.00,3,S01
12020,-3.31358,-0.34955,1.54426,23.3537,-17.6829,-2.2561,0.00,0.00,0.00,3,S01
12040,-2.61926,0.16520,0.74699,23.7805,-24.3293,-1.2805,0.00,0.00,0.00,3,S01
12060,-2.40857,0.00479,-0.50518,17.0122,-32.1341,1.0976,0.00,0.00,0.00,3,S01
12080,-1.88184,-1.07739,-1.73101,15.3049,-43.1707,1.3415,0.00,0.00,0.00,3,S01
12100,-2.73178,-2.28407,-2.97839,8.2317,-50.4878,-11.0366,0.00,0.00,0.00,3,S01
12120,-7.64947,-4.15633,-6.00705,0.5488,-37.5610,-45.8537,0.00,0.00,0.00,3,S01
12140,-16.63491,6.19141,-2.58813,-14.7561,21.5854,-104.5732,0.00,0.00,0.00,3,S01
12160,-19.67315,7.00783,2.86825,-47.6829,31.0976,-61.6463,0.00,0.00,0.00,3,S01
12180,-16.97489,2.08296,0.28730,-68.8415,-13.5366,0.6098,0.00,0.00,0.00,3,S01
12200,-17.11615,0.21548,0.15562,-82.3781,-7.6220,5.9756,0.00,0.00,0.00,3,S01
12220,-17.80089,-0.04788,1.21625,-75.2439,19.8171,10.3049,0.00,0.00,0.00,3,S01
12240,-16.13453,0.38786,0.90261,-60.0000,21.4024,25.5488,0.00,0.00,0.00,3,S01
12260,-13.01967,0.33040,0.36631,-48.9634,11.2195,45.7927,0.00,0.00,0.00,3,S01
12280,-10.27352,0.09816,0.31603,-40.9756,12.1341,58.5366,0.00,0.00,0.00,3,S01
12300,-8.95671,0.32561,0.99120,-30.9146,18.9024,56.7683,0.00,0.00,0.00,3,S01
12320,-7.42442,-0.03831,1.73101,-18.2927,16.6463,51.0976,0.00,0.00,0.00,3,S01
12340,-5.67905,-0.40941,2.14042,-7.6829,3.7805,41.7073,0.00,0.00,0.00,3,S01
12360,-3.82115,-0.10295,1.64242,-1.8902,-13.3537,33.9634,0.00,0.00,0.00,3,S01
12380,-2.41336,-0.08859,0.79966,-6.7683,-30.7927,25.0610,0.00,0.00,0.00,3,S01
12400,-1.53708,-0.72544,-0.17478,-6.7683,-47.5000,12.3171,0.00,0.00,0.00,3,S01
12420,-0.94092,-0.35434,-1.28569,2.8049,-54.7561,0.1220,0.00,0.00,0.00,3,S01
12440,-1.75016,1.31681,-2.50194,4.7561,-56.9512,-7.1951,0.00,0.00,0.00,3,S01
12460,-5.14275,2.24576,-5.16669,-1.5244,-55.3049,-1.7683,0.00,0.00,0.00,3,S01
12480,-11.70525,-0.94332,-8.37492,-9.6951,-14.3293,2.9268,0.00,0.00,0.00,3,S01
12500,-16.81927,-3.80199,7.36217,-13.3537,69.5122,-2.7439,0.00,0.00,0.00,3,S01
12520,-17.76977,-3.14359,3.49075,2.7439,20.4268,-17.0732,0.00,0.00,0.00,3,S01
12540,-16.83842,1.16598,-1.86269,47.0122,-11.8902,-24.5732,0.00,0.00,0.00,3,S01
12560,-16.26621,1.12288,-0.07661,31.7073,9.5122,-20.1220,0.00,0.00,0.00,3,S01
12580,-15.61020,0.91459,1.58496,16.0366,13.1098,-27.2561,0.00,0.00,0.00,3,S01
12600,-13.36683,-0.14126,0.84994,15.0610,2.2561,-34.8780,0.00,0.00,0.00,3,S01
12620,-10.18493,-1.72383,0.41420,19.8780,-2.0122,-36.2805,0.00,0.00,0.00,3,S01
12640,-8.47069,-2.03747,0.39025,25.4268,5.7927,-34.5732,0.00,0.00,0.00,3,S01
12660,-7.55610,-1.42694,0.72305,36.5244,21.0976,-28.9634,0.00,0.00,0.00,3,S01
12680,-7.00543,-0.56982,1.77410,41.3415,29.8780,-21.8293,0.00,0.00,0.00,3,S01
12700,-6.37815,0.45250,2.90896,43.1098,24.2683,-17.6829,0.00,0.00,0.00,3,S01
12720,-3.94086,1.02951,2.66235,42.6829,-15.3659,-9.2683,0.00,0.00,0.00,3,S01
12740,-3.28006,0.89064,0.98162,47.6220,-30.6098,-6.0366,0.00,0.00,0.00,3,S01
12760,-3.20584,-0.55067,-3.53624,44.0244,-51.7073,-5.3659,0.00,0.00,0.00,3,S01
12780,-5.82988,-2.38702,-5.11880,15.3659,-30.3659,-19.0854,0.00,0.00,0.00,3,S01
12800,-5.82988,-2.38702,-5.11880,15.3659,-30.3659,-19.0854,0.00,0.00,0.00,3,S01
12820,-13.26148,2.26491,-3.05740,-2.9268,29.3902,-55.4878,0.00,0.00,0.00,3,S01
12840,-18.76336,4.99191,2.77727,-33.1707,69.9390,-60.7927,0.00,0.00,0.00,3,S01
12860,-17.42261,2.15239,0.36152,-38.1707,22.0732,-18.9024,0.00,0.00,0.00,3,S01
12880,-15.13135,-0.99599,-0.22745,-52.1341,-2.1951,-0.9146,0.00,0.00,0.00,3,S01
12900,-15.25585,-1.09415,0.87388,-52.6220,13.7195,9.3293,0.00,0.00,0.00,3,S01
12920,-15.11699,-0.23703,0.64165,-42.5610,33.1098,23.8415,0.00,0.00,0.00,3,S01
12940,-13.16332,0.61292,0.34477,-33.2317,33.5366,35.2439,0.00,0.00,0.00,3,S01
12960,-10.41238,0.68474,-0.09816,-23.2317,23.7805,46.3415,0.00,0.00,0.00,3,S01
12980,-7.42921,-0.26576,-0.54588,-8.3537,19.8780,56.7073,0.00,0.00,0.00,3,S01
13000,-6.41885,-0.33040,0.49081,-5.2439,26.4634,49.2073,0.00,0.00,0.00,3,S01
13020,-7.24007,0.61770,2.15718,-8.6585,31.3415,30.2439,0.00,0.00,0.00,3,S01
13040,-7.70215,0.86431,2.20267,-10.3049,21.0366,17.8659,0.00,0.00,0.00,3,S01
13060,-7.09402,0.73741,2.13323,-13.4756,7.6829,14.0244,0.00,0.00,0.00,3,S01
13080,-5.88974,0.49560,2.34632,-19.4512,-6.5854,15.1829,0.00,0.00,0.00,3,S01
13100,-4.66391,-0.27533,2.47800,-25.7927,-18.9634,15.1829,0.00,0.00,0.00,3,S01
13120,-3.97198,-1.11330,1.61848,-21.8293,-25.4268,11.2195,0.00,0.00,0.00,3,S01
13140,-4.21858,-0.77093,0.82839,-8.2317,-26.9512,3.5976,0.00,0.00,0.00,3,S01
13160,-4.84347,1.31921,-0.79966,2.6220,-28.1707,2.2561,0.00,0.00,0.00,3,S01
13180,-7.25204,2.83473,-4.40294,3.1707,-27.9268,10.1220,0.00,0.00,0.00,3,S01
13200,-11.35809,0.75657,-7.44118,-6.4634,-9.2073,15.3049,0.00,0.00,0.00,3,S01
13220,-13.97496,-1.79326,5.49948,-21.1585,26.7073,3.2927,0.00,0.00,0.00,3,S01
13240,-14.84645,-1.45089,0.29688,-2.4390,-9.2683,-13.2927,0.00,0.00,0.00,3,S01
13260,-16.25663,0.99120,-1.60412,24.3293,3.2317,-15.4878,0.00,0.00,0.00,3,S01
13280,-16.69238,0.29449,1.11330,11.4024,24.8171,-10.7927,0.00,0.00,0.00,3,S01
13300,-15.32050,-0.02155,0.03352,9.5732,13.2317,-18.0488,0.00,0.00,0.00,3,S01
13320,-13.29021,-0.28012,-0.17238,10.1220,9.5122,-24.7561,0.00,0.00,0.00,3,S01
13340,-11.15459,-1.30005,0.02873,11.4634,7.9878,-27.3171,0.00,0.00,0.00,3,S01
13360,-9.83538,-1.17795,0.42856,16.6463,12.1341,-32.0732,0.00,0.00,0.00,3,S01
13380,-8.78911,-0.84755,0.70390,20.7927,19.3902,-31.2805,0.00,0.00,0.00,3,S01
13400,-7.93199,0.14844,1.51314,20.7317,23.8415,-26.3415,0.00,0.00,0.00,3,S01
13420,-7.02219,1.08936,2.56419,15.6707,16.3415,-16.8293,0.00,0.00,0.00,3,S01
13440,-5.34386,0.82361,2.98557,11.9512,-8.5976,-3.5976,0.00,0.00,0.00,3,S01
13460,-3.79242,0.93613,2.98557,5.4878,-34.6951,3.6585,0.00,0.00,0.00,3,S01
13480,-2.56180,1.00556,2.20985,-0.3049,-45.1829,7.6829,0.00,0.00,0.00,3,S01
13500,-1.93691,0.56503,0.81403,-2.3171,-52.3781,14.4512,0.00,0.00,0.00,3,S01
13520,-1.24020,-0.72784,-0.97444,-2.9268,-66.3415,25.3659,0.00,0.00,0.00,3,S01
13540,-2.28646,-2.57377,-3.29682,-18.5366,-74.8781,22.3780,0.00,0.00,0.00,3,S01
13560,-8.40844,-5.83946,-7.62314,-21.7073,-51.2195,-14.3293,0.00,0.00,0.00,3,S01
13580,-17.20713,2.97599,-6.12916,-25.6707,37.6829,-88.9634,0.00,0.00,0.00,3,S01
13600,-21.73456,6.76601,6.74686,-60.5488,83.0488,-73.8415,0.00,0.00,0.00,3,S01
13620,-18.03552,1.08697,0.76614,-59.9390,0.0000,-6.9512,0.00,0.00,0.00,3,S01
13640,-16.15847,-2.08296,-1.27850,-61.9512,-13.1098,7.5000,0.00,0.00,0.00,3,S01
13660,-16.64688,-1.51553,1.75495,-49.2683,26.0366,11.2195,0.00,0.00,0.00,3,S01
13680,-14.99728,-0.51236,0.64165,-23.1098,28.8415,23.4756,0.00,0.00,0.00,3,S01
13700,-12.47618,0.48602,0.28491,-10.7317,21.1585,35.4878,0.00,0.00,0.00,3,S01
13720,-10.34295,1.33357,-0.12929,-4.3902,19.7561,43.1707,0.00,0.00,0.00,3,S01
13740,-8.27197,1.24259,-0.00958,-3.4756,20.3659,46.2195,0.00,0.00,0.00,3,S01
13760,-7.11796,1.87705,0.42617,-3.7195,19.0854,45.6707,0.00,0.00,0.00,3,S01
13780,-4.17788,-0.70150,2.09493,-0.8537,15.3659,54.3902,0.00,0.00,0.00,3,S01
13800,-2.42772,-0.57461,1.52032,-5.6707,-15.4268,35.7927,0.00,0.00,0.00,3,S01
13820,-1.80523,-0.85473,0.94571,-6.0366,-30.7927,20.2439,0.00,0.00,0.00,3,S01
13840,-1.80523,-0.85473,0.94571,-6.0366,-30.7927,20.2439,0.00,0.00,0.00,3,S01
13860,-1.35512,-0.39744,-0.06704,3.9024,-44.2073,9.4512,0.00,0.00,0.00,3,S01
13880,-1.86269,0.82361,-1.78607,12.6829,-54.5122,2.1951,0.00,0.00,0.00,3,S01
13900,-5.45878,2.24576,-5.47315,12.9878,-60.6098,-0.3049,0.00,0.00,0.00,3,S01
13920,-13.25909,-0.51715,-10.04368,0.3049,-27.7439,-1.4634,0.00,0.00,0.00,3,S01
13940,-19.46486,-3.93367,3.42610,19.5732,24.3902,-15.8537,0.00,0.00,0.00,3,S01
13960,-18.53352,1.19471,-1.75256,64.7561,-6.7683,-16.9512,0.00,0.00,0.00,3,S01
13980,-17.40106,1.97522,0.18196,42.3171,12.8049,-5.9756,0.00,0.00,0.00,3,S01
14000,-16.13213,0.85952,1.17795,20.4878,17.6829,-10.0000,0.00,0.00,0.00,3,S01
14020,-13.64934,-0.22745,0.28730,18.4756,10.1829,-24.0244,0.00,0.00,0.00,3,S01
14040,-10.45787,-0.69911,-0.40223,23.9634,2.0122,-33.1707,0.00,0.00,0.00,3,S01
14060,-7.99424,-0.89783,-0.41659,24.3293,1.5854,-31.4024,0.00,0.00,0.00,3,S01
14080,-7.30950,-1.08457,1.57060,18.5976,21.7683,-26.4024,0.00,0.00,0.00,3,S01
14100,-6.73968,-1.04866,2.51391,22.3171,32.6829,-22.9268,0.00,0.00,0.00,3,S01
14120,-5.73172,-0.37350,2.73657,32.9268,22.1951,-18.6585,0.00,0.00,0.00,3,S01
14140,-4.38857,-0.28252,2.53307,42.0732,0.1829,-10.6098,0.00,0.00,0.00,3,S01
14160,-3.61046,0.52672,2.50433,40.2439,-17.0122,-6.0366,0.00,0.00,0.00,3,S01
14180,-2.68869,1.28808,1.79326,31.4024,-25.9756,-1.0976,0.00,0.00,0.00,3,S01
14200,-2.30083,-0.09816,0.01437,29.7561,-37.8659,5.9146,0.00,0.00,0.00,3,S01
14220,-1.95127,-0.88585,-1.74058,32.9268,-47.3781,7.5610,0.00,0.00,0.00,3,S01
14240,-2.58813,-0.77093,-2.67193,19.6951,-42.7439,-2.4390,0.00,0.00,0.00,3,S01
14260,-7.06050,-3.41413,-5.13317,3.9024,-24.2073,-26.3415,0.00,0.00,0.00,3,S01
14280,-16.55830,2.95684,-3.07176,5.7927,26.4024,-79.5732,0.00,0.00,0.00,3,S01
14300,-20.22382,5.95677,4.09887,-12.5610,38.4756,-64.5732,0.00,0.00,0.00,3,S01
14320,-16.38113,2.05183,0.27294,-29.5122,-30.3659,1.2805,0.00,0.00,0.00,3,S01
14340,-14.84645,-1.15879,-0.38786,-46.6463,-24.8171,19.7561,0.00,0.00,0.00,3,S01
14360,-17.18079,-0.74460,1.64721,-43.7805,25.5488,11.7073,0.00,0.00,0.00,3,S01
14380,-16.88152,0.80206,1.56581,-29.6951,41.5244,11.3415,0.00,0.00,0.00,3,S01
14400,-14.65970,1.54187,0.77572,-28.0488,30.4268,24.0244,0.00,0.00,0.00,3,S01
14420,-11.88482,1.21386,0.16520,-26.4634,23.9634,41.6463,0.00,0.00,0.00,3,S01
14440,-9.22246,0.10534,0.05746,-22.1951,23.5366,51.4634,0.00,0.00,0.00,3,S01
14460,-7.10599,-0.54827,0.72784,-15.2439,19.5732,47.6829,0.00,0.00,0.00,3,S01
14480,-5.64553,0.04310,1.85072,-5.1829,11.8293,36.3415,0.00,0.00,0.00,3,S01
14500,-4.27365,-0.12210,2.06380,5.3049,0.7317,32.1951,0.00,0.00,0.00,3,S01
14520,-3.27766,-0.09098,2.02310,6.2805,-8.4146,29.2073,0.00,0.00,0.00,3,S01
14540,-3.17471,0.36871,2.06141,-1.7073,-20.6098,17.4390,0.00,0.00,0.00,3,S01
14560,-2.82995,0.01676,1.47962,1.3415,-36.4634,7.0122,0.00,0.00,0.00,3,S01
14580,-2.46603,0.40941,0.00479,15.9756,-47.0122,1.6463,0.00,0.00,0.00,3,S01
14600,-2.71263,0.71347,-1.83156,25.4878,-58.8415,-0.9146,0.00,0.00,0.00,3,S01
14620,-6.47632,2.13563,-5.81791,26.5244,-67.5610,-3.6585,0.00,0.00,0.00,3,S01
14640,-14.06115,0.21069,-10.54167,14.5732,-26.6463,-4.3902,0.00,0.00,0.00,3,S01
14660,-18.68674,-3.96001,5.83706,3.9634,74.5732,2.9878,0.00,0.00,0.00,3,S01
14680,-18.74899,-3.92170,3.97437,13.9024,35.7317,-5.0000,0.00,0.00,0.00,3,S01
14700,-16.80730,1.86508,-2.03507,69.2683,-10.9146,-11.0366,0.00,0.00,0.00,3,S01
14720,-15.72033,3.04542,-0.57940,43.7805,7.9878,-9.2683,0.00,0.00,0.00,3,S01
14740,-14.46816,2.51870,0.61292,11.5244,19.5732,-18.4146,0.00,0.00,0.00,3,S01
14760,-12.46900,1.38624,0.36631,-5.0610,13.9634,-36.1585,0.00,0.00,0.00,3,S01
14780,-9.38288,0.16759,0.08140,-5.1220,7.0122,-40.1829,0.00,0.00,0.00,3,S01
14800,-6.10043,-1.57299,-0.16520,0.0000,1.2805,-30.9756,0.00,0.00,0.00,3,S01
14820,-4.53701,-2.98796,-0.18435,4.8171,8.9024,-23.8415,0.00,0.00,0.00,3,S01
14840,-5.56412,-2.26970,0.42138,15.6098,29.6341,-26.8902,0.00,0.00,0.00,3,S01
14860,-8.14268,0.56982,3.23696,24.5732,24.0244,-25.4878,0.00,0.00,0.00,3,S01
14880,-7.57765,1.19710,2.41575,20.7927,-7.6220,-20.6707,0.00,0.00,0.00,3,S01
14900,-7.57765,1.19710,2.41575,20.7927,-7.6220,-20.6707,0.00,0.00,0.00,3,S01
14920,-6.52899,1.81959,0.69671,17.1951,-24.0244,-16.5244,0.00,0.00,0.00,3,S01
14940,-6.35182,1.25935,1.01754,6.1585,-17.0732,-10.0610,0.00,0.00,0.00,3,S01
14960,-6.75165,-0.25857,2.87304,-6.8902,-10.3049,-5.7927,0.00,0.00,0.00,3,S01
14980,-6.27999,-0.98162,1.51792,-8.5366,-18.5976,-10.3659,0.00,0.00,0.00,3,S01
15000,-5.56891,-0.87149,-0.26097,-8.6585,-24.3902,-18.4146,0.00,0.00,0.00,3,S01
15020,-7.02938,-1.16358,-2.56658,-9.8780,-25.6707,-28.9634,0.00,0.00,0.00,3,S01
15040,-10.18493,0.81403,-4.48434,-11.5854,-11.1585,-45.0610,0.00,0.00,0.00,3,S01
15060,-14.74589,3.99113,1.25217,-23.9634,19.6951,-41.7683,0.00,0.00,0.00,3,S01
15080,-15.61020,0.73502,2.11408,-30.8537,7.4390,-16.2195,0.00,0.00,0.00,3,S01
15100,-15.67005,0.46208,0.52912,-23.3537,-3.1707,-10.1829,0.00,0.00,0.00,3,S01
15120,-16.25184,0.64165,0.39983,-30.3049,11.8902,-0.1220,0.00,0.00,0.00,3,S01
15140,-15.64132,0.61770,0.28730,-29.5122,25.4878,16.0976,0.00,0.00,0.00,3,S01
15160,-13.84327,0.70629,0.33758,-25.4268,29.9390,30.4268,0.00,0.00,0.00,3,S01
15180,-10.51055,1.18034,0.21548,-25.4268,31.6463,41.2805,0.00,0.00,0.00,3,S01
15200,-8.71250,0.76375,0.28730,-21.2805,26.6463,38.5366,0.00,0.00,0.00,3,S01
15220,-7.01980,0.20111,1.08936,-16.8902,20.6098,35.9756,0.00,0.00,0.00,3,S01
15240,-5.42766,-0.50757,2.07577,-12.9268,13.8415,35.6098,0.00,0.00,0.00,3,S01
15260,-3.99832,-0.60094,2.62165,-13.4756,1.9512,32.1341,0.00,0.00,0.00,3,S01
15280,-3.49075,0.17478,2.43011,-16.8293,-15.7927,20.3659,0.00,0.00,0.00,3,S01
15300,-3.00233,0.14844,1.27132,-10.6098,-37.2561,11.8293,0.00,0.00,0.00,3,S01
15320,-2.08056,-0.86910,-0.34716,6.2805,-56.6463,8.2927,0.00,0.00,0.00,3,S01
15340,-1.46765,-0.32561,-1.63524,15.9756,-72.1341,-0.2439,0.00,0.00,0.00,3,S01
15360,-3.06697,2.10211,-3.68468,13.4146,-82.8049,-5.5488,0.00,0.00,0.00,3,S01
15380,-8.57124,1.96803,-8.13550,0.7927,-65.3659,0.4268,0.00,0.00,0.00,3,S01
15400,-14.54478,-1.78847,-8.44914,-23.5366,18.5976,3.5366,0.00,0.00,0.00,3,S01
15420,-16.91982,-3.59609,9.56723,-39.3293,82.0122,-4.9390,0.00,0.00,0.00,3,S01
15440,-16.66843,-0.51475,1.86508,4.5732,5.1829,-18.2927,0.00,0.00,0.00,3,S01
15460,-17.14488,1.96564,-0.11492,14.3902,-3.2317,-21.5854,0.00,0.00,0.00,3,S01
15480,-18.12650,1.22583,3.30160,-7.8049,21.2195,-15.3049,0.00,0.00,0.00,3,S01
15500,-16.86954,0.27054,2.00874,-10.0610,16.8902,-16.8902,0.00,0.00,0.00,3,S01
15520,-14.04678,-0.12450,1.34315,-3.3537,13.3537,-20.3659,0.00,0.00,0.00,3,S01
15540,-10.90559,-1.36469,0.82839,2.0732,12.8659,-18.0488,0.00,0.00,0.00,3,S01
15560,-8.78433,-1.90100,0.54348,7.5000,19.3902,-15.3049,0.00,0.00,0.00,3,S01
15580,-7.74524,-1.15879,0.98881,7.3780,30.3049,-15.9146,0.00,0.00,0.00,3,S01
15600,-7.25204,-0.05507,2.13323,5.6098,29.6951,-14.7561,0.00,0.00,0.00,3,S01
15620,-6.25365,-0.08380,2.71502,9.2683,10.4268,-8.1098,0.00,0.00,0.00,3,S01
15640,-4.54898,-0.58419,2.66475,17.3171,-20.7317,-2.4390,0.00,0.00,0.00,3,S01
15660,-2.68390,0.17238,2.07338,21.3415,-47.8049,0.9146,0.00,0.00,0.00,3,S01
15680,-1.55623,0.88107,0.78051,21.0976,-72.0732,11.0976,0.00,0.00,0.00,3,S01
15700,-1.23301,-0.46448,-0.98402,14.8171,-99.1463,24.0854,0.00,0.00,0.00,3,S01
15720,-1.03430,-0.95050,-2.85628,5.9756,-118.7195,23.2927,0.00,0.00,0.00,3,S01
15740,-2.99993,-1.64960,-5.32710,-14.0244,-107.6220,6.7683,0.00,0.00,0.00,3,S01
15760,-10.21606,-3.78284,-9.69652,-29.4512,-38.9024,-34.9390,0.00,0.00,0.00,3,S01
15780,-20.11608,3.78763,0.71826,-49.0854,115.1220,-100.6098,0.00,0.00,0.00,3,S01
15800,-22.12482,3.42850,8.47547,-50.9756,113.7805,-68.4146,0.00,0.00,0.00,3,S01
15820,-16.65886,-0.50518,0.38786,-33.6585,-13.1707,-6.3415,0.00,0.00,0.00,3,S01
15840,-16.01960,-1.02232,1.87227,-45.0000,-2.1341,11.5854,0.00,0.00,0.00,3,S01
15860,-17.31487,0.33519,3.31836,-41.7073,42.1951,19.6341,0.00,0.00,0.00,3,S01
15880,-15.39711,1.20907,1.99676,-28.2927,38.9634,31.1585,0.00,0.00,0.00,3,S01
15900,-9.59117,1.26653,0.17717,-17.9268,32.9878,70.7317,0.00,0.00,0.00,3,S01
15920,-9.59117,1.26653,0.17717,-17.9268,32.9878,70.7317,0.00,0.00,0.00,3,S01
15940,-7.60398,-0.22027,0.02155,-15.6707,40.4268,76.5244,0.00,0.00,0.00,3,S01
15960,-7.05092,-0.47166,1.69031,-13.9024,43.1707,59.2683,0.00,0.00,0.00,3,S01
15980,-5.83706,-0.66798,2.22421,-7.3780,25.9756,39.2073,0.00,0.00,0.00,3,S01
16000,-4.56335,0.23224,1.93212,-3.7805,-1.4024,24.2073,0.00,0.00,0.00,3,S01
16020,-3.46202,0.29449,1.53947,-6.0366,-26.3415,15.7927,0.00,0.00,0.00,3,S01
16040,-2.50673,-0.23942,0.40462,2.2561,-45.6707,10.5488,0.00,0.00,0.00,3,S01
16060,-1.84354,0.13168,-0.78051,15.1220,-61.7683,2.2561,0.00,0.00,0.00,3,S01
16080,-1.59693,0.51954,-1.81002,16.4634,-82.0732,-3.7195,0.00,0.00,0.00,3,S01
16100,-4.45082,0.21787,-5.41568,19.6951,-98.6585,-6.2195,0.00,0.00,0.00,3,S01
16120,-12.08593,-1.34794,-10.25676,16.7683,-45.5488,-17.4390,0.00,0.00,0.00,3,S01
16140,-19.62527,-1.73819,3.87861,-2.0122,103.7805,-25.6707,0.00,0.00,0.00,3,S01
16160,-20.66914,-2.94487,5.88974,3.1707,89.7561,-15.4878,0.00,0.00,0.00,3,S01
16180,-18.01158,0.36631,-0.22266,46.0976,12.1951,-10.3049,0.00,0.00,0.00,3,S01
16200,-16.07946,1.40540,0.47645,34.3902,10.4878,-10.2439,0.00,0.00,0.00,3,S01
16220,-14.38436,1.78129,0.99599,14.6341,17.9878,-14.1463,0.00,0.00,0.00,3,S01
16240,-11.58554,1.18992,0.32082,4.1463,13.2927,-14.7561,0.00,0.00,0.00,3,S01
16260,-7.38611,-0.71826,0.00718,5.3049,10.3049,-8.0488,0.00,0.00,0.00,3,S01
16280,-4.32153,-1.75495,0.08380,7.8659,10.4878,-4.5732,0.00,0.00,0.00,3,S01
16300,-3.21541,-1.26893,-0.07183,9.2073,9.2073,-9.3293,0.00,0.00,0.00,3,S01
16320,-4.29041,-0.50757,-0.84276,11.4024,10.2439,-19.3902,0.00,0.00,0.00,3,S01
16340,-5.77242,-0.02155,-1.24498,8.9024,17.9878,-26.5244,0.00,0.00,0.00,3,S01
16360,-5.97832,-0.50757,-0.84515,7.6220,28.4756,-26.5244,0.00,0.00,0.00,3,S01
16380,-5.99987,-1.03190,0.10295,11.6463,45.5488,-25.1220,0.00,0.00,0.00,3,S01
16400,-7.15627,-0.63686,6.89051,15.3049,60.9146,-22.1951,0.00,0.00,0.00,3,S01
16420,-9.06205,-0.37350,1.11091,45.9756,-18.7195,-17.0732,0.00,0.00,0.00,3,S01
16440,-9.82580,0.02634,0.98162,41.8902,-14.6341,-18.4756,0.00,0.00,0.00,3,S01
16460,-10.74039,-0.18914,0.67756,29.0244,-10.4878,-19.4512,0.00,0.00,0.00,3,S01
16480,-13.24472,-1.22344,-2.02549,24.2683,-16.2195,-31.0366,0.00,0.00,0.00,3,S01
16500,-15.57189,2.60010,0.85712,6.4024,-9.5732,-52.1341,0.00,0.00,0.00,3,S01
16520,-14.50407,1.34075,-0.12929,-13.1707,-35.8537,-32.0732,0.00,0.00,0.00,3,S01
16540,-13.02446,-0.19872,-3.29442,-13.1098,-49.2073,-7.5000,0.00,0.00,0.00,3,S01
16560,-13.88876,-0.45729,-2.20267,-31.1585,-12.6220,-3.5976,0.00,0.00,0.00,3,S01
16580,-14.19043,-0.20111,-0.59616,-27.1951,20.7927,-0.4878,0.00,0.00,0.00,3,S01
16600,-12.68927,-0.17238,-1.18992,-20.9756,21.7073,11.7073,0.00,0.00,0.00,3,S01
16620,-10.46506,-0.19154,-0.77812,-24.6951,20.3659,24.0244,0.00,0.00,0.00,3,S01
16640,-8.75081,0.51954,-0.04549,-29.2683,18.1707,33.7195,0.00,0.00,0.00,3,S01
16660,-6.98867,0.60094,-0.07183,-23.2927,9.2073,44.6341,0.00,0.00,0.00,3,S01
16680,-5.31273,-0.09098,-0.59855,-12.8659,-2.8049,53.2317,0.00,0.00,0.00,3,S01
16700,-4.63039,-0.50278,-1.32639,-6.9512,-8.9634,49.8781,0.00,0.00,0.00,3,S01
16720,-4.98233,-0.44053,-2.03986,-5.2439,-4.2073,37.1341,0.00,0.00,0.00,3,S01
16740,-5.84664,0.00479,-1.63763,-6.8293,12.1951,18.8415,0.00,0.00,0.00,3,S01
16760,-7.10360,0.94571,2.59053,-9.0244,23.9634,3.9024,0.00,0.00,0.00,3,S01
16780,-7.29753,0.48842,2.24576,-6.8902,5.0610,2.8049,0.00,0.00,0.00,3,S01
16800,-7.65666,-0.00239,2.29604,-1.9512,-2.4390,2.6220,0.00,0.00,0.00,3,S01
16820,-8.93995,0.29688,3.89058,0.3659,0.3659,-0.9146,0.00,0.00,0.00,3,S01
16840,-9.39006,-0.08140,3.14598,5.4878,0.4878,3.4756,0.00,0.00,0.00,3,S01
16860,-8.77954,0.08140,2.93529,12.9878,6.2805,9.2683,0.00,0.00,0.00,3,S01
16880,-8.72926,1.28090,1.32639,20.0000,4.8171,8.7195,0.00,0.00,0.00,3,S01
16900,-9.95988,2.73657,-1.11570,25.6707,4.8780,8.4146,0.00,0.00,0.00,3,S01
16920,-11.07318,1.28329,-1.32639,28.9024,10.8537,17.0122,0.00,0.00,0.00,3,S01
16940,-10.30225,-1.85311,2.62644,35.7317,7.1951,25.7927,0.00,0.00,0.00,3,S01
16960,-8.47547,-1.51792,-0.12689,51.5244,-23.3537,14.3293,0.00,0.00,0.00,3,S01
16980,-9.51216,0.90022,-3.80439,63.5366,-28.5366,-9.4512,0.00,0.00,0.00,3,S01
17000,-13.01488,2.75333,-2.47321,45.0000,6.8293,-19.7561,0.00,0.00,0.00,3,S01
17020,-14.75786,1.36948,0.10056,24.3902,31.0366,-12.9268,0.00,0.00,0.00,3,S01
17040,-14.95179,-0.34477,0.10534,15.9756,20.0000,-16.4634,0.00,0.00,0.00,3,S01
17060,-14.39155,-0.96007,0.38786,14.8171,15.9146,-31.6463,0.00,0.00,0.00,3,S01
17080,-13.25669,-1.10612,0.77572,17.0732,15.8537,-45.9146,0.00,0.00,0.00,3,S01
17100,-12.24155,-0.94810,0.08859,22.0122,13.7805,-53.7195,0.00,0.00,0.00,3,S01
17120,-11.42992,-0.36871,-0.05746,24.7561,16.3415,-53.5366,0.00,0.00,0.00,3,S01
17140,-10.35732,0.03112,0.53630,22.1951,18.2927,-43.2317,0.00,0.00,0.00,3,S01
17160,-8.64546,0.10534,1.13006,16.4024,13.5366,-26.7683,0.00,0.00,0.00,3,S01
17180,-6.67025,0.28970,1.94170,10.1829,2.7439,-15.1220,0.00,0.00,0.00,3,S01
17200,-5.14753,0.59855,2.66953,10.2439,-12.5000,-11.8902,0.00,0.00,0.00,3,S01
17220,-4.04141,0.22027,2.90656,14.8171,-26.8293,-10.1220,0.00,0.00,0.00,3,S01
17240,-2.88501,0.18914,2.60489,18.5366,-35.3049,-7.3780,0.00,0.00,0.00,3,S01
17260,-1.87227,0.52194,1.60890,15.9146,-45.0610,-2.5610,0.00,0.00,0.00,3,S01
17280,-1.30245,-0.26576,0.17478,13.9024,-62.4390,6.6463,0.00,0.00,0.00,3,S01
17300,-2.07817,-0.71347,-2.06620,8.5976,-82.3171,7.9878,0.00,0.00,0.00,3,S01
17320,-5.58328,-2.56419,-5.06374,-7.1951,-85.0610,-4.2683,0.00,0.00,0.00,3,S01
17340,-11.29345,-1.46046,-8.75799,-15.1220,-55.2439,-35.0000,0.00,0.00,0.00,3,S01
17360,-16.54872,4.50589,-4.83868,-41.0366,25.3049,-61.8293,0.00,0.00,0.00,3,S01
17380,-16.92461,1.74537,6.31112,-71.7683,65.0000,-29.8171,0.00,0.00,0.00,3,S01
17400,-16.82884,-0.39744,0.52194,-67.5610,19.6341,-4.1463,0.00,0.00,0.00,3,S01
17420,-18.80645,-0.17717,1.02472,-70.1829,32.8049,0.1220,0.00,0.00,0.00,3,S01
17440,-18.95250,0.31603,2.11169,-65.0000,49.9390,9.1463,0.00,0.00,0.00,3,S01
17460,-16.47211,0.22745,1.02472,-55.9146,35.9146,25.0000,0.00,0.00,0.00,3,S01
17480,-13.58709,0.69192,0.24181,-51.7073,22.6829,39.7561,0.00,0.00,0.00,3,S01
17500,-11.33894,1.46765,-0.33279,-45.1220,20.4268,50.4878,0.00,0.00,0.00,3,S01
17520,-8.51139,0.50278,-0.52194,-32.3780,24.2073,61.6463,0.00,0.00,0.00,3,S01
17540,-5.74848,-0.34716,0.86191,-26.7683,26.9512,63.6585,0.00,0.00,0.00,3,S01
17560,-3.98635,-0.47405,1.83156,-29.9390,18.5976,53.9634,0.00,0.00,0.00,3,S01
17580,-2.84431,-0.24660,1.79565,-34.3902,3.8415,41.0366,0.00,0.00,0.00,3,S01
17600,-1.95127,0.02873,1.42455,-38.2927,-14.2683,24.7561,0.00,0.00,0.00,3,S01
17620,-1.01993,-0.70868,0.63446,-33.4146,-36.7073,11.4634,0.00,0.00,0.00,3,S01
17640,-0.54348,-1.18034,-0.39983,-20.7317,-53.7805,0.3049,0.00,0.00,0.00,3,S01
17660,-2.94487,2.12605,-3.03345,0.6707,-47.6220,-9.0854,0.00,0.00,0.00,3,S01
17680,-8.29591,-0.19872,-6.63673,-5.9146,-31.0366,-4.3293,0.00,0.00,0.00,3,S01
17700,-14.21916,-3.45962,-4.02705,-12.9878,27.2561,-16.9512,0.00,0.00,0.00,3,S01
17720,-17.96609,-3.54102,5.90410,-8.2317,62.9878,-39.0244,0.00,0.00,0.00,3,S01
17740,-19.16798,-0.10295,0.01915,40.0610,17.1951,-41.0366,0.00,0.00,0.00,3,S01
17760,-19.84554,-0.35674,2.44687,44.5122,25.6098,-30.3659,0.00,0.00,0.00,3,S01
17780,-19.52232,-0.32082,1.90100,38.3537,27.8049,-29.3293,0.00,0.00,0.00,3,S01
17800,-17.22868,0.37589,0.96965,37.0122,17.8659,-31.3415,0.00,0.00,0.00,3,S01
17820,-14.23353,1.00556,0.14605,36.0976,8.4756,-29.7561,0.00,0.00,0.00,3,S01
17840,-11.05403,0.06225,0.33040,27.7439,5.2439,-17.8049,0.00,0.00,0.00,3,S01
17860,-8.12353,-0.87149,1.11570,16.2195,5.0610,-4.5122,0.00,0.00,0.00,3,S01
17880,-5.93283,-0.58897,1.64721,8.9024,1.0366,2.3780,0.00,0.00,0.00,3,S01
17900,-4.16591,-0.22266,2.11887,9.6951,-14.0244,2.9878,0.00,0.00,0.00,3,S01
17920,-2.40138,-0.54827,2.11169,22.9268,-36.0366,1.2805,0.00,0.00,0.00,3,S01
17940,-0.74460,-0.26097,1.89860,34.2683,-47.7439,1.7683,0.00,0.00,0.00,3,S01
17960,-0.51954,0.70150,1.30963,29.8171,-60.3659,6.2805,0.00,0.00,0.00,3,S01
17980,-1.36709,-0.62728,-0.47645,21.2195,-88.5366,15.7317,0.00,0.00,0.00,3,S01
18000,-3.21302,-2.12845,-3.35907,16.3415,-113.0488,13.0488,0.00,0.00,0.00,3,S01
18020,-7.50582,-4.65433,-8.07564,9.9390,-102.8049,-12.6829,0.00,0.00,0.00,3,S01
18040,-12.98615,2.49236,-8.69813,-16.1585,-18.3537,-72.3171,0.00,0.00,0.00,3,S01
18060,-17.87032,6.55293,-0.29688,-48.3537,94.0244,-72.9268,0.00,0.00,0.00,3,S01
18080,-17.13530,-0.40223,6.95037,-76.2805,109.3902,-14.8171,0.00,0.00,0.00,3,S01
18100,-17.90623,-2.05422,1.22823,-75.9756,54.1463,-0.5488,0.00,0.00,0.00,3,S01
18120,-18.98841,0.25857,2.60489,-66.3415,56.7683,1.5854,0.00,0.00,0.00,3,S01
18140,-17.05869,0.82600,1.33118,-55.4878,46.4634,22.8659,0.00,0.00,0.00,3,S01
18160,-14.10185,0.21308,0.63925,-54.5732,36.5244,47.5000,0.00,0.00,0.00,3,S01
18180,-11.71962,0.61531,0.32322,-52.5610,35.4878,57.9268,0.00,0.00,0.00,3,S01
18200,-9.64384,0.52194,0.58419,-46.2805,39.3902,55.0000,0.00,0.00,0.00,3,S01
18220,-8.60476,0.96726,1.28090,-39.2073,37.8049,47.2561,0.00,0.00,0.00,3,S01
18240,-5.78439,-1.00317,3.07655,-31.9512,22.4390,47.2561,0.00,0.00,0.00,3,S01
18260,-3.93128,-0.65601,2.54982,-27.8049,-11.0366,37.2561,0.00,0.00,0.00,3,S01
18280,-2.30083,-0.44053,1.33836,-19.5732,-40.9756,29.6951,0.00,0.00,0.00,3,S01
18300,-1.08936,-1.06781,0.03591,-12.2561,-67.9268,24.4512,0.00,0.00,0.00,3,S01
18320,-0.82361,-1.05584,-1.29287,-6.7683,-86.0976,12.0732,0.00,0.00,0.00,3,S01
18340,-2.06380,1.25696,-2.80122,-2.2561,-89.0854,-4.8171,0.00,0.00,0.00,3,S01
18360,-5.66229,2.69348,-5.18105,-7.5610,-76.3415,-13.3537,0.00,0.00,0.00,3,S01
18380,-10.64701,-2.18112,-7.16345,-18.4756,-33.3537,-12.6829,0.00,0.00,0.00,3,S01
18400,-12.88081,-7.79552,-2.46363,-12.1951,53.9634,-22.6220,0.00,0.00,0.00,3,S01
18420,-16.47929,-3.24175,6.55532,25.4878,85.7927,-46.8902,0.00,0.00,0.00,3,S01
18440,-18.33480,-0.25379,0.94571,67.8049,34.4512,-40.1829,0.00,0.00,0.00,3,S01
18460,-19.19192,-0.02155,2.23379,54.4512,35.0000,-36.0366,0.00,0.00,0.00,3,S01
18480,-17.99961,-0.51475,2.04225,40.7317,32.6829,-35.3049,0.00,0.00,0.00,3,S01
18500,-15.58146,-0.67277,1.17795,37.6829,25.6098,-32.5000,0.00,0.00,0.00,3,S01
18520,-12.51210,-1.34075,1.56341,32.2561,23.1707,-22.8049,0.00,0.00,0.00,3,S01
18540,-9.48104,-2.15957,1.58736,28.0488,13.9024,-10.4268,0.00,0.00,0.00,3,S01
18560,-7.40766,-1.68791,1.40540,22.5000,6.2805,-6.1585,0.00,0.00,0.00,3,S01
18580,-6.31351,0.23463,1.61848,16.4024,0.2439,-10.3659,0.00,0.00,0.00,3,S01
18600,-4.93445,0.97205,1.89381,21.5854,-11.6463,-11.4634,0.00,0.00,0.00,3,S01
18620,-2.94726,1.00796,2.04704,30.1220,-30.4268,-7.3780,0.00,0.00,0.00,3,S01
18640,-1.23780,1.04866,1.96564,24.8171,-52.6220,-0.7317,0.00,0.00,0.00,3,S01
18660,-0.71826,0.04070,1.19231,18.8415,-77.9268,7.0122,0.00,0.00,0.00,3,S01
18680,-1.12527,-1.05824,-0.55067,28.7805,-107.1951,9.0854,0.00,0.00,0.00,3,S01
18700,-2.76530,-1.82438,-2.84192,29.3293,-135.6098,1.2195,0.00,0.00,0.00,3,S01
18720,-7.86735,-6.50505,-7.81228,28.2317,-148.6585,-19.7561,0.00,0.00,0.00,3,S01
18740,-15.69878,-3.25372,-11.60709,9.3293,-87.1951,-85.1829,0.00,0.00,0.00,3,S01
18760,-23.32192,5.94001,-8.87770,-33.4756,91.1585,-111.0366,0.00,0.00,0.00,3,S01
18780,-20.79843,-0.14844,9.10754,-80.2439,235.1220,-33.3537,0.00,0.00,0.00,3,S01
18800,-19.19192,-3.84269,7.68539,-107.1341,165.3049,4.0244,0.00,0.00,0.00,3,S01
18820,-18.15763,-2.23858,1.78607,-66.7683,89.3902,9.5122,0.00,0.00,0.00,3,S01
18840,-16.11298,0.11732,0.35674,-51.7073,72.3781,25.6707,0.00,0.00,0.00,3,S01
18860,-13.68047,0.83079,0.29688,-56.7073,61.0976,51.0976,0.00,0.00,0.00,3,S01
18880,-11.14261,-0.43335,0.06943,-58.4146,45.6707,71.9512,0.00,0.00,0.00,3,S01
18900,-7.24725,-1.72143,2.01831,-34.1463,21.2805,57.1341,0.00,0.00,0.00,3,S01
18920,-4.75010,-1.55623,3.71580,-9.6341,-4.8780,43.6585,0.00,0.00,0.00,3,S01
18940,-2.77249,-0.34955,3.73495,4.4512,-43.8415,32.9878,0.00,0.00,0.00,3,S01
18960,-1.57299,0.18675,2.87783,13.9634,-70.1220,29.8171,0.00,0.00,0.00,3,S01
18980,-1.01993,-0.83079,1.54187,28.6585,-89.0244,34.8780,0.00,0.00,0.00,3,S01
19000,-1.41258,-0.70629,-0.62728,46.6463,-118.9634,29.8171,0.00,0.00,0.00,3,S01
19020,-3.05500,0.42138,-3.20584,54.7561,-154.2073,11.5854,0.00,0.00,0.00,3,S01
19040,-7.75482,0.99838,-7.71651,43.9634,-177.9878,-7.1341,0.00,0.00,0.00,3,S01
19060,-13.72835,-2.70784,-11.50893,18.7195,-131.3415,-19.2073,0.00,0.00,0.00,3,S01
19080,-14.31014,-6.77559,-8.23845,4.4512,41.5244,-25.6098,0.00,0.00,0.00,3,S01
19100,-15.16487,-1.72143,7.01022,6.4634,194.5732,-47.7439,0.00,0.00,0.00,3,S01
19120,-17.78413,1.76213,7.65905,30.4268,159.8171,-41.1585,0.00,0.00,0.00,3,S01
19140,-20.20227,1.71904,1.48680,42.1951,89.4512,-29.1463,0.00,0.00,0.00,3,S01
19160,-19.25657,0.02394,2.93529,26.7073,77.6829,-32.3171,0.00,0.00,0.00,3,S01
19180,-15.99327,-0.73263,1.88663,16.4634,43.9634,-35.1829,0.00,0.00,0.00,3,S01
19200,-13.12262,-1.21386,0.66319,16.5244,24.0244,-28.5366,0.00,0.00,0.00,3,S01
19220,-10.41238,-2.45645,0.50996,18.5976,22.8049,-12.6829,0.00,0.00,0.00,3,S01
19240,-8.23845,-2.53546,0.46687,20.1829,20.6707,-4.0854,0.00,0.00,0.00,3,S01
19260,-6.33027,-2.10929,0.68714,24.2073,17.0122,-2.6220,0.00,0.00,0.00,3,S01
19280,-4.52983,-1.30723,1.33357,30.6098,11.7073,-8.7805,0.00,0.00,0.00,3,S01
19300,-2.85628,-0.27294,1.77889,37.5610,-0.9756,-14.4512,0.00,0.00,0.00,3,S01
19320,-1.48201,0.81163,1.73101,37.1951,-17.0122,-10.0000,0.00,0.00,0.00,3,S01
19340,-0.99120,1.40061,1.21386,28.9634,-30.3659,4.0244,0.00,0.00,0.00,3,S01
19360,-1.23780,-0.37828,-0.19154,28.4146,-46.7073,20.9146,0.00,0.00,0.00,3,S01
19380,-1.75016,-2.55940,-1.94170,40.5488,-65.7317,23.1707,0.00,0.00,0.00,3,S01
19400,-4.52504,-5.43005,-4.58490,45.9756,-82.6829,-2.9268,0.00,0.00,0.00,3,S01
19420,-10.74278,-5.74608,-9.78989,39.9390,-80.7927,-60.0000,0.00,0.00,0.00,3,S01
19440,-19.25657,6.55293,-8.20732,-15.5488,11.3415,-127.5610,0.00,0.00,0.00,3,S01
19460,-19.70667,5.48512,8.10437,-44.3293,110.5488,-67.9268,0.00,0.00,0.00,3,S01
19480,-16.83363,-2.05422,2.79643,-73.5976,30.0610,6.3415,0.00,0.00,0.00,3,S01
19500,-17.44176,-3.84988,-0.40701,-71.3415,18.9024,18.5366,0.00,0.00,0.00,3,S01
19520,-18.40902,-1.11091,1.66876,-58.2317,62.8049,16.2195,0.00,0.00,0.00,3,S01
19540,-16.60139,-0.14126,0.79727,-47.2561,56.0976,25.5488,0.00,0.00,0.00,3,S01
19560,-13.52963,0.33758,-0.18914,-45.4878,33.5976,41.7683,0.00,0.00,0.00,3,S01
19580,-11.20726,1.01993,-1.09415,-40.3659,27.8659,59.6341,0.00,0.00,0.00,3,S01
19600,-9.23922,0.16759,-0.97683,-35.1829,37.8049,70.6098,0.00,0.00,0.00,3,S01
19620,-7.30950,-1.04627,-0.02155,-26.8902,45.3049,64.6951,0.00,0.00,0.00,3,S01
19640,-5.50906,-1.27372,2.10450,-18.2317,34.2683,47.9878,0.00,0.00,0.00,3,S01
19660,-3.91691,-0.42856,2.51152,-17.9268,-1.6463,33.8415,0.00,0.00,0.00,3,S01
19680,-2.36068,0.21308,1.60172,-14.2683,-34.8780,27.8659,0.00,0.00,0.00,3,S01
19700,-1.16598,-0.95050,0.53630,-1.3415,-54.2683,27.9878,0.00,0.00,0.00,3,S01
19720,-0.45969,-1.47722,-0.75417,21.1585,-69.2073,21.7073,0.00,0.00,0.00,3,S01
19740,-0.99359,0.23942,-2.22182,34.3293,-83.7805,3.6585,0.00,0.00,0.00,3,S01
19760,-4.78601,1.45328,-5.49469,38.3537,-97.1951,-13.5366,0.00,0.00,0.00,3,S01
19780,-11.54723,-1.43173,-10.00297,28.3537,-91.8902,-33.7805,0.00,0.00,0.00,3,S01
19800,-15.51443,-5.13556,-9.42597,2.8659,-10.8537,-51.1585,0.00,0.00,0.00,3,S01
19820,-18.19833,-3.77805,8.27197,-9.3902,89.6341,-58.0488,0.00,0.00,0.00,3,S01
19840,-19.00517,0.14844,1.66876,31.6463,46.1585,-46.3415,0.00,0.00,0.00,3,S01
19860,-17.85117,-0.50278,-0.57221,42.4390,34.4512,-31.5854,0.00,0.00,0.00,3,S01
19880,-16.68519,-1.13964,1.28090,28.4146,40.4268,-34.2683,0.00,0.00,0.00,3,S01
19900,-15.09065,-1.29766,1.04866,34.1463,34.8780,-39.9390,0.00,0.00,0.00,3,S01
19920,-12.95503,-2.25294,0.66319,43.3537,30.3659,-35.6098,0.00,0.00,0.00,3,S01
19940,-10.08438,-2.43490,1.42934,42.8659,27.3171,-31.2195,0.00,0.00,0.00,3,S01
19960,-7.55849,-1.05824,2.32477,37.9878,11.7073,-27.6220,0.00,0.00,0.00,3,S01
19980,-5.75327,0.33279,2.49955,35.5488,-15.0000,-20.1220,0.00,0.00,0.00,3,S01
20000,-4.53941,0.80206,2.24816,35.6707,-42.9268,-11.7073,0.00,0.00,0.00,3,S01
20020,-3.02867,0.62249,1.65918,40.7317,-64.7561,-0.4878,0.00,0.00,0.00,3,S01
20040,-1.65439,1.13964,1.37427,33.5976,-78.9024,10.9146,0.00,0.00,0.00,3,S01
20060,-1.48919,-0.34716,0.47884,24.2683,-95.7927,21.8293,0.00,0.00,0.00,3,S01
20080,-1.57778,-2.14281,-1.52989,33.4756,-120.7317,24.2073,0.00,0.00,0.00,3,S01
20100,-2.91853,-1.96325,-4.02705,32.2561,-138.3537,7.5000,0.00,0.00,0.00,3,S01
20120,-7.16824,-3.81157,-8.34140,12.3171,-130.0000,-19.8780,0.00,0.00,0.00,3,S01
20140,-14.74349,0.94092,-10.57758,-25.8537,-57.5000,-74.7561,0.00,0.00,0.00,3,S01
20160,-18.36113,-2.28646,12.31338,-95.5488,190.4878,-19.6341,0.00,0.00,0.00,3,S01
20180,-17.05150,-4.22816,5.09486,-99.2683,75.9756,0.7317,0.00,0.00,0.00,3,S01
20200,-17.87990,-2.20985,0.30406,-59.8171,55.9146,8.4146,0.00,0.00,0.00,3,S01
20220,-17.46810,-0.69911,2.19309,-50.3049,90.2439,26.5244,0.00,0.00,0.00,3,S01
20240,-15.38514,-0.04310,1.15161,-45.9756,79.0854,43.4756,0.00,0.00,0.00,3,S01
20260,-13.10586,0.54348,-0.05507,-45.4268,60.9756,55.3659,0.00,0.00,0.00,3,S01
20280,-10.57279,1.00317,0.18675,-42.8659,56.3415,63.2317,0.00,0.00,0.00,3,S01
20300,-8.47547,0.32561,0.31125,-38.7195,47.9878,64.3902,0.00,0.00,0.00,3,S01
20320,-6.31112,-0.67756,0.96486,-35.7317,32.6829,60.9146,0.00,0.00,0.00,3,S01
20340,-4.01508,-1.19471,1.54905,-33.5976,7.0122,57.1951,0.00,0.00,0.00,3,S01
20360,-2.26013,-0.88585,1.38145,-38.5976,-23.5976,53.5976,0.00,0.00,0.00,3,S01
20380,-1.28329,-1.96564,0.92177,-42.2561,-43.4146,46.8293,0.00,0.00,0.00,3,S01
20400,-0.54588,-2.82755,0.19393,-16.2195,-52.8659,28.8415,0.00,0.00,0.00,3,S01
20420,-0.52433,-0.95050,-0.67516,21.0976,-60.9146,0.3049,0.00,0.00,0.00,3,S01
20440,-2.09014,1.00317,-2.35829,41.8902,-70.8537,-17.6220,0.00,0.00,0.00,3,S01
20460,-7.50582,1.40540,-7.39808,47.2561,-80.4878,-27.9878,0.00,0.00,0.00,3,S01
20480,-14.61900,-1.32878,-11.35330,15.6707,-47.1341,-43.6585,0.00,0.00,0.00,3,S01
20500,-17.32444,-3.92410,3.79720,-17.8659,59.8171,-50.8537,0.00,0.00,0.00,3,S01
20520,-17.96130,-2.51391,3.64398,1.2195,39.1463,-45.1829,0.00,0.00,0.00,3,S01
20540,-17.91102,0.86431,-0.86191,29.5122,1.8902,-34.7561,0.00,0.00,0.00,3,S01
20560,-17.90623,0.62968,1.94409,8.9024,27.9878,-24.3293,0.00,0.00,0.00,3,S01
20580,-16.52478,0.00958,1.30005,-4.6341,40.0000,-23.7805,0.00,0.00,0.00,3,S01
20600,-14.15213,-0.21548,0.80206,-5.9146,46.7683,-29.2683,0.00,0.00,0.00,3,S01
20620,-12.08593,-0.99599,0.08859,-0.1829,37.9878,-26.0366,0.00,0.00,0.00,3,S01
20640,-10.02692,-2.03507,0.11253,-5.7317,24.2073,-6.8293,0.00,0.00,0.00,3,S01
20660,-7.55610,-2.66714,0.99120,-15.9756,12.7439,12.9268,0.00,0.00,0.00,3,S01
20680,-5.39414,-2.90417,1.73819,-12.0122,-1.8902,18.2927,0.00,0.00,0.00,3,S01
20700,-4.11324,-1.88663,2.11169,1.2805,-20.4268,7.8049,0.00,0.00,0.00,3,S01
20720,-2.76051,-0.79966,2.41096,14.4512,-34.6341,-1.2195,0.00,0.00,0.00,3,S01
20740,-1.25217,0.16999,2.65278,27.1341,-47.4390,-0.4268,0.00,0.00,0.00,3,S01
20760,-1.24020,-0.10534,1.62087,38.9634,-74.9390,7.0732,0.00,0.00,0.00,3,S01
20780,-2.00155,-1.31202,-0.73023,51.0366,-117.5000,10.7317,0.00,0.00,0.00,3,S01
20800,-2.99754,-1.14922,-3.45244,49.0244,-156.7073,0.3049,0.00,0.00,0.00,3,S01
20820,-6.69658,-3.99832,-7.71172,26.4634,-170.0000,-22.2561,0.00,0.00,0.00,3,S01
20840,-13.00530,-2.74854,-12.39957,-10.4878,-122.1951,-75.1220,0.00,0.00,0.00,3,S01
20860,-20.69308,3.60567,-10.54885,-55.9756,50.2439,-124.1463,0.00,0.00,0.00,3,S01
20880,-21.51430,1.52271,9.45949,-73.9634,225.6707,-76.2195,0.00,0.00,0.00,3,S01
20900,-18.97884,-3.66313,8.17380,-100.9146,147.2561,-19.2073,0.00,0.00,0.00,3,S01
20920,-18.56225,-2.80361,0.41659,-73.2317,56.8293,0.2439,0.00,0.00,0.00,3,S01
20940,-18.32761,-0.55785,1.31681,-64.9390,79.5122,19.7561,0.00,0.00,0.00,3,S01
20960,-16.85279,0.56982,1.32639,-63.9634,75.8537,42.3171,0.00,0.00,0.00,3,S01
20980,-13.67329,0.73981,0.25618,-60.5488,44.2683,67.1341,0.00,0.00,0.00,3,S01
21000,-10.77870,0.66559,-0.65362,-56.6463,20.4878,82.3171,0.00,0.00,0.00,3,S01
21020,-8.33900,-0.30646,-0.33040,-44.7561,13.5976,80.8537,0.00,0.00,0.00,3,S01
21040,-5.93523,-0.79009,0.92895,-29.8780,11.7683,71.1585,0.00,0.00,0.00,3,S01
21060,-3.30160,-1.51314,2.05901,-20.2439,-2.3780,62.6829,0.00,0.00,0.00,3,S01
21080,-1.84832,-1.18992,2.16436,-19.4512,-22.5000,54.6951,0.00,0.00,0.00,3,S01
21100,-1.11809,-1.19471,2.05662,-24.2073,-33.2317,43.2927,0.00,0.00,0.00,3,S01
21120,-0.81403,-1.54426,0.95529,-14.1463,-43.9024,27.8659,0.00,0.00,0.00,3,S01
21140,-1.10373,-0.33998,-0.42617,8.9024,-60.7927,5.9146,0.00,0.00,0.00,3,S01
21160,-1.83875,0.24181,-1.70228,27.8049,-85.9756,-14.3293,0.00,0.00,0.00,3,S01
21180,-4.25210,0.56503,-4.68306,40.4268,-114.5732,-23.9634,0.00,0.00,0.00,3,S01
21200,-11.12107,-1.24498,-10.33337,33.4146,-120.4268,-37.3171,0.00,0.00,0.00,3,S01
21220,-17.86553,-2.74854,-10.72124,-1.4634,-27.0122,-50.4268,0.00,0.00,0.00,3,S01
21240,-19.61569,-4.32632,9.94791,-6.4024,104.5732,-41.2805,0.00,0.00,0.00,3,S01
21260,-18.85434,-0.33040,2.01352,29.6951,34.0244,-36.6463,0.00,0.00,0.00,3,S01
21280,-18.31564,1.09415,-1.98958,34.6341,1.2195,-27.6829,0.00,0.00,0.00,3,S01
21300,-18.03552,-1.05824,3.42850,4.1463,33.5366,-22.4390,0.00,0.00,0.00,3,S01
21320,-15.67484,-1.30245,2.43011,4.3293,29.7561,-25.6098,0.00,0.00,0.00,3,S01
21340,-12.68448,-0.68474,1.44370,7.1341,15.6098,-26.3415,0.00,0.00,0.00,3,S01
21360,-10.04368,-1.48441,1.14203,8.3537,2.0732,-13.4756,0.00,0.00,0.00,3,S01
21380,-7.66623,-2.78446,0.89783,15.8537,-13.7195,4.4512,0.00,0.00,0.00,3,S01
21400,-4.92727,-1.30963,0.95529,18.2317,-35.4268,7.7439,0.00,0.00,0.00,3,S01
21420,-4.24253,-0.75896,1.23301,19.7561,-35.8537,3.5976,0.00,0.00,0.00,3,S01
21440,-3.04303,-0.47405,1.48680,31.0366,-40.6098,0.4878,0.00,0.00,0.00,3,S01
21460,-1.95127,0.06225,1.72383,37.8049,-56.7073,0.9756,0.00,0.00,0.00,3,S01
21480,-2.14042,-0.72065,0.79487,44.2073,-87.6829,7.0732,0.00,0.00,0.00,3,S01
21500,-2.60489,-1.54905,-1.52989,56.4024,-129.1463,8.0488,0.00,0.00,0.00,3,S01
21520,-4.70939,-2.73657,-4.92487,49.2683,-156.8293,-5.1220,0.00,0.00,0.00,3,S01
21540,-9.61033,-3.29682,-10.51055,19.2073,-129.8171,-44.2073,0.00,0.00,0.00,3,S01
21560,-17.00601,2.72221,-9.35893,-33.5976,25.0000,-110.3049,0.00,0.00,0.00,3,S01
21580,-21.28924,5.88974,0.31125,-57.0122,216.5244,-90.6707,0.00,0.00,0.00,3,S01
21600,-19.33078,-1.52271,13.70920,-110.2439,225.6098,-21.1585,0.00,0.00,0.00,3,S01
21620,-19.57020,-2.81319,4.59687,-85.6707,81.8902,-4.3902,0.00,0.00,0.00,3,S01
21640,-18.26537,-1.84832,0.24181,-45.8537,44.9390,12.0122,0.00,0.00,0.00,3,S01
21660,-15.47851,-0.94332,2.30801,-33.9634,44.6951,32.8659,0.00,0.00,0.00,3,S01
21680,-12.21761,-0.25857,1.34075,-22.3780,16.2195,55.5488,0.00,0.00,0.00,3,S01
21700,-9.41640,-0.04549,-0.16999,-11.5854,2.5610,71.0976,0.00,0.00,0.00,3,S01
21720,-7.52737,-0.10774,-0.55545,-9.3902,8.6585,70.9756,0.00,0.00,0.00,3,S01
21740,-6.40449,-0.41420,0.23703,-8.0488,14.6341,58.1098,0.00,0.00,0.00,3,S01
21760,-4.88896,-0.52433,1.17076,-3.9634,8.8415,42.9878,0.00,0.00,0.00,3,S01
21780,-3.37582,-0.39983,1.07978,-2.3780,-8.7195,30.0610,0.00,0.00,0.00,3,S01
21800,-2.60010,-0.45250,0.37110,1.5244,-29.5122,17.3171,0.00,0.00,0.00,3,S01
21820,-2.35589,-1.18274,-0.49081,11.4024,-47.8049,2.4390,0.00,0.00,0.00,3,S01
21840,-2.59053,-0.44772,-1.29047,28.1098,-61.9512,-15.9146,0.00,0.00,0.00,3,S01
21860,-3.78044,0.69911,-2.39899,38.3537,-76.2195,-27.5610,0.00,0.00,0.00,3,S01
21880,-7.35499,0.48602,-5.66229,42.8049,-87.8659,-28.9024,0.00,0.00,0.00,3,S01
21900,-12.72758,-2.38462,-9.36612,33.5366,-56.0366,-30.9756,0.00,0.00,0.00,3,S01
21920,-15.82328,-3.63440,5.62398,7.6220,68.1707,-30.6098,0.00,0.00,0.00,3,S01
21940,-17.70752,-2.06620,5.96396,15.8537,75.3049,-20.6707,0.00,0.00,0.00,3,S01
21960,-18.09538,0.03352,-0.04310,45.5488,24.8171,-12.8049,0.00,0.00,0.00,3,S01
21980,-17.40106,-0.60813,2.42293,30.9756,26.0976,-13.2317,0.00,0.00,0.00,3,S01
22000,-15.37556,-1.15161,2.06380,24.2683,15.6098,-24.9390,0.00,0.00,0.00,3,S01
22020,-12.69406,-1.29766,1.10133,23.9634,0.1829,-32.0122,0.00,0.00,0.00,3,S01
22040,-10.25437,-1.89381,0.48602,20.9756,-9.8171,-29.4512,0.00,0.00,0.00,3,S01
22060,-8.42280,-1.98240,0.20830,19.8171,-14.3902,-23.7195,0.00,0.00,0.00,3,S01
22080,-6.92643,-1.34315,0.56982,16.1585,-9.4512,-19.5732,0.00,0.00,0.00,3,S01
22100,-5.85382,-0.60094,1.31921,9.7561,1.0366,-16.3415,0.00,0.00,0.00,3,S01
22120,-4.84108,0.00958,2.09014,8.1707,4.4512,-12.6220,0.00,0.00,0.00,3,S01
22140,-4.13718,-0.73741,2.27928,13.4146,-5.6707,-6.4024,0.00,0.00,0.00,3,S01
22160,-3.51708,-0.54588,2.22182,20.1220,-17.8659,-3.5976,0.00,0.00,0.00,3,S01
22180,-2.85389,-0.19632,2.37505,21.4634,-19.5732,-1.4024,0.00,0.00,0.00,3,S01
22200,-2.71742,-1.84114,1.46525,22.8659,-31.0366,2.8049,0.00,0.00,0.00,3,S01
22220,-2.30801,-1.62087,0.11971,32.1341,-51.4024,0.9756,0.00,0.00,0.00,3,S01
22240,-3.59849,-2.00634,-1.77171,27.5610,-63.4146,-8.9634,0.00,0.00,0.00,3,S01
22260,-9.17458,-5.29119,-6.86896,19.0854,-60.5488,-36.5244,0.00,0.00,0.00,3,S01
22280,-17.15206,0.72065,-9.07163,0.9756,2.5610,-103.5366,0.00,0.00,0.00,3,S01
22300,-21.10010,6.59124,3.17232,-28.3537,106.8293,-97.5000,0.00,0.00,0.00,3,S01
22320,-17.32205,0.24900,7.05811,-78.3537,73.2927,-16.2805,0.00,0.00,0.00,3,S01
22340,-15.64611,-3.01669,0.24181,-85.7317,-8.8415,12.2561,0.00,0.00,0.00,3,S01
22360,-16.67083,-2.38941,-0.65122,-70.3659,23.0488,14.5122,0.00,0.00,0.00,3,S01
22380,-16.21114,-0.98402,2.77488,-56.8293,66.0976,24.1463,0.00,0.00,0.00,3,S01
22400,-14.16889,-0.05986,1.15879,-54.5732,44.3293,39.9390,0.00,0.00,0.00,3,S01
22420,-11.59272,0.10295,-0.18435,-55.5488,25.9146,54.4512,0.00,0.00,0.00,3,S01
22440,-9.57202,0.26336,0.04549,-58.2927,23.2927,61.1585,0.00,0.00,0.00,3,S01
22460,-8.20972,-0.04070,0.52672,-60.1220,17.6829,59.1463,0.00,0.00,0.00,3,S01
22480,-7.21134,0.15562,1.53229,-56.7683,10.0610,47.4390,0.00,0.00,0.00,3,S01
22500,-5.49948,-0.04788,1.90818,-46.6463,-2.8049,38.9024,0.00,0.00,0.00,3,S01
22520,-4.00071,-0.00479,1.52511,-42.7439,-20.5488,37.9268,0.00,0.00,0.00,3,S01
22540,-3.15556,-0.07901,0.93853,-50.4878,-36.2195,38.5366,0.00,0.00,0.00,3,S01
22560,-2.42533,-0.53391,0.57221,-50.7317,-44.8780,34.2683,0.00,0.00,0.00,3,S01
22580,-1.58736,-0.83797,0.03352,-32.9268,-51.7683,25.0000,0.00,0.00,0.00,3,S01
22600,-1.64960,-0.61052,-0.84515,-14.7561,-61.8293,8.4146,0.00,0.00,0.00,3,S01
22620,-4.43885,1.44610,-2.99515,-3.9634,-70.1220,-8.1707,0.00,0.00,0.00,3,S01
22640,-11.16656,0.09577,-7.84819,-1.1585,-66.2195,-18.1707,0.00,0.00,0.00,3,S01
22660,-18.10495,-3.70622,9.37091,-32.5610,114.6341,-17.9268,0.00,0.00,0.00,3,S01
22680,-17.26938,0.76375,2.76291,-13.2317,43.9634,-20.3659,0.00,0.00,0.00,3,S01
22700,-16.35958,0.03112,-2.03747,4.2073,-0.5488,-13.1707,0.00,0.00,0.00,3,S01
22720,-16.45295,-1.96803,2.41814,-14.9390,21.3415,-10.1220,0.00,0.00,0.00,3,S01
22740,-15.07868,-3.25372,2.43730,-13.4756,30.4878,-15.9756,0.00,0.00,0.00,3,S01
22760,-12.59589,-2.24576,1.24020,0.6098,17.4390,-23.2317,0.00,0.00,0.00,3,S01
22780,-9.40921,-0.74220,0.95050,4.2683,-3.6585,-18.4756,0.00,0.00,0.00,3,S01
22800,-6.75644,-0.52194,0.75657,1.6463,-29.2683,-6.5244,0.00,0.00,0.00,3,S01
22820,-5.53539,-0.96486,0.12210,-1.5244,-50.0000,1.4634,0.00,0.00,0.00,3,S01
22840,-4.90572,-1.53468,-0.44532,-1.7073,-50.4878,2.4390,0.00,0.00,0.00,3,S01
22860,-4.10845,-1.66876,-0.31125,0.7927,-26.7073,1.0976,0.00,0.00,0.00,3,S01
22880,-3.79960,-1.89621,0.28491,1.5244,1.7683,-2.1951,0.00,0.00,0.00,3,S01
22900,-3.73256,-1.68791,0.62968,0.3049,21.8293,-7.9878,0.00,0.00,0.00,3,S01
22920,-3.52666,-1.80523,1.03430,8.2317,33.5976,-14.6951,0.00,0.00,0.00,3,S01
22940,-3.50272,-1.31681,0.89783,23.4756,27.4390,-23.5366,0.00,0.00,0.00,3,S01
22960,-3.94804,-0.27294,-0.02394,26.8293,4.2683,-28.6585,0.00,0.00,0.00,3,S01
22980,-7.35738,-3.32076,-3.20105,16.0976,-21.5854,-32.8049,0.00,0.00,0.00,3,S01
23000,-14.03242,-2.46603,-9.10275,10.4268,-25.0000,-70.3659,0.00,0.00,0.00,3,S01
23020,-21.57415,6.16746,-8.53054,-28.0488,60.3049,-126.2195,0.00,0.00,0.00,3,S01
23040,-20.21664,5.77960,7.18739,-55.0610,122.8659,-88.1098,0.00,0.00,0.00,3,S01
23060,-16.16565,1.95846,0.35434,-66.5854,8.5976,-16.2805,0.00,0.00,0.00,3,S01
23080,-13.77384,-2.16675,-3.65595,-82.2561,-28.9634,19.8780,0.00,0.00,0.00,3,S01
23100,-14.03960,-1.00556,-2.99515,-91.4024,13.5976,18.8415,0.00,0.00,0.00,3,S01
23120,-13.67329,-0.55785,0.53391,-78.1707,49.9390,17.1341,0.00,0.00,0.00,3,S01
23140,-12.40197,-0.19632,-0.03112,-69.0244,33.2927,21.0976,0.00,0.00,0.00,3,S01
23160,-10.43872,0.15323,-0.99120,-61.4024,14.0854,28.0488,0.00,0.00,0.00,3,S01
23180,-8.68377,0.22027,-0.83079,-58.9024,8.2927,35.5488,0.00,0.00,0.00,3,S01
23200,-7.25443,0.29688,-0.27294,-63.1707,2.0122,39.8780,0.00,0.00,0.00,3,S01
23220,-5.99748,0.52194,0.28252,-70.4878,-10.9146,39.2683,0.00,0.00,0.00,3,S01
23240,-4.78362,0.36871,0.24900,-74.0854,-25.0610,37.1341,0.00,0.00,0.00,3,S01
23260,-3.82833,-0.64643,-0.21069,-73.2927,-31.4634,34.0244,0.00,0.00,0.00,3,S01
23280,-3.90734,-1.17555,-0.36152,-75.6707,-27.6829,19.1463,0.00,0.00,0.00,3,S01
23300,-5.08768,-0.23942,1.33357,-79.3293,-17.8659,-5.8537,0.00,0.00,0.00,3,S01
23320,-5.34625,-0.41899,2.43730,-80.5488,-24.9390,-21.2805,0.00,0.00,0.00,3,S01
23340,-4.41970,-0.89543,0.90022,-70.4268,-50.0000,-28.0488,0.00,0.00,0.00,3,S01
23360,-4.16831,0.24900,-0.55785,-58.4146,-64.7561,-37.3171,0.00,0.00,0.00,3,S01
23380,-8.32464,0.61531,-4.13239,-52.8049,-67.8659,-45.9146,0.00,0.00,0.00,3,S01
23400,-16.02679,-1.04148,-9.03572,-43.7195,-44.0854,-56.7073,0.00,0.00,0.00,3,S01
23420,-18.30128,-2.43969,5.49469,-46.5244,44.8171,-53.4756,0.00,0.00,0.00,3,S01
23440,-17.01320,-0.05507,2.93769,-57.6829,6.5244,-35.3049,0.00,0.00,0.00,3,S01
23460,-15.58146,2.94966,-3.22978,-37.0732,-49.3902,-19.8780,0.00,0.00,0.00,3,S01
23480,-15.27501,1.89142,-4.37421,-58.8415,-30.5488,-2.3171,0.00,0.00,0.00,3,S01
23500,-14.45858,-0.79248,-0.51236,-95.1220,11.7073,9.2073,0.00,0.00,0.00,3,S01
23520,-13.27345,-0.50996,-0.20830,-105.7317,10.2439,6.0366,0.00,0.00,0.00,3,S01
23540,-11.34852,0.10534,-0.89304,-110.0610,-13.2927,3.4146,0.00,0.00,0.00,3,S01
23560,-9.31823,0.12929,-0.78290,-121.2195,-35.1829,5.4268,0.00,0.00,0.00,3,S01
23580,-7.72848,-0.22266,-0.74699,-128.2317,-58.5976,8.0488,0.00,0.00,0.00,3,S01
23600,-6.63673,-0.86670,-0.81642,-128.8415,-78.4146,9.5122,0.00,0.00,0.00,3,S01
23620,-5.82030,-1.41976,-0.97444,-124.1463,-86.4634,9.5732,0.00,0.00,0.00,3,S01
23640,-5.33668,-1.54187,-1.30245,-117.0122,-78.9024,8.4146,0.00,0.00,0.00,3,S01
23660,-5.34625,-1.74777,-1.64003,-109.8781,-56.8293,5.5488,0.00,0.00,0.00,3,S01
23680,-5.81791,-1.97043,-1.47962,-105.6707,-24.9390,1.2195,0.00,0.00,0.00,3,S01
23700,-6.30393,-1.86748,-0.73023,-108.1707,8.7195,-1.8902,0.00,0.00,0.00,3,S01
23720,-6.72292,-1.40300,0.30885,-113.9634,33.5366,-2.3780,0.00,0.00,0.00,3,S01
23740,-6.75165,-1.72861,1.25696,-112.1341,42.3780,3.4146,0.00,0.00,0.00,3,S01
23760,-6.38055,-3.03585,1.41497,-98.8415,37.6829,10.7927,0.00,0.00,0.00,3,S01
23780,-6.78756,-2.39420,1.06303,-87.8049,28.2927,5.3049,0.00,0.00,0.00,3,S01
23800,-8.84418,-0.35195,-0.87149,-98.1098,16.0976,-6.4634,0.00,0.00,0.00,3,S01
23820,-14.27184,0.54827,-4.99670,-122.3781,7.6220,-23.8415,0.00,0.00,0.00,3,S01
23840,-18.29649,1.79086,-1.60172,-133.2927,33.7195,-48.2317,0.00,0.00,0.00,3,S01
23860,-16.97968,1.28808,1.98240,-136.4634,10.0000,-32.1341,0.00,0.00,0.00,3,S01
23880,-13.73554,-0.19393,-2.46603,-131.5244,-56.8902,2.9268,0.00,0.00,0.00,3,S01
23900,-11.31979,-1.49159,-4.26647,-133.0488,-60.4878,21.7683,0.00,0.00,0.00,3,S01
23920,-10.72842,-0.04070,-0.89064,-124.0244,19.3902,15.4878,0.00,0.00,0.00,3,S01
23940,-9.91678,0.48842,-0.81403,-114.1463,19.9390,22.0732,0.00,0.00,0.00,3,S01
23960,-8.49702,0.46448,-1.31442,-114.9390,8.5366,30.7317,0.00,0.00,0.00,3,S01
23980,-7.36696,-0.03591,-1.65200,-120.9756,-1.2195,34.5732,0.00,0.00,0.00,3,S01
24000,-7.11078,-0.03591,-1.71185,-128.2927,-5.1829,29.8171,0.00,0.00,0.00,3,S01
24020,-6.99825,0.27533,-1.18513,-131.3415,-4.3293,24.8780,0.00,0.00,0.00,3,S01
24040,-6.83545,0.41420,-1.02472,-132.8049,-5.1829,24.9390,0.00,0.00,0.00,3,S01
24060,-6.79714,0.25857,-1.18513,-133.7805,-3.7805,24.7561,0.00,0.00,0.00,3,S01
24080,-7.07247,0.04788,-0.81642,-133.2927,3.7805,18.1098,0.00,0.00,0.00,3,S01
24100,-7.67342,-0.44293,-0.21308,-128.7805,11.3415,6.4024,0.00,0.00,0.00,3,S01
24120,-8.57364,-0.80685,0.80445,-120.5488,14.6951,-5.3049,0.00,0.00,0.00,3,S01
24140,-9.83059,-0.68714,3.08134,-112.3171,13.2927,-14.5122,0.00,0.00,0.00,3,S01
24160,-10.06522,-0.31125,3.04064,-100.3049,-0.9146,-17.7439,0.00,0.00,0.00,3,S01
24180,-9.44273,-0.27533,2.29843,-91.1585,-16.3415,-16.2195,0.00,0.00,0.00,3,S01
24200,-9.06684,0.13647,1.37906,-85.2439,-25.8537,-14.4512,0.00,0.00,0.00,3,S01
24220,-9.88087,1.39582,-0.70390,-77.9878,-29.3293,-12.8659,0.00,0.00,0.00,3,S01
24240,-11.11388,1.41737,-3.20584,-69.5732,-26.0976,-6.0366,0.00,0.00,0.00,3,S01
24260,-11.56639,-0.59855,-3.06937,-65.7927,-12.8049,0.9756,0.00,0.00,0.00,3,S01
24280,-11.05163,0.08380,-0.95050,-72.2561,-8.0488,-0.9756,0.00,0.00,0.00,3,S01
24300,-11.53287,2.25294,-2.80122,-82.0122,-21.9512,-8.2317,0.00,0.00,0.00,3,S01
24320,-12.11945,2.18591,-3.36864,-91.4634,-12.3171,-8.4756,0.00,0.00,0.00,3,S01
24340,-11.52569,0.35913,-1.62327,-101.0976,4.0854,-8.5976,0.00,0.00,0.00,3,S01
24360,-10.76912,-0.74220,-1.54187,-101.4024,-0.1220,-20.4268,0.00,0.00,0.00,3,S01
24380,-9.92397,-1.60172,-1.85311,-95.7927,-5.3659,-33.2317,0.00,0.00,0.00,3,S01
24400,-9.01178,-1.84354,-1.61609,-89.2073,-3.8415,-40.4878,0.00,0.00,0.00,3,S01
24420,-8.23127,-1.27850,-1.19710,-90.1829,-4.8780,-43.7805,0.00,0.00,0.00,3,S01
24440,-7.96311,-0.90501,-1.07978,-96.4024,-12.4390,-45.6098,0.00,0.00,0.00,3,S01
24460,-8.03494,-1.19231,-1.08457,-97.1341,-17.7439,-47.9878,0.00,0.00,0.00,3,S01
24480,-8.20732,-1.61369,-0.62249,-89.2073,-16.5244,-48.7195,0.00,0.00,0.00,3,S01
24500,-8.46590,-2.19548,-0.22027,-78.4756,-14.5732,-42.8049,0.00,0.00,0.00,3,S01
24520,-8.51139,-2.95684,0.42377,-67.2561,-9.1463,-35.1829,0.00,0.00,0.00,3,S01
24540,-8.27915,-3.30400,1.32878,-49.9390,-4.8171,-28.4756,0.00,0.00,0.00,3,S01
24560,-8.61434,-2.51152,1.52032,-35.9146,-6.5854,-21.7683,0.00,0.00,0.00,3,S01
24580,-9.25359,-1.76213,1.65200,-27.8049,-5.2439,-14.5122,0.00,0.00,0.00,3,S01
24600,-9.45949,-1.65679,2.10211,-20.4878,-7.0732,-9.3293,0.00,0.00,0.00,3,S01
24620,-9.20331,-1.51553,2.92571,-16.9512,-16.1585,-8.9634,0.00,0.00,0.00,3,S01
24640,-8.10677,-1.27850,2.21703,-14.3902,-25.9146,-11.7073,0.00,0.00,0.00,3,S01
24660,-7.11317,-0.78769,0.97205,-11.0976,-23.9634,-10.7317,0.00,0.00,0.00,3,S01
24680,-6.67503,-0.33758,-0.00479,-16.8902,-16.7683,-3.5976,0.00,0.00,0.00,3,S01
24700,-7.37893,-0.24421,-1.86987,-26.4634,-15.0000,4.2073,0.00,0.00,0.00,3,S01
24720,-9.16500,-0.36631,-4.26407,-36.5854,-16.4024,-0.3049,0.00,0.00,0.00,3,S01
24740,-10.73081,1.30723,-4.73094,-56.1585,-12.3171,-13.0488,0.00,0.00,0.00,3,S01
24760,-11.54245,-0.12210,-1.81959,-80.1829,-3.6585,-5.9146,0.00,0.00,0.00,3,S01
24780,-12.46421,-3.12204,-1.09894,-79.3902,-5.9756,4.3293,0.00,0.00,0.00,3,S01
24800,-13.82652,-2.56180,-0.56264,-60.4268,0.3659,2.1341,0.00,0.00,0.00,3,S01
24820,-15.22473,-1.68791,-0.53630,-50.7927,11.7683,8.0488,0.00,0.00,0.00,3,S01
24840,-16.20156,-0.52672,-1.04387,-48.9024,20.1829,18.5976,0.00,0.00,0.00,3,S01
24860,-16.08185,0.74939,-0.44532,-57.0122,21.4634,29.5732,0.00,0.00,0.00,3,S01
24880,-14.96616,1.83396,-0.74699,-67.1341,6.9512,41.6463,0.00,0.00,0.00,3,S01
24900,-13.62540,2.22900,-1.06303,-76.0366,-9.0244,52.4390,0.00,0.00,0.00,3,S01
24920,-11.51132,2.19548,-0.38786,-81.6463,-21.8902,59.3293,0.00,0.00,0.00,3,S01
24940,-8.59758,1.21625,-0.01676,-84.4512,-39.2073,68.5366,0.00,0.00,0.00,3,S01
24960,-5.61440,-0.97444,-0.18196,-82.9268,-52.3781,78.9634,0.00,0.00,0.00,3,S01
24980,-3.20823,-3.22738,-0.37589,-80.7317,-50.6707,77.8659,0.00,0.00,0.00,3,S01
25000,-2.29843,-2.70784,0.79009,-78.5976,-32.6220,52.2561,0.00,0.00,0.00,3,S01
25020,-1.95367,-1.00796,3.28006,-71.4634,-22.8659,17.8049,0.00,0.00,0.00,3,S01
25040,-1.30723,-1.30005,2.29365,-50.6707,-46.5244,-2.0122,0.00,0.00,0.00,3,S01
25060,-0.93613,-1.40540,0.69192,-16.5854,-75.2439,-16.1585,0.00,0.00,0.00,3,S01
25080,-1.88663,0.62249,-1.34554,8.0488,-101.0366,-34.2683,0.00,0.00,0.00,3,S01
25100,-6.79235,-0.76614,-5.94480,15.2439,-125.1829,-51.0976,0.00,0.00,0.00,3,S01
25120,-13.07713,-3.90494,-10.52730,2.5610,-109.6951,-73.5976,0.00,0.00,0.00,3,S01
25140,-16.35958,-2.24337,-8.60955,-33.1098,7.8049,-83.8415,0.00,0.00,0.00,3,S01
25160,-18.63886,-1.79326,2.70066,-25.9756,74.0244,-17.8659,0.00,0.00,0.00,3,S01
25180,-16.65646,-2.60010,0.70390,-2.9268,24.2683,-7.9268,0.00,0.00,0.00,3,S01
25200,-15.27740,-2.57616,1.79805,6.1585,20.2439,-11.5244,0.00,0.00,0.00,3,S01
25220,-13.79778,-1.75016,1.00078,22.7439,17.1951,-12.1341,0.00,0.00,0.00,3,S01
25240,-11.69807,-1.30963,0.27533,31.4024,9.8780,-2.3780,0.00,0.00,0.00,3,S01
25260,-9.17219,-0.76854,0.54827,26.0366,0.3659,11.0366,0.00,0.00,0.00,3,S01
25280,-6.68701,-0.11971,1.27372,14.7561,-11.7683,21.3415,0.00,0.00,0.00,3,S01
25300,-4.77164,-0.09816,1.81480,12.1341,-28.2927,26.5244,0.00,0.00,0.00,3,S01
25320,-3.72059,-0.98641,1.66397,17.0122,-47.9268,23.7195,0.00,0.00,0.00,3,S01
25340,-2.99275,-0.85952,1.39103,21.7683,-64.0244,11.7683,0.00,0.00,0.00,3,S01
25360,-2.71024,0.12929,1.00556,24.9390,-77.8659,1.7073,0.00,0.00,0.00,3,S01
25380,-3.01430,-0.38786,-0.19154,27.7439,-100.7317,-1.2805,0.00,0.00,0.00,3,S01
25400,-2.89698,-0.66319,-1.98719,28.0488,-127.0122,-5.8537,0.00,0.00,0.00,3,S01
25420,-5.09726,-2.95684,-4.99909,10.6098,-135.1219,-19.8780,0.00,0.00,0.00,3,S01
25440,-10.19451,-2.46842,-9.28232,-21.8902,-103.7195,-60.6707,0.00,0.00,0.00,3,S01
25460,-17.20713,3.58412,-8.74841,-68.4146,21.6463,-105.0000,0.00,0.00,0.00,3,S01
25480,-19.12728,2.42772,1.39343,-101.5244,187.0732,-53.5976,0.00,0.00,0.00,3,S01
25500,-18.35395,-2.60729,11.11149,-143.6585,190.1219,2.9268,0.00,0.00,0.00,3,S01
25520,-18.49042,-2.40138,3.21541,-109.4512,71.0976,6.6463,0.00,0.00,0.00,3,S01
25540,-17.48725,-0.72305,0.18675,-72.8049,43.9634,12.7439,0.00,0.00,0.00,3,S01
25560,-14.78180,-0.58658,1.38145,-68.0488,37.6220,31.1585,0.00,0.00,0.00,3,S01
25580,-11.95904,-0.17957,0.26815,-65.6098,12.3171,46.5244,0.00,0.00,0.00,3,S01
25600,-9.72764,-0.38307,-0.77093,-55.0000,4.1463,58.5976,0.00,0.00,0.00,3,S01
25620,-7.96072,-1.49638,-0.89064,-49.0244,12.6220,62.3781,0.00,0.00,0.00,3,S01
25640,-6.93361,-1.54426,0.90740,-41.8902,21.1585,49.4512,0.00,0.00,0.00,3,S01
25660,-5.86819,-1.33596,1.92733,-28.4146,8.5976,35.6707,0.00,0.00,0.00,3,S01
25680,-4.79798,-0.70629,1.16837,-18.8415,-15.0000,25.9146,0.00,0.00,0.00,3,S01
25700,-4.05338,-0.22266,0.97444,-22.4390,-29.5732,17.2561,0.00,0.00,0.00,3,S01
25720,-3.17711,-0.62728,0.87867,-23.3537,-37.6829,10.0000,0.00,0.00,0.00,3,S01
25740,-3.00233,-0.14365,0.01915,-9.6341,-43.1707,1.4024,0.00,0.00,0.00,3,S01
25760,-4.74052,1.69509,-1.79086,2.5610,-48.9634,-5.3049,0.00,0.00,0.00,3,S01
25780,-7.58004,0.71347,-4.32153,4.7561,-51.6463,-1.5244,0.00,0.00,0.00,3,S01
25800,-9.15064,-2.54743,-5.33668,3.6585,-30.7927,3.3537,0.00,0.00,0.00,3,S01
25820,-10.04128,-3.55778,3.68946,-5.9146,19.9390,-6.8902,0.00,0.00,0.00,3,S01
25840,-13.07234,-2.64080,0.90740,3.4146,8.1098,-19.9390,0.00,0.00,0.00,3,S01
25860,-16.13213,-0.71826,-0.19154,26.1585,10.1829,-20.9146,0.00,0.00,0.00,3,S01
25880,-16.49844,-1.21386,1.64960,14.6341,19.3293,-9.5732,0.00,0.00,0.00,3,S01
25900,-15.62695,-1.92494,1.31442,10.7927,11.4634,-8.3537,0.00,0.00,0.00,3,S01
25920,-14.32930,-2.32956,1.19231,15.6707,13.7195,-15.6098,0.00,0.00,0.00,3,S01
25940,-12.60787,-2.39899,0.82121,21.2805,15.3659,-20.1829,0.00,0.00,0.00,3,S01
25960,-10.99178,-1.84593,0.60573,18.1098,16.1585,-21.9512,0.00,0.00,0.00,3,S01
25980,-9.53132,-1.35033,0.56982,15.7317,17.8049,-19.6951,0.00,0.00,0.00,3,S01
26000,-8.50899,-1.08218,0.90501,12.3780,23.0488,-13.6585,0.00,0.00,0.00,3,S01
26020,-7.43878,-0.27054,1.65679,6.7683,28.5366,-6.0366,0.00,0.00,0.00,3,S01
26040,-6.22732,0.11013,2.27689,2.0122,22.9268,4.4512,0.00,0.00,0.00,3,S01
26060,-4.95600,-1.00317,2.21942,5.7317,4.8780,13.5366,0.00,0.00,0.00,3,S01
26080,-3.42610,-1.08457,1.99437,14.0244,-14.8171,10.9756,0.00,0.00,0.00,3,S01
26100,-2.88262,0.20351,1.64482,15.2439,-33.3537,3.7195,0.00,0.00,0.00,3,S01
26120,-3.04782,-0.42617,0.29928,16.3415,-60.9146,7.3171,0.00,0.00,0.00,3,S01
26140,-3.07655,-0.72784,-1.45807,19.3293,-89.3902,7.5000,0.00,0.00,0.00,3,S01
26160,-4.95360,-2.64080,-3.71580,7.9268,-100.3659,-3.3537,0.00,0.00,0.00,3,S01
26180,-10.11550,-3.20344,-8.24324,-4.2073,-87.0122,-36.2805,0.00,0.00,0.00,3,S01
26200,-16.79293,3.06218,-8.82982,-40.0610,-3.9024,-79.5732,0.00,0.00,0.00,3,S01
26220,-18.14805,1.00796,4.15873,-81.4024,125.0000,-41.2195,0.00,0.00,0.00,3,S01
26240,-16.77857,-3.16035,6.73728,-104.6951,104.0244,0.9756,0.00,0.00,0.00,3,S01
26260,-17.41542,-2.45645,0.91937,-76.8293,31.6463,3.8415,0.00,0.00,0.00,3,S01
26280,-16.96053,-1.23062,1.76932,-62.9878,35.6707,17.2561,0.00,0.00,0.00,3,S01
26300,-14.87757,-0.54109,0.79487,-57.2561,23.4146,37.5610,0.00,0.00,0.00,3,S01
26320,-12.02129,-0.28012,-0.26815,-52.4390,9.2683,55.9146,0.00,0.00,0.00,3,S01
26340,-9.96227,-0.39265,-0.87628,-47.5000,9.5122,66.6463,0.00,0.00,0.00,3,S01
26360,-8.39886,-1.05345,-0.85473,-43.3537,18.1707,65.6098,0.00,0.00,0.00,3,S01
26380,-7.32386,-0.96965,0.27533,-34.8171,23.9024,51.7683,0.00,0.00,0.00,3,S01
26400,-6.07888,-1.16119,1.97282,-22.5000,17.8659,37.9878,0.00,0.00,0.00,3,S01
26420,-3.84988,-0.80206,1.38864,-15.2439,-17.5000,23.7195,0.00,0.00,0.00,3,S01
26440,-3.14598,-0.97683,1.34315,-22.0122,-32.1951,10.7927,0.00,0.00,0.00,3,S01
26460,-2.14520,-0.81642,0.81403,-9.2073,-47.0122,-1.0366,0.00,0.00,0.00,3,S01
26480,-2.01831,0.47884,-0.15802,11.6463,-61.3415,-12.1951,0.00,0.00,0.00,3,S01
26500,-3.19387,1.69270,-1.53468,23.5976,-75.4268,-15.0000,0.00,0.00,0.00,3,S01
26520,-7.66623,0.36392,-6.11000,31.5854,-87.2561,-9.1463,0.00,0.00,0.00,3,S01
26540,-13.57034,-2.61447,-9.62708,13.1707,-48.4146,-10.9146,0.00,0.00,0.00,3,S01
26560,-16.73068,-4.67827,4.33111,-17.5000,70.2439,-11.5244,0.00,0.00,0.00,3,S01
26580,-17.42739,-3.85466,5.50188,-7.3171,63.4146,-11.0366,0.00,0.00,0.00,3,S01
26600,-16.64928,-1.75256,-0.81403,37.9268,8.0488,-14.3902,0.00,0.00,0.00,3,S01
26620,-16.57506,-1.51792,1.30963,38.2317,18.3537,-16.3415,0.00,0.00,0.00,3,S01
26640,-15.37796,-1.96325,1.68552,36.4024,18.4146,-18.3537,0.00,0.00,0.00,3,S01
26660,-12.83771,-1.86508,1.13725,44.5732,10.1829,-19.7561,0.00,0.00,0.00,3,S01
26680,-10.08677,-1.54187,0.18196,47.3781,4.5732,-19.7561,0.00,0.00,0.00,3,S01
26700,-8.38449,-1.08936,-0.25618,44.0244,2.2561,-22.5610,0.00,0.00,0.00,3,S01
26720,-7.98227,-0.28252,-0.83079,40.9146,2.8659,-23.7195,0.00,0.00,0.00,3,S01
26740,-7.45076,0.19154,-0.65362,31.0366,14.1463,-15.8537,0.00,0.00,0.00,3,S01
26760,-6.33985,-0.07901,0.52433,16.6463,32.8659,-3.2927,0.00,0.00,0.00,3,S01
26780,-5.43723,-1.59693,3.05021,11.5854,43.1098,3.4146,0.00,0.00,0.00,3,S01
26800,-4.62081,-1.93451,4.77404,24.8780,25.6707,0.8537,0.00,0.00,0.00,3,S01
26820,-3.81875,-0.36631,2.90417,43.4146,-14.3902,-3.1707,0.00,0.00,0.00,3,S01
26840,-3.77326,-0.47166,0.77572,52.2561,-50.5488,2.9878,0.00,0.00,0.00,3,S01
26860,-3.81636,-0.81882,-1.45089,56.7073,-79.8781,7.3780,0.00,0.00,0.00,3,S01
26880,-5.08050,-1.93930,-3.85945,43.7805,-92.9268,-1.6463,0.00,0.00,0.00,3,S01
26900,-9.44273,-2.97839,-7.80989,19.7561,-82.4390,-32.0122,0.00,0.00,0.00,3,S01
26920,-15.50006,1.84114,-9.30147,-15.2439,-13.2927,-75.1220,0.00,0.00,0.00,3,S01
26940,-18.13847,1.37906,3.78284,-59.8781,108.6585,-52.8049,0.00,0.00,0.00,3,S01
26960,-17.14727,-2.65278,6.22732,-84.6341,91.5854,-11.2195,0.00,0.00,0.00,3,S01
26980,-16.74744,-2.34871,0.43096,-52.7439,26.3415,-2.8659,0.00,0.00,0.00,3,S01
27000,-15.91186,-1.64960,0.61292,-38.7805,35.1220,11.6463,0.00,0.00,0.00,3,S01
27020,-14.02763,-0.47884,0.65841,-30.5488,35.1829,27.6220,0.00,0.00,0.00,3,S01
27040,-11.38443,0.31603,-0.11971,-25.0610,21.5854,43.1098,0.00,0.00,0.00,3,S01
27060,-8.90882,-0.11013,-0.79727,-15.2439,14.5732,57.8049,0.00,0.00,0.00,3,S01
27080,-6.83784,-1.21865,-1.27372,-7.3171,13.9634,59.8781,0.00,0.00,0.00,3,S01
27100,-6.40210,-1.00317,-1.18513,-5.9146,17.9268,42.0122,0.00,0.00,0.00,3,S01
27120,-6.81150,-0.28252,0.72784,-6.4024,25.8537,23.4756,0.00,0.00,0.00,3,S01
27140,-6.34942,-0.58419,2.47800,-3.4756,21.7073,17.7439,0.00,0.00,0.00,3,S01
27160,-5.82749,-0.43574,1.76692,-2.1341,0.3659,12.9878,0.00,0.00,0.00,3,S01
27180,-5.27443,-0.68714,1.34315,-5.3049,-17.8049,6.7683,0.00,0.00,0.00,3,S01
27200,-4.67109,-1.37906,0.96965,-2.4390,-27.5610,0.1220,0.00,0.00,0.00,3,S01
27220,-4.60644,-0.74699,0.13408,12.5610,-26.4634,-8.4756,0.00,0.00,0.00,3,S01
27240,-5.02304,0.33279,-0.69192,22.1951,-21.7073,-13.3537,0.00,0.00,0.00,3,S01
27260,-6.31830,0.86191,-1.92973,26.0366,-23.0488,-8.9024,0.00,0.00,0.00,3,S01
27280,-10.69969,-0.52912,-5.76763,35.6707,-27.7439,-5.0000,0.00,0.00,0.00,3,S01
27300,-15.01164,-1.58975,-4.49392,33.8415,6.0366,-5.1220,0.00,0.00,0.00,3,S01
27320,-16.47211,-3.68707,3.37343,18.8415,32.7439,1.5244,0.00,0.00,0.00,3,S01
27340,-15.21036,-2.02549,-1.10852,36.3415,-3.2317,3.5976,0.00,0.00,0.00,3,S01
27360,-13.77384,-0.24421,-1.41976,37.8049,0.4268,-0.3049,0.00,0.00,0.00,3,S01
27380,-12.52168,-0.06943,0.11013,24.3293,9.1463,-4.9390,0.00,0.00,0.00,3,S01
27400,-10.41478,-0.26097,-0.06464,20.6707,7.5000,-12.1341,0.00,0.00,0.00,3,S01
27420,-7.86495,-1.30723,-0.04310,25.0610,5.4268,-19.0854,0.00,0.00,0.00,3,S01
27440,-6.19619,-1.83156,0.03591,28.8415,0.1220,-28.9024,0.00,0.00,0.00,3,S01
27460,-5.93762,-0.65601,-0.27054,27.5610,-10.3659,-41.2195,0.00,0.00,0.00,3,S01
27480,-6.83305,-0.10056,-1.39343,22.6220,-18.2317,-41.7073,0.00,0.00,0.00,3,S01
27500,-7.67102,-0.39504,-2.08056,11.0976,-10.0610,-33.7805,0.00,0.00,0.00,3,S01
27520,-7.94396,-1.03908,-1.50356,-1.5854,18.6585,-26.8902,0.00,0.00,0.00,3,S01
27540,-8.17380,-1.96803,2.66235,-6.5244,61.6463,-21.6463,0.00,0.00,0.00,3,S01
27560,-8.73644,-2.39181,7.04374,2.0732,63.1098,-17.0732,0.00,0.00,0.00,3,S01
27580,-7.81228,-1.54905,3.45723,25.9146,15.9146,-13.5366,0.00,0.00,0.00,3,S01
27600,-7.07247,-0.14126,0.82361,32.6829,1.1585,-11.2195,0.00,0.00,0.00,3,S01
27620,-7.21134,-0.07422,-0.39983,20.4878,8.1098,-5.3659,0.00,0.00,0.00,3,S01
27640,-7.22810,-1.64482,0.11732,6.4634,18.4146,-2.8659,0.00,0.00,0.00,3,S01
27660,-8.16423,-2.27928,-1.45807,3.7195,13.4756,-9.8171,0.00,0.00,0.00,3,S01
27680,-10.63744,0.55785,-0.38547,-13.1098,8.1098,-25.5488,0.00,0.00,0.00,3,S01
27700,-13.13459,-0.96247,-3.42850,-41.4634,-21.4024,3.2317,0.00,0.00,0.00,3,S01
27720,-15.49527,-1.87227,-2.37026,-49.5732,4.3293,4.6951,0.00,0.00,0.00,3,S01
27740,-16.99883,-0.93853,-1.13006,-47.4390,20.7927,0.9146,0.00,0.00,0.00,3,S01
27760,-16.53675,-0.80445,-1.68791,-46.4024,14.5732,8.4756,0.00,0.00,0.00,3,S01
27780,-14.90630,-1.27372,-1.09415,-52.8659,9.3902,22.1341,0.00,0.00,0.00,3,S01
27800,-13.13220,-1.61369,-0.45250,-51.9512,5.2439,33.3537,0.00,0.00,0.00,3,S01
27820,-11.64300,-0.56743,-0.16520,-44.7561,2.8659,36.5854,0.00,0.00,0.00,3,S01
27840,-10.15381,0.61770,0.17957,-40.9756,-0.7927,39.6341,0.00,0.00,0.00,3,S01
27860,-8.19296,0.62728,0.64883,-40.0610,-8.1098,44.8171,0.00,0.00,0.00,3,S01
27880,-5.97593,-1.27611,1.02472,-35.6098,-18.4756,51.2805,0.00,0.00,0.00,3,S01
27900,-3.84988,-3.27048,1.41018,-28.2927,-27.3171,50.0000,0.00,0.00,0.00,3,S01
27920,-2.67193,-2.26013,2.28646,-24.3902,-35.4878,30.9756,0.00,0.00,0.00,3,S01
27940,-2.09014,-0.74699,2.69587,-16.8293,-54.0854,6.7683,0.00,0.00,0.00,3,S01
27960,-1.45567,-0.43335,1.69988,8.0488,-81.4024,-2.3171,0.00,0.00,0.00,3,S01
27980,-1.07739,-0.60573,0.47405,34.8780,-106.9512,-2.1951,0.00,0.00,0.00,3,S01
28000,-1.92733,0.06225,-1.26653,49.3293,-132.6829,-1.2805,0.00,0.00,0.00,3,S01
28020,-7.30232,0.04549,-6.77799,53.9024,-151.0976,-3.1098,0.00,0.00,0.00,3,S01
28040,-14.72913,-1.25456,-11.33654,32.6829,-99.9390,-14.0244,0.00,0.00,0.00,3,S01
28060,-17.48486,-4.66151,-6.66546,2.0732,61.8902,-12.7439,0.00,0.00,0.00,3,S01
28080,-19.74259,-3.41892,12.22958,-11.0366,163.1098,-15.8537,0.00,0.00,0.00,3,S01
28100,-18.61013,-0.70629,3.31597,38.7195,61.5854,-13.2317,0.00,0.00,0.00,3,S01
28120,-16.63970,0.03591,-0.76614,45.2439,21.5244,-15.3659,0.00,0.00,0.00,3,S01
28140,-14.87757,-0.51236,1.04866,22.0122,32.8659,-24.6951,0.00,0.00,0.00,3,S01
28160,-12.81856,-0.66080,1.96085,14.6951,25.6098,-29.8171,0.00,0.00,0.00,3,S01
28180,-10.43393,-2.01592,0.80445,20.6098,0.9146,-22.8659,0.00,0.00,0.00,3,S01
28200,-8.33182,-2.66953,0.58658,22.8659,-6.5854,-14.8780,0.00,0.00,0.00,3,S01
28220,-7.19936,-2.23140,0.73981,21.4024,0.1220,-8.9024,0.00,0.00,0.00,3,S01
28240,-6.46674,-0.96965,1.07500,19.4512,11.2805,-6.9512,0.00,0.00,0.00,3,S01
28260,-5.74608,-0.21548,1.91297,16.9512,15.9756,-6.7073,0.00,0.00,0.00,3,S01
28280,-4.31196,-0.20830,3.50511,21.6463,8.4756,-5.9756,0.00,0.00,0.00,3,S01
28300,-2.91853,0.79727,3.75411,24.4512,-17.1951,-3.4146,0.00,0.00,0.00,3,S01
28320,-2.48518,0.42617,2.96642,19.8780,-56.8902,8.5976,0.00,0.00,0.00,3,S01
28340,-2.92093,-1.16598,0.90980,26.5854,-104.4512,19.7561,0.00,0.00,0.00,3,S01
28360,-5.01346,-3.20584,-2.29843,38.3537,-143.1098,10.9756,0.00,0.00,0.00,3,S01
28380,-9.97185,-4.50110,-7.86016,40.3659,-147.9268,-30.3049,0.00,0.00,0.00,3,S01
28400,-15.99566,3.39498,-9.19613,3.9634,-66.5244,-92.0122,0.00,0.00,0.00,3,S01
28420,-17.57583,4.86741,-6.39731,-40.6098,76.4024,-69.5122,0.00,0.00,0.00,3,S01
28440,-15.33965,-3.49314,8.19056,-92.9878,168.7195,-7.5610,0.00,0.00,0.00,3,S01
28460,-16.35240,-3.78763,5.75566,-85.0000,109.8781,1.8902,0.00,0.00,0.00,3,S01
28480,-16.77378,-1.47004,1.01514,-39.9390,61.7683,4.2683,0.00,0.00,0.00,3,S01
28500,-15.31331,-0.18435,1.76692,-26.8902,57.5000,18.4146,0.00,0.00,0.00,3,S01
28520,-12.78743,0.30885,1.06063,-22.7439,35.6098,37.9878,0.00,0.00,0.00,3,S01
28540,-9.97424,-0.28491,-0.28252,-13.0488,17.1951,56.1585,0.00,0.00,0.00,3,S01
28560,-8.41323,-0.70390,-0.67277,-10.6707,17.1951,57.8659,0.00,0.00,0.00,3,S01
28580,-8.39407,0.39265,0.64165,-7.5610,32.1951,41.0366,0.00,0.00,0.00,3,S01
28600,-8.11634,0.73263,2.37984,-1.9512,42.0122,27.7439,0.00,0.00,0.00,3,S01
28620,-7.00783,0.10056,2.35829,0.2439,27.6220,26.5244,0.00,0.00,0.00,3,S01
28640,-5.55215,-0.80206,1.59454,-2.1951,3.5976,30.3049,0.00,0.00,0.00,3,S01
28660,-3.87142,-1.07739,1.51553,-6.8902,-16.8902,27.1951,0.00,0.00,0.00,3,S01
28680,-2.24576,-1.41018,1.30484,-2.9268,-36.2805,18.0488,0.00,0.00,0.00,3,S01
28700,-1.51792,-0.60334,0.45969,10.1220,-55.8537,3.7805,0.00,0.00,0.00,3,S01
28720,-2.56658,1.63285,-0.81642,17.3171,-70.4878,-8.2317,0.00,0.00,0.00,3,S01
28740,-6.88094,1.33118,-4.59447,21.9512,-79.7561,-8.5366,0.00,0.00,0.00,3,S01
28760,-12.18888,-2.30322,-8.72447,20.3659,-57.1341,-8.5976,0.00,0.00,0.00,3,S01
28780,-13.40274,-5.06852,-0.94092,-4.1463,31.0976,-15.4878,0.00,0.00,0.00,3,S01
28800,-15.66287,-3.69904,6.80193,-13.9634,62.8049,-24.5122,0.00,0.00,0.00,3,S01
28820,-17.51598,0.35674,-0.03591,33.7195,28.7195,-24.6341,0.00,0.00,0.00,3,S01
28840,-18.02834,-0.37828,1.67594,25.9756,41.5854,-21.9512,0.00,0.00,0.00,3,S01
28860,-16.49366,-1.16119,1.59693,14.3293,30.2439,-26.6463,0.00,0.00,0.00,3,S01
28880,-13.92228,-0.93134,0.47645,18.0488,18.8415,-31.2195,0.00,0.00,0.00,3,S01
28900,-11.98537,-1.09654,-0.48123,18.5366,19.0854,-31.3415,0.00,0.00,0.00,3,S01
28920,-10.14423,-1.50595,-0.36871,15.7317,27.1341,-28.6585,0.00,0.00,0.00,3,S01
28940,-8.36534,-1.37667,0.69192,12.8659,33.7195,-24.6951,0.00,0.00,0.00,3,S01
28960,-5.46357,-0.46448,2.45645,1.9512,8.2317,-11.5854,0.00,0.00,0.00,3,S01
28980,-4.11324,-0.70629,3.16992,8.9024,-8.9634,-10.7927,0.00,0.00,0.00,3,S01
29000,-2.62165,0.18196,3.42610,20.3659,-21.7073,-10.6098,0.00,0.00,0.00,3,S01
29020,-1.68073,0.17717,2.76530,23.3537,-46.8293,-0.4268,0.00,0.00,0.00,3,S01
29040,-1.32639,-0.86191,1.01993,27.1951,-85.9756,14.2683,0.00,0.00,0.00,3,S01
29060,-1.50356,-0.92895,-1.01514,29.2073,-116.4024,16.7683,0.00,0.00,0.00,3,S01
29080,-4.83150,-4.88178,-4.66391,27.4390,-123.6585,5.9146,0.00,0.00,0.00,3,S01
29100,-11.76032,-5.86340,-10.88883,31.1585,-89.2683,-38.7805,0.00,0.00,0.00,3,S01
29120,-19.39543,3.74214,-10.24479,-11.9512,40.7927,-104.0854,0.00,0.00,0.00,3,S01
29140,-21.49275,5.55934,8.44914,-59.0854,173.9634,-68.0488,0.00,0.00,0.00,3,S01
29160,-19.74977,-0.54109,4.29280,-83.8415,102.4390,-4.8171,0.00,0.00,0.00,3,S01
29180,-18.89983,-2.72221,0.31603,-74.6341,37.6220,6.5854,0.00,0.00,0.00,3,S01
29200,-16.89109,-1.62327,1.18513,-56.8293,38.2927,15.9146,0.00,0.00,0.00,3,S01
29220,-14.53041,-0.54348,0.49560,-44.0244,24.0244,31.0366,0.00,0.00,0.00,3,S01
29240,-12.53604,0.27773,-0.52194,-34.0854,10.7317,48.4146,0.00,0.00,0.00,3,S01
29260,-9.60075,-0.50278,-0.55785,-24.0244,12.8049,61.8293,0.00,0.00,0.00,3,S01
29280,-6.68701,-0.68235,0.67516,-19.7561,16.6463,56.0976,0.00,0.00,0.00,3,S01
29300,-5.14275,-0.05028,1.44610,-13.1098,11.4634,38.6585,0.00,0.00,0.00,3,S01
29320,-3.27048,-0.60813,2.06620,-7.3780,5.7927,31.9512,0.00,0.00,0.00,3,S01
29340,-2.24576,-0.12929,2.07338,-15.4878,-6.2195,28.5976,0.00,0.00,0.00,3,S01
29360,-1.86029,-0.57940,1.71904,-26.9512,-21.8902,19.5732,0.00,0.00,0.00,3,S01
29380,-0.94571,-1.23541,1.58736,-20.6098,-33.1098,7.6829,0.00,0.00,0.00,3,S01
29400,-0.84036,-0.48123,0.69192,-4.2073,-47.3171,-8.1707,0.00,0.00,0.00,3,S01
29420,-3.30400,1.77650,-1.50116,8.2317,-64.5732,-17.7439,0.00,0.00,0.00,3,S01
29440,-9.86890,2.34392,-6.76362,12.9878,-69.1463,-12.6220,0.00,0.00,0.00,3,S01
29460,-15.86637,-3.21302,-10.42675,1.8902,-18.3537,4.8171,0.00,0.00,0.00,3,S01
29480,-17.80089,-8.57124,8.31027,-19.1463,73.9024,2.3780,0.00,0.00,0.00,3,S01
29500,-18.25339,-5.01585,2.85628,23.2927,16.0976,-24.6341,0.00,0.00,0.00,3,S01
29520,-17.66681,1.95846,-3.37104,72.8659,-19.4512,-30.1220,0.00,0.00,0.00,3,S01
29540,-16.25902,1.14682,-2.56419,40.0000,3.9024,-15.7317,0.00,0.00,0.00,3,S01
29560,-14.50168,-1.24977,1.77889,3.7805,27.4390,-15.3659,0.00,0.00,0.00,3,S01
29580,-12.78504,-1.26414,1.02951,7.1341,17.5000,-26.2805,0.00,0.00,0.00,3,S01
29600,-11.01812,-1.52750,-0.18675,22.9878,6.3415,-31.0366,0.00,0.00,0.00,3,S01
29620,-9.52413,-1.46046,-0.24421,21.5854,1.0976,-30.4268,0.00,0.00,0.00,3,S01
29640,-7.77637,-0.73502,0.63207,13.5976,2.3780,-22.0732,0.00,0.00,0.00,3,S01
29660,-6.27999,-0.22266,1.54665,6.7073,2.0732,-8.0488,0.00,0.00,0.00,3,S01
29680,-5.11401,-0.15802,2.16915,-0.6707,-5.3049,1.5854,0.00,0.00,0.00,3,S01
29700,-3.96719,-0.14605,2.38223,-0.3659,-14.7561,5.9756,0.00,0.00,0.00,3,S01
29720,-2.81798,0.22027,2.33435,4.0854,-24.4512,8.1098,0.00,0.00,0.00,3,S01
29740,-2.45645,-0.39025,1.44131,7.3780,-43.9024,12.5610,0.00,0.00,0.00,3,S01
29760,-2.35829,-1.76453,-0.20351,15.3049,-72.5610,16.0976,0.00,0.00,0.00,3,S01
29780,-2.91135,-2.49476,-1.81480,21.9512,-92.0732,6.5854,0.00,0.00,0.00,3,S01
29800,-7.05571,-6.45477,-6.21535,29.1463,-95.0610,-20.4268,0.00,0.00,0.00,3,S01
29820,-14.02523,-0.07422,-8.44435,16.4024,-43.3537,-91.7073,0.00,0.00,0.00,3,S01
29840,-18.98602,8.34140,-3.76129,-17.8049,68.3537,-107.2561,0.00,0.00,0.00,3,S01
29860,-17.62132,1.78129,6.49547,-72.1951,105.1220,-22.3171,0.00,0.00,0.00,3,S01
29880,-17.88469,-3.00472,1.95127,-102.0122,26.0976,11.6463,0.00,0.00,0.00,3,S01
29900,-18.56225,-2.66714,1.43652,-78.9024,21.4634,10.7927,0.00,0.00,0.00,3,S01
29920,-16.57985,-1.11330,1.10133,-51.7683,26.5244,22.8049,0.00,0.00,0.00,3,S01
29940,-13.88876,-0.24900,-0.00718,-43.4146,9.0854,44.6341,0.00,0.00,0.00,3,S01
29960,-11.04685,-0.37828,-0.29688,-36.7073,7.6220,64.2683,0.00,0.00,0.00,3,S01
29980,-8.51139,-0.45969,0.40941,-33.4146,13.4756,71.4634,0.00,0.00,0.00,3,S01
# DONE 1500 samples in 30.0s
