timestamp,ax,ay,az,gx,gy,gz,mx,my,mz,label,subject_id
0,-9.43076,-0.61770,-0.50278,55.5488,8.5366,-3.2317,0.00,0.00,0.00,4,S01
20,-9.31105,-0.25379,-0.62728,47.9878,9.0854,-4.2683,0.00,0.00,0.00,4,S01
40,-9.08121,-0.18435,-0.45250,38.6585,7.9878,-4.2073,0.00,0.00,0.00,4,S01
60,-9.04051,-0.65601,-0.15802,32.7439,6.7073,-4.0854,0.00,0.00,0.00,4,S01
80,-9.17458,-1.12767,0.04310,32.3780,5.8537,-4.3293,0.00,0.00,0.00,4,S01
100,-9.36851,-0.87628,-0.22745,33.0488,4.0244,-4.6341,0.00,0.00,0.00,4,S01
120,-9.48104,-0.59137,-0.39744,28.9024,1.8293,-3.7195,0.00,0.00,0.00,4,S01
140,-9.50259,-0.57940,-0.33279,24.0244,-0.7317,-2.8049,0.00,0.00,0.00,4,S01
160,-9.50498,-0.79487,-0.11492,20.9756,-3.4756,-2.9268,0.00,0.00,0.00,4,S01
180,-9.39964,-1.03190,0.06225,19.7561,-6.1585,-3.3537,0.00,0.00,0.00,4,S01
200,-9.27514,-1.28090,0.12450,19.8780,-7.1951,-3.2927,0.00,0.00,0.00,4,S01
220,-9.26077,-1.27132,0.07422,21.6463,-6.0366,-2.8049,0.00,0.00,0.00,4,S01
240,-9.13867,-1.06542,-0.07661,22.9878,-4.1463,-1.4024,0.00,0.00,0.00,4,S01
260,-9.00220,-0.87628,-0.00239,22.3171,-2.4390,0.4268,0.00,0.00,0.00,4,S01
280,-9.14824,-0.84994,0.13168,21.0366,-2.1341,2.3171,0.00,0.00,0.00,4,S01
300,-9.43555,-0.84994,0.09098,20.2439,-2.3171,4.0244,0.00,0.00,0.00,4,S01
320,-9.57681,-0.73502,0.02155,18.8415,-1.7683,5.3049,0.00,0.00,0.00,4,S01
340,-9.64624,-0.48363,-0.01197,15.4878,-2.2561,5.8537,0.00,0.00,0.00,4,S01
360,-9.69891,-0.34237,-0.23224,11.5244,-3.7195,4.9390,0.00,0.00,0.00,4,S01
380,-9.61751,-0.18675,-0.55785,7.6829,-4.4512,2.7439,0.00,0.00,0.00,4,S01
400,-9.53132,-0.24900,-0.45969,3.1098,-3.0488,0.4878,0.00,0.00,0.00,4,S01
420,-9.40442,-0.55306,-0.31125,0.3659,-2.5000,-1.5244,0.00,0.00,0.00,4,S01
440,-9.25598,-0.76854,-0.26815,-0.6707,-1.8293,-3.1707,0.00,0.00,0.00,4,S01
460,-9.17219,-0.80924,-0.20830,-1.4024,-0.4268,-4.1463,0.00,0.00,0.00,4,S01
480,-9.11473,-0.74460,-0.14844,-0.9146,0.4268,-4.8780,0.00,0.00,0.00,4,S01
500,-9.05727,-0.64643,-0.19393,0.6707,0.8537,-5.4878,0.00,0.00,0.00,4,S01
520,-9.03572,-0.65841,-0.27533,2.9878,1.4634,-6.0976,0.00,0.00,0.00,4,S01
540,-9.23683,-0.61531,-0.26097,6.5854,2.4390,-6.0366,0.00,0.00,0.00,4,S01
560,-9.50737,-0.44532,-0.01915,9.6951,1.9512,-4.6951,0.00,0.00,0.00,4,S01
580,-9.64863,0.19393,-0.19393,8.8415,0.4268,-5.1220,0.00,0.00,0.00,4,S01
600,-9.48343,0.34716,-0.36152,5.3049,1.7683,-6.4634,0.00,0.00,0.00,4,S01
620,-9.25359,0.28491,-0.35195,1.4634,0.5488,-7.6829,0.00,0.00,0.00,4,S01
640,-8.96868,-0.10774,-0.20111,-1.2195,-2.1951,-9.1463,0.00,0.00,0.00,4,S01
660,-8.90404,-0.79727,-0.01197,0.3049,-5.2439,-11.0366,0.00,0.00,0.00,4,S01
680,-9.05008,-1.77889,0.16999,8.3537,-8.1707,-12.9878,0.00,0.00,0.00,4,S01
700,-9.03332,-2.51152,0.33519,22.6829,-6.8902,-13.9024,0.00,0.00,0.00,4,S01
720,-8.97107,-2.48518,0.38068,37.8659,-0.3659,-13.1707,0.00,0.00,0.00,4,S01
740,-9.08839,-1.75016,0.38068,48.2927,7.1951,-11.0366,0.00,0.00,0.00,4,S01
760,-9.36133,-0.90980,0.24421,52.7439,12.7439,-8.5366,0.00,0.00,0.00,4,S01
780,-9.56244,-0.32082,0.05986,52.0732,15.6098,-7.5610,0.00,0.00,0.00,4,S01
800,-9.65821,0.02394,-0.14844,47.4390,16.5244,-8.1098,0.00,0.00,0.00,4,S01
820,-9.63187,0.14126,-0.05746,39.1463,17.1951,-8.5976,0.00,0.00,0.00,4,S01
840,-9.61990,-0.21308,0.35434,30.3049,15.9756,-8.5976,0.00,0.00,0.00,4,S01
860,-9.51216,-0.72065,0.55306,26.0976,15.0610,-9.8780,0.00,0.00,0.00,4,S01
880,-9.21768,-1.23541,0.74939,25.6098,15.7927,-12.0732,0.00,0.00,0.00,4,S01
900,-9.06684,-1.39343,0.64165,29.6341,15.9146,-13.5976,0.00,0.00,0.00,4,S01
920,-9.05966,-1.26414,0.74460,32.9878,16.3415,-12.8049,0.00,0.00,0.00,4,S01
940,-9.02853,-1.22823,0.86910,35.2439,15.6098,-10.7317,0.00,0.00,0.00,4,S01
960,-9.07163,-1.24977,0.83079,38.0488,14.3293,-8.9634,0.00,0.00,0.00,4,S01
980,-9.10515,-1.34554,0.75178,40.3049,14.6951,-7.0732,0.00,0.00,0.00,4,S01
1000,-9.15064,-1.44370,0.70150,41.8902,15.4878,-4.7561,0.00,0.00,0.00,4,S01
1020,-9.25119,-1.40540,0.69911,42.6829,14.5732,-2.3171,0.00,0.00,0.00,4,S01
1040,-9.23204,-1.35033,0.75178,41.9512,11.5244,-0.7927,0.00,0.00,0.00,4,S01
1060,-9.22725,-1.20189,0.85234,40.0610,8.7195,-0.1829,0.00,0.00,0.00,4,S01
1080,-9.36612,-1.14443,1.21147,37.0122,6.2195,0.7317,0.00,0.00,0.00,4,S01
1100,-9.32302,-1.27850,1.45807,33.8415,1.5244,2.7439,0.00,0.00,0.00,4,S01
1120,-8.99980,-1.52750,1.63763,30.3659,-2.5610,4.0854,0.00,0.00,0.00,4,S01
1140,-8.83939,-1.82917,1.66636,27.1341,-4.3902,3.1707,0.00,0.00,0.00,4,S01
1160,-8.81545,-1.93451,1.60890,24.8780,-4.5732,0.6098,0.00,0.00,0.00,4,S01
1180,-8.93756,-1.85311,1.67355,20.6098,-6.5244,-1.6463,0.00,0.00,0.00,4,S01
1200,-9.33499,-1.90578,1.39582,15.0610,-12.0732,-2.8659,0.00,0.00,0.00,4,S01
1220,-10.19691,-2.95205,0.16759,14.9390,-16.0976,-6.7683,0.00,0.00,0.00,4,S01
1240,-11.07558,-3.21062,-0.94332,27.9268,-13.2927,-18.5366,0.00,0.00,0.00,4,S01
1260,-11.36528,-1.42216,-0.56982,36.7683,-13.9024,-27.4390,0.00,0.00,0.00,4,S01
1280,-11.21923,-0.00958,-1.09415,27.9878,-28.6585,-23.8415,0.00,0.00,0.00,4,S01
1300,-10.49618,-0.12210,-1.73819,20.3659,-32.9878,-13.4146,0.00,0.00,0.00,4,S01
1320,-9.56005,-0.53151,-1.07021,21.9512,-25.4268,-6.0366,0.00,0.00,0.00,4,S01
1340,-9.18655,-0.84276,-0.94332,26.4634,-18.3537,-5.4878,0.00,0.00,0.00,4,S01
1360,-9.60314,-0.56503,-0.80685,37.6220,-7.9268,-3.0488,0.00,0.00,0.00,4,S01
1380,-10.17057,0.01437,-0.69192,44.3293,-1.8293,4.6341,0.00,0.00,0.00,4,S01
1400,-10.24000,0.48363,-0.71347,45.6707,-0.7317,12.9268,0.00,0.00,0.00,4,S01
1420,-9.47146,0.43096,-0.74699,44.9390,0.4268,18.7195,0.00,0.00,0.00,4,S01
1440,-8.70292,0.27773,-0.68953,43.4146,1.9512,19.6341,0.00,0.00,0.00,4,S01
1460,-8.42759,0.19154,-0.29928,42.1341,3.3537,18.5366,0.00,0.00,0.00,4,S01
1480,-8.76278,0.14844,-0.12689,43.4756,5.8537,18.2927,0.00,0.00,0.00,4,S01
1500,-8.88009,-0.06225,-0.19393,45.1220,11.2195,19.5732,0.00,0.00,0.00,4,S01
1520,-8.64546,-0.19872,-0.11253,45.9146,17.1341,20.2439,0.00,0.00,0.00,4,S01
1540,-8.62391,0.13886,-0.07183,45.1829,18.6585,19.0854,0.00,0.00,0.00,4,S01
1560,-9.01178,0.79009,-0.05746,41.9512,17.7439,19.2073,0.00,0.00,0.00,4,S01
1580,-9.42837,1.08218,-0.05507,36.0366,18.2317,21.1585,0.00,0.00,0.00,4,S01
1600,-9.45470,0.86191,0.24660,30.0610,17.9268,20.8537,0.00,0.00,0.00,4,S01
1620,-8.98065,0.53870,0.35674,29.8780,12.6220,17.0122,0.00,0.00,0.00,4,S01
1640,-8.60237,0.79248,0.01197,32.4390,9.5122,13.2927,0.00,0.00,0.00,4,S01
1660,-8.85615,1.11330,-0.10774,28.4146,14.9390,14.0244,0.00,0.00,0.00,4,S01
1680,-9.33260,1.22583,0.26097,20.6098,21.0366,14.2073,0.00,0.00,0.00,4,S01
1700,-9.70370,1.22344,0.71826,14.8171,18.1707,10.3049,0.00,0.00,0.00,4,S01
1720,-9.53611,0.94332,0.97683,14.0854,8.0488,5.1220,0.00,0.00,0.00,4,S01
1740,-9.07642,0.54588,1.28569,17.4390,-1.0976,0.9146,0.00,0.00,0.00,4,S01
1760,-8.64546,0.28491,1.48201,22.7439,-5.3049,-2.1341,0.00,0.00,0.00,4,S01
1780,-8.84179,0.12689,1.64003,32.6220,4.7561,-2.5610,0.00,0.00,0.00,4,S01
1800,-9.85453,0.24900,1.71904,32.9268,11.0366,-0.3049,0.00,0.00,0.00,4,S01
1820,-10.84334,-0.11253,1.54905,34.6341,14.7561,1.2805,0.00,0.00,0.00,4,S01
1840,-11.34373,0.12450,0.23703,42.5000,15.7927,0.1829,0.00,0.00,0.00,4,S01
1860,-12.23916,1.01993,-1.59214,43.7805,21.4024,-1.0976,0.00,0.00,0.00,4,S01
1880,-15.28937,0.51475,-0.08619,36.2195,25.5488,-0.0610,0.00,0.00,0.00,4,S01
1900,-14.18804,-0.54827,-0.53391,32.9878,6.7073,5.0610,0.00,0.00,0.00,4,S01
1920,-11.57357,0.67756,-1.75734,38.0488,6.4634,1.6463,0.00,0.00,0.00,4,S01
1940,-10.49379,1.59454,-2.73897,31.0976,20.0000,-8.9634,0.00,0.00,0.00,4,S01
1960,-10.25197,1.16358,-2.48039,17.6220,33.4756,-19.4512,0.00,0.00,0.00,4,S01
1980,-10.33816,0.56982,-2.43730,11.7073,36.4634,-26.0366,0.00,0.00,0.00,4,S01
2000,-10.32380,0.34477,-2.43011,7.6829,34.9390,-31.5244,0.00,0.00,0.00,4,S01
2020,-10.24239,0.29688,-2.54982,3.6585,30.7927,-35.7927,0.00,0.00,0.00,4,S01
2040,-9.82580,0.16759,-2.54982,-3.7195,25.4878,-35.4878,0.00,0.00,0.00,4,S01
2060,-9.22725,0.17717,-2.54504,-12.7439,22.1951,-31.6463,0.00,0.00,0.00,4,S01
2080,-8.82024,0.01197,-2.51152,-20.0610,21.8293,-27.8659,0.00,0.00,0.00,4,S01
2100,-8.64546,-0.30406,-2.43011,-23.3537,20.9756,-27.0732,0.00,0.00,0.00,4,S01
2120,-8.52336,-0.39025,-2.39420,-23.9634,16.9512,-28.4756,0.00,0.00,0.00,4,S01
2140,-8.26957,-0.31603,-2.34392,-25.9146,11.7073,-28.8415,0.00,0.00,0.00,4,S01
2160,-7.96551,-0.35674,-2.30801,-32.6220,5.5488,-26.5244,0.00,0.00,0.00,4,S01
2180,-7.68060,-0.51715,-2.20267,-40.1829,-0.9146,-24.4512,0.00,0.00,0.00,4,S01
2200,-7.37893,-0.78051,-2.17394,-44.3293,-6.4024,-24.3902,0.00,0.00,0.00,4,S01
2220,-7.31429,-1.05105,-2.08774,-46.3415,-8.4146,-25.0610,0.00,0.00,0.00,4,S01
2240,-7.57286,-1.29047,-1.69988,-48.7805,-7.4390,-25.3659,0.00,0.00,0.00,4,S01
2260,-7.78834,-1.07978,-1.99916,-49.6341,-7.6829,-25.6098,0.00,0.00,0.00,4,S01
2280,-7.87214,-1.21386,-1.99916,-55.8537,-6.7683,-24.1463,0.00,0.00,0.00,4,S01
2300,-7.75243,-1.44849,-2.19788,-57.9878,-3.1707,-24.0854,0.00,0.00,0.00,4,S01
2320,-7.84340,-1.81480,-1.80523,-55.7317,2.0732,-27.1341,0.00,0.00,0.00,4,S01
2340,-8.12831,-2.04465,-1.69031,-49.1463,4.2683,-30.9146,0.00,0.00,0.00,4,S01
2360,-8.18099,-2.24097,-1.66397,-42.1951,3.4146,-31.8902,0.00,0.00,0.00,4,S01
2380,-7.98706,-2.28167,-1.71664,-36.9512,2.0122,-29.7561,0.00,0.00,0.00,4,S01
2400,-7.91284,-2.08774,-1.71425,-33.6585,2.1341,-26.4024,0.00,0.00,0.00,4,S01
2420,-8.11395,-1.73580,-1.59933,-32.6829,2.8049,-23.3537,0.00,0.00,0.00,4,S01
2440,-8.40844,-1.61609,-1.55384,-30.4268,3.2317,-20.1829,0.00,0.00,0.00,4,S01
2460,-8.59040,-1.86508,-1.47722,-27.3780,1.7683,-17.5610,0.00,0.00,0.00,4,S01
2480,-8.64307,-2.04465,-1.48680,-23.7805,-1.6463,-15.2439,0.00,0.00,0.00,4,S01
2500,-8.77236,-1.99916,-1.37188,-22.3780,-5.6707,-12.5000,0.00,0.00,0.00,4,S01
2520,-9.00699,-1.84354,-1.05584,-23.2317,-9.1463,-9.6951,0.00,0.00,0.00,4,S01
2540,-9.11473,-1.70946,-0.63925,-23.3537,-11.4634,-6.2805,0.00,0.00,0.00,4,S01
2560,-9.08360,-1.80523,-0.11013,-22.7439,-13.6585,-3.1707,0.00,0.00,0.00,4,S01
2580,-9.05008,-2.14042,0.06464,-16.6463,-16.4024,-2.9268,0.00,0.00,0.00,4,S01
2600,-9.16740,-2.10929,-0.21308,-6.3415,-16.0976,-3.6585,0.00,0.00,0.00,4,S01
2620,-9.68455,-1.48680,-0.58419,-1.1585,-10.7927,-1.7073,0.00,0.00,0.00,4,S01
2640,-10.42675,-1.22344,-0.84755,-6.4634,-4.3902,4.1463,0.00,0.00,0.00,4,S01
2660,-10.96544,-1.67834,-1.73819,-9.5732,1.4024,10.5488,0.00,0.00,0.00,4,S01
2680,-12.09551,-2.27689,-2.27689,-6.8293,8.5976,14.0854,0.00,0.00,0.00,4,S01
2700,-13.44823,-1.50356,-2.28407,-8.2927,8.8415,8.7195,0.00,0.00,0.00,4,S01
2720,-13.08671,-0.79009,-1.82917,-11.8293,1.7683,1.4634,0.00,0.00,0.00,4,S01
2740,-11.54005,-1.80044,-2.38702,-13.4756,-9.5732,1.8293,0.00,0.00,0.00,4,S01
2760,-9.95030,-3.39737,-3.10528,-9.2683,-7.3780,5.1220,0.00,0.00,0.00,4,S01
2780,-9.40921,-3.35428,-3.01191,-6.0366,12.2561,7.3171,0.00,0.00,0.00,4,S01
2800,-10.06044,-2.34153,-2.54504,-6.4024,31.8902,9.6341,0.00,0.00,0.00,4,S01
2820,-10.80264,-1.62087,-2.87065,-1.5854,38.0488,16.4634,0.00,0.00,0.00,4,S01
2840,-10.41717,-1.37427,-3.16513,2.8659,32.2561,26.5854,0.00,0.00,0.00,4,S01
2860,-9.31823,-1.26414,-2.75573,0.9756,18.3537,33.1098,0.00,0.00,0.00,4,S01
2880,-8.34379,-1.23062,-2.55461,0.6707,3.5366,33.7195,0.00,0.00,0.00,4,S01
2900,-8.12353,-1.32160,-2.26491,4.2683,-3.5366,30.0610,0.00,0.00,0.00,4,S01
2920,-8.33661,-1.01035,-2.42533,9.5732,-2.5610,25.3659,0.00,0.00,0.00,4,S01
2940,-8.48266,-0.71826,-2.31280,12.6220,2.6220,24.3293,0.00,0.00,0.00,4,S01
2960,-8.54491,-0.54588,-1.99198,15.0610,0.7317,26.0976,0.00,0.00,0.00,4,S01
2980,-7.92481,-0.34237,-2.19548,18.1098,-18.8415,30.1829,0.00,0.00,0.00,4,S01
3000,-7.51300,-0.35195,-2.16196,16.0366,-18.7805,31.7683,0.00,0.00,0.00,4,S01
3020,-7.31668,-0.00718,-2.01592,14.7561,-14.8171,32.0122,0.00,0.00,0.00,4,S01
3040,-7.48667,0.30167,-1.75734,13.4756,-13.1098,31.6463,0.00,0.00,0.00,4,S01
3060,-7.69018,0.38547,-1.63045,13.7805,-14.7561,29.6951,0.00,0.00,0.00,4,S01
3080,-7.51779,0.31364,-1.70707,18.6585,-15.3049,26.5244,0.00,0.00,0.00,4,S01
3100,-7.46033,0.41180,-1.92254,24.4512,-11.8293,23.6585,0.00,0.00,0.00,4,S01
3120,-7.89847,0.38068,-1.77171,25.6098,-5.6098,20.9146,0.00,0.00,0.00,4,S01
3140,-8.41801,0.45490,-1.50116,26.0976,-1.9512,16.4634,0.00,0.00,0.00,4,S01
3160,-8.39168,0.68714,-1.37427,27.3171,-4.7561,12.7439,0.00,0.00,0.00,4,S01
3180,-8.28154,1.20907,-1.49398,26.2195,-8.8415,11.5854,0.00,0.00,0.00,4,S01
3200,-8.56167,1.40300,-1.65679,20.0610,-5.2439,12.9268,0.00,0.00,0.00,4,S01
3220,-9.23922,1.24977,-1.14443,13.4146,4.8780,13.1098,0.00,0.00,0.00,4,S01
3240,-9.68215,0.82600,-0.20830,8.9634,6.6463,12.5000,0.00,0.00,0.00,4,S01
3260,-10.10353,0.47405,0.33998,7.0122,-1.4024,12.4390,0.00,0.00,0.00,4,S01
3280,-10.64701,0.61292,0.58658,6.9512,-2.7439,12.9878,0.00,0.00,0.00,4,S01
3300,-11.41316,0.64883,0.51715,5.4268,3.4756,11.8902,0.00,0.00,0.00,4,S01
3320,-11.83214,0.20590,0.81642,6.7683,7.7439,9.1463,0.00,0.00,0.00,4,S01
3340,-11.58554,0.37589,-0.51715,12.3780,3.9024,4.9390,0.00,0.00,0.00,4,S01
3360,-12.68687,0.98641,-0.79487,12.3780,5.1220,0.0610,0.00,0.00,0.00,4,S01
3380,-14.63097,0.86910,-2.76770,13.4146,3.9024,0.5488,0.00,0.00,0.00,4,S01
3400,-12.52886,-0.30646,-1.94888,13.7805,3.8415,7.8049,0.00,0.00,0.00,4,S01
3420,-9.69891,-0.45490,-3.26330,23.2317,-14.2683,2.3780,0.00,0.00,0.00,4,S01
3440,-8.74602,0.85234,-3.74932,21.1585,-18.2317,-5.7317,0.00,0.00,0.00,4,S01
3460,-9.15064,1.13006,-3.32794,6.7073,-7.7439,-8.7805,0.00,0.00,0.00,4,S01
3480,-9.40682,0.78769,-3.22499,1.1585,7.5610,-13.2927,0.00,0.00,0.00,4,S01
3500,-9.42837,0.13168,-3.09091,-1.6463,16.0366,-21.3415,0.00,0.00,0.00,4,S01
3520,-9.24641,-0.53630,-2.75094,-3.6585,8.2927,-28.4146,0.00,0.00,0.00,4,S01
3540,-8.97347,-0.95529,-2.65517,-5.1220,-8.5366,-30.6098,0.00,0.00,0.00,4,S01
3560,-8.55927,-1.01993,-2.58574,-5.1829,-19.2073,-29.0854,0.00,0.00,0.00,4,S01
3580,-7.90565,-0.82361,-2.60489,-2.3780,-18.2317,-26.0976,0.00,0.00,0.00,4,S01
3600,-7.36217,-0.65362,-2.49955,-0.5488,-10.0610,-23.7195,0.00,0.00,0.00,4,S01
3620,-7.50582,-0.57221,-2.19548,0.6098,-2.6829,-23.4756,0.00,0.00,0.00,4,S01
3640,-7.83622,-0.56743,-2.00395,3.5366,0.2439,-24.8780,0.00,0.00,0.00,4,S01
3660,-7.57525,-0.52912,-2.12366,7.9268,-0.5488,-26.2195,0.00,0.00,0.00,4,S01
3680,-7.46033,-0.60813,-1.98719,6.0976,-2.6220,-27.6220,0.00,0.00,0.00,4,S01
3700,-7.63511,-0.69432,-1.63524,1.4024,-5.0610,-29.0244,0.00,0.00,0.00,4,S01
3720,-8.01100,-1.01754,-1.49398,0.5488,-7.6829,-29.6341,0.00,0.00,0.00,4,S01
3740,-8.06367,-1.28569,-1.57778,2.9878,-6.7683,-30.7317,0.00,0.00,0.00,4,S01
3760,-7.61356,-1.42216,-1.63285,5.2439,-0.5488,-30.5488,0.00,0.00,0.00,4,S01
3780,-7.73567,-1.33596,-1.63524,4.3902,6.7683,-28.1707,0.00,0.00,0.00,4,S01
3800,-8.54251,-1.07739,-1.52032,1.8293,13.5976,-24.0854,0.00,0.00,0.00,4,S01
3820,-8.90164,-0.94092,-1.35991,-2.9878,15.6098,-18.5976,0.00,0.00,0.00,4,S01
3840,-8.62870,-1.15879,-1.13964,-7.9878,9.8171,-13.9634,0.00,0.00,0.00,4,S01
3860,-8.59518,-1.29047,-1.19710,-11.1585,3.4756,-12.2561,0.00,0.00,0.00,4,S01
3880,-8.84897,-1.18752,-1.00796,-14.3293,5.3049,-12.1341,0.00,0.00,0.00,4,S01
3900,-8.97826,-1.02951,-0.64883,-16.4634,7.4390,-10.6707,0.00,0.00,0.00,4,S01
3920,-8.89207,-1.04866,-0.37589,-17.6220,3.2317,-7.9878,0.00,0.00,0.00,4,S01
3940,-8.71968,-1.02472,-0.35195,-21.3415,0.0610,-4.9390,0.00,0.00,0.00,4,S01
3960,-8.84658,-0.79487,-0.23463,-24.8171,4.2683,-2.5610,0.00,0.00,0.00,4,S01
3980,-9.21289,-0.66798,-0.19154,-27.3780,6.0366,-0.0610,0.00,0.00,0.00,4,S01
4000,-9.90002,-0.80685,0.38786,-32.0122,1.0976,1.7683,0.00,0.00,0.00,4,S01
4020,-10.66138,-1.06781,0.65122,-34.9390,-7.5610,2.1951,0.00,0.00,0.00,4,S01
4040,-10.84334,-1.38385,-0.21069,-33.7195,-8.6585,3.0488,0.00,0.00,0.00,4,S01
4060,-11.07079,-1.28329,-1.43173,-28.2927,3.5976,5.9756,0.00,0.00,0.00,4,S01
4080,-12.32296,-1.38624,-1.76692,-26.4634,13.9024,8.1707,0.00,0.00,0.00,4,S01
4100,-13.36443,-0.60573,-2.15239,-25.2439,10.5488,3.1707,0.00,0.00,0.00,4,S01
4120,-13.02206,-0.37589,-2.16436,-20.5488,4.6341,0.6707,0.00,0.00,0.00,4,S01
4140,-11.65976,-0.51236,-2.89459,-23.1707,-2.6829,4.5122,0.00,0.00,0.00,4,S01
4160,-10.20648,-1.05105,-2.87783,-28.1098,4.5732,6.1585,0.00,0.00,0.00,4,S01
4180,-10.01973,-0.99359,-2.80600,-22.9878,26.8293,5.4268,0.00,0.00,0.00,4,S01
4200,-10.20409,-0.58179,-3.16513,-19.4512,27.2561,13.0488,0.00,0.00,0.00,4,S01
4220,-9.72046,0.12210,-3.16035,-18.5366,23.5366,20.3659,0.00,0.00,0.00,4,S01
4240,-8.84658,0.35674,-2.92811,-20.7927,16.1585,25.1829,0.00,0.00,0.00,4,S01
4260,-8.18817,0.13886,-2.57616,-20.5488,8.8415,26.3415,0.00,0.00,0.00,4,S01
4280,-7.97030,-0.17957,-2.17154,-18.5366,2.0122,24.3902,0.00,0.00,0.00,4,S01
4300,-7.96311,-0.35674,-2.09493,-15.7927,-4.2073,22.7439,0.00,0.00,0.00,4,S01
4320,-7.87453,-0.46926,-2.10211,-11.4634,-6.2195,22.7439,0.00,0.00,0.00,4,S01
4340,-7.82186,-0.35195,-2.00634,-6.0366,-5.8537,23.2317,0.00,0.00,0.00,4,S01
4360,-7.91044,-0.01197,-1.80523,-2.9878,-7.7439,23.0488,0.00,0.00,0.00,4,S01
4380,-7.96790,0.27294,-1.95846,-1.7073,-11.6463,21.8293,0.00,0.00,0.00,4,S01
4400,-7.70694,0.33758,-2.27928,0.2439,-10.9756,21.5854,0.00,0.00,0.00,4,S01
4420,-7.46991,0.44293,-2.26252,0.7927,-6.3415,21.4024,0.00,0.00,0.00,4,S01
4440,-7.63750,0.49321,-2.16196,0.3049,-3.6585,20.5488,0.00,0.00,0.00,4,S01
4460,-8.09958,0.58179,-1.94170,0.6707,-3.3537,18.5366,0.00,0.00,0.00,4,S01
4480,-8.22169,0.57940,-1.97522,3.4146,-3.6585,17.2561,0.00,0.00,0.00,4,S01
4500,-8.21211,0.66080,-1.89860,5.3659,-2.6829,17.1341,0.00,0.00,0.00,4,S01
4520,-8.45153,0.81403,-1.72622,5.1829,-1.4024,16.2195,0.00,0.00,0.00,4,S01
4540,-8.83700,0.80445,-1.53947,6.2195,-2.1341,13.3537,0.00,0.00,0.00,4,S01
4560,-8.84179,0.86910,-1.80762,8.4146,-6.8902,10.7927,0.00,0.00,0.00,4,S01
4580,-8.45871,1.29287,-2.05662,6.6463,-8.5976,11.0366,0.00,0.00,0.00,4,S01
4600,-8.34619,1.43892,-1.71664,-0.5488,-5.5488,10.9756,0.00,0.00,0.00,4,S01
4620,-8.61673,1.36948,-1.40779,-4.8171,-3.5976,7.4390,0.00,0.00,0.00,4,S01
4640,-8.92558,1.14682,-1.16837,-4.9390,-3.1707,3.5366,0.00,0.00,0.00,4,S01
4660,-9.19373,0.82839,-0.82839,-4.0854,-5.4268,1.5244,0.00,0.00,0.00,4,S01
4680,-9.44273,0.67277,-0.55067,-2.6220,-8.8415,0.5488,0.00,0.00,0.00,4,S01
4700,-9.79707,0.46448,-0.42856,-1.3415,-6.9512,0.6707,0.00,0.00,0.00,4,S01
4720,-10.56801,0.29449,-0.13168,0.4268,-0.7927,0.3659,0.00,0.00,0.00,4,S01
4740,-11.61906,0.14605,0.09337,3.1098,-0.7927,-1.3415,0.00,0.00,0.00,4,S01
4760,-12.20085,0.36152,-0.44532,8.6585,-6.0366,-4.0854,0.00,0.00,0.00,4,S01
4780,-12.09551,0.99838,-1.54187,11.3415,-4.0854,-6.9512,0.00,0.00,0.00,4,S01
4800,-13.53442,1.74058,-2.65756,9.3293,-2.0122,-8.0488,0.00,0.00,0.00,4,S01
4820,-12.51689,0.64883,-3.03345,3.4756,-3.7195,-2.1951,0.00,0.00,0.00,4,S01
4840,-9.72285,0.12450,-3.39019,3.9024,-6.5854,-1.6463,0.00,0.00,0.00,4,S01
4860,-8.34140,0.89064,-4.28323,5.2439,-7.6220,-8.4146,0.00,0.00,0.00,4,S01
4880,-8.66940,1.41258,-4.38139,3.0488,8.6585,-12.3171,0.00,0.00,0.00,4,S01
4900,-9.42118,0.89543,-3.71580,-0.7317,25.0000,-15.8537,0.00,0.00,0.00,4,S01
4920,-10.20888,-0.58897,-2.63602,-0.9146,22.0732,-24.2073,0.00,0.00,0.00,4,S01
4940,-10.66617,-0.64404,-2.47082,7.0122,-0.1829,-32.9268,0.00,0.00,0.00,4,S01
4960,-9.60554,-0.57940,-2.30801,7.5610,-20.4878,-33.6585,0.00,0.00,0.00,4,S01
4980,-7.90805,0.24181,-2.82276,7.0122,-25.2439,-31.1585,0.00,0.00,0.00,4,S01
5000,-7.11317,0.73023,-2.85868,5.6098,-7.6220,-25.2439,0.00,0.00,0.00,4,S01
5020,-7.59201,0.46926,-2.44209,-0.7317,9.5732,-24.0854,0.00,0.00,0.00,4,S01
5040,-8.22408,-0.20830,-2.08056,-8.4756,10.2439,-24.3902,0.00,0.00,0.00,4,S01
5060,-8.40604,-0.28012,-1.98958,-12.1341,5.7317,-24.3902,0.00,0.00,0.00,4,S01
5080,-8.29591,0.21308,-2.07338,-11.0976,3.9024,-25.7317,0.00,0.00,0.00,4,S01
5100,-7.95354,0.37110,-2.17154,-10.3659,0.4268,-26.5854,0.00,0.00,0.00,4,S01
5120,-7.75482,-0.17717,-2.05183,-11.7683,-4.2683,-27.7439,0.00,0.00,0.00,4,S01
5140,-7.99663,-0.84515,-1.61130,-12.0122,-8.1098,-30.4878,0.00,0.00,0.00,4,S01
5160,-8.58082,-1.09894,-1.61369,-9.5122,-12.9268,-32.5610,0.00,0.00,0.00,4,S01
5180,-8.49942,-1.22823,-1.77889,-6.3415,-13.1098,-31.2195,0.00,0.00,0.00,4,S01
5200,-8.03255,-1.36230,-2.03507,-3.9024,-9.0244,-28.2927,0.00,0.00,0.00,4,S01
5220,-8.28394,-1.22823,-1.92494,-4.6341,-3.1098,-27.0732,0.00,0.00,0.00,4,S01
5240,-8.93516,-1.00078,-1.72143,-5.8537,0.3659,-26.5854,0.00,0.00,0.00,4,S01
5260,-9.18655,-1.24259,-1.59933,-4.9390,-0.8537,-24.6341,0.00,0.00,0.00,4,S01
5280,-8.40604,-1.54905,-1.58017,0.1829,-2.9268,-23.6585,0.00,0.00,0.00,4,S01
5300,-7.76918,-1.81959,-1.64003,5.2439,-3.9634,-23.1707,0.00,0.00,0.00,4,S01
5320,-8.21451,-1.76453,-1.56102,5.8537,-1.7073,-21.2805,0.00,0.00,0.00,4,S01
5340,-8.62870,-1.67115,-1.24738,4.5732,3.9634,-17.5000,0.00,0.00,0.00,4,S01
5360,-8.36055,-1.61848,-0.89543,7.1341,7.4390,-13.9634,0.00,0.00,0.00,4,S01
5380,-8.51618,-1.50595,-0.99838,12.4390,7.0122,-9.8171,0.00,0.00,0.00,4,S01
5400,-8.99262,-1.48919,-0.69911,11.5244,10.6098,-7.8049,0.00,0.00,0.00,4,S01
5420,-9.14824,-1.61369,-0.47405,11.7073,8.4756,-5.2439,0.00,0.00,0.00,4,S01
5440,-9.10275,-1.69988,-0.30646,12.5610,2.6829,-3.1098,0.00,0.00,0.00,4,S01
5460,-9.07642,-1.69749,-0.12929,13.1098,-0.8537,-2.1951,0.00,0.00,0.00,4,S01
5480,-9.24401,-1.77650,0.13647,12.1341,-2.0732,-2.2561,0.00,0.00,0.00,4,S01
5500,-9.39006,-1.86269,0.08619,10.6098,-3.5366,-2.5610,0.00,0.00,0.00,4,S01
5520,-9.78271,-1.86269,-0.01437,9.2683,-4.3902,-1.5244,0.00,0.00,0.00,4,S01
5540,-10.16817,-2.24097,-0.00718,5.7927,-6.6463,1.7073,0.00,0.00,0.00,4,S01
5560,-10.03170,-2.65756,-0.84994,6.5244,-7.0122,5.1220,0.00,0.00,0.00,4,S01
5580,-10.69729,-2.50433,-1.52750,10.3659,0.1220,6.1585,0.00,0.00,0.00,4,S01
5600,-11.94467,-1.78607,-1.86987,7.3780,6.2195,3.2317,0.00,0.00,0.00,4,S01
5620,-12.76588,-0.92177,-1.56341,1.7073,7.7439,-2.9268,0.00,0.00,0.00,4,S01
5640,-12.62702,-1.41737,-1.94888,-0.8537,-2.0732,-4.6341,0.00,0.00,0.00,4,S01
5660,-12.00453,-2.32238,-2.96163,-5.9756,-12.5610,-1.7073,0.00,0.00,0.00,4,S01
5680,-10.63265,-2.52828,-2.94008,-12.9268,-7.9268,3.7195,0.00,0.00,0.00,4,S01
5700,-9.83778,-1.96085,-2.99993,-12.2561,5.6707,5.0610,0.00,0.00,0.00,4,S01
5720,-10.06762,-1.42934,-3.45004,-5.4268,23.5366,4.5122,0.00,0.00,0.00,4,S01
5740,-10.82179,-1.17795,-3.59130,0.7927,34.7561,10.4268,0.00,0.00,0.00,4,S01
5760,-11.04206,-0.95529,-3.33273,-0.2439,27.6220,21.7073,0.00,0.00,0.00,4,S01
5780,-10.46266,-0.56024,-3.29203,-4.4512,8.9634,31.3415,0.00,0.00,0.00,4,S01
5800,-9.23204,-0.21548,-3.00712,-6.4024,-3.4756,36.5854,0.00,0.00,0.00,4,S01
5820,-8.02297,-0.15323,-2.97360,-6.0366,-6.7073,38.9024,0.00,0.00,0.00,4,S01
5840,-7.81467,-0.18914,-2.60250,-6.6463,-2.8049,36.5854,0.00,0.00,0.00,4,S01
5860,-8.20014,-0.02394,-2.19309,-6.0366,0.7317,32.7439,0.00,0.00,0.00,4,S01
5880,-8.09719,0.21787,-2.18112,-3.4146,0.9756,32.3171,0.00,0.00,0.00,4,S01
5900,-7.67102,0.36152,-2.08296,-3.4146,-0.3049,33.1707,0.00,0.00,0.00,4,S01
5920,-7.18739,0.11971,-2.04225,-4.4512,-4.8780,33.1098,0.00,0.00,0.00,4,S01
5940,-7.20655,-0.01437,-1.89381,-3.7195,-8.7805,30.5488,0.00,0.00,0.00,4,S01
5960,-7.27598,0.14365,-1.81480,-2.5610,-7.0122,28.1707,0.00,0.00,0.00,4,S01
5980,-7.24485,0.46448,-1.83396,-2.8049,-1.2195,29.3902,0.00,0.00,0.00,4,S01
6000,-7.17063,0.65841,-1.80762,-5.0000,4.1463,31.2805,0.00,0.00,0.00,4,S01
6020,-7.38611,0.74699,-1.68552,-6.5854,5.9756,29.9390,0.00,0.00,0.00,4,S01
6040,-8.00861,0.56503,-1.55863,-5.0000,3.1098,24.9390,0.00,0.00,0.00,4,S01
6060,-8.51378,0.53870,-1.48201,-0.0610,0.2439,19.7561,0.00,0.00,0.00,4,S01
6080,-8.43477,0.74939,-1.66397,1.5854,-1.2805,18.1707,0.00,0.00,0.00,4,S01
6100,-8.38210,1.32399,-1.62806,-2.0732,-0.5488,17.1951,0.00,0.00,0.00,4,S01
6120,-8.50899,1.70946,-1.61130,-7.9268,1.1585,16.0366,0.00,0.00,0.00,4,S01
6140,-8.77954,1.66397,-1.39343,-12.8659,2.3780,12.7439,0.00,0.00,0.00,4,S01
6160,-8.90404,1.13246,-1.11330,-16.0976,1.3415,6.1585,0.00,0.00,0.00,4,S01
6180,-8.79390,0.66080,-0.97923,-14.8171,-0.3049,0.3049,0.00,0.00,0.00,4,S01
6200,-8.84179,0.53391,-0.80445,-13.2317,0.3659,-1.7683,0.00,0.00,0.00,4,S01
6220,-9.47625,0.62010,-0.43574,-12.7439,0.9756,-3.5366,0.00,0.00,0.00,4,S01
6240,-10.16099,0.76614,0.14844,-11.5244,-3.5366,-6.5854,0.00,0.00,0.00,4,S01
6260,-10.64701,0.70390,0.33758,-6.8902,-11.1585,-8.6585,0.00,0.00,0.00,4,S01
6280,-11.45625,0.66080,0.22027,-0.7927,-14.1463,-9.0854,0.00,0.00,0.00,4,S01
6300,-11.69567,1.28090,-0.86910,5.0610,-12.8659,-10.3659,0.00,0.00,0.00,4,S01
6320,-12.05481,1.90818,-0.90261,4.2073,-9.5732,-12.9268,0.00,0.00,0.00,4,S01
6340,-14.10424,2.71263,-2.39899,1.5854,-15.9146,-12.8049,0.00,0.00,0.00,4,S01
6360,-13.37401,1.21625,-2.01352,-4.0854,-14.2073,-3.8415,0.00,0.00,0.00,4,S01
6380,-10.91517,0.30406,-2.38223,1.4024,-13.4756,-2.1341,0.00,0.00,0.00,4,S01
6400,-9.05966,0.30406,-3.02867,8.7195,-11.8902,-7.1951,0.00,0.00,0.00,4,S01
6420,-8.65504,0.82600,-3.34231,8.7805,-2.8659,-10.6098,0.00,0.00,0.00,4,S01
6440,-9.50259,0.63925,-3.04303,2.6829,7.6829,-15.4268,0.00,0.00,0.00,4,S01
6460,-10.07959,0.19632,-2.97839,0.3049,12.2561,-23.1707,0.00,0.00,0.00,4,S01
6480,-9.97185,-0.22505,-2.88741,-0.3049,6.6463,-29.2683,0.00,0.00,0.00,4,S01
6500,-9.49301,-0.40701,-2.69827,-3.8415,-4.5732,-32.1951,0.00,0.00,0.00,4,S01
6520,-8.86094,-0.58658,-2.55222,-7.7439,-11.6463,-32.1341,0.00,0.00,0.00,4,S01
6540,-8.35098,-0.86431,-2.42293,-6.8293,-10.9146,-30.4268,0.00,0.00,0.00,4,S01
6560,-7.91523,-1.24259,-1.90578,-2.8049,-4.7561,-25.9756,0.00,0.00,0.00,4,S01
6580,-7.88411,-1.05584,-1.96085,2.8659,-1.8293,-26.7073,0.00,0.00,0.00,4,S01
6600,-7.80989,-0.71347,-2.00395,4.5732,0.7317,-28.5366,0.00,0.00,0.00,4,S01
6620,-7.91523,-0.53870,-1.69031,2.6220,0.3049,-28.8415,0.00,0.00,0.00,4,S01
6640,-8.06128,-0.42856,-1.70707,-0.8537,-4.5122,-27.9268,0.00,0.00,0.00,4,S01
6660,-8.13310,-0.62728,-1.46525,-4.8171,-6.4024,-26.3415,0.00,0.00,0.00,4,S01
6680,-7.82186,-0.97923,-1.40300,-4.3902,-7.3780,-26.4634,0.00,0.00,0.00,4,S01
6700,-7.41245,-1.30005,-1.37667,-2.3171,-7.2561,-28.4146,0.00,0.00,0.00,4,S01
6720,-7.67821,-1.43652,-1.21865,-2.0122,-5.1220,-30.7927,0.00,0.00,0.00,4,S01
6740,-8.12831,-1.41976,-1.09654,-0.9146,-0.8537,-30.7927,0.00,0.00,0.00,4,S01
6760,-8.17141,-1.36469,-1.20189,1.2805,3.9024,-27.8049,0.00,0.00,0.00,4,S01
6780,-7.85059,-1.41497,-1.16837,2.1951,6.4634,-22.0732,0.00,0.00,0.00,4,S01
6800,-8.07085,-1.26653,-1.25696,2.4390,8.5976,-17.9878,0.00,0.00,0.00,4,S01
6820,-8.56885,-1.25217,-0.88585,1.2195,12.2561,-16.7073,0.00,0.00,0.00,4,S01
6840,-8.52336,-1.52271,-0.84755,2.9878,11.1585,-16.8902,0.00,0.00,0.00,4,S01
6860,-8.46111,-1.87705,-0.79248,6.9512,9.6951,-17.7439,0.00,0.00,0.00,4,S01
6880,-8.65265,-2.04465,-0.62968,9.8171,9.3902,-16.6463,0.00,0.00,0.00,4,S01
6900,-9.01178,-1.93691,-0.58179,11.6463,10.4878,-12.9878,0.00,0.00,0.00,4,S01
6920,-9.18176,-1.71664,-0.55545,13.4146,10.8537,-9.1463,0.00,0.00,0.00,4,S01
6940,-9.20092,-1.64003,-0.32322,12.9268,8.4146,-6.8902,0.00,0.00,0.00,4,S01
6960,-9.34457,-1.78847,0.03831,11.4634,4.2683,-6.0366,0.00,0.00,0.00,4,S01
6980,-9.73482,-1.76692,0.31603,9.6951,0.4268,-5.9146,0.00,0.00,0.00,4,S01
7000,-9.85693,-1.54426,0.21787,6.7073,-3.0488,-4.3902,0.00,0.00,0.00,4,S01
7020,-10.30464,-1.43413,0.11971,2.2561,-3.8415,-1.9512,0.00,0.00,0.00,4,S01
7040,-10.91517,-1.67355,-0.53630,-3.9634,-4.8780,1.5244,0.00,0.00,0.00,4,S01
7060,-11.00136,-2.00395,-1.87466,-9.5732,0.9756,4.8171,0.00,0.00,0.00,4,S01
7080,-11.91594,-2.76530,-1.83635,-13.9634,12.6829,5.9146,0.00,0.00,0.00,4,S01
7100,-12.91672,-2.39660,-2.03268,-11.6463,12.6829,1.4024,0.00,0.00,0.00,4,S01
7120,-12.21282,-1.77889,-2.14999,-10.1220,6.0366,-0.1829,0.00,0.00,0.00,4,S01
7140,-10.65420,-1.97522,-2.89938,-17.6220,0.4268,7.9268,0.00,0.00,0.00,4,S01
7160,-9.75637,-2.50433,-2.86107,-22.3171,11.9512,12.5610,0.00,0.00,0.00,4,S01
7180,-9.94312,-1.96803,-2.74376,-17.6829,26.2195,12.0122,0.00,0.00,0.00,4,S01
7200,-10.46266,-1.55863,-2.88741,-12.1951,29.4512,15.0610,0.00,0.00,0.00,4,S01
7220,-10.54646,-1.29526,-3.14598,-4.6341,24.0244,21.5244,0.00,0.00,0.00,4,S01
7240,-10.00537,-0.89543,-3.21541,-1.2805,14.1463,27.9268,0.00,0.00,0.00,4,S01
7260,-9.20810,-0.62249,-3.00712,-2.9268,4.0244,32.1951,0.00,0.00,0.00,4,S01
7280,-8.56645,-0.62249,-2.69827,-3.7195,-0.9756,33.1707,0.00,0.00,0.00,4,S01
7300,-8.28394,-0.48123,-2.57616,-2.4390,-1.6463,31.0976,0.00,0.00,0.00,4,S01
7320,-8.09958,-0.25139,-2.64320,-2.8049,-0.7317,30.0610,0.00,0.00,0.00,4,S01
7340,-7.85059,-0.09337,-2.52349,-5.4268,0.9146,31.1585,0.00,0.00,0.00,4,S01
7360,-8.02297,-0.01676,-2.32238,-7.9878,0.6707,32.1341,0.00,0.00,0.00,4,S01
7380,-8.33422,-0.31125,-1.92015,-9.5732,-3.3537,32.3780,0.00,0.00,0.00,4,S01
7400,-8.40844,-0.49560,-1.90818,-8.1098,-12.8659,31.4024,0.00,0.00,0.00,4,S01
7420,-7.99663,-0.35674,-1.97043,-7.1951,-20.5488,29.8780,0.00,0.00,0.00,4,S01
7440,-7.51540,-0.15802,-1.79565,-6.8293,-21.6463,29.8780,0.00,0.00,0.00,4,S01
7460,-7.35499,0.17238,-1.57778,-5.2439,-18.2317,29.5732,0.00,0.00,0.00,4,S01
7480,-7.63511,0.42617,-1.55144,-2.1341,-12.7439,27.1341,0.00,0.00,0.00,4,S01
7500,-7.78116,0.62728,-1.76692,1.2195,-6.8902,23.7195,0.00,0.00,0.00,4,S01
7520,-7.85777,0.88585,-1.94170,2.2561,-1.7683,21.2195,0.00,0.00,0.00,4,S01
7540,-8.09958,1.02951,-1.75016,-0.4878,0.2439,19.7561,0.00,0.00,0.00,4,S01
7560,-8.51618,0.95289,-1.51553,-3.1707,-2.6220,17.9878,0.00,0.00,0.00,4,S01
7580,-8.83460,0.75417,-1.25456,-3.8415,-7.5000,14.8171,0.00,0.00,0.00,4,S01
7600,-8.69095,0.85234,-1.17795,-3.5366,-11.8902,11.8902,0.00,0.00,0.00,4,S01
7620,-8.51618,1.12288,-1.16837,-5.3659,-12.1951,10.4878,0.00,0.00,0.00,4,S01
7640,-8.77236,1.24738,-1.08457,-7.8049,-6.8902,9.4512,0.00,0.00,0.00,4,S01
7660,-9.22725,0.89304,-0.79487,-7.2561,0.9756,8.5366,0.00,0.00,0.00,4,S01
7680,-9.63906,0.47166,-0.25857,-5.1220,3.5976,6.5244,0.00,0.00,0.00,4,S01
7700,-10.20888,0.52672,0.14844,-1.6463,0.8537,3.7195,0.00,0.00,0.00,4,S01
7720,-10.74757,0.85473,0.14844,2.0122,-1.0976,1.5244,0.00,0.00,0.00,4,S01
7740,-10.83616,0.82121,-0.11971,7.0732,1.8293,0.5488,0.00,0.00,0.00,4,S01
7760,-11.05882,0.78769,-1.27132,20.1220,8.0488,-1.8293,0.00,0.00,0.00,4,S01
7780,-13.17529,1.03430,-1.46286,24.8780,8.4146,-3.6585,0.00,0.00,0.00,4,S01
7800,-13.56315,0.47645,-2.65038,30.6707,2.8659,0.2439,0.00,0.00,0.00,4,S01
7820,-11.01333,0.30885,-2.59292,34.5732,0.6098,2.8049,0.00,0.00,0.00,4,S01
7840,-9.30626,1.01035,-3.35907,34.5732,-2.5000,-3.7805,0.00,0.00,0.00,4,S01
7860,-9.09797,1.54426,-3.37343,24.7561,8.4146,-10.0610,0.00,0.00,0.00,4,S01
7880,-9.73243,1.23301,-3.13880,11.7073,19.4512,-16.8293,0.00,0.00,0.00,4,S01
7900,-10.06762,0.60334,-2.91374,3.3537,20.2439,-26.7683,0.00,0.00,0.00,4,S01
7920,-9.91199,-0.02155,-2.76291,-0.4268,12.8049,-36.3415,0.00,0.00,0.00,4,S01
7940,-9.51935,-0.61531,-2.50433,-1.5244,5.1220,-41.0976,0.00,0.00,0.00,4,S01
7960,-8.94953,-1.07021,-2.42772,-0.3049,1.4024,-39.6341,0.00,0.00,0.00,4,S01
7980,-8.31267,-1.50356,-2.35589,2.8049,1.9512,-35.0000,0.00,0.00,0.00,4,S01
8000,-7.80749,-1.45807,-2.34871,10.7317,3.2927,-32.2561,0.00,0.00,0.00,4,S01
8020,-7.47470,-1.30005,-2.27689,18.5976,5.3049,-29.0244,0.00,0.00,0.00,4,S01
8040,-7.59920,-0.77333,-2.25055,23.6585,7.0732,-26.8293,0.00,0.00,0.00,4,S01
8060,-7.82425,-0.37350,-2.14760,23.8415,4.1463,-25.9146,0.00,0.00,0.00,4,S01
8080,-8.07564,-0.29209,-2.02071,20.4268,-2.1341,-26.4634,0.00,0.00,0.00,4,S01
8100,-7.95114,-0.45969,-1.99676,20.7927,-6.9512,-28.2927,0.00,0.00,0.00,4,S01
8120,-7.60159,-0.68235,-2.15718,20.7927,-10.7317,-30.1829,0.00,0.00,0.00,4,S01
8140,-7.62074,-1.02232,-2.09971,16.9512,-10.4878,-30.0610,0.00,0.00,0.00,4,S01
8160,-8.12831,-1.36230,-2.03986,14.3293,-9.4512,-28.5366,0.00,0.00,0.00,4,S01
8180,-8.24324,-1.49398,-2.09493,14.3902,-8.5366,-27.8659,0.00,0.00,0.00,4,S01
8200,-7.96790,-1.67834,-1.97282,15.8537,-7.9268,-27.1341,0.00,0.00,0.00,4,S01
8220,-7.95593,-1.85790,-1.83875,18.0488,-7.8049,-25.3049,0.00,0.00,0.00,4,S01
8240,-8.26478,-1.85551,-1.70707,20.1829,-7.3780,-22.2561,0.00,0.00,0.00,4,S01
8260,-8.38928,-1.80523,-1.62566,21.0366,-6.1585,-18.9634,0.00,0.00,0.00,4,S01
8280,-8.31027,-1.86269,-1.49638,21.5244,-3.5366,-16.9512,0.00,0.00,0.00,4,S01
8300,-8.37971,-1.90578,-1.47962,22.1341,-0.3659,-15.7317,0.00,0.00,0.00,4,S01
8320,-8.60476,-1.79086,-1.32399,21.9512,3.4756,-14.1463,0.00,0.00,0.00,4,S01
8340,-8.54251,-1.61369,-1.28090,20.6707,4.7561,-11.9512,0.00,0.00,0.00,4,S01
8360,-8.23845,-1.74777,-1.15640,19.1463,5.5488,-9.2073,0.00,0.00,0.00,4,S01
8380,-8.35098,-1.99676,-0.90980,19.6951,8.4756,-7.3171,0.00,0.00,0.00,4,S01
8400,-8.86094,-2.08056,-0.70868,22.2561,11.0976,-6.0976,0.00,0.00,0.00,4,S01
8420,-9.15064,-1.88903,-0.63686,23.2927,11.2805,-3.9024,0.00,0.00,0.00,4,S01
8440,-9.06445,-1.59933,-0.46208,21.5854,9.7561,-1.0366,0.00,0.00,0.00,4,S01
8460,-9.00938,-1.54905,-0.24421,18.1098,6.0366,0.7927,0.00,0.00,0.00,4,S01
8480,-9.09797,-1.72861,-0.13886,14.7561,4.0244,2.3171,0.00,0.00,0.00,4,S01
8500,-9.21289,-1.82917,-0.07661,11.7073,4.4512,3.9634,0.00,0.00,0.00,4,S01
8520,-9.34936,-1.73340,-0.20830,7.9878,4.4512,5.2439,0.00,0.00,0.00,4,S01
8540,-9.75637,-1.69270,-0.52912,2.3171,3.3537,6.2805,0.00,0.00,0.00,4,S01
8560,-11.72441,-2.87783,-1.62566,-6.6463,6.3415,9.3293,0.00,0.00,0.00,4,S01
8580,-12.83771,-2.65038,-1.70946,-10.8537,6.8293,6.9512,0.00,0.00,0.00,4,S01
8600,-12.83771,-2.65038,-1.70946,-10.8537,6.8293,6.9512,0.00,0.00,0.00,4,S01
8620,-13.30219,-1.67594,-1.70707,-14.5732,1.8902,1.6463,0.00,0.00,0.00,4,S01
8640,-12.60787,-1.99437,-2.44209,-18.1098,-3.4146,0.7927,0.00,0.00,0.00,4,S01
8660,-11.41795,-2.32716,-3.02148,-20.3659,0.6098,2.9878,0.00,0.00,0.00,4,S01
8680,-10.07241,-2.10450,-3.35188,-23.4146,9.5122,6.0976,0.00,0.00,0.00,4,S01
8700,-9.72046,-1.69031,-3.27048,-24.1463,22.2561,6.7683,0.00,0.00,0.00,4,S01
8720,-10.48421,-1.45089,-3.06937,-17.8049,30.9756,8.0488,0.00,0.00,0.00,4,S01
8740,-10.89122,-1.35512,-2.95444,-8.8415,24.2683,15.3049,0.00,0.00,0.00,4,S01
8760,-10.28788,-1.11330,-2.80122,-2.3780,6.8293,24.8171,0.00,0.00,0.00,4,S01
8780,-9.31344,-0.68235,-2.83234,2.1341,-6.6463,32.1951,0.00,0.00,0.00,4,S01
8800,-8.45871,-0.33519,-2.69348,3.2927,-7.6220,37.1341,0.00,0.00,0.00,4,S01
8820,-8.07325,-0.26576,-2.58334,2.9878,-2.6220,37.3780,0.00,0.00,0.00,4,S01
8840,-7.95833,-0.15562,-2.60729,4.3293,2.8659,34.5122,0.00,0.00,0.00,4,S01
8860,-7.95833,0.11492,-2.69827,5.0000,6.4634,32.2561,0.00,0.00,0.00,4,S01
8880,-8.01579,0.41899,-2.61926,2.8659,6.0976,32.5610,0.00,0.00,0.00,4,S01
8900,-8.08522,0.62728,-2.61447,-1.3415,0.3049,33.1707,0.00,0.00,0.00,4,S01
8920,-7.89847,0.34955,-2.47321,-7.1951,-9.3902,31.4634,0.00,0.00,0.00,4,S01
8940,-7.77397,0.29688,-2.43011,-11.0366,-17.4390,27.3780,0.00,0.00,0.00,4,S01
8960,-7.73806,0.16759,-2.09971,-17.2561,-14.4512,26.2195,0.00,0.00,0.00,4,S01
8980,-7.90326,0.25618,-1.91776,-18.0488,-13.4146,26.2195,0.00,0.00,0.00,4,S01
9000,-7.75243,0.39025,-1.86269,-17.6220,-12.9878,25.3049,0.00,0.00,0.00,4,S01
9020,-7.55131,0.56982,-1.95846,-16.0366,-11.8902,23.2927,0.00,0.00,0.00,4,S01
9040,-7.79313,0.80924,-1.86987,-15.6707,-11.0976,20.6098,0.00,0.00,0.00,4,S01
9060,-8.30549,0.90022,-1.70946,-16.2195,-11.2805,17.5610,0.00,0.00,0.00,4,S01
9080,-8.70532,0.84994,-1.48919,-16.9512,-12.0122,14.5122,0.00,0.00,0.00,4,S01
9100,-8.86812,0.98402,-1.35512,-17.5610,-14.3293,11.8293,0.00,0.00,0.00,4,S01
9120,-9.05966,1.31921,-1.27611,-20.1220,-17.1951,10.4878,0.00,0.00,0.00,4,S01
9140,-9.18895,1.48680,-1.13725,-23.8415,-17.9268,9.3902,0.00,0.00,0.00,4,S01
9160,-9.57681,1.23062,-0.85473,-24.3902,-14.2683,7.1951,0.00,0.00,0.00,4,S01
9180,-10.24000,1.05105,-0.37350,-21.9512,-10.6707,4.3902,0.00,0.00,0.00,4,S01
9200,-10.82179,1.01035,-0.15323,-20.1829,-9.3902,1.4634,0.00,0.00,0.00,4,S01
9220,-11.05882,0.79727,0.01915,-18.2317,-6.8902,-0.9146,0.00,0.00,0.00,4,S01
9240,-11.00854,0.60094,-0.08140,-13.0488,-5.3049,-2.8659,0.00,0.00,0.00,4,S01
9260,-10.91517,0.65841,-0.39265,-7.3171,-4.8171,-4.6951,0.00,0.00,0.00,4,S01
9280,-12.51928,0.77812,-0.21308,0.1220,-11.4024,-7.9268,0.00,0.00,0.00,4,S01
9300,-12.75152,0.31125,-1.84832,13.2317,-20.7927,-4.7561,0.00,0.00,0.00,4,S01
9320,-10.44590,0.37110,-1.85311,22.2561,-13.7195,0.4878,0.00,0.00,0.00,4,S01
9340,-9.35893,1.10133,-2.44687,25.1829,-10.7927,-3.0488,0.00,0.00,0.00,4,S01
9360,-9.51216,1.66158,-2.30562,16.0976,-2.7439,-8.7805,0.00,0.00,0.00,4,S01
9380,-9.80904,1.25935,-2.27689,7.5610,3.1098,-14.5122,0.00,0.00,0.00,4,S01
9400,-9.94073,0.50278,-1.95846,1.3415,4.3293,-21.2805,0.00,0.00,0.00,4,S01
9420,-9.86172,0.07422,-1.76213,-2.6220,1.3415,-26.4024,0.00,0.00,0.00,4,S01
9440,-9.66060,-0.05028,-1.60172,-5.0000,-3.8415,-27.9268,0.00,0.00,0.00,4,S01
9460,-9.23922,-0.18675,-1.48919,-7.0732,-7.1951,-25.4878,0.00,0.00,0.00,4,S01
9480,-8.60955,-0.39983,-1.47483,-5.9146,-5.3659,-22.6220,0.00,0.00,0.00,4,S01
9500,-8.06846,-0.63925,-1.47243,-2.1341,-1.5854,-21.5244,0.00,0.00,0.00,4,S01
9520,-7.84101,-0.45969,-1.63045,2.7439,0.3049,-22.2561,0.00,0.00,0.00,4,S01
9540,-7.75721,-0.53391,-1.46765,5.4878,4.0244,-22.0122,0.00,0.00,0.00,4,S01
9560,-7.78355,-0.33040,-1.30005,8.4146,8.9024,-23.9024,0.00,0.00,0.00,4,S01
9580,-7.75003,-0.12210,-1.45089,8.5366,6.4024,-26.3415,0.00,0.00,0.00,4,S01
9600,-7.94636,-0.06704,-1.41976,3.7805,0.4268,-28.3537,0.00,0.00,0.00,4,S01
9620,-8.06367,-0.46687,-1.36948,-5.3659,-2.3171,-28.2317,0.00,0.00,0.00,4,S01
9640,-7.94157,-0.89783,-1.24977,-7.6220,2.1341,-28.1098,0.00,0.00,0.00,4,S01
9660,-7.94157,-0.89783,-1.24977,-7.6220,2.1341,-28.1098,0.00,0.00,0.00,4,S01
9680,-8.10916,-1.33836,-1.09176,-5.4878,4.8780,-28.1707,0.00,0.00,0.00,4,S01
9700,-8.33661,-1.60412,-0.95768,-1.2805,4.5122,-27.8049,0.00,0.00,0.00,4,S01
9720,-8.36295,-1.58975,-0.89064,3.7805,3.4146,-25.4268,0.00,0.00,0.00,4,S01
9740,-8.28154,-1.45807,-0.99838,7.6829,3.3537,-22.1951,0.00,0.00,0.00,4,S01
9760,-8.40844,-1.51314,-0.67038,10.5488,6.1585,-19.8171,0.00,0.00,0.00,4,S01
9780,-8.63110,-1.51074,-0.76136,13.4756,6.0366,-19.0854,0.00,0.00,0.00,4,S01
9800,-8.73644,-1.50595,-0.68235,11.7683,5.0610,-17.0732,0.00,0.00,0.00,4,S01
9820,-8.63349,-1.52511,-0.51954,10.8537,5.4268,-13.6585,0.00,0.00,0.00,4,S01
9840,-8.60237,-1.64242,-0.46208,13.5366,5.8537,-11.0976,0.00,0.00,0.00,4,S01
9860,-8.78193,-1.79326,-0.30885,15.9756,6.3415,-9.0854,0.00,0.00,0.00,4,S01
9880,-8.81545,-1.86748,-0.09816,17.8049,7.3780,-7.1341,0.00,0.00,0.00,4,S01
9900,-8.81545,-1.81241,0.03112,19.5732,8.1098,-4.8171,0.00,0.00,0.00,4,S01
9920,-9.02135,-1.64960,0.17717,19.6341,7.1951,-2.6220,0.00,0.00,0.00,4,S01
9940,-9.52892,-1.50595,0.54588,15.3659,3.9634,-0.9146,0.00,0.00,0.00,4,S01
9960,-10.05804,-1.78847,0.91937,9.2683,-1.2805,1.3415,0.00,0.00,0.00,4,S01
9980,-10.55604,-2.16675,1.03430,5.9756,-4.7561,4.0244,0.00,0.00,0.00,4,S01
10000,-10.94390,-2.10690,0.61531,5.2439,-3.8415,7.0122,0.00,0.00,0.00,4,S01
10020,-10.82658,-2.14999,-0.99359,3.8415,1.2195,9.8171,0.00,0.00,0.00,4,S01
10040,-12.00692,-1.61848,-1.74777,0.2439,12.8659,9.0854,0.00,0.00,0.00,4,S01
10060,-13.60625,-0.05028,-2.41575,-14.8780,14.2683,1.0366,0.00,0.00,0.00,4,S01
10080,-13.04601,0.08619,-2.55461,-28.9024,11.4024,-2.5000,0.00,0.00,0.00,4,S01
10100,-11.20965,-0.61531,-3.56975,-39.2683,4.3902,5.3049,0.00,0.00,0.00,4,S01
10120,-9.95030,-2.01592,-3.05979,-47.7439,7.8049,11.7683,0.00,0.00,0.00,4,S01
10140,-10.14184,-2.18830,-2.43490,-41.7683,12.2561,9.3902,0.00,0.00,0.00,4,S01
10160,-10.60392,-0.79009,-2.58095,-10.4268,4.7561,16.0366,0.00,0.00,0.00,4,S01
10180,-10.12508,-0.05986,-2.48997,-1.5854,-2.3171,22.0732,0.00,0.00,0.00,4,S01
10200,-9.54808,0.27054,-2.31280,2.0732,-7.9878,24.3902,0.00,0.00,0.00,4,S01
10220,-9.03332,0.30406,-2.28646,5.7927,-8.8415,25.2439,0.00,0.00,0.00,4,S01
10240,-8.48984,0.23942,-2.31519,8.4146,-5.8537,27.0732,0.00,0.00,0.00,4,S01
10260,-8.09480,0.22984,-2.28167,7.0732,-2.7439,29.6951,0.00,0.00,0.00,4,S01
10280,-7.88171,0.53870,-2.19548,5.3659,-1.1585,30.5488,0.00,0.00,0.00,4,S01
10300,-7.78834,0.70150,-2.02310,3.1707,-0.6707,29.5732,0.00,0.00,0.00,4,S01
10320,-7.74045,0.65841,-1.75256,0.9756,-2.0732,27.5610,0.00,0.00,0.00,4,S01
10340,-7.73327,0.47405,-1.62806,-0.1829,-5.9146,25.7927,0.00,0.00,0.00,4,S01
10360,-7.69018,0.21069,-1.56102,-1.2805,-9.2073,25.4268,0.00,0.00,0.00,4,S01
10380,-7.40048,0.16759,-1.47722,-1.8293,-10.0610,25.7927,0.00,0.00,0.00,4,S01
10400,-7.59441,0.49799,-1.59693,-3.5976,-9.6341,24.7561,0.00,0.00,0.00,4,S01
10420,-7.87453,0.77333,-1.47722,-5.6707,-5.8537,22.5610,0.00,0.00,0.00,4,S01
10440,-8.09480,1.00556,-1.47004,-6.8902,-3.5976,20.9146,0.00,0.00,0.00,4,S01
10460,-8.24084,0.99599,-1.34554,-8.8415,-3.2927,19.0244,0.00,0.00,0.00,4,S01
10480,-8.32703,0.89783,-1.31921,-9.2683,-4.0244,15.9756,0.00,0.00,0.00,4,S01
10500,-8.40604,0.87149,-1.27132,-7.9878,-2.7439,12.5610,0.00,0.00,0.00,4,S01
10520,-8.49942,0.92177,-1.33118,-6.2805,-1.0976,10.4268,0.00,0.00,0.00,4,S01
10540,-8.66940,1.03908,-1.21147,-6.3415,-0.4268,10.2439,0.00,0.00,0.00,4,S01
10560,-8.76517,1.15401,-1.02951,-8.1098,-1.4634,10.2439,0.00,0.00,0.00,4,S01
10580,-8.76757,1.20189,-0.85712,-9.0244,-3.2317,8.2317,0.00,0.00,0.00,4,S01
10600,-8.56406,1.22823,-0.84276,-9.0244,-4.2683,5.0000,0.00,0.00,0.00,4,S01
10620,-8.41562,1.29287,-1.01993,-7.8049,-2.9268,2.8049,0.00,0.00,0.00,4,S01
10640,-8.58321,1.28808,-1.02711,-7.8659,1.9512,1.9512,0.00,0.00,0.00,4,S01
10660,-8.95671,1.32399,-0.66080,-9.3293,6.8902,1.6463,0.00,0.00,0.00,4,S01
10680,-9.28711,1.32878,-0.22745,-11.2805,7.5610,1.0366,0.00,0.00,0.00,4,S01
10700,-9.49780,1.30005,0.00479,-11.9512,5.7927,0.6707,0.00,0.00,0.00,4,S01
10720,-9.89763,1.30484,0.15802,-11.5854,6.0366,1.0976,0.00,0.00,0.00,4,S01
10740,-10.67335,1.47962,0.37828,-11.7683,7.5610,0.9756,0.00,0.00,0.00,4,S01
10760,-11.41077,1.48680,0.69432,-12.4390,6.4024,-0.3049,0.00,0.00,0.00,4,S01
10780,-11.58075,1.16358,0.65841,-10.4268,2.3171,-3.0488,0.00,0.00,0.00,4,S01
10800,-11.66694,1.07260,-0.12210,-5.2439,0.7317,-6.6463,0.00,0.00,0.00,4,S01
10820,-12.33493,1.11809,-0.61770,-0.2439,2.7439,-8.5366,0.00,0.00,0.00,4,S01
10840,-12.95024,0.93853,-1.36230,7.5000,2.0122,-7.3171,0.00,0.00,0.00,4,S01
10860,-11.80341,0.44053,-1.50116,15.3659,-0.7927,-2.7439,0.00,0.00,0.00,4,S01
10880,-10.26873,0.50996,-2.28407,24.4512,-5.2439,-3.8415,0.00,0.00,0.00,4,S01
10900,-9.64145,1.68552,-3.14359,30.7927,-0.3049,-8.4146,0.00,0.00,0.00,4,S01
10920,-9.66060,2.24097,-3.08373,24.0244,9.9390,-12.3171,0.00,0.00,0.00,4,S01
10940,-9.87369,2.11408,-2.70305,10.8537,14.0244,-20.3049,0.00,0.00,0.00,4,S01
10960,-10.01495,1.64960,-2.23379,-0.4878,8.8415,-30.4878,0.00,0.00,0.00,4,S01
10980,-9.71328,0.90261,-1.91057,-8.2317,-2.5000,-37.1341,0.00,0.00,0.00,4,S01
11000,-9.07642,0.33519,-1.73819,-12.3780,-9.4512,-37.8659,0.00,0.00,0.00,4,S01
11020,-8.48026,0.17717,-1.75256,-14.0854,-6.7073,-34.5122,0.00,0.00,0.00,4,S01
11040,-8.05649,0.04070,-1.66158,-13.5976,2.0122,-31.2805,0.00,0.00,0.00,4,S01
11060,-8.05409,0.22505,-1.70467,-13.1707,7.8659,-30.3049,0.00,0.00,0.00,4,S01
11080,-8.14507,0.14365,-1.63045,-17.6220,5.4878,-29.2073,0.00,0.00,0.00,4,S01
11100,-8.10916,-0.07661,-1.55144,-22.8049,-0.4878,-28.1707,0.00,0.00,0.00,4,S01
11120,-7.84101,-0.21787,-1.43413,-23.4756,-4.2073,-28.6585,0.00,0.00,0.00,4,S01
11140,-7.58722,-0.14365,-1.24020,-21.7073,-7.7439,-29.9390,0.00,0.00,0.00,4,S01
11160,-7.58244,0.11253,-1.26174,-23.3537,-12.7439,-30.6098,0.00,0.00,0.00,4,S01
11180,-7.75243,0.30646,-1.38145,-27.0122,-12.9268,-29.5122,0.00,0.00,0.00,4,S01
11200,-7.67581,0.18675,-1.53468,-29.2683,-7.5000,-27.5610,0.00,0.00,0.00,4,S01
11220,-7.56568,-0.05507,-1.76213,-29.1463,-2.1951,-27.1951,0.00,0.00,0.00,4,S01
11240,-7.78834,-0.38786,-1.66158,-30.0000,-0.4268,-27.4390,0.00,0.00,0.00,4,S01
11260,-8.21451,-0.57700,-1.48680,-33.4146,-4.5732,-26.1585,0.00,0.00,0.00,4,S01
11280,-8.37252,-0.73023,-1.32878,-35.1220,-8.5366,-23.1098,0.00,0.00,0.00,4,S01
11300,-8.35576,-0.79248,-1.16358,-34.3293,-7.8659,-20.0000,0.00,0.00,0.00,4,S01
11320,-8.60476,-0.77333,-0.99359,-33.5366,-4.1463,-17.6829,0.00,0.00,0.00,4,S01
11340,-8.93037,-0.53870,-0.90740,-33.1707,0.1829,-16.8293,0.00,0.00,0.00,4,S01
11360,-8.63828,-0.14365,-0.96247,-39.8171,0.0000,-14.1463,0.00,0.00,0.00,4,S01
11380,-8.67180,-0.29688,-0.68953,-47.3171,-0.4878,-13.2317,0.00,0.00,0.00,4,S01
11400,-8.79869,-0.68953,-0.42138,-50.4268,0.4878,-13.2927,0.00,0.00,0.00,4,S01
11420,-8.85855,-1.05345,-0.19872,-50.1220,0.5488,-13.4146,0.00,0.00,0.00,4,S01
11440,-8.88728,-1.31442,0.10056,-49.5732,-1.5244,-12.6829,0.00,0.00,0.00,4,S01
11460,-9.02375,-1.50595,0.41420,-47.3171,-5.1220,-10.6098,0.00,0.00,0.00,4,S01
11480,-9.25838,-1.89860,0.67516,-43.5366,-8.9024,-7.2561,0.00,0.00,0.00,4,S01
11500,-9.43555,-1.91057,0.54348,-35.9146,-10.7927,-4.7561,0.00,0.00,0.00,4,S01
11520,-9.42118,-1.37667,0.38307,-31.5854,-11.4634,-3.9024,0.00,0.00,0.00,4,S01
11540,-9.27035,-0.86431,0.12450,-33.2927,-13.0488,-3.9024,0.00,0.00,0.00,4,S01
11560,-9.50019,-0.50039,0.32082,-38.1707,-14.4512,-5.6707,0.00,0.00,0.00,4,S01
11580,-9.69891,0.20830,0.78290,-47.8659,-17.5000,-8.3537,0.00,0.00,0.00,4,S01
11600,-9.53132,1.00317,1.15879,-66.3415,-21.2805,-9.9390,0.00,0.00,0.00,4,S01
11620,-9.06924,1.09415,1.43892,-87.3781,-21.2195,-8.7195,0.00,0.00,0.00,4,S01
11640,-9.48822,0.18196,0.82361,-99.6341,-16.5854,-6.7683,0.00,0.00,0.00,4,S01
11660,-11.13304,-1.58257,-1.89381,-98.4146,-7.1341,-8.9024,0.00,0.00,0.00,4,S01
11680,-12.23437,-2.92093,-3.63919,-81.5854,18.7805,-24.1463,0.00,0.00,0.00,4,S01
11700,-12.14818,-1.08457,-4.43406,-59.1463,33.1098,-40.7317,0.00,0.00,0.00,4,S01
11720,-10.93911,0.90261,-5.44441,-64.4512,16.1585,-38.5976,0.00,0.00,0.00,4,S01
11740,-9.59357,1.25456,-5.99987,-88.9024,-6.2195,-22.6220,0.00,0.00,0.00,4,S01
11760,-9.73722,-0.09816,-4.88417,-112.2561,-21.2805,-9.6951,0.00,0.00,0.00,4,S01
11780,-9.95270,-1.01275,-3.73256,-121.1585,-34.3293,-3.0488,0.00,0.00,0.00,4,S01
11800,-9.38527,-0.90980,-3.10767,-117.1341,-36.8293,4.0854,0.00,0.00,0.00,4,S01
11820,-8.72208,-0.36392,-2.63123,-109.8171,-28.8415,11.8902,0.00,0.00,0.00,4,S01
11840,-8.11874,-0.13408,-2.46363,-101.4024,-20.0610,18.5366,0.00,0.00,0.00,4,S01
11860,-7.74045,-0.35674,-2.35350,-93.1707,-11.0976,20.4878,0.00,0.00,0.00,4,S01
11880,-7.71172,-0.68714,-2.26970,-85.1220,-4.3902,19.7561,0.00,0.00,0.00,4,S01
11900,-8.10198,-0.87388,-2.38941,-77.5000,-2.8659,19.2683,0.00,0.00,0.00,4,S01
11920,-8.77954,-0.49799,-2.39899,-72.9268,-3.1707,19.9390,0.00,0.00,0.00,4,S01
11940,-9.17219,0.26097,-2.03268,-73.9024,-3.7195,21.0366,0.00,0.00,0.00,4,S01
11960,-9.11233,0.70150,-1.61848,-75.9756,-3.9024,20.3049,0.00,0.00,0.00,4,S01
11980,-9.03093,0.73263,-1.38624,-77.1951,-4.7561,17.1951,0.00,0.00,0.00,4,S01
12000,-8.98783,0.56024,-1.29766,-79.0854,-7.0732,12.6220,0.00,0.00,0.00,4,S01
12020,-8.71250,0.32322,-1.21386,-81.2195,-8.1098,10.0000,0.00,0.00,0.00,4,S01
12040,-8.48984,0.09577,-0.86431,-82.9268,-6.0976,8.4756,0.00,0.00,0.00,4,S01
12060,-8.58800,-0.17238,-0.45011,-81.3415,-3.2317,6.3415,0.00,0.00,0.00,4,S01
12080,-8.77714,-0.36631,-0.10534,-74.6951,0.5488,3.9634,0.00,0.00,0.00,4,S01
12100,-8.88009,-0.36871,0.19393,-66.2805,3.4756,2.5610,0.00,0.00,0.00,4,S01
12120,-8.89685,-0.28012,0.55785,-57.7439,4.3902,1.5244,0.00,0.00,0.00,4,S01
12140,-8.92319,-0.20111,0.93134,-48.9024,3.7805,0.5488,0.00,0.00,0.00,4,S01
12160,-8.97107,0.02873,1.10612,-39.0854,2.9878,-0.3659,0.00,0.00,0.00,4,S01
12180,-9.15782,0.42617,1.39343,-31.3415,2.2561,-2.5000,0.00,0.00,0.00,4,S01
12200,-9.31584,1.23062,0.82361,-27.4390,-1.4024,-6.7683,0.00,0.00,0.00,4,S01
12220,-9.16979,1.45807,-0.12450,-30.8537,-0.8537,-9.6341,0.00,0.00,0.00,4,S01
12240,-9.81144,1.30005,0.24181,-37.5000,1.9512,-10.7927,0.00,0.00,0.00,4,S01
12260,-11.02530,0.47884,1.89381,-37.7439,-6.2805,-9.0854,0.00,0.00,0.00,4,S01
12280,-11.06361,-0.68235,2.76051,-27.2561,-25.0000,-2.3780,0.00,0.00,0.00,4,S01
12300,-10.09635,-0.73741,1.35751,-10.0000,-30.0610,6.4024,0.00,0.00,0.00,4,S01
12320,-11.26711,1.35033,-2.25534,5.7927,-13.6585,12.3780,0.00,0.00,0.00,4,S01
12340,-12.87362,3.33273,-4.29999,8.2317,14.4512,22.9878,0.00,0.00,0.00,4,S01
12360,-11.65497,1.61130,-3.40934,-5.3049,21.3415,39.5732,0.00,0.00,0.00,4,S01
12380,-9.76834,-0.84515,-3.15795,-11.1585,-9.1463,43.1098,0.00,0.00,0.00,4,S01
12400,-9.14585,-0.83079,-3.77566,-5.4268,-32.4390,27.5610,0.00,0.00,0.00,4,S01
12420,-9.20571,1.16598,-3.59609,-9.3902,-25.6707,8.1707,0.00,0.00,0.00,4,S01
12440,-8.79390,2.93769,-3.67989,-24.9390,-14.6951,-6.8293,0.00,0.00,0.00,4,S01
12460,-8.36773,3.06458,-3.47638,-48.4146,-8.6585,-17.1341,0.00,0.00,0.00,4,S01
12480,-8.82982,1.67355,-2.60250,-70.1220,-6.5244,-26.8293,0.00,0.00,0.00,4,S01
12500,-9.05966,0.30167,-2.02071,-76.9512,-9.6341,-36.2805,0.00,0.00,0.00,4,S01
12520,-8.88249,-0.61292,-1.83396,-76.9512,-16.4634,-42.0732,0.00,0.00,0.00,4,S01
12540,-8.48505,-1.20428,-1.34315,-76.8902,-20.1829,-41.5854,0.00,0.00,0.00,4,S01
12560,-8.42759,-0.34955,-0.84755,-75.4268,-6.0976,-28.1098,0.00,0.00,0.00,4,S01
12580,-8.66462,-0.21548,-0.67995,-72.7439,1.8902,-20.9756,0.00,0.00,0.00,4,S01
12600,-8.71489,-0.16759,-0.93613,-67.6829,2.2561,-18.7805,0.00,0.00,0.00,4,S01
12620,-8.70292,-0.57940,-0.51954,-65.4268,1.5854,-16.2805,0.00,0.00,0.00,4,S01
12640,-8.87531,-0.52194,-0.77093,-63.2317,0.9756,-15.3659,0.00,0.00,0.00,4,S01
12660,-8.59758,-0.18435,-0.88346,-65.6098,4.0244,-14.4512,0.00,0.00,0.00,4,S01
12680,-8.62870,-0.09816,-0.67516,-66.2805,6.5244,-13.8415,0.00,0.00,0.00,4,S01
12700,-8.86573,-0.46208,-0.20351,-63.1707,5.6707,-13.2317,0.00,0.00,0.00,4,S01
12720,-8.85376,-0.95768,0.10774,-56.2805,3.8415,-11.8902,0.00,0.00,0.00,4,S01
12740,-8.64307,-1.32878,0.25139,-49.1463,2.1341,-9.4512,0.00,0.00,0.00,4,S01
12760,-8.60476,-1.19710,0.32082,-43.2317,2.8049,-6.8293,0.00,0.00,0.00,4,S01
12780,-9.01417,-0.73263,0.75417,-39.2073,5.4268,-3.9634,0.00,0.00,0.00,4,S01
12800,-9.31105,-0.14365,0.80445,-38.6585,3.2317,-1.8902,0.00,0.00,0.00,4,S01
12820,-9.35415,0.15802,0.52912,-40.6098,-1.2805,-0.8537,0.00,0.00,0.00,4,S01
12840,-9.42837,0.17238,0.22984,-42.3780,-4.6951,-0.6707,0.00,0.00,0.00,4,S01
12860,-9.39485,-0.74460,0.05507,-40.0610,-7.5610,-0.1220,0.00,0.00,0.00,4,S01
12880,-9.56962,-1.29526,0.45250,-32.5000,-12.4390,-1.9512,0.00,0.00,0.00,4,S01
12900,-9.65103,-0.58179,1.47004,-33.5366,-19.5732,-7.1951,0.00,0.00,0.00,4,S01
12920,-9.56244,0.76375,1.89142,-45.5488,-21.5244,-13.3537,0.00,0.00,0.00,4,S01
12940,-9.85932,1.33357,1.81959,-58.1707,-13.2317,-15.1829,0.00,0.00,0.00,4,S01
12960,-10.92953,0.11971,-0.04310,-66.4634,-3.0488,-13.7195,0.00,0.00,0.00,4,S01
12980,-11.93510,-2.42533,-2.14999,-57.6220,22.2561,-19.9390,0.00,0.00,0.00,4,S01
13000,-12.61984,-1.72622,-2.59053,-37.1341,43.7805,-33.2317,0.00,0.00,0.00,4,S01
13020,-11.81299,0.26576,-4.08451,-32.9268,32.9878,-31.9512,0.00,0.00,0.00,4,S01
13040,-10.24239,2.08774,-4.91530,-52.2561,19.3902,-24.2073,0.00,0.00,0.00,4,S01
13060,-8.81306,0.92177,-5.43484,-72.8659,12.6220,-14.3293,0.00,0.00,0.00,4,S01
13080,-9.22007,-0.68474,-4.08451,-89.7561,10.1829,-10.1829,0.00,0.00,0.00,4,S01
13100,-10.06044,-1.53947,-2.71502,-92.4390,-2.1341,-6.0976,0.00,0.00,0.00,4,S01
13120,-9.99579,-1.36709,-2.23618,-79.6341,-15.4878,1.5244,0.00,0.00,0.00,4,S01
13140,-9.39964,-0.88585,-2.34632,-63.2927,-18.1098,11.2805,0.00,0.00,0.00,4,S01
13160,-8.83460,-0.54109,-2.08535,-55.3049,-14.5732,19.8171,0.00,0.00,0.00,4,S01
13180,-8.52815,-0.11492,-1.83875,-53.7805,-13.8415,23.0488,0.00,0.00,0.00,4,S01
13200,-8.23366,0.25379,-1.75734,-56.3415,-16.4024,22.8049,0.00,0.00,0.00,4,S01
13220,-8.07325,0.50996,-2.00395,-52.9878,-13.2927,21.0366,0.00,0.00,0.00,4,S01
13240,-8.02297,0.46926,-2.06380,-49.0244,-6.7073,19.6341,0.00,0.00,0.00,4,S01
13260,-8.19296,0.32801,-1.88663,-47.8049,-2.3780,17.6829,0.00,0.00,0.00,4,S01
13280,-8.62391,0.21787,-1.48919,-48.5976,-1.5854,14.6341,0.00,0.00,0.00,4,S01
13300,-8.93756,0.21308,-1.23301,-48.5366,-3.2927,11.2805,0.00,0.00,0.00,4,S01
13320,-8.86812,0.32561,-1.25456,-46.5854,-3.7805,8.2317,0.00,0.00,0.00,4,S01
13340,-8.71729,0.39983,-1.24738,-44.5122,-1.0366,5.7317,0.00,0.00,0.00,4,S01
13360,-8.72208,0.34237,-1.15161,-42.3780,2.5000,3.8415,0.00,0.00,0.00,4,S01
13380,-8.87291,0.16999,-0.99120,-40.1220,4.6951,2.8049,0.00,0.00,0.00,4,S01
13400,-8.87531,-0.00718,-0.60813,-38.4756,3.5976,2.0122,0.00,0.00,0.00,4,S01
13420,-8.82263,0.05028,0.03831,-37.1951,0.6098,0.2439,0.00,0.00,0.00,4,S01
13440,-9.14106,0.24900,0.52433,-36.5854,-1.9512,-1.5244,0.00,0.00,0.00,4,S01
13460,-9.44034,0.33040,0.89304,-35.4878,-4.6951,-2.8049,0.00,0.00,0.00,4,S01
13480,-9.16500,0.12450,1.17795,-32.4390,-9.6951,-3.9634,0.00,0.00,0.00,4,S01
13500,-8.51857,-0.32801,1.51314,-26.2805,-14.9390,-5.4878,0.00,0.00,0.00,4,S01
13520,-8.22408,-0.59376,1.59214,-17.8659,-17.5610,-8.5976,0.00,0.00,0.00,4,S01
13540,-8.43238,0.14126,1.01754,-11.6463,-14.6341,-13.2317,0.00,0.00,0.00,4,S01
13560,-8.82742,1.02711,-0.00718,-12.9268,-8.7195,-16.8902,0.00,0.00,0.00,4,S01
13580,-10.08438,1.21386,0.83318,-17.6220,-6.7683,-18.4146,0.00,0.00,0.00,4,S01
13600,-11.15459,0.68714,1.83156,-15.0610,-16.8293,-13.9024,0.00,0.00,0.00,4,S01
13620,-11.51132,-0.28012,0.53870,-3.6585,-24.5732,-4.2073,0.00,0.00,0.00,4,S01
13640,-12.80419,0.09337,-2.80361,15.5488,-15.8537,7.8659,0.00,0.00,0.00,4,S01
13660,-13.38598,1.13725,-4.78362,26.0366,7.0122,27.6829,0.00,0.00,0.00,4,S01
13680,-11.03966,0.71587,-3.54821,9.4512,15.3049,52.1341,0.00,0.00,0.00,4,S01
13700,-8.91361,0.06225,-2.90896,-7.6829,-8.9634,57.0122,0.00,0.00,0.00,4,S01
13720,-8.80587,0.97683,-3.12204,-14.2073,-26.6463,40.6098,0.00,0.00,0.00,4,S01
13740,-9.51216,3.32076,-3.29442,-41.2805,-22.1951,2.1341,0.00,0.00,0.00,4,S01
13760,-8.74841,2.76051,-3.37822,-70.9146,-24.0244,-12.8659,0.00,0.00,0.00,4,S01
13780,-8.53294,1.13246,-2.81079,-96.4024,-22.1951,-24.7561,0.00,0.00,0.00,4,S01
13800,-8.64786,-0.14605,-2.27689,-109.0854,-18.4756,-33.8415,0.00,0.00,0.00,4,S01
13820,-8.65743,-0.94571,-1.78368,-111.8902,-14.1463,-36.5244,0.00,0.00,0.00,4,S01
13840,-8.85376,-1.57538,-0.96007,-109.6951,-9.0244,-36.7683,0.00,0.00,0.00,4,S01
13860,-8.93277,-1.59933,-0.59137,-102.1951,-8.8415,-36.5244,0.00,0.00,0.00,4,S01
13880,-8.84897,-1.19950,-0.74220,-90.8537,-8.3537,-32.1951,0.00,0.00,0.00,4,S01
13900,-8.71250,-0.95529,-0.86670,-83.5366,-6.4634,-26.7683,0.00,0.00,0.00,4,S01
13920,-8.79151,-0.84276,-0.98881,-78.8415,-2.3780,-21.9512,0.00,0.00,0.00,4,S01
13940,-8.97586,-0.91698,-1.02232,-76.2805,0.1829,-18.2317,0.00,0.00,0.00,4,S01
13960,-8.98544,-0.95289,-0.90501,-72.6220,2.0732,-17.6829,0.00,0.00,0.00,4,S01
13980,-9.13627,-0.85952,-0.83797,-67.3781,4.7561,-18.9634,0.00,0.00,0.00,4,S01
14000,-9.31584,-0.87149,-0.59376,-63.5976,7.0122,-20.1220,0.00,0.00,0.00,4,S01
14020,-9.39485,-1.07739,-0.53630,-58.5366,6.8293,-21.2195,0.00,0.00,0.00,4,S01
14040,-9.24162,-1.42455,-0.36871,-53.1098,6.8293,-22.0732,0.00,0.00,0.00,4,S01
14060,-9.00459,-1.30484,-0.64404,-49.7561,5.3659,-23.4146,0.00,0.00,0.00,4,S01
14080,-9.25359,-1.00556,-0.55067,-52.8659,7.3780,-21.7073,0.00,0.00,0.00,4,S01
14100,-9.54089,-0.81403,-0.48842,-56.9512,9.4512,-19.1463,0.00,0.00,0.00,4,S01
14120,-9.21768,-1.12527,-0.25139,-59.5732,8.6585,-18.7805,0.00,0.00,0.00,4,S01
14140,-8.84658,-1.72383,-0.07661,-55.7927,7.0122,-21.5244,0.00,0.00,0.00,4,S01
14160,-8.88009,-2.10929,-0.04310,-47.6829,7.6220,-25.2439,0.00,0.00,0.00,4,S01
14180,-9.21289,-2.06859,-0.12689,-41.2195,10.0000,-25.2439,0.00,0.00,0.00,4,S01
14200,-9.26077,-1.86748,-0.04549,-37.9878,10.1220,-21.7073,0.00,0.00,0.00,4,S01
14220,-8.92798,-1.97043,0.17238,-33.8415,5.9146,-17.9878,0.00,0.00,0.00,4,S01
14240,-8.91122,-2.12126,0.25857,-27.7439,1.8293,-16.1585,0.00,0.00,0.00,4,S01
14260,-9.13867,-1.98240,0.13168,-22.9268,3.1098,-13.6585,0.00,0.00,0.00,4,S01
14280,-9.13148,-1.71425,-0.04310,-20.9146,7.8049,-9.0244,0.00,0.00,0.00,4,S01
14300,-8.91840,-1.39821,-0.15083,-21.5244,9.2683,-5.2439,0.00,0.00,0.00,4,S01
14320,-8.87770,-1.21147,-0.08619,-25.3049,5.3049,-4.3902,0.00,0.00,0.00,4,S01
14340,-9.06684,-1.13485,0.10774,-30.7927,1.0366,-4.3293,0.00,0.00,0.00,4,S01
14360,-9.19373,-1.13964,0.37589,-37.1341,-0.1220,-2.5000,0.00,0.00,0.00,4,S01
14380,-9.16740,-1.14922,0.34716,-43.1098,0.3049,0.4878,0.00,0.00,0.00,4,S01
14400,-9.08121,-1.37667,0.15083,-50.1220,1.2805,2.3780,0.00,0.00,0.00,4,S01
14420,-8.81306,-2.48758,-0.77093,-52.2561,7.6220,2.1951,0.00,0.00,0.00,4,S01
14440,-10.36929,-2.85389,-0.51715,-44.9390,22.5000,-0.1220,0.00,0.00,0.00,4,S01
14460,-12.86405,-1.71904,0.23703,-43.3537,21.6463,-4.0854,0.00,0.00,0.00,4,S01
14480,-13.63258,-0.79248,-0.31364,-44.6951,5.1220,-6.4634,0.00,0.00,0.00,4,S01
14500,-12.69645,-1.35272,-1.08457,-42.1951,-1.7073,-6.5854,0.00,0.00,0.00,4,S01
14520,-11.89679,-1.61609,-1.82199,-42.2561,-2.0122,-4.8171,0.00,0.00,0.00,4,S01
14540,-10.80982,-1.24977,-2.53067,-44.0244,7.0122,-1.5854,0.00,0.00,0.00,4,S01
14560,-10.25915,-0.91219,-3.27527,-45.3659,23.3537,4.0854,0.00,0.00,0.00,4,S01
14580,-10.34535,-0.88107,-3.56736,-50.9756,39.2683,6.2195,0.00,0.00,0.00,4,S01
14600,-10.46027,-1.06303,-3.75411,-51.4024,48.1707,7.8659,0.00,0.00,0.00,4,S01
14620,-10.15141,-1.27850,-3.57454,-50.8537,44.4512,14.4512,0.00,0.00,0.00,4,S01
14640,-9.70609,-1.23541,-3.50751,-53.5976,29.0854,20.7317,0.00,0.00,0.00,4,S01
14660,-9.32302,-1.09894,-3.29921,-54.0854,14.0854,24.9390,0.00,0.00,0.00,4,S01
14680,-8.91122,-0.99599,-3.11486,-49.8171,5.6707,26.8293,0.00,0.00,0.00,4,S01
14700,-8.62870,-0.85473,-3.05500,-42.7439,3.7195,26.9512,0.00,0.00,0.00,4,S01
14720,-8.65025,-0.79727,-2.87304,-35.9146,2.9268,27.3780,0.00,0.00,0.00,4,S01
14740,-8.75799,-0.73502,-2.80361,-29.8171,-1.5854,27.9268,0.00,0.00,0.00,4,S01
14760,-8.55927,-0.62489,-2.64080,-24.8171,-8.6585,27.3171,0.00,0.00,0.00,4,S01
14780,-8.14268,-0.45729,-2.58813,-19.7561,-15.0610,25.0610,0.00,0.00,0.00,4,S01
14800,-7.97269,-0.33758,-2.58334,-16.3415,-17.6829,22.8049,0.00,0.00,0.00,4,S01
14820,-8.12113,-0.06464,-2.52828,-14.3293,-16.2805,19.9390,0.00,0.00,0.00,4,S01
14840,-8.24084,0.61052,-2.44927,-17.0122,-16.0366,17.6829,0.00,0.00,0.00,4,S01
14860,-8.24084,0.61052,-2.44927,-17.0122,-16.0366,17.6829,0.00,0.00,0.00,4,S01
14880,-8.21690,0.56264,-2.14999,-20.3049,-19.6951,18.9634,0.00,0.00,0.00,4,S01
14900,-8.25281,0.54348,-2.08296,-21.2805,-25.8537,18.7805,0.00,0.00,0.00,4,S01
14920,-8.32464,0.56743,-2.18112,-22.6829,-29.8171,18.1098,0.00,0.00,0.00,4,S01
14940,-8.65983,0.72784,-1.81720,-26.3415,-24.8780,18.9024,0.00,0.00,0.00,4,S01
14960,-8.98783,0.55785,-1.61609,-25.0610,-22.5000,17.8659,0.00,0.00,0.00,4,S01
14980,-8.93516,0.38786,-1.63763,-20.7317,-21.5854,15.9146,0.00,0.00,0.00,4,S01
15000,-8.73405,0.39265,-1.56581,-18.5976,-19.7561,14.6951,0.00,0.00,0.00,4,S01
15020,-8.84897,0.60573,-1.27611,-18.4756,-18.3537,14.1463,0.00,0.00,0.00,4,S01
15040,-8.87531,0.76614,-1.18992,-17.3171,-19.2683,12.9878,0.00,0.00,0.00,4,S01
15060,-8.60715,0.73263,-1.26414,-14.7561,-18.7195,11.2805,0.00,0.00,0.00,4,S01
15080,-8.54012,0.47405,-1.19231,-11.1585,-14.7561,9.6951,0.00,0.00,0.00,4,S01
15100,-8.72447,0.39265,-1.11330,-6.1585,-10.1829,8.3537,0.00,0.00,0.00,4,S01
15120,-8.77236,0.66798,-1.03669,-2.7439,-7.1951,9.2683,0.00,0.00,0.00,4,S01
15140,-8.67659,1.09654,-0.97683,-2.4390,-5.4878,11.2195,0.00,0.00,0.00,4,S01
15160,-8.79151,1.05824,-1.03190,-0.7317,-4.1463,12.9878,0.00,0.00,0.00,4,S01
15180,-9.17458,1.04387,-0.88107,2.9268,-2.3780,13.4146,0.00,0.00,0.00,4,S01
15200,-9.33260,1.16119,-0.76614,4.3293,-3.5976,13.7805,0.00,0.00,0.00,4,S01
15220,-8.93277,1.38864,-0.62489,4.0854,-7.1341,14.0854,0.00,0.00,0.00,4,S01
15240,-8.25521,1.51314,-0.51715,3.5366,-10.4268,13.4146,0.00,0.00,0.00,4,S01
15260,-8.08043,1.57778,-0.42617,2.9878,-8.5976,10.1829,0.00,0.00,0.00,4,S01
15280,-8.63589,1.72622,-0.27773,3.1098,-1.5854,5.5488,0.00,0.00,0.00,4,S01
15300,-9.06924,1.85072,-0.06943,0.7927,2.8659,2.0122,0.00,0.00,0.00,4,S01
15320,-8.76038,1.90578,-0.03352,-2.9268,2.2561,-0.4878,0.00,0.00,0.00,4,S01
15340,-8.53054,1.94649,0.00479,-7.1341,2.3171,-3.5366,0.00,0.00,0.00,4,S01
15360,-8.66222,1.81480,-0.03112,-10.9756,5.1829,-7.0122,0.00,0.00,0.00,4,S01
15380,-8.83221,1.73340,-0.02155,-13.4756,8.4756,-10.3659,0.00,0.00,0.00,4,S01
15400,-8.97586,1.91536,-0.22027,-15.8537,11.5854,-12.6220,0.00,0.00,0.00,4,S01
15420,-9.22246,2.20506,-0.35195,-19.3902,15.6707,-13.8415,0.00,0.00,0.00,4,S01
15440,-9.49062,2.57137,-0.93134,-24.6951,19.8171,-15.7317,0.00,0.00,0.00,4,S01
15460,-10.00058,2.40378,-1.09654,-31.4634,24.2683,-17.5000,0.00,0.00,0.00,4,S01
15480,-10.71884,2.14281,-1.62806,-35.9756,25.0610,-14.8780,0.00,0.00,0.00,4,S01
15500,-11.42034,1.53468,-1.40540,-39.0244,26.6463,-5.9756,0.00,0.00,0.00,4,S01
15520,-11.84412,0.92416,-1.01754,-34.6951,25.2439,1.5244,0.00,0.00,0.00,4,S01
15540,-12.58392,1.02232,-1.24498,-18.1098,23.9024,1.4634,0.00,0.00,0.00,4,S01
15560,-13.16332,0.98881,-1.46046,1.4634,23.9024,-0.4878,0.00,0.00,0.00,4,S01
15580,-12.33493,0.85712,-1.85551,14.5122,19.6341,-3.6585,0.00,0.00,0.00,4,S01
15600,-11.11628,0.63446,-2.38941,26.5854,14.2073,-10.9756,0.00,0.00,0.00,4,S01
15620,-10.11550,0.50278,-2.88980,30.1220,14.2073,-17.4390,0.00,0.00,0.00,4,S01
15640,-9.69412,0.06225,-2.60968,26.7683,22.2561,-21.4634,0.00,0.00,0.00,4,S01
15660,-9.45949,-0.11253,-2.85149,25.0000,25.6098,-28.1707,0.00,0.00,0.00,4,S01
15680,-9.51216,-0.40941,-2.67193,21.6463,24.8780,-35.4268,0.00,0.00,0.00,4,S01
15700,-9.63666,-0.81403,-2.72221,19.3293,16.3415,-41.1585,0.00,0.00,0.00,4,S01
15720,-9.64624,-1.15161,-2.81798,13.5976,5.4268,-42.4390,0.00,0.00,0.00,4,S01
15740,-9.23204,-1.25696,-2.69827,7.5000,-1.6463,-38.6585,0.00,0.00,0.00,4,S01
15760,-8.60237,-1.14443,-2.44209,5.1220,-4.8780,-33.1098,0.00,0.00,0.00,4,S01
15780,-8.27197,-1.05584,-2.37984,7.8049,-6.4024,-29.5122,0.00,0.00,0.00,4,S01
15800,-8.18338,-0.98641,-2.43969,11.5854,-6.5244,-28.0488,0.00,0.00,0.00,4,S01
15820,-8.21451,-0.96486,-2.39899,12.6220,-6.5854,-27.4390,0.00,0.00,0.00,4,S01
15840,-8.29591,-0.87149,-2.36308,11.7683,-7.4390,-26.1585,0.00,0.00,0.00,4,S01
15860,-8.26478,-0.73981,-2.39660,9.2073,-9.6951,-23.5976,0.00,0.00,0.00,4,S01
15880,-8.10437,-0.67995,-2.28646,5.4268,-12.0122,-19.7561,0.00,0.00,0.00,4,S01
15900,-8.26957,-1.13964,-1.84832,-0.0610,-17.6220,-15.3659,0.00,0.00,0.00,4,S01
15920,-8.47069,-1.36948,-1.85790,1.6463,-22.0732,-13.8415,0.00,0.00,0.00,4,S01
15940,-8.47069,-1.36948,-1.85790,1.6463,-22.0732,-13.8415,0.00,0.00,0.00,4,S01
15960,-8.47069,-1.36948,-1.85790,1.6463,-22.0732,-13.8415,0.00,0.00,0.00,4,S01
15980,-8.39407,-1.37906,-1.83396,1.7073,-22.9268,-10.4878,0.00,0.00,0.00,4,S01
16000,-8.25042,-1.42934,-1.67834,1.5244,-20.3659,-7.3171,0.00,0.00,0.00,4,S01
16020,-8.35816,-1.60172,-1.61130,6.0976,-17.5000,-5.9756,0.00,0.00,0.00,4,S01
16040,-8.59518,-1.55863,-1.54665,10.7927,-16.3415,-5.8537,0.00,0.00,0.00,4,S01
16060,-8.67898,-1.38624,-1.37906,11.4634,-16.8902,-5.3049,0.00,0.00,0.00,4,S01
16080,-8.46590,-1.04148,-1.56581,11.0366,-16.8902,-5.5488,0.00,0.00,0.00,4,S01
16100,-8.24324,-1.03908,-1.74537,10.7927,-13.0488,-6.3415,0.00,0.00,0.00,4,S01
16120,-8.95910,-1.41737,-1.21865,6.3415,-7.0732,-8.1098,0.00,0.00,0.00,4,S01
16140,-9.05727,-1.58017,-1.04387,3.6585,-8.0488,-7.3171,0.00,0.00,0.00,4,S01
16160,-8.87052,-1.71185,-1.02472,2.8049,-7.9878,-6.2195,0.00,0.00,0.00,4,S01
16180,-8.77954,-1.91536,-0.94810,2.6829,-4.6341,-6.6463,0.00,0.00,0.00,4,S01
16200,-8.79390,-1.98719,-0.89543,4.2073,0.9756,-8.1707,0.00,0.00,0.00,4,S01
16220,-8.68856,-1.93451,-0.96247,6.1585,6.1585,-9.9390,0.00,0.00,0.00,4,S01
16240,-8.88009,-1.91057,-0.79487,7.0122,9.5122,-11.8902,0.00,0.00,0.00,4,S01
16260,-9.24401,-1.97282,-0.52912,8.0488,10.2439,-12.8049,0.00,0.00,0.00,4,S01
16280,-9.24641,-1.98000,-0.46926,10.0610,9.1463,-12.6220,0.00,0.00,0.00,4,S01
16300,-8.96629,-1.95606,-0.54109,11.6463,8.1707,-11.0366,0.00,0.00,0.00,4,S01
16320,-8.74841,-1.97761,-0.57700,12.8049,8.7805,-9.0244,0.00,0.00,0.00,4,S01
16340,-8.85376,-1.91297,-0.62010,13.2927,10.0610,-7.3780,0.00,0.00,0.00,4,S01
16360,-8.93516,-1.91776,-0.45250,11.7683,10.6707,-5.5488,0.00,0.00,0.00,4,S01
16380,-8.86333,-1.93212,-0.39265,10.8537,10.9146,-3.4756,0.00,0.00,0.00,4,S01
16400,-8.87052,-1.99676,-0.35434,11.4024,12.1951,-1.4634,0.00,0.00,0.00,4,S01
16420,-8.98783,-2.13323,-0.30646,12.8659,13.2317,0.1220,0.00,0.00,0.00,4,S01
16440,-9.05727,-2.20267,-0.45250,14.8780,12.3780,1.5244,0.00,0.00,0.00,4,S01
16460,-8.84658,-2.14999,-0.52194,15.9146,11.9512,3.4146,0.00,0.00,0.00,4,S01
16480,-8.53533,-2.15478,-0.63925,16.8902,13.7195,5.7927,0.00,0.00,0.00,4,S01
16500,-8.92319,-2.29843,-0.38068,19.3293,16.8902,8.9024,0.00,0.00,0.00,4,S01
16520,-8.99502,-2.20027,-0.43814,22.5000,15.9146,11.6463,0.00,0.00,0.00,4,S01
16540,-8.89925,-2.14281,-0.46926,23.5366,16.0976,14.7561,0.00,0.00,0.00,4,S01
16560,-9.00459,-2.13802,-0.59137,25.3049,16.4634,16.2195,0.00,0.00,0.00,4,S01
16580,-9.27753,-2.09971,-0.68474,26.6463,15.1829,17.1341,0.00,0.00,0.00,4,S01
16600,-9.07402,-2.17872,-1.21386,25.7927,14.8171,18.0488,0.00,0.00,0.00,4,S01
16620,-8.86094,-1.92254,-2.37744,20.0000,24.9390,21.4024,0.00,0.00,0.00,4,S01
16640,-9.30387,-1.93691,-2.49476,0.3049,47.7439,29.7561,0.00,0.00,0.00,4,S01
16660,-10.38365,-1.75734,-2.14760,-16.8293,70.2439,36.6463,0.00,0.00,0.00,4,S01
16680,-11.82975,-1.36230,-2.08056,-19.5732,79.8781,35.3659,0.00,0.00,0.00,4,S01
16700,-12.55998,-0.93853,-2.87065,-5.8537,72.0122,23.7805,0.00,0.00,0.00,4,S01
16720,-13.01488,-0.86191,-3.22978,3.9024,51.8293,8.5366,0.00,0.00,0.00,4,S01
16740,-12.46182,-1.52271,-3.65595,6.7073,21.4634,-5.4268,0.00,0.00,0.00,4,S01
16760,-11.66216,-1.84832,-3.43568,6.2805,-0.7927,-6.5244,0.00,0.00,0.00,4,S01
16780,-10.59674,-1.29287,-3.70144,8.8415,-14.3902,-3.2927,0.00,0.00,0.00,4,S01
16800,-10.03889,-0.64165,-3.56975,8.4756,-13.2317,-1.8902,0.00,0.00,0.00,4,S01
16820,-10.16578,-0.24421,-3.33273,15.8537,-0.9756,0.7317,0.00,0.00,0.00,4,S01
16840,-10.51055,-0.03352,-3.63919,27.0732,7.4390,8.9634,0.00,0.00,0.00,4,S01
16860,-10.20888,0.06225,-3.82354,30.7317,9.8780,22.6220,0.00,0.00,0.00,4,S01
16880,-9.76595,0.36871,-3.91213,27.4390,8.2317,33.5366,0.00,0.00,0.00,4,S01
16900,-9.27035,0.68474,-3.84030,21.2805,4.8780,38.5366,0.00,0.00,0.00,4,S01
16920,-8.65025,0.95529,-3.58412,18.5976,1.8293,37.6829,0.00,0.00,0.00,4,S01
16940,-8.12592,0.73502,-2.95205,16.9512,-16.2805,30.8537,0.00,0.00,0.00,4,S01
16960,-7.98466,0.55067,-2.67432,12.7439,-26.4024,30.6098,0.00,0.00,0.00,4,S01
16980,-7.62553,0.53870,-2.54743,13.7805,-28.1707,31.0366,0.00,0.00,0.00,4,S01
17000,-7.62553,0.53870,-2.54743,13.7805,-28.1707,31.0366,0.00,0.00,0.00,4,S01
17020,-7.40527,0.79487,-2.39181,15.0610,-25.4268,30.5488,0.00,0.00,0.00,4,S01
17040,-7.41484,0.94332,-2.38702,12.3780,-23.8415,29.6341,0.00,0.00,0.00,4,S01
17060,-7.44836,0.90022,-2.34632,8.9634,-21.4024,27.8659,0.00,0.00,0.00,4,S01
17080,-7.57525,0.93853,-2.35350,7.5000,-19.7561,24.2683,0.00,0.00,0.00,4,S01
17100,-7.98466,1.01275,-2.09732,6.0366,-20.4878,21.3415,0.00,0.00,0.00,4,S01
17120,-8.28154,0.97205,-2.17872,5.3049,-25.4268,18.7195,0.00,0.00,0.00,4,S01
17140,-8.22169,0.83079,-2.11887,4.1463,-29.6341,14.7561,0.00,0.00,0.00,4,S01
17160,-8.18338,0.85712,-2.04944,3.4756,-30.9756,9.6341,0.00,0.00,0.00,4,S01
17180,-8.44435,0.79966,-1.83156,1.5244,-28.8415,7.5610,0.00,0.00,0.00,4,S01
17200,-8.64546,0.88585,-2.00874,1.6463,-27.0732,7.8049,0.00,0.00,0.00,4,S01
17220,-8.37971,0.90022,-1.95846,0.1829,-26.0366,8.7805,0.00,0.00,0.00,4,S01
17240,-8.29112,0.76854,-1.66636,-1.7683,-25.1220,8.9634,0.00,0.00,0.00,4,S01
17260,-8.60237,0.73263,-1.59214,-1.2195,-23.9634,7.0732,0.00,0.00,0.00,4,S01
17280,-8.78193,0.82121,-1.68312,1.5244,-19.8171,4.9390,0.00,0.00,0.00,4,S01
17300,-8.75799,0.95050,-1.53708,2.5610,-14.5732,3.5976,0.00,0.00,0.00,4,S01
17320,-9.00938,1.12049,-1.23062,1.5854,-14.7561,2.5000,0.00,0.00,0.00,4,S01
17340,-8.84179,1.18034,-1.29526,1.5854,-15.1220,2.5610,0.00,0.00,0.00,4,S01
17360,-8.79869,1.30005,-1.13964,0.1829,-13.1098,2.5610,0.00,0.00,0.00,4,S01
17380,-9.10036,1.35033,-1.00556,-0.6707,-11.7073,1.7683,0.00,0.00,0.00,4,S01
17400,-9.21768,1.39343,-0.91698,-0.7927,-11.1585,1.7073,0.00,0.00,0.00,4,S01
17420,-9.04051,1.64003,-1.00317,-2.5610,-10.5488,2.8659,0.00,0.00,0.00,4,S01
17440,-8.76757,1.77171,-0.99359,-7.0732,-9.0244,4.5732,0.00,0.00,0.00,4,S01
17460,-8.78672,1.55144,-0.86431,-10.4878,-7.1951,5.2439,0.00,0.00,0.00,4,S01
17480,-9.16261,1.38864,-0.66319,-10.6707,-5.2439,4.1463,0.00,0.00,0.00,4,S01
17500,-9.14824,1.34075,-0.64883,-9.5732,-3.3537,3.4146,0.00,0.00,0.00,4,S01
17520,-8.77714,1.50356,-0.65362,-8.3537,-1.7073,3.1707,0.00,0.00,0.00,4,S01
17540,-8.72926,1.68312,-0.51715,-9.2683,-1.3415,2.6220,0.00,0.00,0.00,4,S01
17560,-9.03093,1.68312,-0.40701,-10.9146,-0.7927,0.7927,0.00,0.00,0.00,4,S01
17580,-9.04529,1.52032,-0.35195,-11.4024,0.9756,-2.0732,0.00,0.00,0.00,4,S01
17600,-8.67419,1.39821,-0.27054,-10.4878,1.8293,-5.0000,0.00,0.00,0.00,4,S01
17620,-8.60476,1.24498,-0.23703,-9.6341,2.0732,-7.5610,0.00,0.00,0.00,4,S01
17640,-8.86094,1.06063,-0.22266,-8.9024,6.3415,-9.0854,0.00,0.00,0.00,4,S01
17660,-9.11233,0.79009,-0.07901,-5.6098,13.1098,-10.1220,0.00,0.00,0.00,4,S01
17680,-9.36372,0.66798,0.09098,1.0976,14.8171,-12.3171,0.00,0.00,0.00,4,S01
17700,-9.60793,1.16598,-0.54348,9.4512,15.0610,-14.1463,0.00,0.00,0.00,4,S01
17720,-10.55604,1.48680,-0.71826,12.0732,23.5366,-14.5732,0.00,0.00,0.00,4,S01
17740,-12.60547,2.09732,-1.36230,14.5122,32.3780,-12.5610,0.00,0.00,0.00,4,S01
17760,-13.40753,1.32399,-0.73741,14.2073,35.9146,-4.3902,0.00,0.00,0.00,4,S01
17780,-12.72758,0.91937,-1.02472,23.4756,27.6829,-0.5488,0.00,0.00,0.00,4,S01
17800,-12.31817,1.03190,-2.00874,32.8659,19.3902,-5.5488,0.00,0.00,0.00,4,S01
17820,-11.76032,1.17795,-2.37744,32.1341,18.7805,-12.0122,0.00,0.00,0.00,4,S01
17840,-11.06361,1.05824,-2.67911,30.4878,18.4146,-17.9268,0.00,0.00,0.00,4,S01
17860,-10.36689,1.00078,-2.65996,25.5488,20.1220,-20.8537,0.00,0.00,0.00,4,S01
17880,-10.18972,1.00078,-2.66714,18.4146,21.7683,-21.0366,0.00,0.00,0.00,4,S01
17900,-10.33337,0.85712,-2.72460,7.7439,20.7317,-22.9878,0.00,0.00,0.00,4,S01
17920,-10.06044,0.65122,-2.77727,-2.8049,15.6098,-28.4146,0.00,0.00,0.00,4,S01
17940,-9.47864,0.36392,-2.74854,-11.6463,7.4390,-34.5732,0.00,0.00,0.00,4,S01
17960,-8.90404,0.09098,-2.55940,-18.7195,-0.0610,-38.7805,0.00,0.00,0.00,4,S01
17980,-8.49223,-0.06225,-2.38223,-23.3537,-4.5732,-39.8780,0.00,0.00,0.00,4,S01
18000,-7.73327,-0.37350,-2.27928,-28.3537,-6.1585,-36.4634,0.00,0.00,0.00,4,S01
18020,-7.78116,-0.60813,-2.21464,-29.6341,-9.8780,-33.3537,0.00,0.00,0.00,4,S01
18040,-7.78116,-0.60813,-2.21464,-29.6341,-9.8780,-33.3537,0.00,0.00,0.00,4,S01
18060,-7.89847,-0.80206,-2.24576,-31.0366,-17.3780,-29.8171,0.00,0.00,0.00,4,S01
18080,-7.86735,-0.86191,-2.21224,-31.7683,-23.2927,-26.2805,0.00,0.00,0.00,4,S01
18100,-7.86256,-0.71587,-2.27689,-30.9146,-25.7317,-22.0122,0.00,0.00,0.00,4,S01
18120,-7.96790,-0.59855,-2.25055,-31.5854,-25.8537,-17.2561,0.00,0.00,0.00,4,S01
18140,-8.10677,-0.57221,-2.25773,-33.7195,-25.8537,-14.8780,0.00,0.00,0.00,4,S01
18160,-8.21451,-0.66559,-2.30083,-35.6707,-26.0976,-14.4512,0.00,0.00,0.00,4,S01
18180,-8.32464,-0.97205,-2.22900,-37.0122,-25.8537,-14.5122,0.00,0.00,0.00,4,S01
18200,-8.60715,-1.28090,-1.96325,-36.5244,-25.7317,-15.3049,0.00,0.00,0.00,4,S01
18220,-8.80827,-1.37906,-1.66397,-34.3293,-28.5366,-16.7683,0.00,0.00,0.00,4,S01
18240,-8.65983,-1.35751,-1.53229,-32.1951,-32.0122,-17.8659,0.00,0.00,0.00,4,S01
18260,-8.40844,-1.35272,-1.34794,-29.8780,-30.3049,-17.0732,0.00,0.00,0.00,4,S01
18280,-8.26957,-1.30245,-1.36948,-25.7317,-24.4512,-15.0610,0.00,0.00,0.00,4,S01
18300,-8.52096,-1.30723,-1.10133,-23.4756,-16.4634,-13.4146,0.00,0.00,0.00,4,S01
18320,-8.77954,-1.19471,-1.06063,-22.0122,-12.7439,-12.3171,0.00,0.00,0.00,4,S01
18340,-8.69335,-1.09176,-1.19950,-22.1341,-10.8537,-11.8293,0.00,0.00,0.00,4,S01
18360,-8.67419,-1.24259,-0.97205,-22.4390,-6.8293,-12.2561,0.00,0.00,0.00,4,S01
18380,-8.79869,-1.46046,-0.77333,-21.4024,-4.5732,-13.7195,0.00,0.00,0.00,4,S01
18400,-8.90404,-1.42934,-0.71347,-20.2439,-3.1098,-14.9390,0.00,0.00,0.00,4,S01
18420,-8.78433,-1.38864,-0.76136,-19.6341,-1.4024,-14.8780,0.00,0.00,0.00,4,S01
18440,-8.77714,-1.59214,-0.70150,-18.4146,1.5854,-13.9024,0.00,0.00,0.00,4,S01
18460,-9.08121,-1.81002,-0.41899,-14.6951,6.8902,-13.6585,0.00,0.00,0.00,4,S01
18480,-9.32063,-1.77410,-0.48123,-10.0000,8.8415,-13.2927,0.00,0.00,0.00,4,S01
18500,-9.02853,-1.62087,-0.64643,-8.5366,9.3293,-12.0122,0.00,0.00,0.00,4,S01
18520,-8.49702,-1.49398,-0.64643,-9.7561,15.7317,-9.1463,0.00,0.00,0.00,4,S01
18540,-8.58800,-1.74777,-0.47884,-8.2927,20.0000,-9.1463,0.00,0.00,0.00,4,S01
18560,-9.00938,-2.02789,-0.31843,-4.5122,22.1951,-9.8171,0.00,0.00,0.00,4,S01
18580,-9.33020,-2.15957,-0.28491,-0.7927,20.9146,-10.0000,0.00,0.00,0.00,4,S01
18600,-9.11473,-2.17633,-0.46448,2.5000,18.7805,-9.3293,0.00,0.00,0.00,4,S01
18620,-8.71729,-2.22900,-0.55067,6.8902,20.4268,-7.7439,0.00,0.00,0.00,4,S01
18640,-8.84658,-2.07577,-0.57700,12.3780,23.6585,-5.7317,0.00,0.00,0.00,4,S01
18660,-9.25119,-1.89381,-0.54109,15.0610,22.7439,-3.4756,0.00,0.00,0.00,4,S01
18680,-9.32781,-1.84832,-0.53151,16.0366,17.7439,-0.9756,0.00,0.00,0.00,4,S01
18700,-8.90404,-1.99437,-0.57461,17.2561,14.3902,1.1585,0.00,0.00,0.00,4,S01
18720,-8.69574,-2.12366,-0.56743,19.6341,15.5488,2.9268,0.00,0.00,0.00,4,S01
18740,-8.97586,-2.20745,-0.44053,20.7927,17.6220,4.8780,0.00,0.00,0.00,4,S01
18760,-9.08360,-2.37026,-0.40462,20.7927,18.3537,6.8293,0.00,0.00,0.00,4,S01
18780,-9.06684,-2.60489,-0.43814,22.6220,20.6707,9.2073,0.00,0.00,0.00,4,S01
18800,-9.32063,-2.57377,-0.76854,26.8902,22.2561,10.9756,0.00,0.00,0.00,4,S01
18820,-9.37330,-2.58095,-0.90261,29.6951,21.8902,12.3780,0.00,0.00,0.00,4,S01
18840,-9.59357,-2.19069,-1.47004,33.6585,20.7317,10.7317,0.00,0.00,0.00,4,S01
18860,-9.85214,-1.91297,-1.70228,32.5000,20.4268,9.3902,0.00,0.00,0.00,4,S01
18880,-10.47942,-2.07577,-1.70707,27.0732,20.7927,10.5488,0.00,0.00,0.00,4,S01
18900,-11.13543,-2.16915,-2.15957,25.3049,17.6829,11.5244,0.00,0.00,0.00,4,S01
18920,-12.04523,-1.63524,-2.77249,22.6220,14.9390,11.2195,0.00,0.00,0.00,4,S01
18940,-12.79940,-0.98162,-2.76051,11.5854,13.1707,10.4878,0.00,0.00,0.00,4,S01
18960,-12.64857,-0.98162,-2.55461,-5.6707,10.1829,10.3049,0.00,0.00,0.00,4,S01
18980,-11.34373,-0.79487,-2.84910,-17.6220,8.1707,9.2683,0.00,0.00,0.00,4,S01
19000,-9.84017,-1.36709,-2.95444,-34.1463,16.4634,11.1585,0.00,0.00,0.00,4,S01
19020,-9.61751,-1.62806,-2.27689,-28.9634,33.1707,15.0610,0.00,0.00,0.00,4,S01
19040,-10.28070,-0.78530,-3.34470,10.2439,25.3049,13.9024,0.00,0.00,0.00,4,S01
19060,-9.93115,-0.52433,-3.82593,15.3049,13.9634,17.8049,0.00,0.00,0.00,4,S01
19080,-9.93115,-0.52433,-3.82593,15.3049,13.9634,17.8049,0.00,0.00,0.00,4,S01
19100,-9.35893,-0.40941,-4.17788,15.4878,1.7073,23.6585,0.00,0.00,0.00,4,S01
19120,-8.98304,-0.35195,-4.26647,13.4756,-6.8293,27.7439,0.00,0.00,0.00,4,S01
19140,-8.73884,-0.31843,-4.06535,13.0488,-8.5976,30.0610,0.00,0.00,0.00,4,S01
19160,-8.57603,-0.24660,-3.85706,14.6951,-8.0488,29.8780,0.00,0.00,0.00,4,S01
19180,-8.54969,0.09098,-3.90973,16.7073,-9.0244,27.6220,0.00,0.00,0.00,4,S01
19200,-8.46590,0.45250,-3.88818,15.3049,-11.2195,25.6707,0.00,0.00,0.00,4,S01
19220,-8.20253,0.62968,-3.66552,10.6707,-14.8780,25.1220,0.00,0.00,0.00,4,S01
19240,-7.95114,0.53151,-3.39977,5.0000,-19.7561,24.2073,0.00,0.00,0.00,4,S01
19260,-7.75482,0.41180,-3.04542,1.2805,-23.2927,22.5610,0.00,0.00,0.00,4,S01
19280,-7.70454,0.34237,-2.68629,0.1829,-24.8780,21.2195,0.00,0.00,0.00,4,S01
19300,-7.66384,0.40701,-2.59771,0.2439,-25.4268,20.3049,0.00,0.00,0.00,4,S01
19320,-7.63272,0.68953,-2.49715,0.1220,-23.4756,19.3902,0.00,0.00,0.00,4,S01
19340,-7.82186,0.93613,-2.40138,-1.5854,-21.0976,18.5976,0.00,0.00,0.00,4,S01
19360,-8.07325,1.12767,-2.24576,-4.0854,-20.7317,17.6829,0.00,0.00,0.00,4,S01
19380,-8.13310,1.25456,-2.07338,-8.4756,-23.6585,16.5854,0.00,0.00,0.00,4,S01
19400,-8.17620,1.25456,-1.97282,-15.4268,-27.5610,15.3659,0.00,0.00,0.00,4,S01
19420,-8.47547,1.08218,-1.66158,-22.6829,-27.0732,13.3537,0.00,0.00,0.00,4,S01
19440,-8.95192,0.84755,-1.28329,-26.0366,-23.7195,9.5122,0.00,0.00,0.00,4,S01
19460,-8.92319,0.63686,-1.16119,-25.9756,-24.4512,4.7561,0.00,0.00,0.00,4,S01
19480,-8.57842,0.33519,-1.16598,-25.4268,-24.6341,3.1098,0.00,0.00,0.00,4,S01
19500,-8.48505,0.24181,-1.10373,-23.1098,-20.7317,2.9268,0.00,0.00,0.00,4,S01
19520,-8.80109,0.27773,-0.86191,-20.2439,-15.1220,3.7195,0.00,0.00,0.00,4,S01
19540,-9.25838,0.33758,-0.61292,-16.8293,-12.0732,5.3049,0.00,0.00,0.00,4,S01
19560,-9.35175,0.43574,-0.58897,-12.6829,-11.5854,7.0122,0.00,0.00,0.00,4,S01
19580,-9.01417,0.38547,-0.67756,-8.5366,-11.9512,8.7805,0.00,0.00,0.00,4,S01
19600,-8.78911,0.37828,-0.63207,-2.7439,-11.3415,9.5732,0.00,0.00,0.00,4,S01
19620,-9.04051,0.67756,-0.57700,2.4390,-9.3902,9.6341,0.00,0.00,0.00,4,S01
19640,-9.34457,1.01275,-0.56503,5.0000,-7.8659,10.4268,0.00,0.00,0.00,4,S01
19660,-9.16740,1.18752,-0.58179,5.7927,-7.4390,11.8902,0.00,0.00,0.00,4,S01
19680,-8.85615,1.37427,-0.60094,5.8537,-6.4024,12.1951,0.00,0.00,0.00,4,S01
19700,-8.69813,1.43413,-0.57461,3.4146,-4.3293,11.7073,0.00,0.00,0.00,4,S01
19720,-9.07402,1.31921,-0.52433,0.1829,0.7317,7.9268,0.00,0.00,0.00,4,S01
19740,-8.78911,1.30963,-0.41180,0.3049,1.0366,6.4024,0.00,0.00,0.00,4,S01
19760,-8.69574,1.48201,-0.30646,-0.0610,0.9756,5.0610,0.00,0.00,0.00,4,S01
19780,-8.99262,1.69031,-0.25618,-1.4634,2.8659,4.2073,0.00,0.00,0.00,4,S01
19800,-9.19852,1.73340,-0.13168,-3.6585,4.4512,3.2317,0.00,0.00,0.00,4,S01
19820,-9.13867,1.66397,-0.05507,-5.1220,3.1707,0.7317,0.00,0.00,0.00,4,S01
19840,-8.85615,1.78129,-0.09337,-5.1829,2.5000,-2.0122,0.00,0.00,0.00,4,S01
19860,-8.51378,1.98479,-0.12929,-7.5000,5.4268,-3.5366,0.00,0.00,0.00,4,S01
19880,-8.70532,1.80523,-0.21069,-11.3415,10.1220,-5.6707,0.00,0.00,0.00,4,S01
19900,-9.30866,1.41737,0.06225,-12.5000,14.1463,-7.9268,0.00,0.00,0.00,4,S01
19920,-9.91918,1.22823,0.18435,-8.2317,17.5000,-9.6951,0.00,0.00,0.00,4,S01
19940,-10.30464,1.28569,-0.29209,-1.1585,18.9634,-10.6707,0.00,0.00,0.00,4,S01
19960,-10.59674,1.64003,-1.20428,3.6585,20.4268,-10.4878,0.00,0.00,0.00,4,S01
19980,-11.88961,1.88903,-1.31681,4.2073,21.3415,-9.6951,0.00,0.00,0.00,4,S01
20000,-13.40274,1.86029,-1.62806,5.9756,16.0366,-5.5488,0.00,0.00,0.00,4,S01
20020,-13.22557,1.01514,-1.03669,7.4390,8.4146,-1.2195,0.00,0.00,0.00,4,S01
20040,-13.00770,1.06542,-1.69509,19.2683,0.2439,-2.9268,0.00,0.00,0.00,4,S01
20060,-12.32056,1.44370,-2.58574,27.1341,-1.0976,-3.9024,0.00,0.00,0.00,4,S01
20080,-10.70208,1.43173,-2.55701,24.2683,-0.0610,-2.9268,0.00,0.00,0.00,4,S01
20100,-9.33739,1.33836,-2.86347,10.9756,13.1098,-10.9146,0.00,0.00,0.00,4,S01
20120,-9.70370,0.93374,-2.83473,5.0610,23.7805,-16.2805,0.00,0.00,0.00,4,S01
20140,-9.70370,0.93374,-2.83473,5.0610,23.7805,-16.2805,0.00,0.00,0.00,4,S01
20160,-9.72525,0.55545,-2.79643,-2.0732,24.9390,-22.9878,0.00,0.00,0.00,4,S01
20180,-9.25598,0.28970,-2.74136,-10.4268,15.7927,-29.0854,0.00,0.00,0.00,4,S01
20200,-8.52575,0.09337,-2.69827,-18.7195,3.6585,-32.9878,0.00,0.00,0.00,4,S01
20220,-8.02536,0.03831,-2.51391,-23.5366,-1.4634,-34.5122,0.00,0.00,0.00,4,S01
20240,-7.91284,0.02155,-2.43011,-25.5488,-1.7073,-33.4756,0.00,0.00,0.00,4,S01
20260,-7.89847,-0.13168,-2.39420,-28.4756,-1.8293,-30.1829,0.00,0.00,0.00,4,S01
20280,-7.75482,-0.34716,-2.40857,-32.3171,-2.0122,-26.5244,0.00,0.00,0.00,4,S01
20300,-7.55610,-0.63925,-2.26731,-34.0854,-1.1585,-25.1220,0.00,0.00,0.00,4,S01
20320,-7.61356,-0.69432,-2.18591,-32.0122,-1.5854,-26.2805,0.00,0.00,0.00,4,S01
20340,-7.94396,-0.58658,-2.08056,-29.6341,-2.5610,-26.5854,0.00,0.00,0.00,4,S01
20360,-7.98706,-0.50518,-2.04225,-28.9634,-3.7195,-23.9024,0.00,0.00,0.00,4,S01
20380,-7.96790,-0.55545,-1.93930,-30.4268,-6.2805,-20.4268,0.00,0.00,0.00,4,S01
20400,-8.28154,-0.66559,-1.86029,-32.1951,-8.5976,-19.3293,0.00,0.00,0.00,4,S01
20420,-8.56167,-0.76614,-1.79805,-31.6463,-9.9390,-19.8780,0.00,0.00,0.00,4,S01
20440,-8.59997,-0.84276,-1.73580,-30.0610,-12.7439,-20.1220,0.00,0.00,0.00,4,S01
20460,-8.56167,-0.90740,-1.60172,-29.2683,-15.3659,-19.6341,0.00,0.00,0.00,4,S01
20480,-8.52336,-1.00556,-1.60412,-27.1951,-15.0000,-19.2073,0.00,0.00,0.00,4,S01
20500,-8.75320,-1.14443,-1.42934,-24.3902,-11.8902,-18.8415,0.00,0.00,0.00,4,S01
20520,-9.07642,-1.16837,-1.32878,-21.4634,-10.8537,-18.0488,0.00,0.00,0.00,4,S01
20540,-9.13627,-1.26174,-1.08697,-18.9634,-11.6463,-17.4390,0.00,0.00,0.00,4,S01
20560,-8.85615,-1.41258,-1.19710,-14.4512,-11.9512,-17.1951,0.00,0.00,0.00,4,S01
20580,-8.63828,-1.47483,-1.31202,-9.3902,-8.1707,-17.3171,0.00,0.00,0.00,4,S01
20600,-8.85615,-1.47243,-1.28569,-6.8293,-2.7439,-16.9512,0.00,0.00,0.00,4,S01
20620,-9.11712,-1.45328,-1.13485,-5.1829,0.6098,-15.4268,0.00,0.00,0.00,4,S01
20640,-9.04529,-1.59933,-1.01514,-2.1951,1.1585,-13.2317,0.00,0.00,0.00,4,S01
20660,-8.73884,-1.60412,-0.92177,3.5366,2.6829,-13.1707,0.00,0.00,0.00,4,S01
20680,-8.82742,-1.43413,-0.95289,8.7195,4.2683,-13.8415,0.00,0.00,0.00,4,S01
20700,-9.21049,-1.20907,-0.92895,9.8780,5.4878,-13.1707,0.00,0.00,0.00,4,S01
20720,-9.19373,-1.16598,-0.94092,9.5732,6.1585,-11.6463,0.00,0.00,0.00,4,S01
20740,-8.88967,-1.28090,-0.89064,9.5122,7.1341,-10.7927,0.00,0.00,0.00,4,S01
20760,-8.82742,-1.34794,-0.80206,9.7561,8.1707,-10.3049,0.00,0.00,0.00,4,S01
20780,-8.95910,-1.35512,-0.72544,9.6341,9.2683,-9.4512,0.00,0.00,0.00,4,S01
20800,-8.96629,-1.43173,-0.77572,10.0610,10.7927,-8.5366,0.00,0.00,0.00,4,S01
20820,-8.79869,-1.59693,-0.85952,11.0976,13.0488,-7.5610,0.00,0.00,0.00,4,S01
20840,-8.85376,-1.80523,-0.72065,12.0122,15.9146,-6.4634,0.00,0.00,0.00,4,S01
20860,-9.11233,-1.91776,-0.59137,13.7805,17.1341,-5.3659,0.00,0.00,0.00,4,S01
20880,-9.25119,-1.80283,-0.73023,17.3171,16.0366,-4.3902,0.00,0.00,0.00,4,S01
20900,-9.20571,-1.66876,-0.81642,18.9024,14.8171,-3.7195,0.00,0.00,0.00,4,S01
20920,-9.09318,-1.95367,-0.64883,19.8780,14.3293,-1.6463,0.00,0.00,0.00,4,S01
20940,-9.05966,-1.84114,-0.67995,19.8780,13.9024,0.1829,0.00,0.00,0.00,4,S01
20960,-8.94474,-1.68073,-0.67995,17.1341,13.4146,2.4390,0.00,0.00,0.00,4,S01
20980,-9.13627,-1.64960,-0.71826,14.3293,13.4756,4.5122,0.00,0.00,0.00,4,S01
21000,-9.37809,-1.89142,-0.82839,12.6829,13.5976,6.7073,0.00,0.00,0.00,4,S01
21020,-9.42358,-2.14999,-1.02472,12.9268,13.5976,7.5000,0.00,0.00,0.00,4,S01
21040,-9.65103,-2.10211,-1.35991,13.7805,14.0244,6.1585,0.00,0.00,0.00,4,S01
21060,-10.19930,-1.72143,-1.93451,13.9634,15.1829,4.4512,0.00,0.00,0.00,4,S01
21080,-11.16177,-1.54187,-1.85790,8.9634,15.9756,4.4512,0.00,0.00,0.00,4,S01
21100,-11.80581,-1.65679,-2.11169,2.8659,12.3171,5.1829,0.00,0.00,0.00,4,S01
21120,-12.21761,-1.84593,-2.26970,-2.5000,13.0488,7.3780,0.00,0.00,0.00,4,S01
21140,-11.40358,-1.03669,-3.92649,-10.6707,12.6829,8.0488,0.00,0.00,0.00,4,S01
21160,-10.55364,-0.58419,-4.02944,-29.2073,20.1829,16.8293,0.00,0.00,0.00,4,S01
21180,-10.55364,-0.58419,-4.02944,-29.2073,20.1829,16.8293,0.00,0.00,0.00,4,S01
21200,-9.78989,-0.72784,-3.66552,-45.1220,32.3780,24.8171,0.00,0.00,0.00,4,S01
21220,-10.02931,-0.90740,-2.74136,-36.6463,44.0854,24.5122,0.00,0.00,0.00,4,S01
21240,-10.20409,-0.51475,-3.63440,-4.8171,31.5244,18.2927,0.00,0.00,0.00,4,S01
21260,-9.35893,-0.10295,-4.48913,-0.7317,16.2195,23.7805,0.00,0.00,0.00,4,S01
21280,-9.32542,-0.32322,-3.49553,-20.1220,22.9878,41.4634,0.00,0.00,0.00,4,S01
21300,-9.90721,-0.34237,-2.56658,-10.5488,29.0854,48.2317,0.00,0.00,0.00,4,S01
21320,-9.68694,0.28012,-3.06937,20.3659,13.6585,37.8659,0.00,0.00,0.00,4,S01
21340,-8.66701,0.74939,-3.49793,30.8537,-13.5366,25.6098,0.00,0.00,0.00,4,S01
21360,-7.97509,0.55545,-3.30160,20.5488,-33.7195,21.1585,0.00,0.00,0.00,4,S01
21380,-7.89847,0.22745,-2.86586,10.5488,-35.7927,21.7073,0.00,0.00,0.00,4,S01
21400,-7.84340,-0.07422,-2.54982,10.9146,-23.4756,23.5366,0.00,0.00,0.00,4,S01
21420,-7.82186,-0.26097,-2.43011,16.2805,-10.9756,23.9634,0.00,0.00,0.00,4,S01
21440,-7.96311,-0.27054,-2.40378,20.7317,-8.2927,22.9268,0.00,0.00,0.00,4,S01
21460,-8.15705,-0.17957,-2.37505,23.1707,-13.2317,21.8293,0.00,0.00,0.00,4,S01
21480,-8.28154,-0.13168,-2.32716,25.0610,-19.8171,22.4390,0.00,0.00,0.00,4,S01
21500,-8.33422,-0.19393,-2.06620,27.3171,-26.0366,23.9024,0.00,0.00,0.00,4,S01
21520,-8.47069,-0.19632,-1.96803,31.4634,-32.6829,23.4146,0.00,0.00,0.00,4,S01
21540,-8.38449,0.02155,-2.00395,36.2195,-37.5610,21.7073,0.00,0.00,0.00,4,S01
21560,-8.12353,0.62728,-2.16196,39.6341,-39.2683,19.0854,0.00,0.00,0.00,4,S01
21580,-7.99903,1.17316,-2.27928,39.8780,-37.2561,16.4634,0.00,0.00,0.00,4,S01
21600,-8.07325,1.11091,-2.37026,37.9268,-31.5854,14.0244,0.00,0.00,0.00,4,S01
21620,-8.37252,1.03190,-2.15478,36.4634,-25.1220,10.8537,0.00,0.00,0.00,4,S01
21640,-8.86333,1.06303,-1.96085,35.4878,-22.0732,8.5976,0.00,0.00,0.00,4,S01
21660,-9.00220,0.93134,-1.75974,33.1098,-23.4756,8.4146,0.00,0.00,0.00,4,S01
21680,-8.54251,0.89304,-1.81002,33.4756,-26.0976,8.4146,0.00,0.00,0.00,4,S01
21700,-8.68616,0.93134,-1.64721,34.8780,-24.3293,7.2561,0.00,0.00,0.00,4,S01
21720,-9.04529,0.98641,-1.53947,34.3902,-23.8415,6.4634,0.00,0.00,0.00,4,S01
21740,-9.16740,1.06781,-1.29526,30.6098,-24.6341,6.6463,0.00,0.00,0.00,4,S01
21760,-8.91601,1.05345,-1.34075,27.8659,-25.5488,6.0366,0.00,0.00,0.00,4,S01
21780,-8.57124,1.19950,-1.48680,26.2805,-23.9024,5.5488,0.00,0.00,0.00,4,S01
21800,-8.57364,1.33596,-1.34554,23.1707,-19.0854,5.3659,0.00,0.00,0.00,4,S01
21820,-8.95910,1.24498,-1.14443,21.3415,-14.0244,4.8780,0.00,0.00,0.00,4,S01
21840,-9.15064,1.09894,-1.07500,20.8537,-11.1585,4.7561,0.00,0.00,0.00,4,S01
21860,-9.01656,1.07978,-0.97683,19.3902,-10.3659,5.0000,0.00,0.00,0.00,4,S01
21880,-8.97347,1.28329,-0.77093,16.5244,-10.8537,4.9390,0.00,0.00,0.00,4,S01
21900,-9.01178,1.42934,-0.61770,13.1098,-11.4024,4.5732,0.00,0.00,0.00,4,S01
21920,-9.02375,1.36469,-0.55306,10.3049,-10.6098,3.4756,0.00,0.00,0.00,4,S01
21940,-8.90882,1.11570,-0.50996,9.4512,-8.7195,2.0122,0.00,0.00,0.00,4,S01
21960,-8.94234,1.12767,-0.49321,9.5732,-7.0732,1.4634,0.00,0.00,0.00,4,S01
21980,-9.21049,1.18034,-0.39504,7.3171,-4.5122,2.0732,0.00,0.00,0.00,4,S01
22000,-9.18655,1.27132,-0.36152,5.2439,-0.6098,2.4390,0.00,0.00,0.00,4,S01
22020,-8.95910,1.41737,-0.41420,2.8049,3.0488,1.8902,0.00,0.00,0.00,4,S01
22040,-8.60715,1.41976,-0.44532,0.1829,6.2805,0.9146,0.00,0.00,0.00,4,S01
22060,-8.48026,1.52271,-0.49081,-2.5000,10.1829,-0.7927,0.00,0.00,0.00,4,S01
22080,-8.87770,1.69988,-0.40223,-7.7439,15.4268,-2.9268,0.00,0.00,0.00,4,S01
22100,-9.44273,1.57538,-0.32801,-13.2927,20.1220,-4.6951,0.00,0.00,0.00,4,S01
22120,-9.26077,0.84755,-0.34237,-16.5244,17.8659,-6.5244,0.00,0.00,0.00,4,S01
22140,-9.15064,0.63686,-0.22505,-13.9634,15.7317,-7.6220,0.00,0.00,0.00,4,S01
22160,-9.19134,0.58419,-0.09337,-8.9634,15.7317,-8.0488,0.00,0.00,0.00,4,S01
22180,-9.39245,0.79487,-0.00239,-0.6098,16.5854,-6.0976,0.00,0.00,0.00,4,S01
22200,-9.39245,0.79487,-0.00239,-0.6098,16.5854,-6.0976,0.00,0.00,0.00,4,S01
22220,-9.45470,0.93374,-0.17957,1.6463,18.0488,-3.9634,0.00,0.00,0.00,4,S01
22240,-9.57681,1.36230,-0.92656,2.0732,20.4878,-3.0488,0.00,0.00,0.00,4,S01
22260,-10.39323,1.66397,-1.47483,-0.2439,25.2439,-3.6585,0.00,0.00,0.00,4,S01
22280,-12.20803,1.79326,-1.27372,-3.5366,25.4268,-3.5976,0.00,0.00,0.00,4,S01
22300,-13.19445,0.92656,-1.00078,-10.1829,14.5122,2.6220,0.00,0.00,0.00,4,S01
22320,-12.45943,0.13647,-1.17555,-6.7073,3.7805,7.5000,0.00,0.00,0.00,4,S01
22340,-11.98298,0.32322,-1.82917,11.6463,2.0732,4.3902,0.00,0.00,0.00,4,S01
22360,-11.71722,0.64643,-2.33195,24.5732,7.0122,-0.7927,0.00,0.00,0.00,4,S01
22380,-10.80503,0.89304,-2.52588,28.9024,14.0854,-6.5854,0.00,0.00,0.00,4,S01
22400,-9.90481,1.41737,-2.90417,30.4268,17.3171,-14.5732,0.00,0.00,0.00,4,S01
22420,-9.23922,1.90339,-2.94247,26.3415,21.5244,-18.9634,0.00,0.00,0.00,4,S01
22440,-9.17698,1.80283,-2.92332,20.7927,25.0610,-20.2439,0.00,0.00,0.00,4,S01
22460,-9.64384,1.19710,-2.72939,12.0732,22.6220,-23.9634,0.00,0.00,0.00,4,S01
22480,-9.82341,0.57461,-2.59531,2.7439,14.8780,-29.7561,0.00,0.00,0.00,4,S01
22500,-9.54808,0.20830,-2.52349,-4.5122,7.1951,-34.6341,0.00,0.00,0.00,4,S01
22520,-9.04051,0.17957,-2.55461,-8.9024,2.8049,-37.1951,0.00,0.00,0.00,4,S01
22540,-8.54251,0.33519,-2.59053,-13.1707,1.7683,-37.0732,0.00,0.00,0.00,4,S01
22560,-8.24084,0.33758,-2.52588,-17.8659,2.3780,-35.0000,0.00,0.00,0.00,4,S01
22580,-8.23605,0.12929,-2.48758,-20.0000,0.6098,-32.7439,0.00,0.00,0.00,4,S01
22600,-8.23845,-0.18435,-2.54264,-19.3293,-3.6585,-30.4878,0.00,0.00,0.00,4,S01
22620,-8.04452,-0.48842,-2.40138,-18.4146,-6.7683,-27.5610,0.00,0.00,0.00,4,S01
22640,-8.04452,-0.45490,-2.19788,-16.5854,-8.7195,-24.8780,0.00,0.00,0.00,4,S01
22660,-8.15226,-0.18914,-2.18830,-16.4024,-12.1951,-21.8902,0.00,0.00,0.00,4,S01
22680,-8.06846,0.00958,-2.47560,-18.1707,-13.9634,-19.2073,0.00,0.00,0.00,4,S01
22700,-7.91284,0.19154,-2.73178,-21.5854,-11.8902,-18.4146,0.00,0.00,0.00,4,S01
22720,-8.06846,0.37350,-2.61686,-27.8659,-9.2073,-20.3049,0.00,0.00,0.00,4,S01
22740,-8.35337,0.40462,-2.43251,-36.7683,-10.2439,-22.5000,0.00,0.00,0.00,4,S01
22760,-8.55448,0.05986,-2.32477,-45.7317,-12.9878,-23.1707,0.00,0.00,0.00,4,S01
22780,-8.49942,-0.44772,-2.21703,-51.2805,-14.2683,-23.4146,0.00,0.00,0.00,4,S01
22800,-8.46829,-0.72784,-2.20745,-52.1341,-14.0244,-24.2683,0.00,0.00,0.00,4,S01
22820,-8.68856,-0.78530,-2.13323,-52.6829,-13.9024,-24.3293,0.00,0.00,0.00,4,S01
22840,-8.94713,-0.79487,-1.81002,-55.3049,-15.5488,-22.5610,0.00,0.00,0.00,4,S01
22860,-8.80109,-0.73263,-1.81241,-56.8902,-18.1707,-20.2439,0.00,0.00,0.00,4,S01
22880,-8.27915,-0.94092,-1.98719,-57.3781,-16.8293,-18.3537,0.00,0.00,0.00,4,S01
22900,-8.25521,-1.17795,-1.92494,-55.8537,-10.7317,-18.3537,0.00,0.00,0.00,4,S01
22920,-8.87291,-0.97205,-2.08774,-53.2317,-7.8049,-19.5122,0.00,0.00,0.00,4,S01
22940,-9.27993,-0.91459,-1.91776,-59.6341,-9.8780,-17.8049,0.00,0.00,0.00,4,S01
22960,-9.10275,-0.95768,-1.73580,-64.9390,-10.8537,-15.7927,0.00,0.00,0.00,4,S01
22980,-8.76038,-1.09415,-1.82917,-64.9390,-9.6341,-15.6707,0.00,0.00,0.00,4,S01
23000,-8.71968,-1.00796,-1.93691,-65.3049,-6.4024,-16.1585,0.00,0.00,0.00,4,S01
23020,-8.90643,-0.86191,-1.81720,-70.3659,-4.0244,-15.5488,0.00,0.00,0.00,4,S01
23040,-8.87770,-1.00317,-1.53947,-75.9756,-3.4146,-14.2073,0.00,0.00,0.00,4,S01
23060,-8.78193,-1.45089,-1.27850,-76.4024,-2.9268,-15.0610,0.00,0.00,0.00,4,S01
23080,-9.01896,-1.77171,-1.12049,-71.6463,-3.2927,-18.1098,0.00,0.00,0.00,4,S01
23100,-9.27274,-1.64721,-1.06781,-66.4634,-4.8780,-20.0610,0.00,0.00,0.00,4,S01
23120,-9.18655,-1.44849,-0.92416,-62.6829,-6.3415,-19.1463,0.00,0.00,0.00,4,S01
23140,-8.79630,-1.52032,-0.94571,-59.0244,-6.2805,-16.7683,0.00,0.00,0.00,4,S01
23160,-8.76757,-1.71425,-0.87388,-54.6341,-2.7439,-14.8171,0.00,0.00,0.00,4,S01
23180,-9.11233,-1.73340,-0.83079,-49.6341,1.1585,-12.7439,0.00,0.00,0.00,4,S01
23200,-9.29669,-1.52989,-0.85712,-46.2805,2.9878,-10.0000,0.00,0.00,0.00,4,S01
23220,-9.01656,-1.56341,-0.60813,-32.8049,6.5854,-6.2195,0.00,0.00,0.00,4,S01
23240,-9.01656,-1.56341,-0.60813,-32.8049,6.5854,-6.2195,0.00,0.00,0.00,4,S01
23260,-9.01656,-1.56341,-0.60813,-32.8049,6.5854,-6.2195,0.00,0.00,0.00,4,S01
23280,-9.09557,-1.52750,-0.60094,-26.6463,8.8415,-4.8780,0.00,0.00,0.00,4,S01
23300,-9.14106,-1.36230,-0.82361,-22.0732,8.1098,-3.3537,0.00,0.00,0.00,4,S01
23320,-9.28950,-0.85712,-0.62249,-22.3780,10.9756,-1.2195,0.00,0.00,0.00,4,S01
23340,-9.36851,-0.89064,-0.68474,-22.4390,11.0366,-0.7317,0.00,0.00,0.00,4,S01
23360,-9.26795,-0.98881,-1.28808,-20.4268,11.4024,-0.9756,0.00,0.00,0.00,4,S01
23380,-9.71328,-1.05584,-1.69988,-18.1707,14.3902,-2.3171,0.00,0.00,0.00,4,S01
23400,-10.66617,-0.80924,-1.85790,-17.2561,14.6951,-5.3049,0.00,0.00,0.00,4,S01
23420,-11.76032,-0.48363,-2.09493,-18.9634,11.5854,-8.2927,0.00,0.00,0.00,4,S01
23440,-12.77067,-0.80685,-2.14760,-20.9146,9.2683,-10.0000,0.00,0.00,0.00,4,S01
23460,-12.90954,-1.55863,-2.68629,-16.0976,3.2927,-11.5244,0.00,0.00,0.00,4,S01
23480,-12.10748,-1.64003,-3.42850,-10.9756,-2.9268,-10.9146,0.00,0.00,0.00,4,S01
23500,-11.11867,-1.71185,-3.72298,-13.9024,-1.3415,-4.2683,0.00,0.00,0.00,4,S01
23520,-10.77151,-1.99916,-3.62722,-16.2805,11.5854,2.0732,0.00,0.00,0.00,4,S01
23540,-10.45548,-2.08774,-3.56018,-10.8537,25.5488,5.6098,0.00,0.00,0.00,4,S01
23560,-10.31183,-1.94649,-3.59609,-5.8537,30.0000,9.8780,0.00,0.00,0.00,4,S01
23580,-10.28788,-1.60651,-3.39977,-6.8902,25.4878,15.4268,0.00,0.00,0.00,4,S01
23600,-9.90242,-1.32399,-2.99036,-9.7561,17.6829,21.4634,0.00,0.00,0.00,4,S01
23620,-9.33260,-1.18992,-2.57377,-9.1463,10.1829,26.0976,0.00,0.00,0.00,4,S01
23640,-8.83939,-0.86670,-2.56898,-5.6707,4.3293,28.4756,0.00,0.00,0.00,4,S01
23660,-8.45153,-0.60094,-2.59771,-3.9634,2.3171,29.9390,0.00,0.00,0.00,4,S01
23680,-8.36055,-0.46926,-2.42054,-5.3049,1.0976,30.9146,0.00,0.00,0.00,4,S01
23700,-8.06846,-0.48842,-2.37984,-7.0122,-3.2317,31.7683,0.00,0.00,0.00,4,S01
23720,-7.76679,-0.39744,-2.39899,-7.6829,-8.2317,31.4634,0.00,0.00,0.00,4,S01
23740,-7.67342,-0.31603,-2.25773,-8.7805,-12.1341,29.7561,0.00,0.00,0.00,4,S01
23760,-7.69975,-0.28252,-2.26252,-8.4756,-15.7927,28.2317,0.00,0.00,0.00,4,S01
23780,-7.74764,-0.33279,-2.55940,-6.0366,-18.1098,28.7805,0.00,0.00,0.00,4,S01
23800,-7.83143,-0.38307,-2.51870,-4.2073,-18.5366,30.4268,0.00,0.00,0.00,4,S01
23820,-7.98227,-0.37828,-2.20745,-2.8659,-21.9512,31.3415,0.00,0.00,0.00,4,S01
23840,-8.01818,-0.19632,-2.12126,0.3049,-28.7195,30.3049,0.00,0.00,0.00,4,S01
23860,-8.07564,-0.06464,-2.21224,4.8171,-33.7805,28.2927,0.00,0.00,0.00,4,S01
23880,-8.25521,0.02155,-2.24337,9.6341,-34.5122,26.1585,0.00,0.00,0.00,4,S01
23900,-8.45871,0.25139,-2.18351,12.8659,-33.6585,24.2073,0.00,0.00,0.00,4,S01
23920,-8.47547,0.48842,-2.11169,13.1098,-32.9268,23.2317,0.00,0.00,0.00,4,S01
23940,-8.46829,0.62249,-1.88184,13.0488,-31.9512,22.9878,0.00,0.00,0.00,4,S01
23960,-8.44674,0.58179,-1.77650,15.0610,-31.2805,21.7683,0.00,0.00,0.00,4,S01
23980,-8.49942,0.62489,-1.74777,18.2317,-29.5122,18.6585,0.00,0.00,0.00,4,S01
24000,-8.67898,0.77333,-1.64242,19.5122,-26.2195,15.0000,0.00,0.00,0.00,4,S01
24020,-8.84897,0.96247,-1.47243,19.4512,-23.5366,12.8049,0.00,0.00,0.00,4,S01
24040,-9.00220,1.06063,-1.34554,20.1829,-22.0122,11.6463,0.00,0.00,0.00,4,S01
24060,-9.05727,1.07021,-1.24738,21.7683,-20.7317,10.4878,0.00,0.00,0.00,4,S01
24080,-8.90882,1.07021,-1.26174,22.2561,-18.9024,9.5732,0.00,0.00,0.00,4,S01
24100,-8.85855,1.17795,-1.12527,21.0366,-15.4268,9.5732,0.00,0.00,0.00,4,S01
24120,-9.06924,1.23301,-0.83079,19.9390,-12.6829,9.8171,0.00,0.00,0.00,4,S01
24140,-9.19613,1.19231,-0.67516,20.3049,-12.5610,8.9634,0.00,0.00,0.00,4,S01
24160,-8.92319,1.29047,-0.83079,20.6098,-13.1098,8.3537,0.00,0.00,0.00,4,S01
24180,-8.58800,1.30005,-0.80206,18.7195,-11.2805,8.2927,0.00,0.00,0.00,4,S01
24200,-8.67419,1.29287,-0.65122,17.6220,-7.7439,6.8293,0.00,0.00,0.00,4,S01
24220,-8.97586,1.22344,-0.53151,18.1098,-3.5976,4.6341,0.00,0.00,0.00,4,S01
24240,-8.93277,1.19471,-0.47166,19.6951,-0.9146,3.4756,0.00,0.00,0.00,4,S01
24260,-8.47308,1.59933,-0.43814,18.5976,3.9024,2.6220,0.00,0.00,0.00,4,S01
24280,-8.47308,1.59933,-0.43814,18.5976,3.9024,2.6220,0.00,0.00,0.00,4,S01
24300,-8.85855,1.73101,-0.16281,15.6098,8.2927,0.4878,0.00,0.00,0.00,4,S01
24320,-9.19134,1.62566,-0.00479,13.3537,9.8780,-1.9512,0.00,0.00,0.00,4,S01
24340,-8.95192,1.38624,-0.09098,13.4756,8.8415,-3.9024,0.00,0.00,0.00,4,S01
24360,-8.57842,1.14922,-0.13647,15.3659,9.0244,-5.9146,0.00,0.00,0.00,4,S01
24380,-8.73165,1.13725,-0.00958,17.3780,11.3415,-8.9024,0.00,0.00,0.00,4,S01
24400,-9.07881,1.31202,0.15562,19.0244,12.0122,-11.8293,0.00,0.00,0.00,4,S01
24420,-9.15303,1.54426,0.09577,20.8537,11.0976,-14.0244,0.00,0.00,0.00,4,S01
24440,-9.04529,1.96564,-0.14605,21.6463,11.8902,-15.4268,0.00,0.00,0.00,4,S01
24460,-9.09557,2.32716,-0.40462,18.7195,14.6341,-15.9756,0.00,0.00,0.00,4,S01
24480,-9.52413,2.52828,-0.60094,14.6341,18.6585,-16.0366,0.00,0.00,0.00,4,S01
24500,-10.28549,2.61926,-0.81403,10.3049,22.6829,-14.8780,0.00,0.00,0.00,4,S01
24520,-12.35408,2.52588,-2.10450,1.9512,24.4512,-7.2561,0.00,0.00,0.00,4,S01
24540,-12.54083,1.85790,-2.18830,6.0976,22.0122,-0.4878,0.00,0.00,0.00,4,S01
24560,-12.51449,1.17795,-2.25534,13.9634,19.7561,1.6463,0.00,0.00,0.00,4,S01
24580,-12.36845,0.80206,-2.85149,21.0976,19.6951,-0.9146,0.00,0.00,0.00,4,S01
24600,-11.14501,0.35913,-3.14598,28.1098,21.7073,-5.7927,0.00,0.00,0.00,4,S01
24620,-10.39323,0.12450,-3.43568,36.2805,26.2805,-12.3780,0.00,0.00,0.00,4,S01
24640,-10.11071,-0.26097,-3.49793,39.8171,30.1220,-17.5610,0.00,0.00,0.00,4,S01
24660,-10.18254,-0.64404,-3.26569,32.5610,28.9634,-20.7317,0.00,0.00,0.00,4,S01
24680,-10.12029,-0.85473,-3.16992,20.6098,23.4146,-25.2439,0.00,0.00,0.00,4,S01
24700,-9.78989,-1.06303,-3.08852,10.6707,16.7683,-29.8780,0.00,0.00,0.00,4,S01
24720,-9.35893,-1.24977,-3.04064,7.0122,11.7073,-32.9268,0.00,0.00,0.00,4,S01
24740,-8.88488,-1.25456,-3.15316,7.3171,8.4146,-35.3049,0.00,0.00,0.00,4,S01
24760,-8.54491,-1.25456,-3.11246,6.2805,7.3171,-36.2805,0.00,0.00,0.00,4,S01
24780,-8.45153,-1.44131,-2.82037,5.3659,6.7073,-35.7317,0.00,0.00,0.00,4,S01
24800,-8.49463,-1.62566,-2.65278,7.9878,2.4390,-34.1463,0.00,0.00,0.00,4,S01
24820,-8.39168,-1.62806,-2.73418,12.5610,-3.4146,-30.3049,0.00,0.00,0.00,4,S01
24840,-8.03494,-1.44131,-2.75812,15.2439,-5.1220,-25.3659,0.00,0.00,0.00,4,S01
24860,-7.86974,-1.09654,-2.76530,16.8293,-3.2317,-21.4634,0.00,0.00,0.00,4,S01
24880,-7.79073,-0.87867,-2.82037,17.5610,-2.8659,-18.5366,0.00,0.00,0.00,4,S01
24900,-7.63750,-0.73981,-3.00712,17.9268,-5.6707,-15.6707,0.00,0.00,0.00,4,S01
24920,-7.52737,-0.72784,-2.82276,15.5488,-8.2317,-13.1707,0.00,0.00,0.00,4,S01
24940,-7.60159,-0.89304,-2.52109,12.4390,-11.1585,-11.2195,0.00,0.00,0.00,4,S01
24960,-7.88889,-1.21147,-2.34392,12.2561,-13.1707,-10.0000,0.00,0.00,0.00,4,S01
24980,-8.05170,-1.47722,-2.31280,15.6707,-12.6220,-9.0854,0.00,0.00,0.00,4,S01
25000,-8.00142,-1.47962,-2.34392,20.2439,-10.6098,-8.2927,0.00,0.00,0.00,4,S01
25020,-8.30788,-1.33836,-2.17394,22.6220,-9.7561,-7.6829,0.00,0.00,0.00,4,S01
25040,-8.61434,-1.15161,-2.03747,22.4390,-11.6463,-6.5244,0.00,0.00,0.00,4,S01
25060,-8.54730,-1.15161,-2.07817,22.5000,-12.1341,-5.4878,0.00,0.00,0.00,4,S01
25080,-8.40844,-1.14682,-2.13323,23.2317,-10.1220,-5.8537,0.00,0.00,0.00,4,S01
25100,-8.45153,-1.07500,-2.10929,20.6707,-7.3171,-5.9146,0.00,0.00,0.00,4,S01
25120,-8.63589,-1.15161,-2.01831,16.2195,-4.0854,-5.4878,0.00,0.00,0.00,4,S01
25140,-8.73405,-1.35991,-1.91776,13.7805,-1.4024,-6.4634,0.00,0.00,0.00,4,S01
25160,-8.69095,-1.66397,-1.84832,14.7561,-0.7317,-8.1098,0.00,0.00,0.00,4,S01
25180,-8.81306,-1.94888,-1.69988,16.3415,-0.0610,-8.7805,0.00,0.00,0.00,4,S01
25200,-9.04051,-1.75734,-1.74298,16.4024,0.3659,-9.8171,0.00,0.00,0.00,4,S01
25220,-9.08360,-1.58975,-1.81480,14.7561,1.4634,-9.9390,0.00,0.00,0.00,4,S01
25240,-8.92558,-1.63045,-1.68073,13.1098,3.7195,-10.7927,0.00,0.00,0.00,4,S01
25260,-8.79630,-1.87466,-1.50595,12.1951,4.8780,-12.5000,0.00,0.00,0.00,4,S01
25280,-8.88009,-2.05901,-1.36709,12.9878,5.1220,-13.9024,0.00,0.00,0.00,4,S01
25300,-9.05008,-2.01113,-1.32639,14.0244,4.8171,-14.1463,0.00,0.00,0.00,4,S01
25320,-8.66940,-2.14999,-1.09894,10.4268,2.7439,-10.6098,0.00,0.00,0.00,4,S01
25340,-8.57603,-2.33914,-1.02472,12.4390,4.7561,-8.9024,0.00,0.00,0.00,4,S01
25360,-8.57603,-2.33914,-1.02472,12.4390,4.7561,-8.9024,0.00,0.00,0.00,4,S01
25380,-8.80348,-2.45406,-0.96247,15.1220,8.1707,-6.6463,0.00,0.00,0.00,4,S01
25400,-9.03093,-2.43730,-0.92656,17.3171,10.1829,-3.3537,0.00,0.00,0.00,4,S01
25420,-8.92319,-2.29365,-0.96486,19.2683,9.8171,0.0610,0.00,0.00,0.00,4,S01
25440,-8.84179,-2.09014,-0.99359,20.4268,9.6341,2.8659,0.00,0.00,0.00,4,S01
25460,-8.99741,-1.87945,-1.01754,20.3659,10.7927,5.1829,0.00,0.00,0.00,4,S01
25480,-9.16500,-1.68312,-0.96247,17.7439,10.4878,6.8902,0.00,0.00,0.00,4,S01
25500,-9.01656,-1.63285,-0.98402,13.9634,7.9268,7.6829,0.00,0.00,0.00,4,S01
25520,-8.78911,-1.82917,-1.11091,10.3049,7.6829,7.9878,0.00,0.00,0.00,4,S01
25540,-8.81066,-2.12845,-1.15401,8.1098,11.6463,9.3293,0.00,0.00,0.00,4,S01
25560,-8.96389,-2.45885,-1.02951,6.5854,14.9390,11.7073,0.00,0.00,0.00,4,S01
25580,-9.03093,-2.56898,-1.20668,7.5610,16.1585,13.4756,0.00,0.00,0.00,4,S01
25600,-9.43316,-2.61686,-1.24020,7.8049,17.8049,14.0854,0.00,0.00,0.00,4,S01
25620,-10.00537,-2.48279,-1.77410,10.6707,16.7073,12.1951,0.00,0.00,0.00,4,S01
25640,-10.53209,-2.26970,-2.20745,12.4390,16.4024,9.5122,0.00,0.00,0.00,4,S01
25660,-10.83376,-1.72622,-2.68629,10.1220,14.2073,5.4268,0.00,0.00,0.00,4,S01
25680,-11.10670,-1.24020,-2.88501,-0.7317,10.7927,1.6463,0.00,0.00,0.00,4,S01
25700,-11.49935,-1.36469,-2.48997,-12.9268,5.5488,-1.5854,0.00,0.00,0.00,4,S01
25720,-11.39161,-2.16436,-3.55300,-7.7439,-3.2927,-4.3902,0.00,0.00,0.00,4,S01
25740,-10.45787,-1.83396,-3.73256,-14.0854,4.5732,7.3780,0.00,0.00,0.00,4,S01
25760,-9.83538,-1.19231,-3.81875,-20.5488,19.0854,16.3415,0.00,0.00,0.00,4,S01
25780,-9.67736,-0.56743,-3.98635,-18.2317,36.8902,22.9878,0.00,0.00,0.00,4,S01
25800,-10.01016,-0.30167,-3.87382,-14.3902,46.8293,29.2073,0.00,0.00,0.00,4,S01
25820,-10.38844,-0.18435,-3.90255,-6.7073,40.0000,34.3293,0.00,0.00,0.00,4,S01
25840,-10.21366,-0.10295,-4.08451,-0.2439,21.1585,37.5000,0.00,0.00,0.00,4,S01
25860,-9.73482,0.09816,-4.13000,1.3415,2.2561,37.5610,0.00,0.00,0.00,4,S01
25880,-9.27035,0.21548,-3.93607,-1.2195,-9.5732,35.3659,0.00,0.00,0.00,4,S01
25900,-8.99023,0.31843,-3.66552,-4.2073,-13.7195,32.1951,0.00,0.00,0.00,4,S01
25920,-8.81066,0.36392,-3.31597,-5.6098,-14.1463,29.2683,0.00,0.00,0.00,4,S01
25940,-8.62391,0.30885,-3.02388,-4.6341,-15.4268,26.8293,0.00,0.00,0.00,4,S01
25960,-8.34619,0.26815,-2.88501,-1.5854,-17.9878,25.1829,0.00,0.00,0.00,4,S01
25980,-8.10198,0.22505,-2.81798,0.0610,-19.8171,24.8780,0.00,0.00,0.00,4,S01
26000,-8.00861,0.35913,-2.76291,0.6098,-19.4512,24.8780,0.00,0.00,0.00,4,S01
26020,-8.01100,0.64883,-2.67193,0.1220,-19.4512,24.3293,0.00,0.00,0.00,4,S01
26040,-8.03973,0.84994,-2.60968,-0.1220,-22.3780,23.6585,0.00,0.00,0.00,4,S01
26060,-7.88650,0.86910,-2.57377,0.6707,-27.4390,22.9878,0.00,0.00,0.00,4,S01
26080,-7.63750,0.98641,-2.52349,0.0000,-33.3537,22.3780,0.00,0.00,0.00,4,S01
26100,-7.49385,1.18513,-2.48039,-3.9024,-38.9634,21.8293,0.00,0.00,0.00,4,S01
26120,-7.38611,1.29287,-2.52828,-8.0488,-40.9756,20.8537,0.00,0.00,0.00,4,S01
26140,-7.77158,0.97444,-2.24097,-11.2195,-36.9512,18.5366,0.00,0.00,0.00,4,S01
26160,-8.41083,0.90980,-2.08056,-9.9390,-32.4390,14.0244,0.00,0.00,0.00,4,S01
26180,-8.66940,1.03190,-2.11887,-9.2683,-34.2073,10.1829,0.00,0.00,0.00,4,S01
26200,-8.34140,1.13006,-2.19548,-11.6463,-38.0488,8.4756,0.00,0.00,0.00,4,S01
26220,-8.07804,1.05105,-1.82917,-15.0000,-39.3902,8.0488,0.00,0.00,0.00,4,S01
26240,-8.35816,1.02232,-1.54905,-15.9146,-37.7439,7.1951,0.00,0.00,0.00,4,S01
26260,-8.70292,1.07500,-1.35272,-15.6707,-31.7073,6.1585,0.00,0.00,0.00,4,S01
26280,-8.93756,1.19231,-1.12527,-14.6341,-22.7439,5.6098,0.00,0.00,0.00,4,S01
26300,-8.89207,1.36709,-1.09176,-14.0854,-17.9878,5.2439,0.00,0.00,0.00,4,S01
26320,-8.74123,1.43413,-1.10852,-14.8171,-15.0610,5.7317,0.00,0.00,0.00,4,S01
26340,-8.74841,1.44131,-0.97683,-16.3415,-10.4268,6.5244,0.00,0.00,0.00,4,S01
26360,-9.24880,1.30963,-0.57700,-17.0122,-3.7805,6.4634,0.00,0.00,0.00,4,S01
26380,-9.24880,1.30963,-0.57700,-17.0122,-3.7805,6.4634,0.00,0.00,0.00,4,S01
26400,-8.93516,1.35751,-0.66080,-17.2561,-4.6341,6.5244,0.00,0.00,0.00,4,S01
26420,-8.71489,1.44610,-0.60094,-16.8902,-3.9634,6.7683,0.00,0.00,0.00,4,S01
26440,-8.94713,1.67834,-0.46448,-15.9756,-1.4634,6.5854,0.00,0.00,0.00,4,S01
26460,-9.20331,1.79805,-0.28012,-16.3415,0.5488,5.9146,0.00,0.00,0.00,4,S01
26480,-9.03811,1.77171,-0.33040,-17.8049,-0.4878,4.8780,0.00,0.00,0.00,4,S01
26500,-8.59997,1.80523,-0.45490,-19.2683,-1.4634,3.5366,0.00,0.00,0.00,4,S01
26520,-8.54251,1.79805,-0.37350,-21.1585,0.7927,2.1341,0.00,0.00,0.00,4,S01
26540,-8.97107,1.81480,-0.27294,-22.0732,4.8780,-0.2439,0.00,0.00,0.00,4,S01
26560,-9.22486,1.87227,-0.09577,-22.1341,7.4390,-2.1951,0.00,0.00,0.00,4,S01
26580,-8.83221,1.95127,-0.07901,-22.8049,7.7439,-2.7439,0.00,0.00,0.00,4,S01
26600,-8.53294,2.20745,-0.28012,-24.3293,10.3049,-3.2927,0.00,0.00,0.00,4,S01
26620,-8.81306,2.11408,-0.28491,-27.2561,14.9390,-5.9756,0.00,0.00,0.00,4,S01
26640,-9.21049,1.93691,-0.19154,-26.1585,17.8049,-9.8780,0.00,0.00,0.00,4,S01
26660,-9.25119,1.88903,-0.06225,-23.3537,19.1463,-12.5610,0.00,0.00,0.00,4,S01
26680,-9.21289,1.89381,-0.24660,-20.0610,20.6098,-13.1098,0.00,0.00,0.00,4,S01
26700,-9.33020,1.92733,-0.63207,-16.8293,22.7439,-12.3780,0.00,0.00,0.00,4,S01
26720,-9.86411,2.03986,-1.02232,-14.0854,26.2195,-12.8049,0.00,0.00,0.00,4,S01
26740,-10.85052,2.37505,-1.35033,-13.7195,28.5366,-13.2927,0.00,0.00,0.00,4,S01
26760,-11.71004,2.41814,-1.57778,-14.0854,29.0854,-10.4268,0.00,0.00,0.00,4,S01
26780,-12.11705,1.71425,-1.32878,-10.0610,26.7073,-6.8293,0.00,0.00,0.00,4,S01
26800,-12.71082,1.33596,-1.74537,2.0122,21.3415,-7.0732,0.00,0.00,0.00,4,S01
26820,-13.04840,1.15640,-2.30322,12.2561,19.2073,-7.0122,0.00,0.00,0.00,4,S01
26840,-11.99256,0.60334,-2.53307,18.7195,17.6220,-9.3293,0.00,0.00,0.00,4,S01
26860,-10.46266,0.68474,-2.95205,24.7561,17.5000,-15.9756,0.00,0.00,0.00,4,S01
26880,-9.69652,0.63446,-2.92332,23.9024,21.0976,-20.8537,0.00,0.00,0.00,4,S01
26900,-9.93354,0.53630,-2.80600,18.1098,22.8659,-24.4512,0.00,0.00,0.00,4,S01
26920,-9.91918,0.13886,-2.81079,2.5000,17.6220,-31.7073,0.00,0.00,0.00,4,S01
26940,-9.61990,-0.06464,-2.77967,-5.1829,12.0122,-35.1829,0.00,0.00,0.00,4,S01
26960,-9.37330,-0.16999,-2.78924,-11.2805,7.3171,-37.0122,0.00,0.00,0.00,4,S01
26980,-9.17937,-0.36152,-2.76291,-14.6341,4.0854,-36.0366,0.00,0.00,0.00,4,S01
27000,-8.94234,-0.51475,-2.61926,-14.7561,0.7927,-34.2073,0.00,0.00,0.00,4,S01
27020,-8.63828,-0.46926,-2.51631,-14.6951,-4.1463,-32.7439,0.00,0.00,0.00,4,S01
27040,-8.14986,-0.29209,-2.42293,-17.4390,-9.0244,-31.5244,0.00,0.00,0.00,4,S01
27060,-7.71891,-0.29449,-2.36547,-22.0732,-11.2195,-30.7317,0.00,0.00,0.00,4,S01
27080,-7.28795,-0.48602,-2.29843,-23.8415,-9.2683,-30.7927,0.00,0.00,0.00,4,S01
27100,-6.95755,-0.77093,-2.24097,-20.9756,-5.9756,-31.3415,0.00,0.00,0.00,4,S01
27120,-7.06768,-0.86431,-2.16196,-17.3780,-3.4146,-30.7927,0.00,0.00,0.00,4,S01
27140,-7.58004,-0.81163,-2.08296,-17.1341,-4.3902,-26.9512,0.00,0.00,0.00,4,S01
27160,-8.01818,-0.62489,-2.13802,-20.1220,-8.5366,-21.9512,0.00,0.00,0.00,4,S01
27180,-7.93199,-0.60334,-2.30322,-22.7439,-11.7683,-17.2561,0.00,0.00,0.00,4,S01
27200,-7.92002,-0.81163,-2.17154,-24.8780,-13.4146,-13.7195,0.00,0.00,0.00,4,S01
27220,-8.41083,-0.96486,-1.86269,-26.7073,-14.5122,-11.5244,0.00,0.00,0.00,4,S01
27240,-8.67659,-0.95768,-1.89381,-28.4146,-16.0366,-10.0610,0.00,0.00,0.00,4,S01
27260,-8.50660,-0.96726,-1.99676,-29.0854,-16.7073,-8.9024,0.00,0.00,0.00,4,S01
27280,-8.44674,-0.94810,-2.05901,-27.6829,-16.2805,-8.7805,0.00,0.00,0.00,4,S01
27300,-8.59758,-1.08457,-1.97522,-26.9512,-15.1220,-9.6951,0.00,0.00,0.00,4,S01
27320,-8.74841,-1.18992,-1.88424,-26.4024,-14.7561,-11.3415,0.00,0.00,0.00,4,S01
27340,-8.64786,-1.34794,-1.72622,-25.4268,-14.5122,-12.1341,0.00,0.00,0.00,4,S01
27360,-8.66701,-1.54187,-1.61130,-22.6829,-13.9634,-12.6829,0.00,0.00,0.00,4,S01
27380,-8.90882,-1.57538,-1.63285,-20.1220,-12.2561,-12.7439,0.00,0.00,0.00,4,S01
27400,-8.99262,-1.50356,-1.41737,-17.0122,-3.4756,-13.6585,0.00,0.00,0.00,4,S01
27420,-8.99262,-1.50356,-1.41737,-17.0122,-3.4756,-13.6585,0.00,0.00,0.00,4,S01
27440,-8.83221,-1.50356,-1.31202,-14.7561,-1.9512,-14.4512,0.00,0.00,0.00,4,S01
27460,-8.84179,-1.47483,-1.30963,-12.9268,-1.4634,-15.4878,0.00,0.00,0.00,4,S01
27480,-8.99262,-1.48201,-1.31681,-12.2561,0.9146,-16.2805,0.00,0.00,0.00,4,S01
27500,-9.09557,-1.54426,-1.11330,-12.1341,5.4878,-16.5244,0.00,0.00,0.00,4,S01
27520,-9.07881,-1.49398,-1.15161,-11.7683,6.7683,-16.1585,0.00,0.00,0.00,4,S01
27540,-8.89685,-1.53229,-1.06542,-13.1098,6.3415,-14.6951,0.00,0.00,0.00,4,S01
27560,-8.75799,-1.64482,-1.05824,-13.2927,6.8293,-13.1098,0.00,0.00,0.00,4,S01
27580,-8.84179,-1.86748,-0.85952,-11.9512,9.2073,-11.2805,0.00,0.00,0.00,4,S01
27600,-8.98065,-2.02789,-0.77333,-8.5366,10.6098,-9.3293,0.00,0.00,0.00,4,S01
27620,-9.02135,-2.00634,-0.75657,-5.3049,11.0366,-7.2561,0.00,0.00,0.00,4,S01
27640,-9.07163,-1.87705,-0.72544,-2.8049,11.3415,-5.1220,0.00,0.00,0.00,4,S01
27660,-9.09557,-1.90100,-0.75417,-0.0610,11.5854,-2.0122,0.00,0.00,0.00,4,S01
27680,-9.21768,-1.97522,-0.61531,2.8659,11.6463,0.7927,0.00,0.00,0.00,4,S01
27700,-9.19852,-1.86029,-0.54827,4.6341,10.6098,2.4390,0.00,0.00,0.00,4,S01
27720,-8.91840,-1.74537,-0.42856,4.3902,9.3902,3.4756,0.00,0.00,0.00,4,S01
27740,-8.99980,-1.86029,-0.24900,4.3293,9.5732,4.5122,0.00,0.00,0.00,4,S01
27760,-9.22246,-1.89860,-0.27294,5.5488,10.4268,5.6098,0.00,0.00,0.00,4,S01
27780,-9.10994,-1.98479,-0.32082,5.7317,11.5854,6.2805,0.00,0.00,0.00,4,S01
27800,-8.95671,-2.17394,-1.04387,8.3537,12.6220,5.6707,0.00,0.00,0.00,4,S01
27820,-9.45949,-2.29843,-1.19710,10.9756,16.8293,5.4878,0.00,0.00,0.00,4,S01
27840,-10.20648,-2.14760,-1.22583,13.1098,16.9512,3.2927,0.00,0.00,0.00,4,S01
27860,-10.71405,-1.88184,-1.53708,12.3171,11.5854,-0.4268,0.00,0.00,0.00,4,S01
27880,-11.28627,-1.57538,-1.79805,9.5732,7.5610,-3.6585,0.00,0.00,0.00,4,S01
27900,-12.01889,-1.44610,-2.05422,5.0000,5.3049,-4.0854,0.00,0.00,0.00,4,S01
27920,-12.39718,-1.09176,-2.43011,1.0366,5.4268,-2.8659,0.00,0.00,0.00,4,S01
27940,-12.29901,-1.13964,-3.07655,-3.1098,8.0488,-0.0610,0.00,0.00,0.00,4,S01
27960,-11.96383,-1.15161,-3.75411,-6.6463,12.6829,8.2317,0.00,0.00,0.00,4,S01
27980,-11.02051,-1.24498,-3.91691,-16.2195,17.8049,16.1585,0.00,0.00,0.00,4,S01
28000,-10.14663,-1.25456,-3.86424,-18.2317,27.0732,17.5610,0.00,0.00,0.00,4,S01
28020,-10.06283,-1.25935,-3.81396,-12.3171,37.6220,19.3902,0.00,0.00,0.00,4,S01
28040,-10.62307,-1.12049,-3.71101,-2.0122,42.7439,25.1829,0.00,0.00,0.00,4,S01
28060,-10.75236,-0.96247,-3.58173,11.2195,35.0610,31.3415,0.00,0.00,0.00,4,S01
28080,-10.02931,-0.48602,-3.60806,20.6707,16.5244,34.3902,0.00,0.00,0.00,4,S01
28100,-8.36295,0.24900,-3.23935,11.1585,-11.2195,35.5488,0.00,0.00,0.00,4,S01
28120,-7.95593,0.18435,-2.82995,6.8293,-10.8537,33.4146,0.00,0.00,0.00,4,S01
28140,-7.79791,0.15562,-2.77249,6.5854,-6.8902,31.0976,0.00,0.00,0.00,4,S01
28160,-7.92002,0.30646,-2.80361,7.1951,-4.3902,29.8780,0.00,0.00,0.00,4,S01
28180,-8.06846,0.53630,-2.74854,5.3659,-7.9878,28.8415,0.00,0.00,0.00,4,S01
28200,-7.99663,0.54827,-2.63123,3.7195,-17.8659,27.3171,0.00,0.00,0.00,4,S01
28220,-7.79073,0.45250,-2.64799,2.9878,-29.2073,25.5488,0.00,0.00,0.00,4,S01
28240,-7.59441,0.43096,-2.56658,2.0122,-35.4268,24.8780,0.00,0.00,0.00,4,S01
28260,-7.54413,0.45250,-2.51631,0.9756,-37.5610,25.4268,0.00,0.00,0.00,4,S01
28280,-7.49146,0.59137,-2.50912,2.0122,-37.3171,25.3049,0.00,0.00,0.00,4,S01
28300,-7.52019,0.82121,-2.40138,2.7439,-34.6951,23.2927,0.00,0.00,0.00,4,S01
28320,-7.57286,0.93374,-2.41575,3.3537,-32.4390,20.6098,0.00,0.00,0.00,4,S01
28340,-7.72369,1.11570,-2.51391,2.2561,-30.0610,17.9878,0.00,0.00,0.00,4,S01
28360,-7.92481,1.16598,-2.16915,-2.4390,-26.4634,15.4268,0.00,0.00,0.00,4,S01
28380,-8.11634,0.97923,-1.82199,-6.4024,-25.7927,11.9512,0.00,0.00,0.00,4,S01
28400,-8.20014,0.83318,-1.78368,-7.5000,-26.8902,7.5000,0.00,0.00,0.00,4,S01
28420,-8.33661,0.78290,-1.69509,-9.0854,-24.2073,4.7561,0.00,0.00,0.00,4,S01
28440,-8.56406,1.02951,-1.65200,-12.1951,-19.0854,2.2561,0.00,0.00,0.00,4,S01
28460,-8.68138,1.19231,-1.48919,-17.5610,-16.9512,0.9756,0.00,0.00,0.00,4,S01
28480,-8.83460,1.03669,-1.20907,-20.7317,-15.6707,1.0976,0.00,0.00,0.00,4,S01
28500,-8.82263,0.72065,-1.09415,-19.0244,-13.2317,0.8537,0.00,0.00,0.00,4,S01
28520,-8.92798,0.65601,-1.03190,-15.1829,-8.9024,0.8537,0.00,0.00,0.00,4,S01
28540,-9.44513,0.75417,-0.74699,-13.0488,-5.5488,1.8293,0.00,0.00,0.00,4,S01
28560,-9.78750,0.88585,-0.54348,-10.3049,-6.4634,2.9268,0.00,0.00,0.00,4,S01
28580,-9.63906,0.70390,-0.59376,-7.1951,-10.6707,3.5366,0.00,0.00,0.00,4,S01
28600,-9.16261,0.51236,-0.62249,-2.5610,-14.6951,4.1463,0.00,0.00,0.00,4,S01
28620,-8.85376,0.43335,-0.68235,1.6463,-16.0366,5.0610,0.00,0.00,0.00,4,S01
28640,-9.05008,0.62249,-0.50039,5.3049,-12.3780,5.8537,0.00,0.00,0.00,4,S01
28660,-9.37569,0.99359,-0.14126,7.4390,-8.4146,6.5854,0.00,0.00,0.00,4,S01
28680,-9.31105,1.38624,0.00239,8.1098,-8.5976,6.4634,0.00,0.00,0.00,4,S01
28700,-8.90882,1.58736,-0.03831,7.5610,-10.7927,5.1220,0.00,0.00,0.00,4,S01
28720,-8.60955,1.45328,-0.02394,6.5854,-10.6098,3.1707,0.00,0.00,0.00,4,S01
28740,-8.53054,1.19231,0.05746,7.3171,-6.9512,0.8537,0.00,0.00,0.00,4,S01
28760,-8.67898,1.04627,0.23703,8.7805,-2.0122,-1.7683,0.00,0.00,0.00,4,S01
28780,-8.81306,1.02472,0.31364,10.6098,0.9756,-4.0244,0.00,0.00,0.00,4,S01
28800,-8.87770,1.06303,0.33040,12.0122,3.1098,-5.0610,0.00,0.00,0.00,4,S01
28820,-8.98544,1.22583,0.50039,12.9268,5.1220,-5.5488,0.00,0.00,0.00,4,S01
28840,-9.11473,1.28329,0.71108,13.3537,5.1220,-6.5854,0.00,0.00,0.00,4,S01
28860,-9.10515,1.35751,0.66559,14.0244,3.2317,-8.0488,0.00,0.00,0.00,4,S01
28880,-8.87531,1.45807,0.67516,13.4756,1.7073,-8.9024,0.00,0.00,0.00,4,S01
28900,-8.75799,1.48441,0.66319,12.4390,0.8537,-10.3049,0.00,0.00,0.00,4,S01
28920,-8.94953,1.48441,0.58658,13.2317,2.0122,-11.7683,0.00,0.00,0.00,4,S01
28940,-9.30387,1.46765,0.70868,14.2073,3.9634,-12.0122,0.00,0.00,0.00,4,S01
28960,-9.37809,1.47722,0.64165,15.6098,2.8659,-11.2195,0.00,0.00,0.00,4,S01
28980,-9.24162,1.41976,0.66319,17.0122,1.8902,-9.4512,0.00,0.00,0.00,4,S01
29000,-9.50498,1.42694,0.57700,19.5732,2.0122,-7.7439,0.00,0.00,0.00,4,S01
29020,-10.65180,1.77650,-0.17478,23.7195,2.5610,-5.3049,0.00,0.00,0.00,4,S01
29040,-11.92312,2.35589,-1.71425,22.6829,6.4634,2.5000,0.00,0.00,0.00,4,S01
29060,-12.38521,2.71024,-1.87945,10.9756,11.7683,15.1829,0.00,0.00,0.00,4,S01
29080,-11.53526,1.87466,-1.10612,-3.7195,5.1829,23.8415,0.00,0.00,0.00,4,S01
29100,-10.68532,0.59137,-1.19471,-2.3171,-2.9268,21.8293,0.00,0.00,0.00,4,S01
29120,-9.54329,-0.94332,-1.40061,11.2195,2.4390,15.1220,0.00,0.00,0.00,4,S01
29140,-9.10036,-1.18513,-2.02310,34.4512,12.9878,3.4146,0.00,0.00,0.00,4,S01
29160,-8.85615,-0.52672,-2.53785,47.9268,12.5610,-7.2561,0.00,0.00,0.00,4,S01
29180,-8.56885,0.22266,-2.77488,47.3781,7.1951,-9.7561,0.00,0.00,0.00,4,S01
29200,-8.65504,0.81403,-3.05261,42.4390,2.2561,-8.0488,0.00,0.00,0.00,4,S01
29220,-9.16979,0.98162,-3.11964,32.2561,-2.6829,-6.1585,0.00,0.00,0.00,4,S01
29240,-9.34457,0.65122,-2.93769,21.0976,-9.0854,-6.6463,0.00,0.00,0.00,4,S01
29260,-9.34936,0.19632,-2.73178,14.6341,-13.2927,-8.9024,0.00,0.00,0.00,4,S01
29280,-9.33020,-0.16759,-2.30322,9.4512,-15.7927,-11.7073,0.00,0.00,0.00,4,S01
29300,-8.95431,-0.37589,-1.75734,2.2561,-14.9390,-16.4634,0.00,0.00,0.00,4,S01
29320,-8.95910,-0.51954,-1.58496,-0.0610,-13.8415,-18.4756,0.00,0.00,0.00,4,S01
29340,-8.90643,-0.54109,-1.51074,-0.9756,-12.5000,-18.9634,0.00,0.00,0.00,4,S01
29360,-8.91840,-0.29688,-1.27611,-0.1220,-9.8171,-18.2317,0.00,0.00,0.00,4,S01
29380,-8.87770,0.14605,-1.08218,-0.9756,-8.8415,-18.1707,0.00,0.00,0.00,4,S01
29400,-8.89446,0.46448,-1.07739,-4.3902,-8.7195,-19.8171,0.00,0.00,0.00,4,S01
29420,-9.06445,0.33998,-0.94332,-8.2317,-6.0976,-20.7927,0.00,0.00,0.00,4,S01
29440,-9.13867,-0.04549,-1.07739,-9.9390,-2.8659,-21.0366,0.00,0.00,0.00,4,S01
29460,-9.18895,-0.17478,-0.94571,-9.9390,-0.4268,-20.4878,0.00,0.00,0.00,4,S01
29480,-9.29429,0.03112,-0.70629,-12.9268,-1.3415,-18.8415,0.00,0.00,0.00,4,S01
29500,-9.23444,0.09577,-0.57461,-17.5000,-3.0488,-16.2195,0.00,0.00,0.00,4,S01
29520,-8.91361,-0.05028,-0.48123,-19.9390,-2.6220,-14.7561,0.00,0.00,0.00,4,S01
29540,-8.85855,-0.28012,-0.37350,-20.1220,-0.6098,-14.6341,0.00,0.00,0.00,4,S01
29560,-9.00938,-0.39265,-0.23942,-20.7927,2.0732,-13.4756,0.00,0.00,0.00,4,S01
29580,-9.10994,-0.51236,0.01915,-22.1951,3.1098,-11.0976,0.00,0.00,0.00,4,S01
29600,-9.07881,-0.62489,0.05267,-21.9512,1.8902,-8.5976,0.00,0.00,0.00,4,S01
29620,-9.01896,-0.63925,0.07661,-21.1585,2.1341,-6.3415,0.00,0.00,0.00,4,S01
29640,-8.89925,-0.63925,0.14605,-20.5488,3.7805,-3.5366,0.00,0.00,0.00,4,S01
29660,-8.92558,-0.75896,0.35913,-19.8780,4.6341,-0.3659,0.00,0.00,0.00,4,S01
29680,-9.10515,-0.92416,0.52672,-17.9268,3.6585,2.4390,0.00,0.00,0.00,4,S01
29700,-9.21768,-0.96007,0.42138,-15.7317,2.3171,4.8171,0.00,0.00,0.00,4,S01
29720,-9.31823,-0.92656,0.38307,-14.8171,2.1951,6.3415,0.00,0.00,0.00,4,S01
29740,-9.37569,-0.90980,0.50039,-14.0854,0.6098,7.1341,0.00,0.00,0.00,4,S01
29760,-9.23204,-0.90501,0.57700,-13.4146,-2.9268,6.9512,0.00,0.00,0.00,4,S01
29780,-9.12191,-0.75896,0.68714,-13.2927,-5.6098,5.3659,0.00,0.00,0.00,4,S01
29800,-9.20571,-0.50996,0.85473,-16.4024,-7.1951,2.8049,0.00,0.00,0.00,4,S01
29820,-9.40442,-0.39983,1.07021,-22.1341,-8.7805,-0.7317,0.00,0.00,0.00,4,S01
29840,-9.47386,-0.63925,1.35272,-28.0488,-12.1951,-3.1707,0.00,0.00,0.00,4,S01
29860,-9.58638,-0.96247,1.06542,-32.3780,-15.0000,-3.6585,0.00,0.00,0.00,4,S01
29880,-10.54646,-1.90100,-0.43335,-31.4024,-12.6829,-5.4268,0.00,0.00,0.00,4,S01
29900,-11.68131,-2.26731,-0.98162,-20.6707,-4.2683,-16.8293,0.00,0.00,0.00,4,S01
29920,-11.93270,-1.34794,-0.90980,-8.3537,-7.8659,-34.0854,0.00,0.00,0.00,4,S01
29940,-11.52329,0.47884,-1.02951,-2.9268,-23.5976,-37.8049,0.00,0.00,0.00,4,S01
29960,-10.41238,1.06542,-2.24097,-11.4024,-29.0854,-23.6585,0.00,0.00,0.00,4,S01
29980,-9.57202,0.60094,-2.44448,-25.9756,-13.4756,-7.7439,0.00,0.00,0.00,4,S01
# DONE 1500 samples in 30.0s
