timestamp,ax,ay,az,gx,gy,gz,mx,my,mz,label,subject_id
0,0.13514967102481315,-0.053667096821826514,10.154732571848818,-7.795349019052206,-0.38623152173298636,17.009551887205774,31.313113173992864,-7.303242255824649,39.0403228605715,2,S02
20,0.319306587687298,0.33244450133026576,10.5408417641318,7.430120709069867,16.370304728050712,19.287328502714384,32.28657914635084,-9.591395163533615,39.648290907591885,2,S02
40,0.5377289021741645,0.9607518438354694,10.720813355104653,17.532760886097527,35.18147552722911,8.386030996212902,32.14081084666884,-10.098664330066626,39.65193249246652,2,S02
60,0.6364448117659506,1.276962435036835,11.092595428601635,18.019367951509583,44.83294681060374,7.164251957305741,32.31899922909342,-11.513680637567202,40.09900488836979,2,S02
80,0.8341765420036634,1.6725434554999588,11.047656494972333,26.85707452867999,56.60282181439487,3.2888090977347004,32.44788444095856,-11.742520083970808,40.10295337670962,2,S02
100,0.8655131889134254,1.5673716965245463,11.277056450649498,31.20930835608991,56.01194091161955,0.7899545566423597,31.8495233001912,-12.200286075799283,38.9004614667253,2,S02
120,0.6264646349716801,1.5650719958733552,11.175358621092284,29.068772516669316,56.69070802271379,-10.009299270203122,34.56350051223599,-15.162542449805757,39.790773605220565,2,S02
140,0.7205565784061363,1.4258664665064287,10.88942035071544,29.399767856027378,47.45546079310893,-14.09681896539015,34.20555471236153,-12.413627346842352,40.376899207036786,2,S02
160,0.5893272857129417,1.0748048802745773,10.885270333493146,22.440011299841572,41.65825237661435,-10.456008803691214,32.02639614665402,-12.690898684314327,40.27797265269573,2,S02
180,0.346324177904847,0.7528807794833761,10.556601661697407,15.706924706316428,32.97974621986027,-19.302704916383078,33.800607423640365,-14.099070231711304,38.532364300308814,2,S02
200,0.32385125335436754,0.44499264174639747,10.445509639345081,1.8353899138346872,20.985696300353183,-24.318029426264445,34.818692811612465,-14.738820489583976,37.1593017534589,2,S02
220,0.05473941573601908,0.3831259440700666,10.365475184325293,6.10549608019928,14.78810873580543,-20.911503768338736,34.792670888951164,-17.33504744925326,36.13726839606834,2,S02
240,0.11340973495941448,0.0606823731110572,10.211243398867937,-1.274111830375225,7.92757126176834,-17.64532532444944,33.680767230272906,-17.2625889600779,37.64550444383943,2,S02
260,0.055106311562034105,0.027935147255561246,10.153702390479397,0.04503174767030149,1.5420303193901301,-16.8536229580808,31.904462196428714,-17.90148445361001,37.39025744838065,2,S02
280,0.1953415982789335,-0.1484794440665597,10.118539204993976,-11.626109081937198,-4.400183184725865,-18.087222159969905,33.35095107285702,-18.13291665305717,38.082786264902346,2,S02
300,0.2551592014090357,-0.2919680809635755,10.123683059193366,-14.16619446424394,-11.510844842025845,-12.975754289805545,33.23551350346176,-17.46782722992207,35.78117950424049,2,S02
320,0.04288619048586964,-0.45395736575887863,9.868471580044051,-17.300467966599182,-18.6348434986965,-10.089619459752742,34.491726388684555,-18.531277404277667,34.89895105943072,2,S02
340,-0.05316412628290029,-0.764236101415189,9.866787164868862,-12.562217412803204,-24.953776531624538,-9.934584589026908,34.62685253635173,-18.27852307243205,36.67593549589616,2,S02
360,-0.18450216645932713,-0.9737748667120041,9.538075521334633,-22.597528375364252,-35.688503198636894,-0.37522209573802545,34.433589041811445,-20.474056035457053,35.527015851117724,2,S02
380,-0.2378733123078258,-1.1741539830222714,9.507716543057587,-28.439419525127672,-46.068867419635914,7.201132743967517,33.94660802832976,-19.448130694693283,37.1781483212432,2,S02
400,-0.43270760491061566,-1.4931188161017763,9.276376605530896,-35.29624063101565,-55.27882831631591,3.4559012178522903,33.6752047422365,-21.261016960977663,36.86185357746546,2,S02
420,-0.3998036606079166,-1.6273672523177076,9.15920884286709,-37.073422969247666,-56.703705581036445,13.456875156330709,32.30219421416308,-23.257271354640704,34.607761794038865,2,S02
440,-0.7536347736453394,-1.7258189050899497,9.045031196687477,-36.27482443332178,-56.398289363916824,18.53939933178429,33.1278226030915,-21.287947050436543,37.26483598200819,2,S02
460,-0.6141676136295701,-1.576868387374461,9.067466089539048,-28.480770973848653,-55.07979048947354,21.916828842458614,32.888847539725234,-22.87243320815902,36.76041184295011,2,S02
480,-0.6083514794868514,-1.4072146367214946,9.319774882706481,-37.73900421719938,-48.2013424525084,19.638370968130637,32.09266450628135,-22.65168165953294,37.031943605503734,2,S02
500,-0.4418241344089032,-0.9378203468001971,9.46504803936708,-24.8249183620205,-34.442529722398966,21.93907446198136,32.31510993660976,-22.912110730291708,36.59239111737546,2,S02
520,-0.06052053035359578,-0.657276138832732,9.865464916491081,-13.156802831931213,-17.91266190507747,26.82956328132209,32.82168395581818,-21.538046456055582,37.48354388150611,2,S02
540,-0.06954920103875076,-0.08506130124666285,9.968835480416164,-7.237067646118391,-3.708546292060909,19.51874846195462,33.14922510194239,-24.505197121471994,37.742241716932035,2,S02
560,0.38164712118323885,0.44595429753102717,10.40988875908536,5.804940389162961,15.662917613410208,13.80042423238249,32.335936000069225,-23.033417036042472,39.90096341066836,2,S02
580,0.6461388141008324,0.8210564916126457,10.812843209481874,18.160693965071715,29.612834704925007,12.846364631363118,31.861481024709125,-25.494984562612515,39.04612015685536,2,S02
600,0.8299690097058168,1.2907298173353106,11.07444432843628,26.270277227449725,48.080333488124595,2.729459235209752,32.113575119457984,-24.975284733229184,38.99144440176911,2,S02
620,0.8030365503615782,1.425733563648546,10.906296469045786,28.944127534664123,51.97956480367796,4.027653903198218,31.943452643877468,-27.61796594102751,38.5815010933629,2,S02
640,0.7976415837689204,1.4662178109475086,11.15072724724068,33.56939704448021,56.32783580039733,-4.568985304617524,30.51164340965338,-24.560529100660776,39.962418867291625,2,S02
660,0.7535229877234574,1.5043648108002774,11.042591131224158,33.136891313272734,50.88237956249536,-10.655557424294608,30.104712283824252,-26.00672707034675,38.218584993569536,2,S02
680,0.644559952868412,1.2575037217376424,10.991742078392212,24.707047886282634,44.31217694828299,-13.072421579437414,32.83697548099582,-24.659079364524995,40.09369988978186,2,S02
700,0.602663183304554,0.9850755365214923,10.9021779491331,16.361280738507165,32.361143661544816,-18.59845706316755,31.758827894831285,-27.496473298476918,37.43951779263952,2,S02
720,0.2826547111806069,1.0742393124903469,10.810734928998517,15.114189032665973,26.51759571813587,-15.716451815849956,30.24219861310028,-27.559215306317707,39.254403746864945,2,S02
740,0.27838972409984486,0.6486905600886177,10.508508478346789,10.371243428087901,21.754822343017505,-18.3901344744539,28.68111424691853,-25.139654313942955,39.31888221397507,2,S02
760,0.044585617776238706,0.4172295183455321,10.447421028392059,1.62977915189626,12.928180204915872,-18.22498122008982,30.549524025427193,-27.25534934172526,37.92551909425927,2,S02
780,0.1516230535846899,0.2125841113741873,10.145607640704476,-2.129551207780338,5.408569736430736,-22.447728028602995,27.839791570099063,-25.90521379867319,36.05774924233997,2,S02
800,0.19661342599547552,0.31014958600652437,10.154335198944196,-1.2474564573304368,3.7583931514702345,-17.74678725969072,28.32249866383608,-24.547743063451467,36.19920300048262,2,S02
820,0.19851706930034918,-0.3019222513534928,10.12875543664597,-5.083772733194781,-1.1768889001674168,-15.633500469600973,27.839655497121026,-23.77649209171406,35.08182036230489,2,S02
840,0.15460546063404207,-0.5191015418611844,10.08301502449139,-14.835689526221394,-8.819628517255932,-12.549657633237306,27.04770239836101,-26.636466041521093,35.41133044009067,2,S02
860,-0.057948656934410925,-0.5958470199013124,9.812500257029779,-10.783271847792687,-17.574682552918482,-8.390035419091928,29.943770325148126,-26.768487353312658,35.96591969473468,2,S02
880,-0.06927482497075693,-0.7469369928204856,9.815101758728545,-19.260878755231456,-22.241860992997253,-2.4505858583783033,27.39856325228912,-25.04991390695573,35.80837079178069,2,S02
900,-0.19845097891427013,-1.0544793856196306,9.677008304473542,-18.817340944427364,-34.2941628278798,-0.9112253207453406,28.153953052882816,-25.17995775672646,35.122064686349205,2,S02
920,-0.3555512214228237,-1.3478963107208197,9.379937503068533,-29.41108835773511,-38.73507507592702,2.9316148756561726,25.428462784157794,-25.916536803122938,35.49013189921935,2,S02
940,-0.5749385640066507,-1.6561809482436962,9.085685029601105,-30.69013195750512,-50.415558674888,7.694421531966661,24.622970119670875,-24.41517652485969,35.91832719837545,2,S02
960,-0.5116356070388842,-1.5630409411206092,9.13864444213956,-40.631931449717854,-53.398593960260385,8.935595754127432,24.420228096881395,-25.696587899563486,35.60980250871601,2,S02
980,-0.6553806626199865,-1.6212491867207872,9.161232234199861,-41.25762939178558,-58.39191170617642,15.956473986536738,24.375073140556133,-21.972189248330473,36.42989691948034,2,S02
1000,-0.5759814190661698,-1.6466695997884733,9.077140029576348,-38.17957906738963,-50.8839011034863,19.37325890281383,25.892683876599477,-23.56032857340244,35.959465888774076,2,S02
1020,-0.47230271365772214,-1.3010656905948041,9.32932841852729,-34.23886176380987,-52.55650568894896,22.192952959272937,25.97429657914023,-22.010494954291136,35.8536752329055,2,S02
1040,-0.3259763401952964,-1.124958561463958,9.501596382061791,-27.654315010055992,-38.26107480109723,18.554332043839626,26.073177136024782,-22.55616808070517,38.003141530320576,2,S02
1060,-0.28340093813829514,-0.581512275688091,9.784787118133744,-17.054184063424287,-19.047241651055977,19.036304754483904,25.686138769388513,-20.70596880027511,36.661361852013854,2,S02
1080,0.032833101217262656,0.02166492785212709,10.269056608599557,-9.426370051572565,-4.193361144102898,19.12598197626348,23.878668747280145,-19.686422015000595,38.20013318144765,2,S02
1100,0.502884211669501,0.3824016862832925,10.46338318785258,8.911941592095822,18.745632202798088,13.322028253216372,25.016942461188947,-20.729852025236415,39.27372648556259,2,S02
1120,0.6996045843547707,0.8816520301711459,10.798435745996116,19.48464716633646,31.057826275959602,14.054410007105028,22.98108297010367,-20.21196691004689,40.32471234557156,2,S02
1140,0.719357169971166,1.354824604447913,11.016430843623121,24.78420417640127,49.27660544991781,8.066607421588161,22.428073393019652,-17.668386137774455,40.07379357464819,2,S02
1160,1.007930463541404,1.394823188021436,11.015992289302796,28.53674978859541,58.2212974810521,4.567509191631213,24.958919041996047,-20.918943338913543,38.8378007305497,2,S02
1180,0.904218070091439,1.7486550239425203,11.25421573183594,34.97745469031675,59.291685633089116,-1.9118311634562635,23.134541603707543,-15.068122883844852,40.121009790243654,2,S02
1200,0.7319668648315488,1.645842696319179,11.144396243943604,29.598359243733906,53.424053757747004,-7.635719152356819,25.177307024880243,-17.694523083014435,39.95632818207667,2,S02
1220,0.8167574571349926,1.3604426383109127,10.979214749681663,28.008066210091588,42.96618665485761,-5.292117932560384,23.862049622630508,-18.44414061517757,40.50653871798079,2,S02
1240,0.5712673013878939,1.169621915021594,10.783666493238906,17.04761349635243,42.54684759597627,-11.503940203453341,23.66973063043954,-15.415336602748686,37.9274145591083,2,S02
1260,0.2803514792825564,0.814498361549822,10.66146313699906,8.650700532067532,29.8575136588299,-20.260381845318847,24.251245351202996,-16.769431659001608,37.83336283417067,2,S02
1280,0.2785172913695201,0.5186279875325874,10.445980046207417,5.696405899723394,11.394031401883755,-15.063110996899928,22.984544953203617,-14.858532427912348,37.839536232531856,2,S02
1300,0.0870044370515439,0.3316641219358222,10.272665936022001,8.151102429646755,17.31064861142035,-15.940595700117802,25.167311622689503,-14.402711453585882,37.37550194992893,2,S02
1320,0.036398376519399575,0.23206835080973148,10.217536614951264,-1.4529097163605318,5.243974827117304,-20.050476593626296,24.774270818936884,-12.414419712755134,38.16244819809401,2,S02
1340,0.02563385015638392,0.18501875839423715,10.38130249081899,-2.090743901002865,4.37871422302539,-13.11363288198867,24.435466590260997,-16.097277601079057,34.85931460170595,2,S02
1360,0.1451973722409974,-0.1936531636490026,10.042693028913098,-1.8964943163514434,-4.257859166047198,-17.956507482365307,24.17358583093906,-13.51322821489682,37.816142016330765,2,S02
1380,0.06855958652363917,-0.3139013742003769,10.06455767869282,-9.81108252284793,-9.228156349309469,-14.52630251112981,25.99539431947868,-12.941912905767898,36.63292795927136,2,S02
1400,0.23262721244886536,-0.4733314963179911,9.915890753875162,-9.40818612662068,-11.45450699778434,-10.003601684065663,24.738496637869424,-11.81407492349492,35.9605948575156,2,S02
1420,0.02170153318132488,-0.7145881872046975,9.771916873350545,-19.46593848278686,-25.893051945237552,-1.5974798053379602,24.889967132361942,-10.881677136004706,36.65574220552881,2,S02
1440,-0.13900166247301415,-1.0393399984060485,9.696226253333663,-25.251442162278856,-33.290959850333834,0.927171290165175,25.420858868858346,-10.643736081476433,34.69848479473613,2,S02
1460,-0.3848950006240849,-1.4191069221384476,9.368568621096072,-28.30516611497837,-37.11329811984619,2.79371841968489,25.089376929062563,-9.094449109220863,36.88963942408123,2,S02
1480,-0.4420915023802672,-1.533206816670284,9.314833360379389,-34.97544361511412,-50.09434155866954,5.038441161972044,27.175662441176307,-8.991039582539305,35.24521699068849,2,S02
1500,-0.5418751906364658,-1.7419917871774317,9.261568087927392,-35.18526490487269,-59.152105212074304,10.505715953009949,26.237737018052577,-10.684708353199252,35.70627378204959,2,S02
1520,-0.6509494228137909,-1.6482889379834242,9.123662283286627,-37.39155949818284,-58.409918582463995,15.70769918120063,26.903934301661682,-9.360858566658932,36.74855868202598,2,S02
1540,-0.8844389935027994,-1.5054495859015637,9.175450776456008,-39.18363704134537,-60.719979822379734,12.91123148370977,26.925720624864816,-9.58802267556254,36.77142414233481,2,S02
1560,-0.5971398130656128,-1.4831839464653536,9.280786087501712,-32.25134584747422,-55.215066345468685,15.677925483901433,28.473783948158363,-9.146465093322558,39.32835869974463,2,S02
1580,-0.46664612526652394,-0.9270531695600039,9.493879455748255,-20.794966480893077,-35.761478077924515,25.447933859349977,25.28459034153865,-7.747222986528795,36.45817979618801,2,S02
1600,-0.03754951812231297,-0.5262239214940396,9.78988825553075,-17.200681230560896,-20.34529875198726,13.680179844283293,27.100423548378554,-9.679163126859237,37.76872514918564,2,S02
1620,0.02061514240902572,-0.1266900038214282,10.166342437638606,-3.1186802378918026,-8.317561701489858,15.459671110038425,28.919017957337683,-10.532415469020265,38.389997467629435,2,S02
1640,0.27512305859707487,0.5553396041842635,10.502547337754516,6.092202645210921,21.720285015150775,12.600707582205871,27.336743303042653,-8.087475609971444,39.34120779531073,2,S02
1660,0.5800115962587078,0.8161898205074511,10.726744883657352,22.31161243366522,40.74396716242481,18.32078887746279,27.378854650075365,-8.521466516804358,39.3887535995455,2,S02
1680,0.7658145593667979,1.1708500357206435,11.066140013074738,26.17301816086272,44.88480247345517,5.669409777343563,31.497007710735794,-8.989136607066738,41.13878264071395,2,S02
1700,0.9390909776196457,1.4845617158483972,11.20670231711859,31.79379263498664,54.307517196773134,3.0392218417428345,30.069471643759925,-7.938727533912708,37.94688224571492,2,S02
1720,0.7330080775516931,1.654813135070395,11.171441312580667,27.613020612207155,52.34305258424424,-1.5319871618705894,27.83264510155057,-8.80502611757688,40.547556935674706,2,S02
1740,0.872250783337672,1.5698843419524677,11.16346381422885,29.810933370908945,55.783762782439965,-0.4726852171393233,30.544856131836013,-9.609691496473378,37.89046095313571,2,S02
1760,0.5712830950644542,1.412635956009277,11.049136076449138,25.805220656502403,49.237883064409004,-9.419360999175147,31.56373693994221,-10.064704075318348,39.2619512013575,2,S02
1780,0.5335725067190681,1.151959269626891,10.856632814814606,18.667378531522925,42.40626485591318,-15.098260011604623,30.47680173539351,-9.624989053734197,37.78422636201847,2,S02
1800,0.41154425386984494,0.6647081833175117,10.65818993227741,13.344788216637372,31.246635199798643,-14.495336323296018,29.99032992913309,-9.39837659954608,39.38872425603927,2,S02
1820,0.2362559052742013,0.7939898432683803,10.574731253193809,9.478535480567832,21.864050570670113,-24.48431675255427,32.58802244402925,-9.507939748377526,37.63077039809349,2,S02
1840,0.15593942457472262,0.44426381688427047,10.445843046188841,8.620274639024515,10.556763806982682,-19.338551906964263,32.201077126219815,-9.761237968629912,36.417030812368615,2,S02
1860,0.23413429908431324,0.16414871498272815,10.214679277034922,-0.38568964116839144,5.2654062715914005,-19.804508110238483,30.98278850043418,-9.151001732649412,36.95907472751242,2,S02
1880,0.14448463676568035,-0.05838540055019602,10.134908208128405,-1.8273254352953439,-0.7729413256284083,-14.125615504445527,31.804268344882402,-11.210580130760091,34.253827249029484,2,S02
1900,0.17141415571570284,-0.22262363245343614,10.071219204347363,-10.537482739941751,-3.706496430350793,-13.965092739099552,31.193111062295515,-11.626708076780185,35.91085287211038,2,S02
1920,0.09585512615046159,-0.44675822766843587,10.017158205871423,-7.723914103600562,-9.399620915799394,-20.575533738149907,31.38598897206373,-11.62074590818284,36.65182690920548,2,S02
1940,-0.02995130920812969,-0.6583142991885977,9.860972183933818,-8.362634642150088,-14.1760501161134,-10.808150481379544,32.84438611903124,-13.310448060857215,35.122082704197005,2,S02
1960,-0.05630391036924878,-0.6844867436290856,9.848265140458308,-10.481115558356645,-22.139858747370134,-6.791098893390446,32.838161047309356,-13.016152258298318,36.76509638373053,2,S02
1980,-0.1892500022611224,-0.9886749026597945,9.605124951126857,-19.72602763300272,-35.006963715223385,1.3355260846761978,33.41390611391383,-13.013900126962156,35.09303132597714,2,S02
2000,-0.2643883627744704,-1.1963026089918463,9.426695160980477,-27.135001023692464,-42.93559788637331,4.856226199234571,33.136204575085884,-14.89454111270075,35.20547222327024,2,S02
2020,-0.4340797771504902,-1.499956848251238,9.192078038555247,-36.004763245835846,-43.11539684222039,6.131925473651114,33.41451097234734,-13.960138960722809,37.84038473968817,2,S02
2040,-0.5855589225859005,-1.6069764513957672,9.20788765432986,-38.236117149290095,-52.63211818222198,12.36783851976182,34.47661908715807,-16.337222127847994,36.774662450115,2,S02
2060,-0.6170234172558828,-1.8112263222158875,9.099490622818715,-42.43829713447323,-58.75776971485064,16.580244131064102,32.86564541199445,-16.852981160454178,34.56278813772878,2,S02
2080,-0.7005373099967068,-1.5906907520450901,9.075369265210027,-40.0658907422107,-51.16648882730045,22.763037232679014,34.48286164766258,-16.805069736309544,35.4941307288134,2,S02
2100,-0.6236131866701442,-1.4262132148693654,9.40503251435326,-31.20972505171597,-51.67474332036427,19.276515468017216,33.31669860816213,-18.52438826385228,35.058823992865605,2,S02
2120,-0.36921642864303506,-1.0070821617289532,9.411261715042656,-29.715789410339575,-36.24894130353456,20.509117947052104,31.903261892653177,-19.145705659390707,38.900055843248445,2,S02
2140,-0.11602498432345101,-0.6495669206527048,9.781407698362287,-10.44809105299128,-20.175294955809786,21.393888677321403,33.778460544913834,-18.072341987556314,38.09871012143334,2,S02
2160,-0.08324945336171019,-0.1143626468452787,10.129297337494261,-3.944966212638984,-2.5082791754887346,14.447944933563884,34.587095182547266,-17.798942401798666,37.45461215359649,2,S02
2180,0.38877670077602433,0.418159795159984,10.532377414748629,3.428806416383523,19.71865741497896,17.02755592287405,31.63040952330514,-18.273483767594307,38.36028525331072,2,S02
2200,0.5045293799658673,0.9019517853620096,10.749427433322722,19.585946451517913,34.95204476570474,14.946459403789271,34.18856279162396,-20.18730263613235,38.9514879768067,2,S02
2220,0.7353186892610454,1.333472087882828,10.91741183242486,22.86078997870717,45.76411244700184,5.063564312667457,31.999057709528852,-20.939989989025392,40.19417004514653,2,S02
2240,1.1176117924774305,1.5900470963828783,11.077176869382459,28.262805249444003,51.483694774128786,2.613196682334527,32.64063496760738,-21.271984358076367,41.343557111083435,2,S02
2260,0.8213627729612957,1.499817356452239,11.405175645110893,30.567055046813334,57.23103495481732,-4.049274731104601,33.28811831286682,-22.58627907593292,40.43709434494479,2,S02
2280,0.8113016055717207,1.5382563154576647,11.090057068286926,37.702845011139544,55.10797925577087,-2.05420048727655,31.764487533202235,-20.286824430889666,38.804526756230395,2,S02
2300,0.4953742854559404,1.4277161984232654,11.087793368223442,20.996547367072292,47.31701119910915,-9.390631031760483,32.36142073172511,-23.933129194638123,37.9394520200956,2,S02
2320,0.5661205953503414,1.1955877634920784,10.933034792121248,19.17558444042422,42.24079761768543,-9.625820633991237,31.34281643742305,-22.34462811745515,39.23605002802773,2,S02
2340,0.3832443272100947,1.0112705811953164,10.74798742550874,7.687650081436657,26.808377422312685,-19.289237615177637,32.78790638472438,-22.18347354564117,36.936873184281126,2,S02
2360,0.2609629763501721,0.6120956356488014,10.560828003272949,5.880084107465264,20.67427767539766,-16.159992165348633,32.55117114188701,-24.104063311787048,36.31734258056966,2,S02
2380,0.18931776763658126,0.41991905597257245,10.321620065333736,3.864463690338698,10.68695957995501,-19.24610102032116,32.03703060436443,-23.428208602107368,37.82646515836484,2,S02
2400,0.04447231358277242,0.19291462547250254,10.283001290811937,-0.34555996350221907,4.299084819683443,-17.999908567201246,31.99623223606556,-23.64502451883567,35.64192529378221,2,S02
2420,0.10307724013923623,-0.013348817062618375,10.227199951991482,-1.6731893622625642,2.8939344327936354,-17.167883917866416,30.066392584013908,-25.54186402938872,34.821593784716455,2,S02
2440,0.12493111099130046,-0.2950747789855024,10.228381140570034,-4.333499904113696,-11.121134026922984,-8.86279787056329,33.08332109718161,-24.4520313144348,35.849555706984525,2,S02
2460,0.03810018381423817,-0.36983452193228095,9.956874765389744,-9.046857641685932,-10.299974294196101,-15.308216188505563,32.05015043616959,-24.52646529230541,36.856123858892985,2,S02
2480,0.14459250779393035,-0.4923639979052589,10.092462209156954,-8.636118664719264,-17.2091708507648,-10.807256275779222,31.63162069940652,-24.910226807178535,36.05137369198997,2,S02
2500,0.016007250715991864,-0.6818955731054419,9.76287903921745,-16.76190245444192,-20.062206297212715,-5.111047010125601,32.28666186116567,-26.030710320153986,34.09075944149691,2,S02
2520,-0.05121236391410766,-1.1130630691199657,9.526284486382595,-22.06830751308386,-36.01450384800716,0.05673265651716486,28.97481870826166,-26.65403187987339,35.794411662400535,2,S02
2540,-0.29833284374720503,-1.312121518762376,9.362333861565668,-26.27656992342248,-41.80759092812268,5.400023964589725,31.109952753514296,-25.72614406584109,34.64059981968455,2,S02
2560,-0.5127997388687962,-1.5095871023626002,9.272630662727773,-32.72017130737183,-50.852030431292214,13.107039270202977,29.409655837173762,-26.98166867972695,36.711108122729286,2,S02
2580,-0.5429251655280563,-1.6371304653699295,9.270595492188006,-31.7349454599012,-57.59544127392562,11.324216056850304,29.291880847792534,-26.646672820964774,34.515108031335345,2,S02
2600,-0.6671015298523564,-1.9065187632153713,9.193862489256048,-45.340174377772186,-59.8483606470785,20.99339054998876,27.33744229357906,-26.408529254576155,35.098346140818975,2,S02
2620,-0.6933933984950366,-1.6691019519627384,9.04430017068661,-37.645340998803356,-55.374644725998124,13.796828069105008,28.655705517092738,-26.9259285616249,36.117959618159794,2,S02
2640,-0.6005901486693368,-1.3744200470039123,9.246606533490848,-35.36942972717847,-48.092011733892406,17.417417274184963,27.66983665986917,-25.91084548564418,36.94829394857838,2,S02
2660,-0.5004988108054083,-1.2426560085712999,9.537960490775514,-29.164074168864115,-38.9892814075265,23.78215670966151,25.71245337798382,-24.19095373560812,38.156677398307934,2,S02
2680,-0.23297880398581575,-0.6649037028603457,9.816981649669895,-15.00399527121662,-20.923506866040192,21.983477119758977,26.934629214823918,-25.429491336106054,36.63243817738983,2,S02
2700,0.1115640902233446,0.11055189201766427,10.169878285912002,-4.6858662425792685,3.73037889521955,21.67875141409181,27.423665276077944,-23.448747398880045,39.57586721310982,2,S02
2720,0.49471390080265243,0.45867293522739777,10.45040013947762,13.29916073918941,17.19865488737511,20.186097560494787,25.572079691900225,-23.994171175016987,38.708928268862245,2,S02
2740,0.5694174358596393,0.9670600344663205,10.931542534266192,14.798549840284917,39.55396826688332,10.5068534475323,26.387479027484684,-23.76399966936171,38.52972563288898,2,S02
2760,0.6215735006035904,1.387188850852869,11.015703010216424,23.76842252672089,42.79455070771749,2.833962235180857,24.49160166958974,-22.389344340779488,39.05523241891025,2,S02
2780,0.8846807518646447,1.526177872391642,11.205826683106315,27.085346031293685,58.798930224985064,9.281055015774173,25.938328933217477,-21.756437347665663,38.728298131596,2,S02
2800,0.7718015117522238,1.6427612166318986,11.1641662200538,37.73981384202328,55.13446950026003,0.04421763814383628,26.92109101745156,-23.035293044023746,39.33473034413644,2,S02
2820,0.8000376392954912,1.6003808607665055,11.219565960451135,25.555091984609476,56.272747000429035,-3.7084938788199113,25.162446806276094,-22.77428116518371,40.955243189596374,2,S02
2840,0.5774677217640847,1.3191407613456911,10.86367990133515,21.935902463876808,47.69960783816498,-11.875605318791761,25.98602934327761,-20.70047641916777,38.688993562085074,2,S02
2860,0.4800120879430052,1.1349060018829817,10.767625487449171,22.63146168456073,35.77710420182041,-12.29720979569118,25.379568747124694,-21.179144131809842,38.11563126483502,2,S02
2880,0.34830458051601926,0.8679788963563573,10.526150053922262,11.726719888286652,30.292077160200026,-12.046864615679791,24.675545001938,-20.83212900359565,38.99150356862229,2,S02
2900,0.31853989382087844,0.5059708956289748,10.452258616694763,10.645070073032645,22.520238556266776,-18.088910665011976,26.30783098544594,-20.240311664694545,38.92542978147519,2,S02
2920,0.1516444390571138,0.37022359275991557,10.36985634609804,0.5748438921426109,17.10527626787356,-18.71681412278383,23.84819376411557,-19.13336661233698,37.32525445725078,2,S02
2940,0.3351610315530946,0.17784883230346205,10.22813499505372,-2.603925209301691,9.190980149162945,-15.610367355891688,23.069194723403005,-20.030395877360363,37.385128497508475,2,S02
2960,0.05737734089056042,-0.05576057948309682,10.263770125570582,-3.842896569886747,0.9823415835674598,-19.577751543868583,23.462805491343296,-17.91865525760131,35.86512897933872,2,S02
2980,0.014744249329863277,-0.07293703190924214,10.046966638844115,-13.125708164546317,2.4649666026283112,-14.581862447692142,22.777402052339443,-16.886078327506773,36.50920276771913,2,S02
3000,0.07990308772735749,-0.4319441372551864,9.996562727150588,-10.257908169605034,-8.816789158098809,-14.425603821557612,23.80478552957819,-16.883842681361863,33.64773094035556,2,S02
3020,0.18802839835095397,-0.5255845463231963,10.119205140940199,-11.99761378593264,-16.574786213098683,-9.726389424449875,22.578465238307693,-15.697223215248819,37.061965488810884,2,S02
3040,0.016899001999685442,-0.788858847897048,9.806272064149868,-14.709952015503323,-24.690214326411024,-6.0732709213972385,24.92960966474713,-14.849175796612437,35.77974261904325,2,S02
3060,-0.15461697314615766,-0.9937641024020971,9.69467448571672,-17.786906101925023,-25.514791260475313,1.8756853503737663,23.72711847871097,-14.422458466297112,35.11111263532126,2,S02
3080,-0.411356468363257,-1.2023770357528292,9.4024538300374,-32.07150552818385,-41.99509290097619,8.340979888886388,23.528012798446213,-16.3062949981435,35.37877812179529,2,S02
3100,-0.48259636478236756,-1.5027353390474887,9.219402919062986,-34.438519886680155,-49.93535125932346,10.32222023777472,24.66459959460565,-16.267420196057994,36.10363199426385,2,S02
3120,-0.5969950309715543,-1.732205934916364,9.044499050365376,-39.19907957286207,-52.95210235095008,11.579015708918407,24.323973597206454,-13.629011292722975,35.86323887331602,2,S02
3140,-0.6383447189565696,-1.85959022898047,9.082346696738519,-34.81796040769136,-58.98405019657332,14.928156647879726,23.081241121405572,-14.883202848984663,37.05377733551303,2,S02
3160,-0.7054935687414768,-1.4497608438517056,9.018700248107894,-37.293186453414854,-55.42274359341273,19.12692725883094,23.69033687361972,-13.12824973694213,37.028523154943734,2,S02
3180,-0.561012163745596,-1.3988064043130546,9.279069567517434,-31.410650100945247,-41.09152584536229,19.90807246120633,24.04672147987369,-13.582737929375305,38.51060137677306,2,S02
3200,-0.38941202244341555,-1.0262161270459684,9.36637163787047,-26.971138099536287,-37.461396912241334,26.685094912844757,26.15268641204491,-13.383868303189617,36.12868351867493,2,S02
3220,-0.2957105664783469,-0.264958274451192,9.812495848218155,-16.87169031717021,-19.79531618034237,21.489309386223212,26.107212192157796,-12.465380472697586,38.473640487853125,2,S02
3240,-0.10916799897268142,-0.1533636596116895,10.219641385709314,0.7439146348924703,4.093255607901642,13.441178087333363,26.126499047337525,-12.221144491523884,37.28621215803867,2,S02
3260,0.2836856780653645,0.46185104484011136,10.447007245660435,9.125489259015854,15.09799555795243,13.11002053617153,25.24112676907901,-8.645243633588816,38.76469657679797,2,S02
3280,0.5875429801829615,0.8206867345457216,11.022042605309146,16.547729640825903,36.99350648815031,8.454005893733182,25.536323408708505,-9.752721035734673,39.99591708310552,2,S02
3300,0.835573539163926,1.4459678633769357,11.01087143016135,28.676937539039695,44.825380789793286,6.266902765409018,25.595102774365557,-10.729106567395647,39.84429412484835,2,S02
3320,0.8473807460051658,1.397641957626188,11.034168934056353,31.930198737587414,53.90775330077153,0.7794317028994503,24.969585386937908,-10.531433065260952,39.31671379583412,2,S02
3340,0.7058298344384802,1.6303545735361518,11.244815636831813,30.732770088069767,52.00246409844226,-1.6055321382171153,26.711061291015564,-10.267394284563107,40.44867609952668,2,S02
3360,0.8847865566596026,1.6188978077356566,11.11940330319823,30.637932034236105,53.482623856650676,-3.6487209362140693,26.433770295844756,-9.432521126430297,38.82142108228041,2,S02
3380,0.5141576254394461,1.2395026000462768,10.93514994743825,20.930817445384786,44.77201931083731,-11.346635068053683,26.726684112002076,-10.522530323643739,40.35386360827961,2,S02
3400,0.3707111844809656,1.0463952827644862,10.823986674248394,16.99514247855306,34.89405144149263,-9.224461405437546,28.677911709706255,-11.129869361993798,36.65818992485026,2,S02
3420,0.35784433912324076,0.8757568423760806,10.678989111955284,12.521996157426535,23.716118785676652,-18.837895916507563,29.305360744836282,-7.658028388077039,37.87137639606494,2,S02
3440,0.2707916242101867,0.7050243657974817,10.682864818494728,4.265178766798095,23.34843245911922,-17.012749419280002,28.752701571818843,-12.085733657874032,38.645669953955654,2,S02
3460,0.31105712248712114,0.372349554427699,10.39676551811671,6.483636266223994,14.182560261543525,-20.504049304651225,28.786236325145417,-9.570887798490338,37.013994770106265,2,S02
3480,0.03246898133916265,0.2008889974079966,10.210554634768478,3.114658742506381,5.829628603136044,-18.060840191302216,28.293619144634764,-7.699020926086802,37.886894609631725,2,S02
3500,0.06250386576221884,0.044436887751520576,10.397414745499502,-5.784096030158827,-0.6027941087365496,-10.404564747600206,29.736211478900024,-9.066946624924306,37.595610639534975,2,S02
3520,0.010951929661504559,-0.24926817331613316,10.078611664180544,-1.237724621332768,1.7762812614763723,-16.111397044118622,29.391060787901296,-9.766842359748487,37.108211831473206,2,S02
3540,0.11074493041557129,-0.33936551897923534,10.0783008843565,-5.266585681940638,-13.887262531333306,-15.89934898813645,30.234202490985858,-11.200401087181614,36.44471025626372,2,S02
3560,0.11206574473299775,-0.6618040666234413,9.972546888171259,-9.167794083254527,-19.492948309272133,-7.741850017482369,29.37474000957765,-10.798041316378832,35.07360203721723,2,S02
3580,-0.0013914370107448448,-0.8016182135808592,9.803226197159907,-12.196349159610246,-18.9310763818614,-1.9466715301313724,31.69740788283836,-10.79737994380686,37.939574476184504,2,S02
3600,-0.0724028371062139,-1.058512987750408,9.576285190299409,-26.437139918522295,-32.589417992777044,2.6496628312206725,31.427255729541017,-8.927133963439372,35.42143163519246,2,S02
3620,-0.3056557290095445,-1.3080890149656008,9.509752599131264,-29.545090658846128,-41.047161515972384,8.82142308719239,30.03654369003668,-10.016130614562702,35.58067605238533,2,S02
3640,-0.5423820993750262,-1.3777709295027356,9.106571027523387,-28.01440547094815,-52.28493229878703,16.541044141655785,32.1823292941924,-10.19145305251974,35.423621552648626,2,S02
3660,-0.509695205567766,-1.6787211743658328,9.23671482347451,-36.153355040425744,-54.98289045913267,12.451127974869316,33.34315861197982,-10.26105870745804,36.33151279542691,2,S02
3680,-0.5667831388323692,-1.656143659835281,9.150607102844337,-44.21759090634896,-54.48199809738924,20.774856103754413,30.89919915658738,-11.683982186414633,35.24242018800459,2,S02
3700,-0.6013245484180636,-1.593078521996744,9.170828807543359,-38.80159879997216,-56.06490067419575,20.50612070161611,31.63083392323782,-10.550154491715155,35.06023222021931,2,S02
3720,-0.4485807692848077,-1.4412986621155968,9.389461876929978,-34.09836305326123,-46.71132590509811,18.84952060672855,32.93346674112511,-12.200740532492045,37.19713123323634,2,S02
3740,-0.4152271679204532,-0.9431673045100741,9.339381193041046,-25.668542428895122,-36.51550330845892,16.11381792038077,33.25098440877578,-12.2187037204611,36.114821117997174,2,S02
3760,-0.0697802108265701,-0.4464287923486456,9.907102831019321,-16.22017822348174,-18.102391054837323,24.382475749645998,31.93237423605341,-13.042991221117624,38.30028431508198,2,S02
3780,-0.013857753166555159,-0.08653761224484234,10.143217307543727,-3.803813100889585,-0.23154768663581005,19.267967366512448,32.57888226393272,-12.96512188304833,38.40907067117206,2,S02
3800,0.43855094867743893,0.4028629086211117,10.530621090124194,9.334537399536604,16.915973519288258,13.170774266499924,34.04918411699335,-13.26140635025493,35.92697662066742,2,S02
3820,0.6209847097075272,0.8969608195400576,10.83696571985501,18.805108350106764,38.870765208398595,10.317236809861923,33.121693948490574,-15.786542541050421,39.5129862728632,2,S02
3840,0.8501046103606419,1.2100482940635509,10.903202513128884,26.936470318902376,43.21934183762141,10.382035817058389,32.78181630824614,-13.920280758754274,38.38268880113586,2,S02
3860,0.7711396841300441,1.4745468103402957,11.204858366143641,28.168316409643477,58.045761619112184,1.8666362903362144,33.37977656797486,-16.352066202310482,38.856470581014825,2,S02
3880,0.8472178179719472,1.7763989762927481,11.293549708018194,29.5137896395084,54.848377931146565,-0.3026729262537572,34.89999812922766,-16.21672574062502,41.008778335071234,2,S02
3900,0.6649134843387896,1.6276199974518804,10.996359233896131,31.570249515078192,54.91109798731167,-6.36160137497603,32.71170516708933,-17.23130632982781,37.94790441284083,2,S02
3920,0.6319351461830034,1.3701229569861957,11.091057341524742,21.294715362441174,54.10511240632883,-9.59892637689073,32.78891553032108,-17.886484278347694,38.65051830321975,2,S02
3940,0.39908770880823397,1.1666095393150973,10.904460587497825,17.422415857549062,40.86468245883406,-19.17873821161311,33.853128696480596,-20.778910315723728,38.42919836671625,2,S02
3960,0.33315144186902246,0.9633200696982083,10.774126758044579,13.776136179951934,23.487088703980397,-19.964203119605905,32.53934077404925,-18.163313626092553,37.749857705216705,2,S02
3980,0.16750470632789016,0.6683139690445496,10.479460004186324,4.733351290017333,19.315661621048633,-18.625659517445765,33.52642503758584,-20.31845306874,37.93074073829135,2,S02
4000,0.10224644591202342,0.25796367838993783,10.355338446791247,0.45943899776017716,8.699782984154059,-26.64398363873198,33.52912096959912,-19.34045443466043,38.31438396761029,2,S02
4020,0.0891979330298493,0.19425391494757882,10.085781396188644,-1.840115115486451,0.5743821171630075,-22.575975048460194,33.18543299297678,-20.11161581708928,36.0248473880024,2,S02
4040,-0.06882664231764973,-0.04467647300612415,10.167632940539745,-3.9946782269980936,1.2826759062475686,-18.324198630060085,32.89513031498784,-22.069183536520026,37.29890584653947,2,S02
4060,0.12537502945683826,-0.12762142408403848,10.063564124935425,-3.318648272562992,-3.2750105846324526,-15.916470440808292,33.28110220593423,-22.02696404298141,37.27813139414247,2,S02
4080,0.09471069541666856,-0.412013819783959,10.087377137698098,-6.324122749407295,-9.511215446744696,-15.193196915998115,31.69494428469906,-22.597580195297276,36.282576691568295,2,S02
4100,-0.015401250671667463,-0.6734298485613848,9.848481090236511,-7.71176662780249,-13.001349319687693,-13.519965535280962,33.2268383186741,-25.145935074330193,33.58825751612383,2,S02
4120,-0.05110069495186301,-0.8194189127905898,9.786940248754354,-20.92306807343322,-24.409436893066694,-1.5961189304156371,29.560733652189562,-23.27213069520004,37.19382267929849,2,S02
4140,-0.11886927339111913,-0.8344591373899655,9.570961876937929,-17.808393227464673,-28.165535712243592,-7.689183229489123,30.9293092007557,-25.458705374678512,35.320351281772496,2,S02
4160,-0.3482226570242999,-1.4091565610252503,9.346302601184338,-29.399738723835014,-42.05441596106659,9.204130889734936,31.140885267401142,-24.47211154090696,33.35897372515829,2,S02
4180,-0.5824956649441597,-1.7100692598435503,9.213311293372245,-36.47223909254305,-50.838195411905296,9.881760307460418,32.42475534286369,-26.86968246431075,35.39368117045352,2,S02
4200,-0.5593560684023066,-1.7862490156866273,9.093785394334338,-35.66896892984343,-58.180368986514104,16.353106787249573,32.91353264857739,-24.3208204531433,35.848325468967275,2,S02
4220,-0.7042779148799746,-1.6640370728452807,9.115442035199166,-39.494656586305304,-55.91949218886773,18.389335208369513,32.57881350350412,-25.575830002959886,35.56696973171157,2,S02
4240,-0.6903952985535375,-1.8206077930205289,9.2344972688322,-40.23884722351833,-57.202884683248705,19.08719452256237,31.084457514597943,-26.08016996271511,36.087359757274314,2,S02
4260,-0.6520364419510423,-1.3513825794029748,9.26843194336971,-36.0717120823043,-47.65092827485394,19.114938243052983,32.24445944581443,-26.132981610876584,35.988951680503504,2,S02
4280,-0.3823457572039465,-1.02001649876238,9.502983773400805,-25.9315202095548,-43.45752499608953,19.80479901905288,30.00455436721032,-25.690335470000825,37.00134272274749,2,S02
4300,-0.0862040062032575,-0.6475266055456284,9.890145231504325,-15.20442265599641,-17.721255008197843,21.59617208352497,28.686288712610526,-26.438504249497893,36.10189518326081,2,S02
4320,0.22019780315899729,0.015765328418747365,10.085480488231296,-3.5399393770121463,-1.7588494376380983,20.860310046337293,27.676264555172676,-25.04818365527375,37.643337720016554,2,S02
4340,0.3510658342664583,0.44142159386005747,10.340567379248906,7.992596427940716,20.249587173971914,13.864438220329502,30.455546954614466,-27.525215478014122,37.63262621452208,2,S02
4360,0.6222487082703343,0.9754908472263195,10.732814321362175,18.45749216503316,28.541538304233857,15.306674860174807,30.17273206319538,-25.664197849449494,40.017740305722825,2,S02
4380,0.7444440798518124,1.2716681259878924,11.054472570104931,26.15052440407032,46.825076827064294,2.8595864713780936,28.158317961172525,-24.54864834178031,38.385189114251595,2,S02
4400,0.9395621920828098,1.4220031890511513,11.086148307870527,33.15521880839717,57.52016929429473,-0.6543778583286938,27.34553566801901,-23.54882529745054,39.70617381526568,2,S02
4420,0.8185462248302926,1.725997435629129,11.251228347519737,34.63071471933718,59.177473102787026,0.2560670152974015,26.74483963212841,-25.6814991008167,38.157821139153725,2,S02
4440,0.7876124525287612,1.588657911680235,11.0980899201166,26.122065533671083,59.32860845966075,3.145536246307761,27.701157365936982,-26.03225876148028,39.31136490055273,2,S02
4460,0.882391722706143,1.3116552892445148,11.030462441574146,28.110351686241888,47.853262818784245,-5.590809453337174,27.430781865181405,-25.221453116423696,40.22040815584071,2,S02
4480,0.7223431734795049,1.008529589424958,10.762471838826398,18.4060413231949,39.1796536274653,-18.530492373150825,27.637868990340657,-26.09679840714322,37.61129192795207,2,S02
4500,0.4114696175965499,0.9650087850767732,10.590348221552357,12.095703526553788,32.09976061622815,-18.248455371305706,26.7520889486001,-23.900464776092406,39.20894266128301,2,S02
4520,0.24062788947153685,0.6230277449455837,10.523514995503408,9.036123639760326,21.67758220549278,-16.11096926726183,26.298067634480308,-24.860762714407556,36.43670868288156,2,S02
4540,0.05713975199269866,0.39234797875342187,10.275397404071834,5.049402823130898,8.914421523092646,-18.99823777379472,27.636580546136273,-22.310697164120445,37.375738743393825,2,S02
4560,0.1968772726115975,0.12091818018564224,10.154626364232994,-2.2311250526191553,10.549607072806165,-16.731433591300554,25.301825872847516,-20.86714230269142,38.14056910091536,2,S02
4580,0.08575053235913573,0.06857586931007562,10.151878470847842,-4.740363800685698,1.971664195847531,-22.74449453842491,24.861050028187815,-22.223895268369965,36.30081837032638,2,S02
4600,0.18917345805793429,-0.1532867909433374,9.991960407379047,-3.5974808792345656,-2.832807428373691,-12.019781991797512,25.835252475147705,-23.22627389280313,37.150516843804844,2,S02
4620,-0.05363063408832647,-0.32113061598831394,9.973367522078897,-8.791361295590905,-13.487148033605493,-18.7713378225735,26.657531521592716,-20.57529186004874,35.79899014740246,2,S02
4640,-0.04595600822442078,-0.4854550137117728,10.008826427185044,-16.895730888451958,-14.675892105166204,-5.513311320569554,25.594078020696266,-20.808338959284118,36.902823227299535,2,S02
4660,-0.08751344090802823,-0.7796224125189242,9.827817333576023,-8.322344458517776,-26.52001656869023,-2.7657069936903746,25.810852424985278,-20.466261208983994,37.02164436951052,2,S02
4680,-0.2017176988856301,-0.8215718557578888,9.612614818917994,-21.012669190393723,-29.792486361169043,-0.05351313777732414,24.446240784956565,-21.442782980678142,35.80217603278411,2,S02
4700,-0.3781751945865415,-1.2530906003137088,9.44271579223352,-24.644416612121905,-42.34607894119939,5.751741019108468,24.055141264555314,-20.60099336091736,34.65317381153251,2,S02
4720,-0.5723949924070648,-1.5361787742137518,9.282210004757895,-30.198495590746557,-52.727398831558915,10.364831698828032,23.66981397856687,-20.326997399168103,34.82506378046415,2,S02
4740,-0.5834449830437912,-1.6437060088028315,9.04177402821253,-28.82168502947045,-54.80436983382078,11.736729385556618,24.399948767069976,-17.275112899758604,36.523236717184254,2,S02
4760,-0.7146158433364123,-1.630183562231487,9.108274157796302,-39.017973351334504,-62.52341955105631,12.414618996870063,23.897314484961548,-17.05626867764995,36.50339035409782,2,S02
4780,-0.7768670311566824,-1.6955038388440704,9.259113362894539,-41.5695369438132,-50.583883511391946,19.007345483045693,23.889385691217473,-19.284440126619586,34.55829531809944,2,S02
4800,-0.6132835561807757,-1.498069720171393,9.215239206039605,-36.02248146255668,-48.38141128172583,17.45209156083134,24.346551220000666,-17.618136584791674,37.14192740307594,2,S02
4820,-0.40627633084013415,-1.0295059332463408,9.607089630116665,-22.297520840863616,-37.19884877101888,19.6974812613195,23.026554922636073,-15.769452286420368,37.944407315735006,2,S02
4840,-0.14736864280898465,-0.6938705691345646,9.750699632710209,-17.04756659151366,-22.29258042022604,20.202182387670423,24.26062940226076,-17.626509698729212,39.05564078580796,2,S02
4860,0.13196450025501066,-0.07358149950337836,10.130398827892234,-6.013383415916179,-5.233533881344109,16.876147726643083,22.710861180501087,-14.13580526649831,38.16064118286596,2,S02
4880,0.5077342246741635,0.569326801424606,10.574287378904279,5.4867923981860995,16.860553676458444,14.122743277067618,24.86046251140565,-11.87424912677627,40.7624084206527,2,S02
4900,0.6211889010344499,0.882111039707165,10.708424838619747,15.48534008001134,31.62280561593843,14.031860185228187,23.67639805373889,-12.857625829380462,37.69373364696393,2,S02
4920,0.6178197200454604,1.3590789242981407,10.980685677790044,19.30602775068601,43.10893394373168,6.1026464749344544,26.24971424000852,-13.80804079529295,39.997005811128986,2,S02
4940,1.0169095623333837,1.4950639463135675,11.172321036760593,32.59869803742407,52.79521122021131,6.250452844133461,24.88080803786094,-13.157579292929462,38.43832401205562,2,S02
4960,0.9721293778414977,1.4691806010854451,11.221125410253524,33.84536254692468,58.27394032064731,-2.1970876410818705,24.561603821174646,-12.089943921026684,39.645859383790075,2,S02
4980,0.6687783363816413,1.5388250300942359,11.108213830784846,29.340396264738875,49.02935407025526,-5.938869666469785,23.58259891640875,-12.260990139218128,40.70874632855268,2,S02
5000,0.7743067349074094,1.438884713915995,11.16978277704364,23.892837133112447,47.78028118036108,-6.173659140411018,24.49847242407295,-12.651166573298523,36.916471957766895,2,S02
5020,0.5473342324430529,1.1120371993351679,10.817982667947673,16.92015913111719,42.952798817347436,-15.502896555071116,24.833611404976722,-11.399470586244497,38.97175156851816,2,S02
5040,0.48622881341879876,0.8273714771443723,10.790566847418473,10.291643581872574,28.20209392414755,-14.091531159803178,25.77194154692883,-13.368616567079028,37.02492227690119,2,S02
5060,0.3104056250137601,0.5869745536268229,10.397319687485425,9.787089670590074,20.213162121961833,-15.021587804363872,27.3483079407815,-10.68681002779977,39.841794202299525,2,S02
5080,0.07458866252296989,0.44416021851521675,10.35099994252961,0.8856687315551603,11.224973464285586,-15.804110617921966,25.65470485052971,-8.882239300615892,38.745597020389596,2,S02
5100,0.18720508910092304,0.2596651906004022,10.336320975337475,4.992945640544172,6.12232958880452,-18.361768742105724,25.88768738440848,-10.01463704974745,35.78655256092617,2,S02
5120,0.059691988122203214,0.04877022285170951,10.068579410576955,-8.671188342247536,-1.367813524883658,-24.361384471020415,26.513462869998452,-11.100762376018622,37.67894697335525,2,S02
5140,0.0324258665172891,-0.1081303673013316,10.025464034849184,-4.32127415432535,-3.422233944076563,-20.981694836131354,28.323093988200277,-10.179948362359614,33.94875656510358,2,S02
5160,0.02392858320550742,-0.3187958966966661,10.027202027449338,-6.730512556086213,-10.18902366516759,-14.623808051599871,27.834576105052058,-10.243616702714789,35.747541691416124,2,S02
5180,0.10162980074705485,-0.46031408235980187,9.829191697058716,-14.747099916341014,-10.444874876587305,-10.420259964211587,25.786889605415286,-9.84143051285659,35.23512826594467,2,S02
5200,-0.04394301408661758,-0.6099839625079615,9.841969829147052,-13.723850881815125,-20.31682616387952,-2.118628067900687,28.122808895559956,-8.942955626190471,34.077021683641334,2,S02
5220,-0.1867398157185385,-1.0487644101659837,9.545278160679796,-24.90842124223595,-36.05233326088627,-3.6963754427702615,29.158259194338754,-9.631595476626098,35.89392536365882,2,S02
5240,-0.3562422940900415,-1.220287514339019,9.479942634637837,-25.38413844141819,-41.96716799620452,10.26945476843483,29.58106018525385,-8.596060648765633,36.18614284920199,2,S02
5260,-0.5819211876685233,-1.4292416880175678,9.314873876968498,-34.72320707208858,-49.708151864280076,7.997103218539557,28.77375879716674,-8.826564526566049,37.507411109567904,2,S02
5280,-0.5664675043005263,-1.6869384739810558,9.031897024905694,-36.89454354153606,-60.55734264338748,14.080171042245262,28.957496596277785,-9.251153660157197,34.81326563208098,2,S02
5300,-0.6452191547566922,-1.7206839255530237,9.138730567066286,-37.48203652457627,-54.308126809233585,13.510665139497542,29.269186891785782,-7.004518127755328,36.164810186499764,2,S02
5320,-0.6684500419089341,-1.6757160582302029,9.134903088449535,-36.60952609007308,-59.97875351125618,18.704205047471707,29.46121587313965,-10.140725110570774,35.586089477109695,2,S02
5340,-0.6463503766450536,-1.453951200416497,9.303369168224652,-31.195378129831095,-46.84449162781433,19.138385297100978,29.503056616116105,-8.942170148706662,36.746975661144056,2,S02
5360,-0.30909537256297914,-1.063106078992347,9.378796945882046,-29.467931298458513,-31.47509123520661,20.774109818952052,29.89203633802851,-10.37436215958633,38.06511989280377,2,S02
5380,-0.11063806840091106,-0.6014345566360728,9.844268708124467,-15.494953774700257,-17.81953991344787,22.312793495641206,30.498682146410296,-9.908578967904504,40.52532115831854,2,S02
5400,0.16202195203060468,-0.1326465975402572,10.062323778738378,-7.654932661825386,-4.123035073435957,22.775822257063787,31.38581378502988,-11.025428598009876,38.24983793982477,2,S02
5420,0.43745998203805225,0.540929183596254,10.377607964358232,7.64483708013075,14.358601907108858,14.753251454097683,32.12966701112248,-11.895092519115547,39.56549113871874,2,S02
5440,0.5032805802413731,1.0235280538439695,10.91149900717565,18.38263867047478,33.367250935722545,15.570249396662964,32.27838063672628,-10.000259763781152,38.302146054777054,2,S02
5460,0.7956186886304282,1.280212153041237,11.128168975576692,28.950494097583,43.84645032675393,3.984467139033907,30.355852812268978,-11.249255593208975,38.34658365387446,2,S02
5480,0.9850125922774986,1.4519816266169694,11.329693138270327,28.119356215036593,49.27059565784221,7.2444678963505975,31.772277856204088,-10.99371272971107,41.815149646662235,2,S02
5500,0.8415666425613171,1.572427030047219,11.293003372503657,24.01075955682493,53.15440916226393,-0.6049205384172379,32.73015305280967,-11.835525809825372,39.320086799991145,2,S02
5520,0.8451487871458134,1.5315755966151487,11.111182904560719,31.97623272834215,49.8971938143032,-4.210522890430608,31.032637197173177,-13.428208914037747,40.32159354064501,2,S02
5540,0.731733011263838,1.2725371662755627,11.06281505742094,21.38015468181723,40.28124281251623,-9.841124337374303,32.44040435256637,-12.706657401426703,38.749576950601565,2,S02
5560,0.5471964842414757,1.1180662334384635,10.818380447656908,16.674675204199,36.984760147775866,-11.980597462906521,30.55303960338442,-14.565411760653936,39.44752510553005,2,S02
5580,0.4554002118462609,0.8264713539529607,10.593740258958835,13.164152931651497,29.112946119832507,-21.911589072276076,31.90104351229462,-14.428064026221485,38.51853566357237,2,S02
5600,0.2379206234523776,0.6553165891938562,10.48222043462224,11.917868657291525,19.55913983754622,-17.765602793229405,32.49723037963536,-15.221885454288513,36.35915490216758,2,S02
5620,0.1816826445246562,0.29813325943369856,10.381942411515542,4.4800774168906505,13.139680225100122,-16.405469465663582,33.21073492905157,-15.359910811105497,37.96908265643763,2,S02
5640,0.10010086212621809,0.21993228192311176,10.20376315756207,1.6854226169583235,4.739280630362303,-18.852531233273297,33.368193059828336,-16.506702546270173,37.48904411862577,2,S02
5660,0.041781735223640384,-0.03814363264728308,10.191108332812782,1.340623269295305,3.1795519344346586,-17.895276696422716,34.1917673616858,-17.782468172709386,36.6315613136512,2,S02
5680,0.09697132415011646,-0.09505659356010411,10.20321106543023,-1.9613443615593442,2.81936225442875,-16.608708491976934,35.46931725633294,-17.46483293106019,37.336017913701845,2,S02
5700,0.057860954456316185,-0.3655963292145701,9.978458222287326,-8.796831856394434,-7.65355761762198,-13.538057758469158,33.69866018260127,-17.33214683561583,34.75572717210773,2,S02
5720,0.029029755324308057,-0.5926749828179514,9.909768247959443,-11.818631720799996,-15.8204690849696,-11.552083190338623,33.57897687429157,-18.536267162734426,35.80290152678755,2,S02
5740,-0.031206310654985775,-0.6384824801908682,9.741783556913912,-15.826124735698052,-24.323781359880904,-8.68511906182494,32.620855969242655,-18.001239600804137,33.32409741548108,2,S02
5760,-0.13369815720850003,-0.9437556364313939,9.61999143793994,-19.9894169672475,-33.62917053426848,0.005454161019791903,33.23844382383926,-18.94958143449694,35.741597154946085,2,S02
5780,-0.4157256447134423,-1.2935336531439163,9.443766447384768,-25.334923819769312,-40.22070964148205,8.128417692746437,33.618604273433256,-19.459493989500793,34.65624101959284,2,S02
5800,-0.4349268455388762,-1.5660046214722416,9.26976489444252,-30.984535354662345,-53.54549199510035,5.82485904700338,33.48537319401012,-19.81766173690015,35.701354377052084,2,S02
5820,-0.7154917659925564,-1.6355948371060445,9.146436728207624,-31.871419121139628,-55.69710459679495,10.47389389098852,35.43975661989127,-21.96060770859217,35.828081908148924,2,S02
5840,-0.5523908507206768,-1.6541485313630144,9.090339627472302,-37.57637955240757,-63.44745876107113,15.418285972064389,32.807264636120564,-21.2324980761705,36.517428258371,2,S02
5860,-0.7306227895662345,-1.537197063726471,9.120934743004547,-39.343019193960515,-55.66633011462411,18.46110828959771,32.6971305112495,-21.912498745795574,35.64363825539558,2,S02
5880,-0.5831099921028648,-1.315345206305678,9.310950420420106,-35.050927576285936,-47.38492315268141,20.58428113116647,32.82145566060139,-23.133143917607622,36.841686178360696,2,S02
5900,-0.462814589927137,-0.9694895830588828,9.467931253468096,-28.2102502499232,-35.2804560368568,17.676247708199792,32.84413618261496,-23.91495408072708,37.611979194805436,2,S02
5920,-0.07599074673480305,-0.6182275916346625,9.796929913711763,-25.022728824207345,-19.609622396627074,15.539662285729834,32.85138449343188,-24.576157784704378,37.14706975372861,2,S02
5940,0.1772325280256949,-0.1557496979142003,10.231275224165161,-4.342678631163867,-6.365031379156219,23.278461452821812,31.383610259788657,-22.844555132930225,37.916520837184024,2,S02
5960,0.35105276713207534,0.4511509061297824,10.54279345492119,7.10469925242528,18.568056681296618,10.570486034229727,30.93758775265657,-24.75133007544058,38.330276844693856,2,S02
5980,0.5755624937360403,0.8404355488131816,10.84049954936298,12.88127261861796,34.497874228645976,18.13806005425828,32.16783138475606,-24.591068797625663,38.48371628149481,2,S02
6000,0.7961560371107942,1.249418701806417,11.227502672989825,26.739293649080594,42.52897302262521,5.609488224150708,32.908577894934574,-26.327894270057524,39.38340858749825,2,S02
6020,0.7569904793077245,1.4934819680249496,11.238466376661167,28.713680401181815,53.69948258832002,3.8538950273155828,29.764193626944298,-24.399124331742712,39.2550993324854,2,S02
6040,0.8657958404450052,1.6394645352767576,11.351249889259451,34.01432109302579,55.580309780078096,-4.696452851383018,30.738513108929848,-25.2811621674671,38.28795148308426,2,S02
6060,0.6523864628662278,1.6742121852135268,11.147085089974508,23.77485629219613,51.89145934914248,-8.9349954624561,30.916752010963158,-25.112995187950496,39.33285847314678,2,S02
6080,0.7370382153269702,1.3876740154752367,11.10336996374796,29.330078191728962,47.44982334172136,-11.327202984465345,31.253089360695498,-24.353742515717673,39.44083452932545,2,S02
6100,0.5422756786595403,1.1383521076026637,10.822682704356469,21.938193020341544,37.60857014609814,-13.160839481905406,30.32798329874658,-26.99540015652795,38.47715534838204,2,S02
6120,0.3195725122638614,0.93130618408212,10.65749003649106,13.767707217875394,25.3423007378614,-15.85759896499106,27.73493408125273,-25.669674939894605,38.65161234041449,2,S02
6140,0.22557251761543598,0.65621405513768,10.271684098519184,8.990167582724144,21.950241051593036,-19.507264889455698,29.576167682315855,-26.770350660687612,37.56506177961548,2,S02
6160,0.3420407281157497,0.24834501932173814,10.376743694229287,-0.7639110963754812,11.753203925481778,-17.99264363913743,28.393752273255387,-25.346101013617446,36.84456977404992,2,S02
6180,0.03282859503176079,0.06836591597876865,10.205813984010376,-4.998893999051557,8.028284134281787,-14.625942536356058,29.229943226494065,-27.143233866857358,34.77419660454655,2,S02
6200,0.037416322760748105,-0.0699861718057647,10.106356255707272,-3.0986796180302196,5.452865807637373,-16.328466734501053,28.077235770256074,-26.764326356530233,37.25516540124355,2,S02
6220,0.026986223923893174,-0.14581394352229504,10.139145999947345,-6.994524893284279,-5.754186379715427,-12.737970925259411,27.691419787685817,-25.45980866885395,36.81754668502763,2,S02
6240,0.009473105101037119,-0.30743107752595744,10.08395814382417,-7.795636749869167,-9.220555995571697,-9.844646300166444,27.47087361093224,-27.090116349448593,36.47450623879595,2,S02
6260,0.08818180333562013,-0.6985018309138806,9.901856544021111,-7.388925726274662,-12.147259917973608,-11.086835111406964,26.795759210116092,-26.37813024767796,35.55528054458952,2,S02
6280,-0.17343679370645473,-0.8663121810458203,9.801076971929511,-14.012936700983733,-20.306404571868388,-4.524053496447931,27.08498405982643,-24.211364360950856,37.10742285468709,2,S02
6300,-0.18603216575786732,-1.080506369445998,9.613581785222415,-24.964663128116342,-26.19341587889483,-0.2534500871115196,26.606183425022756,-23.294914327653725,32.768729790777456,2,S02
6320,-0.44525668784938577,-1.3640548117165388,9.427437559603353,-27.380766821069766,-39.77606678559891,3.6125781189877664,25.972476393397113,-27.384264004599295,35.81714864636558,2,S02
6340,-0.3206535728564399,-1.5917675670829048,9.292162525297446,-36.04753007376988,-49.19507411957171,7.806401861012218,26.89934850591507,-24.33140134233779,34.96192840770934,2,S02
6360,-0.6428605024917555,-1.7564537704761243,9.277125455638588,-41.96124631992129,-56.78943283094822,12.60562973847103,25.657359198654227,-21.790370228269783,37.53761866456454,2,S02
6380,-0.7520941524500969,-1.7318598204292333,9.074746897475292,-37.52488599742199,-57.7671159699641,19.241704905833146,25.64359016312107,-23.385237986915136,37.39919544637199,2,S02
6400,-0.825302802996453,-1.7682123317578722,9.16128614690471,-38.956063439495864,-58.40196672090379,14.981112262881174,25.379052761249035,-20.4996354932778,36.19290466981244,2,S02
6420,-0.4960545523379716,-1.4019120884888367,9.215644024576042,-33.789747245322566,-45.18459133773454,21.734087916264418,24.665851238161686,-20.34015601451079,36.6197575878165,2,S02
6440,-0.5025296244992078,-1.0012352381683547,9.503043792428825,-25.933296781622065,-35.699583245703316,21.427571476809096,25.905254229398814,-20.67508969298565,38.16958616414766,2,S02
6460,-0.21380285846532124,-0.5001711040619774,9.779097335931533,-17.462767414029074,-23.610843838890176,21.65657600096205,26.929382858480604,-21.330501528532224,39.151455145799446,2,S02
6480,0.08937945003512483,0.05755220629862165,10.262698808304696,-2.025390791700089,0.4998998846588196,19.28462837254891,24.310362252246883,-23.767465119221796,37.23875508169353,2,S02
6500,0.2994555897224371,0.46061938849762857,10.525855581306606,9.547446811972105,22.718795078454757,17.425717666719976,23.924282030677894,-19.4447160286096,37.79991595979559,2,S02
6520,0.5612999502844077,0.7739281814219192,10.730678554277262,18.058211406189304,28.608260844175046,9.212545633568569,25.339838062088777,-19.536433601152435,38.32297115455765,2,S02
6540,0.8265818162218633,1.2644890441425984,11.078638186917782,19.411916330928012,47.25206192232699,11.74484765679111,23.87880602476489,-21.260311790988062,38.34383941218745,2,S02
6560,0.835876661186912,1.4835311858818414,11.190195143634412,31.869094210080963,48.9714493552596,8.719776923906323,23.62539896038286,-19.098205625627823,38.36561463567985,2,S02
6580,0.812992171203827,1.7266558319526675,11.255809842870061,31.27710807611601,60.02368613791427,-2.1704035094385965,24.07944243725087,-18.166378688279067,38.557500215811764,2,S02
6600,0.636163740660672,1.555236651268387,11.213418905333029,29.405063765468118,47.303617404384106,-8.287277708536234,23.09242539670059,-17.002125102783005,39.46593594005622,2,S02
6620,0.6897589361670644,1.3519448762359756,11.026444062259772,28.289079872445473,47.00095118192834,-7.61729943613868,23.212562127009985,-16.551617904365997,38.639741394584796,2,S02
6640,0.6063313056269142,1.0431307585101486,10.805428737208654,21.80906093036577,39.183065690683236,-15.423346143942156,25.972014883283943,-16.266874023137376,37.875590367540156,2,S02
6660,0.3806042708690861,0.9104056422359639,10.55537949143465,8.902991082492147,30.69382050197434,-16.438940570750148,21.905156537136328,-14.75884844148754,38.91097411457693,2,S02
6680,0.3484257411305078,0.7524874480738082,10.41361561304693,12.695378130972049,17.467562783948136,-16.038584762865366,23.830946967892267,-14.555626729708038,37.62823188221693,2,S02
6700,0.27013966940501966,0.30026738271041464,10.429075919921477,3.006986500316688,10.622208782499465,-13.687308816591381,24.0044042847372,-13.321210335787999,36.87970935231313,2,S02
6720,-0.027108451536497297,0.034815627426550005,10.323569121621436,3.3002666593587238,-1.000038666407758,-15.016845938721987,25.11100135328953,-14.562895848681816,36.044054900331965,2,S02
6740,0.15931122806576603,0.08594801178463868,10.076423711314462,-6.73590243216967,-2.3352980181968404,-18.986005045823973,23.811231941837647,-13.889101811919023,35.98250588527955,2,S02
6760,0.12070457156172379,-0.047485951516804716,10.242027714125292,-4.492780551598199,-0.4583067586577292,-14.597328059042335,24.35962013354481,-11.879972102313207,36.3577235763329,2,S02
6780,0.2193329140833219,-0.41258792575505066,9.948610726100616,-12.386562501548614,-11.33000744458051,-12.244623413458235,24.587822382780473,-11.342329227801358,36.59546735679901,2,S02
6800,0.10882040567185963,-0.4048761156562633,9.862100569324536,-12.479132262428937,-14.842485323179115,-10.782698481952467,25.136855073017887,-12.43946096042118,36.347368679994105,2,S02
6820,-0.10501327624638115,-0.705765334688466,9.65300290354506,-14.199407671694829,-19.84826483617242,-5.013690059668192,25.979333868809427,-11.460816358718485,34.229669767665996,2,S02
6840,0.03548312896850002,-0.9553846795260656,9.555137692354204,-24.410753963027247,-31.039691988122115,-1.6624223634851125,25.42205699998132,-11.700744164135218,35.04659891386456,2,S02
6860,-0.2392665041671014,-1.2229727784407083,9.514792553280621,-26.653723025623236,-42.606249208229066,7.6714404886688135,26.292140775988752,-12.259758675059444,37.80270801136715,2,S02
6880,-0.5211700174161643,-1.3451034520160676,9.154151112105255,-34.60645844051018,-46.13705139508515,6.7069063882641995,26.351741234325115,-10.697242593068681,35.71600912332319,2,S02
6900,-0.7689257368227684,-1.6722167109603447,9.052228964670913,-38.3010717111097,-56.6780291908517,16.4205422272849,25.814682212575192,-8.835314919527157,36.44651976708373,2,S02
6920,-0.6438578775091193,-1.6640284574595368,9.032079452528905,-39.846561705752606,-58.01493425355956,15.503942233241117,27.521973707244637,-9.144989620155036,36.33974962412806,2,S02
6940,-0.6277680425197583,-1.7055464695195697,9.21327356445367,-39.785991820501735,-59.719266042794885,22.678478715423626,25.739108646225624,-10.869597268315847,36.22877191336092,2,S02
6960,-0.6282872189718213,-1.3384302295704542,9.22827202466385,-29.885986341198503,-46.65143861383161,14.95634970854561,27.291313293618902,-9.445445615773096,36.55832835079354,2,S02
6980,-0.5426081755815678,-1.0949359548755577,9.512124527161857,-21.90010715718923,-41.99848049705625,21.355978995121372,26.53767627900069,-7.509055543467632,37.30092437430884,2,S02
7000,-0.12823456728066662,-0.604656916611241,9.921591031095245,-19.742316762177488,-18.484255234346165,22.189262492706327,27.931377587145537,-11.570845702297735,37.42885657667002,2,S02
7020,0.17094592783684612,-0.10790111368996314,10.204599527341056,-7.095320429561813,-1.5291711679764504,16.006439487967537,27.841275640416644,-8.795770775025446,38.32726972302119,2,S02
7040,0.43748833190019454,0.5850712581639566,10.543346416753453,6.763757778688727,16.35838229131757,16.729612362933292,27.06977491830544,-7.612802078142081,38.82896123938054,2,S02
7060,0.49066567940219963,0.8112646830544248,10.85084087184331,16.058795274914566,34.08915453682611,19.88018357067026,28.423650626486058,-8.391828324555133,39.82056649610078,2,S02
7080,0.7894441244724346,1.3595004610157173,10.926204265161255,21.11379719197529,45.605916386464756,8.459929254004622,29.683381332732303,-9.774406489860933,39.652226624691316,2,S02
7100,0.8068949984267353,1.4099115339752433,11.102406900819414,37.16992842473172,57.33435871802233,5.037562070449821,29.58247363738635,-8.29476040876882,40.29782069655088,2,S02
7120,0.8682613505492885,1.6364290565411748,11.15059161138085,30.814759314371397,55.59622858608838,5.071627450296726,29.95456376829836,-8.19323643582866,40.492089909674256,2,S02
7140,0.7564950480044774,1.4328322499711712,11.114048928224024,26.20310708508139,59.28987435258031,-6.062882746287713,31.40656000378022,-11.113753572881606,40.520714534050335,2,S02
7160,0.5166213288688488,1.3228119187751424,11.216228308621405,24.6211884424434,50.37550617975204,-5.262449044855892,30.248185202044308,-11.313598617356186,39.61479262178611,2,S02
7180,0.456434203534544,1.0771826388224912,10.87169972947451,19.894583067818008,33.08234746314386,-12.307466443780948,29.974234592563914,-11.099194793325825,37.09895713000716,2,S02
7200,0.30112727346057544,0.8599244796304402,10.667904368415785,16.409647151926183,31.66030194578435,-14.381799812942905,29.846974247266647,-10.108721232554345,37.81965609359893,2,S02
7220,0.1812187258540731,0.5731728310587738,10.538405647758697,9.552357894715371,20.400406813266002,-19.4970627335765,31.718674512291045,-11.40128653692581,38.566519597346925,2,S02
7240,0.18441451407631826,0.42105305302853135,10.45719869020776,4.902806152164371,9.664978532657088,-20.83805439587752,32.70906045475437,-10.783064243664366,37.11190555444376,2,S02
7260,0.1017759773120821,0.2454756122573361,10.192063087659527,5.491415752806065,0.8156733861360028,-23.871675565669165,31.25923457106561,-12.052216076158516,38.00701196564998,2,S02
7280,0.11429509748194808,-0.015384059458757163,10.142912347267393,-5.504298120326087,0.68854953001656,-17.52321359244294,30.221598275749493,-13.251683126497586,38.57694602285422,2,S02
7300,0.25146670829578716,-0.22535039095936268,10.032226145859935,-5.421655749763382,-6.78654372309824,-15.978777731805687,30.153886737069698,-11.073509441918183,34.51089076816389,2,S02
7320,0.14842310035796202,-0.2768749709750309,10.045468770536878,-8.17187922217412,-10.811643409627145,-11.867558123587886,32.88256364662206,-12.341900950457909,35.74632475757147,2,S02
7340,0.1477047550901961,-0.5789628389238337,10.104040934771314,-12.067756611050385,-16.43894030932236,-9.631857915906872,32.28423578191928,-12.584430272352417,35.746531750465834,2,S02
7360,0.029047087209415956,-0.7862160408505916,9.656980234507401,-17.57928620545232,-26.486396817446643,-4.595187426171467,33.345263333643416,-15.31456511380618,36.06131092428789,2,S02
7380,-0.14016690001634646,-1.0799637174074825,9.515097386062264,-22.28035478123083,-30.30796166077594,-1.666412498118563,32.61592644776846,-12.463023507811876,35.249742363671956,2,S02
7400,-0.16937222705486807,-1.1787926673717897,9.548252554638662,-37.83995017288187,-40.942815489565064,1.074412825551169,32.32139624315997,-15.16185061192078,34.61743071625825,2,S02
7420,-0.47256282497923663,-1.5085841962411046,9.256782385241301,-25.915586616475384,-52.09234310157312,13.907790799888174,33.68536269089564,-15.040481362733832,34.7965571690839,2,S02
7440,-0.5805544989277023,-1.6416570004162963,9.244436470782018,-33.21684386825073,-55.69134370255643,16.684000541214633,33.966440593378174,-15.326705181228602,34.9207265580968,2,S02
7460,-0.723280027989035,-1.6344255518548347,9.07074188323921,-36.24729231042415,-62.83105956510822,12.928476842031918,33.664236334979286,-15.167374742086976,34.672687017486396,2,S02
7480,-0.6694498273951227,-1.5897979794093628,9.234253445550545,-35.4271002016954,-55.75667872897579,24.519718025640273,35.15563758782581,-18.898068272775106,36.51717712384188,2,S02
7500,-0.4980835165193672,-1.4838340274890733,9.265882884877641,-36.956968343504954,-49.25952276759819,20.171677969774503,34.794042671635175,-16.694246135519528,36.53382327498676,2,S02
7520,-0.5099259595166467,-1.1216125015338703,9.576121328152867,-27.92032472229253,-34.54897321796687,24.134503596944025,34.33693938597237,-18.33351805704997,35.739638725730245,2,S02
7540,-0.11982349013838908,-0.5175375026201435,9.934164238327059,-12.412530114797551,-19.127405299430414,23.458887426704116,32.401764546469515,-16.90258075973388,37.297349868529245,2,S02
7560,0.06357537307228567,0.049485657745065595,10.236584524006407,-4.400978464274635,2.682828075948011,17.595002309429745,34.30950798510724,-18.056324340229004,37.15007722598807,2,S02
7580,0.36007256243045016,0.44751822235919564,10.42437672548515,0.12316102159797282,19.010391564582935,15.559814687181907,34.06313696989227,-16.73920417452066,38.854428575415945,2,S02
7600,0.7491529603579534,0.9563359360566579,10.828841759381705,18.49315299012108,37.04216435609109,14.361708702436298,34.079352483068696,-21.78021985696362,38.97198914379444,2,S02
7620,0.8732011691038447,1.266302080153121,11.122808034726733,23.796744957971093,46.23728546086914,8.164170919148034,32.74835755217697,-20.413323331669062,37.29240031487662,2,S02
7640,0.9717425922192486,1.557971462178384,11.12130793931317,28.924567456797018,56.05434040601531,7.088545789502026,31.98267406852694,-20.634961826284442,40.254433041897634,2,S02
7660,0.8099499890107269,1.4558510584645576,11.112508195922365,33.43940552786002,59.59744167247172,0.29309875504702776,31.137306162546942,-22.317428540211054,38.94834859349808,2,S02
7680,0.7112979267907011,1.5490991034845514,11.132137670814508,29.82614138078424,55.20621065995509,-3.000313546975351,33.736728859657305,-20.3447825236342,39.84407028192863,2,S02
7700,0.6253793205003989,1.4401610647507772,11.035625229671208,19.509222078148465,44.47712332052763,-9.011358265223052,33.398877938491026,-22.134579319391015,38.80201446492559,2,S02
7720,0.6028141214284279,1.1449086781052538,10.891101762284928,22.509637197101227,37.036031576136196,-12.219548933108152,32.330559857000495,-23.83899999634945,38.05679909586389,2,S02
7740,0.29752636664077714,0.8788239253142498,10.803027829117097,16.411273689396342,29.022953009028654,-17.514132384063018,32.337087011310636,-21.43138894977266,37.54360085749995,2,S02
7760,0.1309621965213008,0.5788482138133686,10.69148045019437,3.5029970650965137,23.767661051947833,-17.052415480186557,34.244108522223094,-24.05296787360676,39.77238393633427,2,S02
7780,0.18511219680162133,0.287432497763732,10.545058192783344,-3.6879802346012847,12.78950602463553,-24.362809248709503,29.305373404890222,-24.860700968171987,37.49545632289535,2,S02
7800,0.17811388256521665,0.17628529543909197,10.257146993428272,1.930721874678511,12.485509646946374,-23.856501156937192,29.24315648786848,-26.113512523362655,35.039093531137,2,S02
7820,0.09296370846504713,-0.039043657089848444,10.177441838833152,-6.480812693545788,-3.0484427202887154,-20.0408137610167,31.285231531541633,-26.902640466366215,37.546301496622114,2,S02
7840,0.1552935420988299,-0.23336869624775394,10.137142246452372,-3.273000343687439,1.3168544265774111,-15.710147002440054,33.104285834479924,-26.299718850389986,35.95422871178865,2,S02
7860,0.07040688143621329,-0.18615346337118055,10.059779812636428,-8.265363347489533,-12.688693963311563,-19.00933964637085,30.03697148837977,-25.35684027523422,34.5104155875162,2,S02
7880,0.020318000929477248,-0.37780087937081663,9.985614951264399,-8.871927786156952,-16.375493586112924,-10.06362799561887,31.464036492645675,-25.015013635644454,35.31467836455559,2,S02
7900,0.04369256765711672,-0.6915811049269955,9.699915562765895,-12.512187795774384,-21.691394209095623,-4.923065393963299,31.16144504759192,-27.137673941022822,34.29527612958251,2,S02
7920,-0.10812228244563754,-1.1035717569899282,9.586199487474914,-20.789311355122408,-29.7704233938728,2.8193953638743654,31.000414073569637,-26.245762463659204,35.99290140759941,2,S02
7940,-0.3109649708091258,-1.2972044613781402,9.416058306204322,-32.34999820277189,-39.62251339916177,11.913032648949532,28.728370197598384,-25.710326005863596,34.296148357085706,2,S02
7960,-0.506430578420627,-1.4622770823742852,9.295992958770464,-30.203676541619824,-51.95091051027451,10.917656680611648,28.307574854463653,-23.885382398443987,35.614936395319276,2,S02
7980,-0.6051824074515301,-1.7493725415889576,9.150471530412906,-34.05788894272482,-53.989271752842036,13.861390303053604,28.502148963057117,-25.98953565654849,34.96138966704055,2,S02
8000,-0.6926967715413773,-1.7104378055072205,9.0445885738452,-40.33009294034691,-64.00233547662243,17.53719644715678,27.70350770414074,-25.897193924044682,36.42999327498219,2,S02
8020,-0.6532487620896865,-1.672526711111564,9.018758867379107,-38.56072264066226,-57.361687187950054,18.723295154266438,28.96069872477213,-26.199186287926203,35.87314954636355,2,S02
8040,-0.6245297237616144,-1.3808330632557912,9.124285986177616,-32.28598019553874,-44.98184347217447,17.26807553808142,27.770532085616534,-27.12176970346935,37.49786418893078,2,S02
8060,-0.3985271658465822,-0.9961174451663071,9.611112513910916,-23.989331444869098,-29.978501830998727,22.3087906424583,27.569902870633808,-24.48588991154556,38.329393497309496,2,S02
8080,-0.16644585027984496,-0.5669236306833638,9.9493426845427,-13.39216454899736,-22.85326885127899,15.254348507538287,26.560661157373335,-23.99946509351372,37.351442384927665,2,S02
8100,0.17699905275554187,-0.08603569719409475,10.093578480787825,-3.9454245034232507,-0.2511446710078493,21.116338066384923,26.40540139165102,-26.074847873113814,38.52069548738353,2,S02
8120,0.4345365735140104,0.3638906138074027,10.389702344874816,4.000961194498172,21.51419804455719,13.141828745693124,26.59982146071737,-24.72413363055503,37.78171677317692,2,S02
8140,0.6053336932857855,0.7957473823190622,10.87445319508455,23.650510890671168,29.170023324182395,10.909501324444957,24.500329567614244,-23.393011960416686,38.5523481558491,2,S02
8160,0.7330999691687691,1.2511131711048158,11.039109707331155,27.570894518906353,47.91328223731507,9.24073968174366,25.766512705485603,-22.932001831661758,39.63113014420789,2,S02
8180,0.7679594726776106,1.648726627489093,11.17228010676912,30.839026433468955,55.05749777367597,3.710779562126613,25.177711682731992,-23.470477347503707,39.74443327828654,2,S02
8200,0.8264625642101456,1.6321380271607417,11.145855128857223,28.000928330423736,56.97089030897208,-1.4400647254836154,26.003430096638958,-23.5413797704516,38.305479285587616,2,S02
8220,0.6926039519736956,1.5643082709585248,11.206428889413498,30.376641841712388,56.27222119865031,-5.386608532284836,25.139859528518258,-21.91806012994993,39.228104378709894,2,S02
8240,0.6649339879513531,1.3696999076976135,11.057923867470157,21.273218255109914,46.87645516114357,-16.1473133518014,25.27614565411688,-21.575962689567714,37.99360064871813,2,S02
8260,0.43400640415326486,1.0524980099387942,10.958213398966738,17.698091534222634,42.34858380158357,-12.879788561518197,24.07617032828362,-20.846982691888275,37.153536377071894,2,S02
8280,0.2845347234382047,0.8859880992137121,10.676591516764587,15.478963223742877,31.02047938540674,-19.09789775469554,25.626963326030197,-20.580093565734792,38.0512393809839,2,S02
8300,0.14554057368496578,0.6548251575375359,10.569722534692273,7.243679166941324,24.301737605920557,-22.941404234267605,24.253276838939378,-19.319158350785095,37.19212898372317,2,S02
8320,0.18687894468735572,0.4356900547238078,10.33783901277391,2.88610927589981,11.495629629978463,-18.012132706972928,25.075434423555357,-20.213861121239823,38.56111439437857,2,S02
8340,0.19698898007732513,0.06361353520701904,10.195285477011293,-6.09534453663299,4.518222382589968,-20.03538696416782,26.25025021377577,-17.665014451646112,35.43802303887338,2,S02
8360,0.08263991271429898,-0.06239176970803063,10.296873026583324,-8.085203879188501,-5.7215708208872975,-18.67483957627551,25.127469487462093,-19.796239580625237,36.095233698027,2,S02
8380,0.19852443799233305,-0.13972304534143445,10.171556781771512,-5.91779663118134,-2.8964824051934777,-12.702556097775783,23.765931626197574,-19.34508261755926,36.516230393233016,2,S02
8400,0.14968375877972037,-0.40312708764625627,10.17457568757303,-12.215789754058225,-8.317216104664219,-9.911025465456989,22.8586221008054,-16.784267385544258,36.60255754088655,2,S02
8420,0.04739893411550273,-0.5504721934098621,9.772721918396519,0.3005456045193702,-17.728077299355338,-10.292560488041941,23.376601556407557,-18.0656015282931,33.54170071592256,2,S02
8440,0.09515421179871696,-0.8362771129051985,9.80593296766128,-15.603471492378535,-23.981336320571717,-3.6055515117360026,24.738600145231477,-17.190258612832885,35.80332291060482,2,S02
8460,-0.15801760739961504,-1.0011179096845542,9.59420496509005,-21.862726119358758,-32.366288895020745,2.7248011934163126,23.815590550186556,-14.049921225294568,36.778995972976546,2,S02
8480,-0.3820304700140599,-1.2257453575162143,9.383367200183704,-26.528012431623257,-38.52463107569718,1.0442658734875772,23.918833056712284,-15.30442425024779,36.90510892082388,2,S02
8500,-0.49094254645567814,-1.5411712291027388,9.240800520353314,-34.12573076361777,-50.67003832640066,7.502098689888403,24.883161229728216,-14.181054370678801,35.746796659962584,2,S02
8520,-0.6548492574638028,-1.5016253185490422,9.111325851839203,-39.83061227060662,-52.42517358892911,12.320027447458008,23.39515623720872,-14.760342704658203,35.43658734771976,2,S02
8540,-0.6721114609452272,-1.784969683200247,9.215721968903923,-43.46817901116156,-61.15224812135642,21.49664658421702,24.20805142419085,-15.711245999240553,35.42558660878738,2,S02
8560,-0.6989645211309002,-1.6709568047580823,9.034212336341513,-37.61060370686592,-56.186225486379065,20.395048323223655,23.730476083878347,-13.716627815479205,35.25216488954739,2,S02
8580,-0.5661952504039895,-1.3701984459361494,9.30212792714078,-29.543256329115593,-48.44377612406492,19.8707967830411,25.149456909216234,-11.513017500243233,36.41162566247012,2,S02
8600,-0.3368964430681377,-1.1626467735328183,9.358815439745717,-29.5397054787239,-37.240598524558735,17.515416748199492,25.266773715422435,-11.96437141669875,39.59271926672458,2,S02
8620,-0.19002949187127458,-0.6187796992374919,9.948666913754193,-12.13395579358884,-19.94877284576182,26.808690326070888,26.22312893638549,-10.531065784690893,38.33632241912148,2,S02
8640,0.1196245191426709,0.0021341569323577725,10.220174611938074,-1.3588478293075545,3.6106738335431734,16.02007684739316,25.52656749674682,-10.609804826033773,39.04898662279781,2,S02
8660,0.3228634220735413,0.5574750951029823,10.51418378361592,9.058944903180187,16.163968542279942,8.454753286707614,24.315247559419486,-10.45858930669683,38.42554414103735,2,S02
8680,0.6796520498528043,0.8902102832062879,10.862527873262128,24.2797512567725,32.811540039972506,10.961926417794361,26.644131974149296,-13.650071652827226,39.53565316526488,2,S02
8700,0.9389329805688573,1.2041837464635115,10.922563217276197,26.423875516741997,44.84746276516821,5.7548897338763965,25.429595962141793,-8.476306096874517,38.52993754192627,2,S02
8720,0.8872625242440305,1.4359152853448753,11.156568154182807,24.058509117645247,52.88874611570243,5.22070999207045,26.782499018436077,-10.370022977416326,39.624337860053586,2,S02
8740,0.8340524124786441,1.5531036149721342,11.166496371368913,31.665561577069308,55.507928222377124,-2.273779682786309,27.87547984400587,-9.79262826343364,38.4370659461339,2,S02
8760,0.6952018616223873,1.548486348303397,11.261546866243338,22.31616868751531,53.16119000468475,-7.029701599603957,27.372558313894615,-8.5942997272925,37.05013293803642,2,S02
8780,0.5796184441381715,1.2956403160600165,11.098870974185669,22.841907223131976,51.625361958803815,-8.31909922274013,26.667454214470773,-8.231623950075955,38.84355717488031,2,S02
8800,0.5844978673907183,1.088791916376794,10.840917535803868,20.9002348781961,42.364791639572104,-16.26816599326496,27.93504346554822,-8.202555634626208,39.28541255910813,2,S02
8820,0.46415221686592667,0.8951116234105332,10.734922891740897,13.110781669551013,31.906918832280997,-17.37188418223144,28.74519332047706,-8.90797211444116,37.860828051943734,2,S02
8840,0.15913301960458426,0.5406946318138199,10.530721063419655,4.508293633420199,16.87005849479972,-14.457215235659621,29.681009448839767,-9.6708429114253,37.72552873239338,2,S02
8860,-0.04863761126336577,0.46379745176981363,10.408415404305329,2.953128685845744,15.052153398051626,-17.32089040980394,26.23102311092485,-9.03685296719135,38.82706280540158,2,S02
8880,0.13425285730808814,0.06495781968341552,10.332557749204165,-6.628065883410257,5.444812293645359,-15.482068321981084,27.94983438114107,-9.208708431801083,37.2323070504337,2,S02
8900,0.17033732489691739,-0.05284795504402219,10.112737380690643,-2.8198608880302922,0.7442708419571111,-15.721522788346205,27.766113606609096,-9.583841739281272,35.99771014214575,2,S02
8920,0.06296250551929974,-0.06557182545108936,10.109900491671583,-4.859308230824647,-1.964874326479723,-15.707391336420597,29.48469052084947,-10.010779189548712,35.26016947739896,2,S02
8940,0.2387352261953341,-0.2871528935362574,10.178848455888422,-8.230449697845614,-7.8775771676342705,-11.631263009321119,28.935417734240197,-9.751773700079525,35.363333828512765,2,S02
8960,-0.004313590597801453,-0.551786915879341,9.94112118134373,-13.608743610824444,-19.05529321857887,-8.83494565696265,30.362036962689267,-10.599762196351843,35.50276213216125,2,S02
8980,0.026791946800831593,-0.7239142128441001,9.670123710728715,-17.951447837815802,-29.48284758894611,-2.26791761623163,29.80954792118362,-8.942772777682201,33.93477681888791,2,S02
9000,-0.08906004725570421,-0.8356032929415007,9.717266913370022,-21.446849741579484,-32.70708664375117,3.558071160876615,31.92878153254352,-10.376336046563035,34.32380244672621,2,S02
9020,-0.3600623141540772,-1.2612516161461422,9.486489234329945,-26.594639283001403,-40.536532166932176,4.920979677968953,31.96304313084599,-9.365890178780326,35.82180521721149,2,S02
9040,-0.4580936750473589,-1.525238779304058,9.210191749537533,-31.579622220259758,-52.74415169787952,9.57084929865784,33.06960190732748,-11.659841709344837,34.76595482933756,2,S02
9060,-0.44886679187277445,-1.7373819058819386,9.229856077056098,-35.874676989362044,-57.793369523043026,13.158551625630507,31.844123661607174,-10.211173344963388,34.86762657086534,2,S02
9080,-0.715103799956319,-1.726047645545584,8.974014286798212,-40.06544294843637,-49.45919199029683,14.11362481166764,32.88771187599653,-10.060947396872825,37.5110468270081,2,S02
9100,-0.7285059779538058,-1.6290870861468039,9.192159837808857,-38.55619805905291,-55.12264789445675,21.417081113572785,30.84816791381964,-11.568171017762761,37.45837857130196,2,S02
9120,-0.6390271877554956,-1.3902892024160851,9.309644626019372,-34.087479945957014,-48.00032137910799,17.627752121891653,32.97574940982811,-13.150066681116716,38.66965820040035,2,S02
9140,-0.46402700641958083,-0.9794611658608345,9.523014446607533,-29.5457098670494,-39.30108697151735,24.458021795521013,33.98601027615467,-13.338897173425325,37.31587322087869,2,S02
9160,0.004252697976833711,-0.6019728062860366,9.790287983463605,-18.696950457363528,-17.407795075377784,19.234178680526227,30.621465634715285,-14.7576985900161,38.94014356797096,2,S02
9180,0.03516087024096477,-0.005023823280267403,9.995618705090049,-9.069424396342733,2.521025130330531,19.9654374495377,33.23069345004063,-14.448125379640901,38.37109728344227,2,S02
9200,0.5294699187885993,0.4764102811596313,10.5587259468817,5.183429367480204,11.028359177144754,13.893325581820461,34.100097891274224,-14.725016876480144,38.59904207438602,2,S02
9220,0.7424088078653642,0.9549783623661086,10.802173854292745,16.93149197468306,33.8741096248426,8.088383302330671,32.51517852422505,-14.69825536397665,39.55559136379734,2,S02
9240,0.990667462331453,1.1486373803856653,11.008759791724913,22.416292254107535,44.908877110332966,9.732582627411883,33.46375434413546,-16.884983768501385,38.963023710610095,2,S02
9260,0.9058838218027686,1.5485485145646398,11.150443591715442,29.69724640329382,50.327536594924084,2.0712739215368763,34.82029057902179,-17.729446060325444,39.23743576683198,2,S02
9280,0.9248210214972766,1.579934816164475,11.104454799449234,31.819204212476162,54.846125936487375,-0.6211164749755217,33.264547053164215,-15.439258558031534,39.92315770466992,2,S02
9300,0.7984151713522903,1.4944516556179954,11.23196538245728,29.813297282187353,50.57244463180449,-6.353862566395591,32.71857740296642,-16.91244021338153,39.221348376149955,2,S02
9320,0.6279849310115837,1.1955126410274661,10.998541717356641,24.90923586040005,42.79799938456273,-9.248071077958937,32.448143907313565,-15.939853519427626,38.67400016085455,2,S02
9340,0.5720291251825855,1.1056501817977862,10.816535535945754,17.723092991108974,35.553908906896744,-14.923484705311694,36.82290377931024,-21.073418036856722,38.674461029852765,2,S02
9360,0.35825299299378777,0.824178368451632,10.692423009713378,13.90879610784489,31.837818594066402,-20.796828802959617,33.7868562814245,-21.017412731497775,37.363117053619064,2,S02
9380,0.19978640735319347,0.59379753316764,10.655960784583609,11.12159280856218,21.462223687287622,-15.038855930389898,32.5994363294873,-18.397156361148074,38.41458446946921,2,S02
9400,0.07460237418537588,0.302542112410853,10.277492498881395,1.75132745913458,11.084641985615987,-14.855194050419117,33.70241025313793,-21.133390127675803,37.17566882096449,2,S02
9420,0.17444754513492844,0.04191363002415137,10.256763822836518,5.130802718385641,12.613624278414651,-18.264303625828738,33.19963762301971,-19.376214357405384,36.753472657834436,2,S02
9440,0.07143339818585503,-0.140436186795165,10.142494173585101,-3.514269593893081,0.5794567151211736,-18.910873724915557,32.268247601144,-21.828938680169635,34.7006911928641,2,S02
9460,0.11778642696348186,-0.04137288978349001,10.000887582931576,-3.8063103374644482,-4.463918408591766,-16.436120064767113,32.32031654462125,-21.04026231942972,37.4006063984171,2,S02
9480,0.007117951556643826,-0.2968629395367002,9.87278818264753,-7.706405018233216,-9.258157362406497,-17.75008389676745,31.741420630776673,-23.602335193573463,34.56277793947622,2,S02
9500,0.06321679523394455,-0.5358011483599856,9.997978012575789,-12.662495336672382,-13.97048706823426,-6.475507205601446,32.34722971494442,-21.64700064456523,35.19979596975783,2,S02
9520,0.045047407318777516,-0.8130185349906913,9.763434388658947,-12.844557874179245,-19.126641851664917,-5.965699169925644,32.99657763316332,-23.198803965025412,35.889557114829984,2,S02
9540,-0.2785662520143738,-1.0881289073855547,9.549199313757825,-21.81131772909009,-34.519627174701085,1.9780794457246569,34.478748271241486,-23.972953763583824,34.164416364321355,2,S02
9560,-0.25154524071593953,-1.2766203944844545,9.334714373140223,-32.59782629848708,-43.32347669066228,4.921777819705956,31.57524462726872,-25.366302914176547,35.02520763012003,2,S02
9580,-0.35186257732352444,-1.483618884442216,9.17785239583837,-31.87236150061465,-46.32920486393634,8.715801316151147,30.706898985449985,-24.408671374828707,34.86781768609637,2,S02
9600,-0.599016252219646,-1.5782140677159036,9.114932534257129,-30.214593087898987,-58.80363128299483,14.48141247589061,32.876184197196146,-25.449868706201126,35.417962070720776,2,S02
9620,-0.7247487292680261,-1.6027509903146029,8.956900285794188,-36.07822480132091,-55.468104563146255,15.626264104753334,30.37322673628852,-25.31937804249446,36.638937733592364,2,S02
9640,-0.6976667619213682,-1.6355736221582762,9.031559354022836,-35.85648417023329,-53.37332689976522,15.525947656710075,31.318623920962224,-25.756049786016593,36.08430812131037,2,S02
9660,-0.5582305580201243,-1.243757738696872,9.405249819080359,-30.37155829334145,-53.87648569513021,21.46471030011166,30.92246529206501,-24.097349294416542,35.61532932691604,2,S02
9680,-0.3327918450924666,-0.951213616666222,9.530604172527276,-32.052439252935436,-34.090710261004666,22.924972889429583,29.85617325104075,-25.162040245246047,37.50903506557928,2,S02
9700,-0.027904132582764807,-0.37886783294858956,9.889426383569024,-10.91228610253916,-23.102768573829707,17.8283050115401,30.499634948899324,-25.690329705941412,38.00629000736,2,S02
9720,0.09227279279765085,0.0545454230726269,10.285602331344464,-4.021467280918715,5.539492245812102,16.075305444208645,30.9079389500297,-25.046454018166134,37.3986677286748,2,S02
9740,0.3252762106967673,0.5947942176491592,10.473018277160843,5.845693490983437,16.546798935678453,15.412420235242704,28.061384251042575,-24.708480396484475,38.89279475222158,2,S02
9760,0.4691816129138805,1.0097272456385171,10.91946954294075,16.264246413224846,34.6425042957653,14.006304135033604,28.328122659242116,-26.069676782322823,37.97127962342515,2,S02
9780,0.8280869444799238,1.2526546017178437,11.012176565306525,26.275821800990816,52.9059897045397,6.63079120518566,27.848642660257067,-26.814098068196373,38.55449112495775,2,S02
9800,0.6832802380285242,1.5702318831575888,11.1769283385356,31.220298031787525,49.25286007418891,-1.6419435171127654,28.73971061466344,-27.242544531929777,37.49142156887079,2,S02
9820,0.8838659060497438,1.6682007936630892,11.251125612749735,31.843351275733088,58.56499621581984,1.4685363024667302,28.498150929644556,-26.622221696054172,39.18671608265624,2,S02
9840,0.8195955917842969,1.4598060926797467,11.064490597617361,28.880292247202124,54.17232178218335,-4.411286639909317,26.899927198086303,-26.084879913159387,39.54570448063829,2,S02
9860,0.6786913751079171,1.2265227821727995,10.951627270103922,24.64786171512543,48.056322399526955,-12.422357755959128,27.24255828641297,-26.6331636616106,39.84693753645524,2,S02
9880,0.45340437598368977,1.2083146665022346,10.87966227650837,19.6010193334463,40.72309238292528,-18.837356681694093,27.068127577869298,-27.43987518825301,38.155693676057226,2,S02
9900,0.3076165994140868,0.9128585898156827,10.644093757606063,8.379907971276495,31.98171149518372,-13.451713579539119,26.393231726335127,-23.892136589108517,39.71169442709487,2,S02
9920,0.27606879948631363,0.6248356736416691,10.420768640780045,6.4001777961022475,19.97711920884242,-18.5830683185323,26.938895154366296,-24.31857906895072,37.58710943970761,2,S02
9940,0.17112961296329393,0.4816538229408383,10.295439125875463,7.7871384374036845,10.310221790593237,-18.013077616416936,26.250424453866607,-22.51234226630155,37.99655308414416,2,S02
9960,0.04651911441564797,0.2064595225151416,10.380859720299568,-4.331749095351581,8.190505376117919,-16.70076040703799,25.38135678272735,-25.173296198096697,37.813355496458904,2,S02
9980,0.21091049828262498,0.020549190129132047,10.192549578947864,-9.358773162056993,2.5150312605915595,-18.791854426560054,24.29350865526385,-23.515917102094296,35.08474426889243,2,S02
10000,0.06146575399515224,-0.07243932883666844,10.19739996331786,-8.195372344727138,0.5599570914183174,-12.873121050622883,27.985646490752853,-23.658158435693405,37.1507254549542,2,S02
10020,0.20334904025036282,-0.3529335141755933,9.965932296786121,-8.726248229932835,-9.674744870928702,-17.192998984178953,25.460574094269425,-21.590046948599376,35.56807496505013,2,S02
10040,-0.02502360215201596,-0.620694747017281,9.902883263670704,-9.778973869215868,-10.775772302158561,-15.147547465904454,26.190632450594855,-21.305067469019633,35.37366953306487,2,S02
10060,0.02813374435689904,-0.7746908310680314,9.869900210753904,-14.774715138610564,-22.048237651598356,-8.009374700469346,25.32449107976104,-22.395986360353703,35.45450090431091,2,S02
10080,-0.2112593886075875,-1.0059289666245008,9.628598552098147,-19.4087472476614,-34.664466855792895,0.20892063247476444,24.5621579372227,-22.17856594623545,35.427344483318336,2,S02
10100,-0.2725726993817217,-1.2304844785467668,9.398159740448392,-24.899507576155504,-44.92771571776738,5.83087238285915,24.626809600279238,-18.5409688553674,34.385363782661486,2,S02
10120,-0.4631987514694158,-1.6548900806469458,9.303289514990112,-36.24550459771489,-45.45388029398952,12.727486261328638,25.383448597449714,-20.284602641536768,36.329988570267915,2,S02
10140,-0.6194722410577669,-1.6597278003427198,9.160007574629706,-38.917678807284425,-58.69740696247112,16.105029034935647,23.72127579061388,-18.876076740692547,34.8656129671169,2,S02
10160,-0.609801915288436,-1.7080643869535874,9.182169920243357,-38.81271908372207,-57.96693041237758,23.158924442577437,24.306203174322086,-19.16476355340589,36.15029602701376,2,S02
10180,-0.5882601113910747,-1.7093575886985395,9.149478361649521,-39.109270066640754,-55.56726752143662,18.663570156041324,23.889785211976843,-20.090497468116958,34.88866671052627,2,S02
10200,-0.47572339889206483,-1.331402325525053,9.296235792672089,-34.15022831434117,-50.936203986726,23.971880952876504,25.05574227795435,-19.066326666685832,37.86995806960624,2,S02
10220,-0.47541000453207705,-0.9903795256087062,9.35867664036288,-22.57267951825165,-35.19289113751956,23.234278674677327,23.817055305127546,-15.260910894281235,36.84591252801681,2,S02
10240,-0.1728382387360002,-0.484457496991992,9.930116017341897,-12.559152757762401,-23.121725825902946,22.522735042946067,22.404566819640632,-14.452851890063778,40.13638907748675,2,S02
10260,0.23281622349858658,-0.0395905861579023,10.094805106716688,-0.5684904219716373,4.444997627113511,13.760902014037631,24.733024258823747,-15.182926499143775,37.51979779903227,2,S02
10280,0.47233598608598193,0.5697492602446872,10.478009885553314,13.897300637141822,16.27177669703018,14.972980347204853,25.258157486304682,-13.925184399079209,37.010727643152734,2,S02
10300,0.5997227886156826,0.9337075997841877,10.74249448217577,14.287044282698677,28.874866523161902,6.363487648383433,23.91219606363906,-14.422355767477043,40.08262529264051,2,S02
10320,0.8852444179303666,1.3118532787065054,11.19602814986769,27.321423787351737,47.03384907355381,10.140294196751041,24.36731154595622,-12.885793723003191,40.282717512381204,2,S02
10340,0.8052404495507312,1.6067617244995593,11.158633096317388,30.4338340517553,53.437944660196,0.24288911429453008,24.24154757656546,-13.966766955819185,37.306563675334964,2,S02
10360,0.8514522271851966,1.5470928768884877,11.157526091948906,31.60394643589579,54.61306672785777,-7.745026194308101,23.97441214125189,-12.980678389711994,39.256812082181305,2,S02
10380,0.7091357234775967,1.6793430589244334,11.095806946469486,26.53768725451988,54.44270409644629,-10.641157007976016,26.48514543039821,-12.774892572001882,37.649652633248365,2,S02
10400,0.7369787730730829,1.2773505116060313,10.991542667839092,22.0349588754396,49.07088189109903,-9.06453990659228,23.529601975182132,-12.417943366325996,38.73098225675473,2,S02
10420,0.5614470375330534,1.1419973775707195,10.735090940204813,17.206117800547357,36.102063345137346,-14.11791370011949,25.01366146880416,-11.759126489718508,38.3558011626356,2,S02
10440,0.2810418983383356,0.8748703887430587,10.606228978446342,11.596563489703083,26.958267677047097,-21.08975320362658,24.363819649851372,-10.386381309895844,38.364660380574584,2,S02
10460,0.18243737036032015,0.5251697405392988,10.599629852127894,5.846665370763694,21.656568848482266,-22.696904201651552,25.578719460195693,-10.594540367490984,38.326100101508324,2,S02
10480,0.1984395314617487,0.5732013291062754,10.437093363319015,3.655423036667379,14.32405560108221,-19.255804824749784,24.887736109265976,-11.111336579783085,37.66773883771533,2,S02
10500,0.1882504644252081,0.28449675951839815,10.334464937058478,-2.617186261137465,6.127010453344938,-17.936465558015335,25.83859364289451,-9.677378975720531,37.29880110431934,2,S02
10520,0.23385044398086333,0.13878226753570477,10.219442640584745,-0.2872159661082958,3.5700416689902976,-24.49596457681497,27.54315309774117,-11.155634553367015,36.094603658567195,2,S02
10540,0.1589096754496499,-0.15315813898822206,10.106114135349943,-8.620198040912925,-6.62552478946606,-11.339515116539905,25.78974784145442,-10.757730246755761,35.209010534360175,2,S02
10560,-0.022856681431250456,-0.22177935203114313,10.001779304492363,-8.250153073561489,-10.122716907975375,-14.341993988198737,28.1585721955462,-9.035739077587927,37.270369286086506,2,S02
10580,0.0689859746972007,-0.5714822253294034,9.902320980664461,-9.797969995389973,-15.441577678023158,-7.67233984900145,27.76741380235229,-10.237563820268228,36.70178703714306,2,S02
10600,-0.18168219978999237,-0.8303380806293892,9.801761623893839,-16.073940261602097,-25.27426910924045,-3.1076998081905054,27.749218873656062,-9.462709287118493,36.2409287680219,2,S02
10620,-0.18813698164502865,-1.0802320520484912,9.716226733075846,-21.084352524131024,-26.72054342834553,-3.767974521110029,27.839850796153954,-9.432229331594954,35.84386723254251,2,S02
10640,-0.25921476527679166,-1.2441128013810923,9.364025094473753,-28.931201019234216,-41.09838173858271,5.9001944549935965,28.293199740263706,-9.282504762856822,35.02169523294644,2,S02
10660,-0.5363769243375198,-1.5567834830257397,9.101403139168227,-38.49094870885611,-51.96017097005321,5.06366013175475,29.720547369518513,-9.877168836343937,36.20569951572852,2,S02
10680,-0.5552325379339876,-1.6252257405426016,9.135146543069524,-36.85106700633326,-53.468395163133984,14.030905367560983,26.577350646904474,-7.412476215859806,35.51872234459094,2,S02
10700,-0.7142438214248371,-1.7541586094065647,8.988727551561723,-41.91484065206261,-64.47898010771786,14.270990733475356,29.765814024678807,-7.86553248785765,35.54661427521934,2,S02
10720,-0.7009573854323566,-1.6217946834691503,9.09336957493261,-40.98749205210573,-54.724840412170735,19.365203621256583,31.302265976206574,-8.74713846163608,38.23447056695724,2,S02
10740,-0.5558350084014345,-1.405884971128185,9.25714129330257,-35.41277435941491,-48.02080841369677,17.72593325493881,31.721372803515624,-9.922053314490856,36.572698656591584,2,S02
10760,-0.3802130263060237,-0.9726726094372649,9.604914190742077,-31.740952392376453,-31.024511120877083,20.35272469761067,30.33890321101923,-11.0328650682372,36.662052569334115,2,S02
10780,-0.09816578192132003,-0.6045535010596665,9.83957423515344,-14.79161023201398,-16.50465753669621,20.565414747064676,30.809622073519527,-10.249884650461436,38.28493902428379,2,S02
10800,0.03541154958718225,-0.006706408204796108,10.216321903080305,-3.305771525827053,-1.183333161007552,15.673309430092091,29.42446671601859,-8.582264477376292,38.1684664722111,2,S02
10820,0.3578768638495001,0.531427054785192,10.59440674450953,-0.43350465956480466,23.531965669711212,16.53023775720515,30.664359908776802,-11.027503262367272,39.8173754707468,2,S02
10840,0.5585738791117437,0.8948633986272079,10.858681439346931,15.865243571914672,34.969651382500906,8.129107535585192,31.598561269602826,-9.044752740885151,38.43056629707701,2,S02
10860,0.7787811132780674,1.2974566158505492,10.969559942376755,25.065116885452227,47.067807483850906,7.61917400199485,29.95491200289894,-9.547111128667066,37.69903813463202,2,S02
10880,0.755457021285671,1.534104863332189,11.294320560172766,30.1882512057612,54.4194355670658,-0.4809859976853673,33.3394002635997,-13.042759940365013,38.62984274002921,2,S02
10900,0.7675696125684927,1.639364954279384,11.189869751151775,31.30327026572102,57.83336128997131,-2.5386874224169342,32.08198192475933,-12.891112913953158,40.68497052459148,2,S02
10920,0.8493017182449406,1.6294795514082396,11.192756902667135,31.761808978563135,52.70949618169575,-3.134230202385522,32.8086831819717,-12.931209968305167,38.880180944347906,2,S02
10940,0.8495467569277475,1.39906143810441,11.077163837152101,31.18889290347963,45.58634166283795,-7.129216955047413,33.9722867481252,-13.850924276491124,39.6551249104111,2,S02
10960,0.4311074430907732,1.2036425734673655,10.833596369679881,21.756840738642616,34.74347610584492,-18.83120012972031,33.50699437481295,-12.179678882743959,37.95282967651366,2,S02
10980,0.4082762321095641,0.8671351428207439,10.795547181421018,12.436345384382363,30.399502550704387,-14.201069142448885,33.29494090625347,-13.14380905567268,39.383109782832605,2,S02
11000,0.28847443614849455,0.583734828199461,10.549786852699656,8.162971215738882,21.63560666007837,-20.953620688710807,31.432082652251488,-15.797042775023172,35.82747934116784,2,S02
11020,0.13086583229858356,0.4456044015364477,10.370523541952934,1.2912256822123016,12.419719901789374,-18.610682740441735,33.95102816113652,-17.37020088119494,36.978972048969034,2,S02
11040,0.18469169135537872,0.10779213158671727,10.238430004909135,1.3353098517990256,2.9169401404558286,-20.5434713832819,34.407308932039435,-15.586899786698446,35.651655736462175,2,S02
11060,0.22838925606484414,0.11879083136213589,10.168410509851217,-6.607649307149632,3.8087934394634173,-20.43534236670798,33.911091847239206,-16.35374404491092,36.545216287662555,2,S02
11080,-0.003046616111639408,-0.23901078644004695,10.078779140312935,-4.3980426652549305,-7.136010103730361,-19.061982883513213,34.31570387934187,-18.35643290353593,37.586900745395056,2,S02
11100,0.1261366178096252,-0.2751321304218425,10.075669622934571,-7.460974351376224,-10.231932241572238,-13.421055125475197,34.41986649912701,-17.744480059231314,35.80579068295434,2,S02
11120,0.10099120673712561,-0.46481120080704824,9.826238110521388,-14.12304831411582,-13.139213026420347,-11.303537186280968,32.72704561633864,-18.05519726679947,37.166681256571316,2,S02
11140,0.004300440027494121,-0.6668517045623128,9.901324190849234,-16.751611585201516,-24.404620651724354,-2.0855484735650327,34.50822345362603,-18.741478966674176,34.33817863049627,2,S02
11160,-0.2756057276476216,-1.0684642022089257,9.530465023427926,-23.147457126482124,-34.52097936173951,0.20436496463893272,33.85518719340989,-21.853112597353146,35.55688299451593,2,S02
11180,-0.1679338618039581,-1.2397482949063423,9.3943567181187,-25.89252212599177,-36.33489776822963,1.791942229198555,34.00885757223027,-19.149321326803367,35.06932881285129,2,S02
11200,-0.5283218860364299,-1.4971523508780151,9.244741045748095,-32.92057188144643,-46.31303820978782,13.343412851813653,32.62660401419885,-19.532277476157418,36.17631317452439,2,S02
11220,-0.7251838477087419,-1.6545151906897484,9.054595146550128,-31.3775913952885,-52.076071338764706,13.236452732832893,32.48407245788785,-20.555187720518404,36.98971951769366,2,S02
11240,-0.6765429227963111,-1.7367884176861614,9.062673645738869,-37.779350085495594,-58.388591512137296,10.217376790910428,33.412644537891424,-21.033582161305688,35.12040821280778,2,S02
11260,-0.7025523311285996,-1.5822178931168707,9.200793929548505,-40.60296741037234,-57.95422028930102,17.750123380791287,33.747119358863756,-20.93853886896225,36.23653904909343,2,S02
11280,-0.5974022127158489,-1.4185129184946552,9.333408412551824,-36.05778433450604,-46.22759644778136,20.79659933561399,32.95687220342572,-23.299852228262353,36.945276173788436,2,S02
11300,-0.383630195075517,-1.0839699079308676,9.474685135430716,-27.55720598359832,-30.954386791697235,21.64471233575644,31.054689999972872,-23.270334670209373,37.34418879507058,2,S02
11320,-0.052362850422704055,-0.6694735276841417,9.666036272976097,-19.706609938660943,-13.673647736141177,20.06416315023693,33.613970460499594,-22.215993442281537,37.594949698460134,2,S02
11340,0.09807440632021426,-0.04337530005719456,10.170402769543347,-6.250077797383176,-2.360434368740754,20.72144936995621,33.141287408445166,-22.306691705878308,39.75713615917097,2,S02
11360,0.2616790911284775,0.5509058520948855,10.668376033843657,8.805180936344666,18.517370246937215,20.25382735928882,32.33402495414509,-25.308523443105706,38.43596943255842,2,S02
11380,0.7370407767191532,0.9330715232401248,10.73459657256485,21.273841951435678,35.55919663932459,9.989409702825391,30.94307722753183,-24.684748122872886,40.04530745056111,2,S02
11400,0.9509586379791538,1.2013296465480003,10.945874423203108,25.86403041897555,44.60635280724347,5.097851980203966,30.51176053740992,-25.126118870039377,39.16030236295647,2,S02
11420,0.7470939984169066,1.4801635233390433,10.999098088373351,25.122886443059993,52.60686672027973,2.4226290999263203,31.320368124339428,-24.77325692628885,39.62166338688884,2,S02
11440,0.9714622467066567,1.5931878092026217,11.00502392241104,28.191920492915454,52.904891479166054,-3.0769524970024253,29.839807099723075,-27.246034126656898,38.78414032841825,2,S02
11460,0.805125608264149,1.5573184327841296,11.260373436814128,30.641753524197068,52.58906587188934,-3.7916547236619436,30.844471662330296,-26.413966851190963,38.768821312517,2,S02
11480,0.5394222527951457,1.4231392819013968,11.135968744585622,23.71063483663355,43.45996450392591,-5.613406108288786,29.18595016950234,-25.791344786139682,39.42375051323214,2,S02
11500,0.4487454862708763,1.1084207624421107,10.832412670176366,18.418817140416092,40.877499653158736,-18.43948177856314,31.677266814713878,-26.498351623816593,37.99402587600396,2,S02
11520,0.3669406955972818,0.8831311269311255,10.790509635239433,8.370267368198878,29.29957000350347,-14.37738109444236,28.87589145952459,-26.362611641042328,36.123325241662776,2,S02
11540,0.19540693870685563,0.6127895136710932,10.337515976882509,6.238397739124696,19.34219331102174,-21.070811761478254,28.864065273638246,-25.91660335700003,37.39555774766393,2,S02
11560,0.11871394941587411,0.2754043181889302,10.405010875804232,5.044647925109747,8.642576486528094,-19.295181212301387,29.07982622043374,-27.649159482423357,37.38141060585495,2,S02
11580,0.1359993176801998,0.258209509880559,10.263772196566968,1.0838052897135269,7.600658967398297,-16.743371534752566,28.3882576761899,-26.80390373561734,35.769717279032776,2,S02
11600,0.11623784745086095,-0.010917762553269691,10.195381991689223,-3.8072459631046147,-0.31013731004770473,-21.24597071730725,27.861521606866866,-24.924495376984844,35.60509617619171,2,S02
11620,0.16709609640692824,-0.18830779749222043,10.006350437023546,-0.21427902507509344,-6.59177235103309,-16.589480986545055,28.358195472429784,-26.173982522956848,34.17597629687141,2,S02
11640,0.061896175414989124,-0.2344177312658538,10.030755355980155,-6.646928125991373,-10.698651251617731,-17.223073656884292,27.708969551572807,-25.48720251430893,37.053912219491906,2,S02
11660,-0.07042704707256678,-0.5372741401586036,9.874765235200801,-9.0705566177655,-21.627478194247953,-6.557699847575737,26.867866529497768,-26.006945956836763,35.32430882690467,2,S02
11680,-0.1524446492346512,-0.7316600066264509,9.690245061930332,-10.184301972552745,-27.317433584257568,-4.488350561897008,26.639991046230246,-26.966846646440853,34.8103796723907,2,S02
11700,-0.3607542050971533,-1.0089642195273614,9.612085251732886,-24.122053828624892,-32.101476660215226,-2.1864366578664396,28.054533521811084,-25.832874701143663,35.72357112663626,2,S02
11720,-0.1897179644658423,-1.2429524974155404,9.29011456219866,-21.14733718359903,-40.411247849111874,7.614389639855494,26.345512139737597,-24.089078302368513,35.547268624216954,2,S02
11740,-0.4607838619919955,-1.5024193265757506,9.236645644449187,-35.30843800639913,-47.35158334326187,3.5765969968547817,28.314472922894566,-24.37843962536781,36.35946322583811,2,S02
11760,-0.6120979240000733,-1.5439942061999756,9.031358670858546,-40.42207629205906,-58.48496736013037,13.606488540113986,24.482591748562207,-21.65408051555464,36.942228223138414,2,S02
11780,-0.6328248374284827,-1.758909839106627,9.183385891298041,-41.30891410560923,-57.17704414987041,15.140434887858989,25.14374630945454,-24.087256687497565,34.29196566824011,2,S02
11800,-0.6419819417793763,-1.6054951529920694,9.114966528262007,-35.703143844334626,-50.448901759503286,17.44895859765264,26.846445915026415,-21.67905644796474,36.476774022612815,2,S02
11820,-0.6457842486474715,-1.4781170817696951,9.176600091320909,-30.622588937787654,-46.65788529263955,15.94040139591828,24.393777134405212,-23.190406468954905,38.09612735610373,2,S02
11840,-0.47162554361824904,-0.9026729127772379,9.501951357451746,-25.935808604640695,-35.56332206139948,26.519628460949523,26.103518817190512,-20.81102667713762,37.288879889887724,2,S02
11860,-0.14150092311384393,-0.5570844289419785,9.77990284234919,-13.768248659855068,-21.24135389787089,16.590365857926475,24.63816529676688,-22.127516876724272,37.97812968973329,2,S02
11880,0.11480727007387954,-0.13354733156034218,10.231614740918685,-4.690137306922279,-3.9928158420579383,17.053611294885126,25.998080093233803,-20.125999357134322,37.316076752072064,2,S02
11900,0.3540825923355496,0.5120359025986074,10.53957997608126,6.072920302658349,18.56456614202055,15.056080098750721,22.8831008445977,-20.795661902130007,39.14638026973614,2,S02
11920,0.5783189905461431,0.9403586935195025,10.851124036622327,13.881943160042482,31.674569882289585,12.048427190138781,26.91689135877451,-18.802393083199153,38.73004327573282,2,S02
11940,0.6350537063350403,1.2286725942105001,10.84368547411081,30.211528494007272,39.31996870237533,10.42253428053967,25.022235177673746,-18.905081792710696,37.77474541384188,2,S02
11960,0.91816763877502,1.3721127471380266,11.132954462987518,29.52189450666579,51.79889112583632,0.4940165944987259,24.801712755910657,-18.49245339330124,38.35839907996717,2,S02
11980,0.9286363763604378,1.6024458807440631,11.223596688632322,28.725066167631145,55.093346253491205,-2.2119576753022883,24.608079378554997,-16.84235619897471,40.063813695271236,2,S02
12000,0.8028883893723922,1.5386731203987216,11.015102667691318,33.35432934220803,55.70215944322153,-2.9450582860153367,23.361267706898737,-16.897250902540783,38.843227940083025,2,S02
12020,0.7040414312493642,1.2757105972457579,10.982762369304405,27.94445720880943,47.67899934749997,-9.84046602326511,22.86747749503612,-16.331505208572935,39.1241995095838,2,S02
12040,0.4480483833445982,1.0921271691837529,10.88501913501435,18.771251994785104,30.662514634535615,-12.861795416338298,24.58287435295681,-16.812551585705776,38.2373758045089,2,S02
12060,0.454903731442842,0.7858045313579092,10.713362950012964,10.755545284336826,29.299290745661537,-20.252338730674275,23.9444250018337,-14.584994937621415,39.23124346574245,2,S02
12080,0.28283388351449623,0.7039564547518373,10.467629513166155,10.660083675991164,20.03567110982157,-17.541262709403824,25.78499813809825,-15.450343343952742,38.78626359755353,2,S02
12100,0.19646527640259437,0.3684541266996277,10.322371251584462,3.2223771842871773,14.774014067176669,-17.565473307675298,23.232179384441572,-12.576832517719224,37.39774695373999,2,S02
12120,-0.03058328910086988,0.18649488106995737,10.361152623137006,-0.7596832622961158,1.8146986384552115,-15.76657388214545,23.7956542899459,-15.106324405827637,36.29153469915782,2,S02
12140,-0.041217893498815994,-0.12517877793424914,10.209176070728752,2.526606281386326,3.810756935511768,-16.90249833822386,25.585247155901733,-13.16671877511377,33.15388812454316,2,S02
12160,0.11250589617030862,-0.21486597377666186,10.179796400747346,-8.08304919906965,-6.00417245988172,-16.59377857146672,25.37043701003526,-13.455841007387189,36.17875007596661,2,S02
12180,0.07317562779715064,-0.44894083930424106,9.965792201024174,-10.863365121717539,-6.84806759606855,-14.779312123943493,26.44038399289241,-10.258339683778207,36.81160150691606,2,S02
12200,0.09687082004298717,-0.44991612348755705,9.946573249282878,-12.506056230634066,-20.278406924025173,-11.419288638700404,24.621435092901415,-14.026621544517175,34.93448493182934,2,S02
12220,-0.12408724097926138,-0.8612154878608149,9.959285694071234,-10.69744301967985,-24.859351612003426,-6.817740088844302,24.36730214259412,-12.259602766239853,34.7120874503685,2,S02
12240,-0.1981694009279066,-1.041400745878117,9.473923636521032,-23.73335935379594,-29.758288978255155,0.18477101877769364,24.543783710581955,-10.737538339317016,35.003999193410536,2,S02
12260,-0.30706481573962885,-1.4094925066041093,9.242454568625941,-29.037978258991398,-33.909876585311444,0.6593298727814204,27.09711819426702,-10.008494935543178,36.027881025222975,2,S02
12280,-0.356917840332183,-1.6322070892104688,9.287369920775511,-30.17014367325564,-53.00191803783536,4.464456746744245,24.39635040574752,-10.464876383561677,38.03134407736407,2,S02
12300,-0.42241461755011056,-1.606212595669739,9.185185257640653,-35.40682462848017,-54.465229321522905,12.322497389368417,27.679964352356304,-9.785149153114649,34.590399923707764,2,S02
12320,-0.6912894329188983,-1.8155583382341982,9.094529456282759,-47.93408880117298,-55.773761093423445,15.597522169431445,24.692817109006715,-10.248210927714053,36.659388128531084,2,S02
12340,-0.6012344350973632,-1.5636941762237913,9.033036498783298,-40.06087465131627,-54.69160770099587,20.330957216680584,26.899304496823362,-10.35497851794251,36.14909371758686,2,S02
12360,-0.6853647773588573,-1.339734063714488,9.263146527333863,-34.299464171974826,-48.29733718763496,19.03062339344062,27.12950016997146,-9.737185058531791,37.98437180743564,2,S02
12380,-0.40993075139006274,-1.0044434536248696,9.62633259899255,-25.547044727783753,-28.053240908542673,19.608827483389454,27.648287280860938,-9.27745926172453,37.56829976896343,2,S02
12400,-0.13479815489774769,-0.5836576144712367,9.736055451724726,-18.546817359554275,-21.06294315141329,21.552915387893847,27.997704798295157,-8.145798348053013,37.20542288947118,2,S02
12420,0.08172069145594035,0.04061072422175037,10.115540239148636,-6.687549866052389,0.7380540143963328,13.703439064018431,29.178137236808556,-7.207205833595882,38.853897061467684,2,S02
12440,0.2851014790024644,0.47595742035221905,10.639066606499743,4.143806362343416,14.815879110620767,14.905150562791226,27.92214726330443,-9.129605992212568,39.61103067698632,2,S02
12460,0.5951499174156863,0.9517874324112048,10.865876069652364,15.183131450374667,33.25356021340414,14.483947049368245,29.220406476673052,-9.452304160228607,37.714114222227195,2,S02
12480,0.7674658932896825,1.3682181983476305,11.057394645828081,29.8815364485089,47.54538663809502,0.6354649564977718,27.429032633439746,-7.847359442786336,38.93351579559674,2,S02
12500,0.9028567457100258,1.569206099140191,10.990355778393106,27.41141601109513,54.21309469690004,5.355978770827644,30.965744705510655,-9.18907827413395,38.99042477716882,2,S02
12520,0.927359634365819,1.643178718985958,11.089701966709864,33.26692196878054,50.71514043237609,-1.8227972374145582,29.629091300523335,-9.67168975517314,40.54362437503386,2,S02
12540,0.8222405440582314,1.4761935468254204,11.280927955456658,28.741479542147356,55.490955376883406,-8.021500600413221,29.502365393851434,-10.078511890437955,41.545360096278756,2,S02
12560,0.624675228743797,1.3870456308348555,11.0804090397813,29.036761168944768,47.97716033111553,-13.169155729484968,30.51383784643061,-6.935256560980564,37.236754480896195,2,S02
12580,0.6190684104424768,1.184214529475234,10.890920280142481,14.514657702417583,37.89361100903495,-13.409969381621236,29.982285381226852,-9.437899759237979,39.73341438791512,2,S02
12600,0.4146786131929404,0.7810080033472124,10.579280127006568,9.169292758004318,28.663202678778674,-16.528888691551636,30.315988555331415,-12.152993427926006,39.85876874503303,2,S02
12620,0.20830495868331433,0.6315452478509453,10.545247300054356,13.800910712697249,24.09573342455649,-17.093994220760095,31.332370031454136,-10.970529550652778,38.32010577370386,2,S02
12640,0.15491675346847364,0.3472770791303768,10.437393820576776,-1.742142313199949,10.07315017351854,-20.19391440920745,31.864344325859307,-9.47611104566111,36.97017386973558,2,S02
12660,0.048011974395058436,0.0571198164183509,10.323923953641025,-1.2183085337659305,4.820555215051534,-16.3242099493807,31.80970394659875,-9.786704791720384,38.0232877799687,2,S02
12680,0.052904091027087305,-0.04645898147537978,10.178892043098928,0.38351779379045414,3.694934830312481,-17.392154729181193,32.520173784800505,-14.276615257137653,36.229731716203396,2,S02
12700,0.04304653567759831,-0.1895939267216302,10.062625001044342,-6.380375962964606,-2.7117723589352956,-14.218678620857078,32.006920575746975,-10.281065981345778,36.82375909298049,2,S02
12720,0.05648816336856027,-0.41544095283745985,10.01840836015108,-3.797978716057294,-9.84618971031477,-10.188805288085582,32.09345726431624,-13.44387947432842,35.5764829290858,2,S02
12740,-0.01794373187737079,-0.6094913344840136,9.87882138023463,-7.569688776996722,-15.127764659772005,-9.22869877594414,33.034405870807696,-13.370373310751644,34.79137683285731,2,S02
12760,-0.16769011324622615,-0.7467836796837006,9.783386504786456,-16.07614005039694,-22.924243626466282,-1.536544540295535,31.13244566558929,-13.230487292779657,35.118640346901586,2,S02
12780,-0.10772548836847143,-1.0268911030283148,9.67370501822793,-21.48997679548385,-36.24375980065111,3.4238218226675303,34.468996257646765,-13.760943567662085,35.80086444478833,2,S02
12800,-0.42547632725860407,-1.350355163701587,9.475799718744042,-27.06788484681517,-39.11375344149384,4.9107423016027205,32.36473301851764,-13.24711178564327,33.66318107081226,2,S02
12820,-0.5739219831707452,-1.544678129257606,9.270034371714793,-32.72354956735773,-53.393444547032104,11.636687553752044,32.55817355586066,-15.611189945306627,35.08892441569228,2,S02
12840,-0.6066480161550665,-1.7973924413403264,9.109567287207222,-34.54668206068527,-51.60273266628997,10.636237166247744,32.462589095858974,-14.812746025182879,35.70684226586691,2,S02
12860,-0.7712213677753457,-1.7095471675156246,9.19413412455853,-37.00406797211152,-54.78417941686688,18.75965320188731,34.022042130358535,-19.06957354479284,36.18546525566987,2,S02
12880,-0.6012459763041855,-1.6230946935498798,9.222351378924165,-37.12101097386765,-52.47236597962523,19.22215297308741,34.50901052456935,-17.432472499132828,36.405207315082194,2,S02
12900,-0.43686342577437765,-1.3728966310908048,9.391361242274092,-31.62282061808025,-48.69949618206459,19.665407726683416,32.36114264193063,-19.953778782256126,36.333820032358204,2,S02
12920,-0.37727952300641465,-1.0424476312488324,9.453118132917787,-22.175698796875523,-32.82309775768666,20.652923627671868,33.612692093189494,-18.654485765092048,37.90776171524372,2,S02
12940,-0.1193850408571103,-0.6727092962939847,9.833442178963702,-14.70097921694926,-19.50994176827264,20.971405426166342,33.8023649712656,-19.55848936290574,39.47704977352622,2,S02
12960,0.07446597069528726,-0.022945865766010896,10.27067731440975,-3.6928592452477083,-1.7251735588624046,15.193884180532025,34.78998866990839,-18.26296559836947,38.71437652434206,2,S02
12980,0.27242796844473605,0.4313553886020223,10.700755117627008,8.997774567505576,13.868902678760303,9.89775685152844,32.38659709224079,-22.360169033610525,36.663640893524104,2,S02
13000,0.6220837585788194,0.9415406968391518,10.70433012708299,17.550102511773172,39.867010739184245,16.40311948416049,33.38600038145205,-21.554521845039027,39.56139644670846,2,S02
13020,0.823975759592806,1.2446135946602603,10.911358549815956,26.375799603327735,43.8024413407417,8.887400130193077,33.804676052037266,-20.262019705457696,38.50937156816189,2,S02
13040,0.7948513991514032,1.4619035964301468,10.963848773256935,36.00043745449729,50.55870784724073,3.3093439759794308,32.62243073480837,-22.476741352068856,41.41761570048805,2,S02
13060,0.9111771639328485,1.6093643046077242,11.087083421507668,30.383350356619726,56.51362420440603,-5.3610556052326555,32.40665102411683,-23.03219805752162,38.7691429354191,2,S02
13080,0.7215933517696284,1.5302367983853125,10.993915567018474,30.349024047549516,54.687249162461754,-2.046391809677712,32.69063729231547,-21.752723659862838,37.742008445551264,2,S02
13100,0.7349487988658071,1.4002857285972357,11.092139356200747,28.873474805975935,54.10701823051248,-12.605365346851377,31.051707126591534,-24.30691613237077,37.7122966991793,2,S02
13120,0.6016683323699146,0.9112135865128401,10.877156969692676,19.265738829126786,40.6188780574734,-16.131432087514735,32.04370208399651,-24.30394806866352,39.42354663907977,2,S02
13140,0.322196609669079,0.9724558464416502,10.685227237121843,9.318943890029516,22.91417881375516,-20.92492885543615,32.19536162650995,-21.637536477830473,40.316075645719586,2,S02
13160,0.24545311112978738,0.6644951167082627,10.47942166802645,3.3487072505015414,13.844763037659568,-15.529357872735877,32.60357454130016,-25.009507624171878,36.70916805247813,2,S02
