timestamp,ax,ay,az,gx,gy,gz,mx,my,mz,label,subject_id
0,0.1,-0.07,10.145759109311742,-4.2,-1.2,0.6,30.20828371076791,-16.462336763223806,37.937902799698115,6,S02
20,0.1,-0.07,10.145759109311742,-4.2,-1.2,0.6,30.686906516400697,-16.402336568891883,38.084196645615386,6,S02
40,0.1,-0.07,10.145759109311742,-4.2,-1.2,0.6,30.24875305133963,-16.168663900034236,38.57692595758153,6,S02
60,0.1,-0.07,10.145759109311742,-4.2,-1.2,0.6,29.851456943239103,-16.399199595571773,38.12509718298493,6,S02
80,0.1,-0.07,10.145759109311742,-4.2,-1.2,0.6,29.36378515430338,-16.113817807563244,38.26818334787494,6,S02
100,0.1,-0.07,10.145759109311742,-4.2,-1.2,0.6,29.664898631335813,-16.046167981438444,39.14468632610373,6,S02
120,0.1,-0.07,10.145759109311742,-4.2,-1.2,0.6,29.86359236736064,-17.477941318136903,38.58115556526647,6,S02
140,0.1,-0.07,10.145759109311742,-4.2,-1.2,0.6,29.26966392262908,-17.032606665162923,38.12284863371159,6,S02
160,0.1,-0.07,10.145759109311742,-4.2,-1.2,0.6,29.665177097026604,-15.38518167222128,37.773923703331334,6,S02
180,0.1,-0.07,10.145759109311742,-4.2,-1.2,0.6,29.256609382482928,-16.152790218238003,38.11624156779175,6,S02
200,0.1,-0.07,10.145759109311742,-4.2,-1.2,0.6,29.70656023249869,-17.833054736721664,37.74762896542807,6,S02
220,0.1,-0.07,10.145759109311742,-4.2,-1.2,0.6,30.246263900519594,-16.854229214426198,38.33332897573494,6,S02
240,0.1,-0.07,10.145759109311742,-4.2,-1.2,0.6,29.862931035092963,-16.387491796858264,38.34201320624539,6,S02
260,0.1,-0.07,10.145759109311742,-4.2,-1.2,0.6,29.356882958200163,-17.135186755489446,38.04212270233108,6,S02
280,0.1,-0.07,10.145759109311742,-4.2,-1.2,0.6,30.356351518904216,-15.312071025568505,37.94592313644931,6,S02
300,0.1,-0.07,10.145759109311742,-4.2,-1.2,0.6,29.757438122325063,-17.824257664281568,37.940908412546,6,S02
320,0.1,-0.07,10.145759109311742,-4.2,-1.2,0.6,30.06739123402203,-16.848039314588462,39.22170528847408,6,S02
340,0.1,-0.07,10.145759109311742,-4.2,-1.2,0.6,29.609688810429773,-17.012154846233937,38.18340369986617,6,S02
360,0.1,-0.07,10.145759109311742,-4.2,-1.2,0.6,29.340745982341737,-16.789212648593967,37.628818172099436,6,S02
380,0.1,-0.07,10.145759109311742,-4.2,-1.2,0.6,29.370791753568618,-16.019217722279983,37.93126880971332,6,S02
400,0.1,-0.07,10.145759109311742,-4.2,-1.2,0.6,29.46194036586569,-15.772205939623452,38.23150875707284,6,S02
420,0.1,-0.07,10.145759109311742,-4.2,-1.2,0.6,29.216205475313018,-16.602242201495734,38.09439969554403,6,S02
440,0.1,-0.07,10.145759109311742,-4.2,-1.2,0.6,29.93796125381138,-16.655624406769704,38.52906770263539,6,S02
460,0.1,-0.07,10.145759109311742,-4.2,-1.2,0.6,30.22338772183118,-16.47210489010832,38.66478946911794,6,S02
480,0.1,-0.07,10.145759109311742,-4.2,-1.2,0.6,29.62539769579984,-15.705341154815823,38.041365979151266,6,S02
500,0.1,-0.07,10.145759109311742,-4.2,-1.2,0.6,29.576732207742175,-16.83173107113456,38.42346350625553,6,S02
520,0.1,-0.07,10.145759109311742,-4.2,-1.2,0.6,29.970978253396414,-16.700728162358438,38.5969821345969,6,S02
540,0.1,-0.07,10.145759109311742,-4.2,-1.2,0.6,29.06999196499917,-16.440695947197767,38.118635146677974,6,S02
560,0.1,-0.07,10.145759109311742,-4.2,-1.2,0.6,28.680718708670547,-16.8157890625273,38.12906020125958,6,S02
580,0.1,-0.07,10.145759109311742,-4.2,-1.2,0.6,29.97119609509519,-16.3818103245668,38.8961982859743,6,S02
600,0.1,-0.07,10.145759109311742,-4.2,-1.2,0.6,29.3752570152333,-16.693216256485,37.701849770968124,6,S02
620,0.1,-0.07,10.145759109311742,-4.2,-1.2,0.6,30.15167754340241,-17.052731871664598,38.5011977014083,6,S02
640,0.1,-0.07,10.145759109311742,-4.2,-1.2,0.6,29.02791760104546,-15.674023961389334,38.2489398278676,6,S02
660,0.1,-0.07,10.145759109311742,-4.2,-1.2,0.6,30.256704969301957,-16.491513585530754,37.96866877201725,6,S02
680,0.1,-0.07,10.145759109311742,-4.2,-1.2,0.6,30.03818483187645,-16.069705122737034,38.10319809405287,6,S02
700,0.1,-0.07,10.145759109311742,-4.2,-1.2,0.6,29.909391601555523,-17.694793909773274,38.02702928270193,6,S02
720,0.1,-0.07,10.145759109311742,-4.2,-1.2,0.6,29.99706428721258,-17.758167685318963,38.571861182855514,6,S02
740,0.1,-0.07,10.145759109311742,-4.2,-1.2,0.6,29.061496251789873,-16.54429185412978,38.57692118111889,6,S02
760,0.1,-0.07,10.145759109311742,-4.2,-1.2,0.6,29.632692363528303,-16.839191832232174,38.188411042884155,6,S02
780,0.1,-0.07,10.145759109311742,-4.2,-1.2,0.6,29.19902125446483,-16.87304984374072,38.587949791395815,6,S02
800,0.1,-0.07,10.145759109311742,-4.2,-1.2,0.6,29.596903367692345,-17.019266648984228,38.45924322631002,6,S02
820,0.1,-0.07,10.145759109311742,-4.2,-1.2,0.6,29.933116774670815,-16.393930858452553,38.63400875983882,6,S02
840,0.1,-0.07,10.145759109311742,-4.2,-1.2,0.6,29.709936109167185,-15.82569537798174,37.94033182117353,6,S02
860,0.1,-0.07,10.145759109311742,-4.2,-1.2,0.6,29.47608960004041,-15.929275113636704,38.36750269236806,6,S02
880,0.1,-0.07,10.145759109311742,-4.2,-1.2,0.6,30.253809745749933,-15.779414917004365,38.51526796735504,6,S02
900,0.1,-0.07,10.145759109311742,-4.2,-1.2,0.6,29.526217266745384,-15.505459592589105,39.03345729154894,6,S02
920,0.1,-0.07,10.145759109311742,-4.2,-1.2,0.6,30.233297280661166,-16.385752516445613,38.33029818748949,6,S02
940,0.1,-0.07,10.145759109311742,-4.2,-1.2,0.6,30.283316359539516,-16.71619394821127,38.37505216642078,6,S02
960,0.1,-0.07,10.145759109311742,-4.2,-1.2,0.6,29.729813013429528,-16.695242995570354,38.728854215405164,6,S02
980,0.1,-0.07,10.145759109311742,-4.2,-1.2,0.6,29.452423322770972,-16.5131927509887,38.36245236606223,6,S02
1000,0.1,-0.07,10.145759109311742,-4.2,-1.2,0.6,29.239595643695818,-16.737477155900784,37.94777677505838,6,S02
1020,0.1,-0.07,10.145759109311742,-4.2,-1.2,0.6,29.254470023207947,-16.67519063645866,39.20995970609117,6,S02
1040,0.1,-0.07,10.145759109311742,-4.2,-1.2,0.6,30.102270987915,-16.713657390033333,38.26942552150966,6,S02
1060,0.1,-0.07,10.145759109311742,-4.2,-1.2,0.6,29.050894322521824,-15.506896351658717,38.28057661315417,6,S02
1080,0.1,-0.07,10.145759109311742,-4.2,-1.2,0.6,30.082058465450572,-17.065244893782854,38.253332184750555,6,S02
1100,0.1,-0.07,10.145759109311742,-4.2,-1.2,0.6,30.230426204431076,-16.541995428773973,37.697893339342976,6,S02
1120,0.1,-0.07,10.145759109311742,-4.2,-1.2,0.6,30.084385048028842,-16.280405794246533,38.19499710508112,6,S02
1140,0.1,-0.07,10.145759109311742,-4.2,-1.2,0.6,29.617235492369375,-17.506495149276454,37.30940807408767,6,S02
1160,0.1,-0.07,10.145759109311742,-4.2,-1.2,0.6,29.400318165171395,-16.63143905981356,38.372079173866055,6,S02
1180,0.1,-0.07,10.145759109311742,-4.2,-1.2,0.6,30.263462754643704,-16.578975248852387,37.7018699466195,6,S02
1200,0.1,-0.07,10.145759109311742,-4.2,-1.2,0.6,29.049061672696425,-16.310532788690175,39.14431995902012,6,S02
1220,0.1,-0.07,10.145759109311742,-4.2,-1.2,0.6,29.180369927485646,-16.295144252214183,38.22758107271732,6,S02
1240,0.1,-0.07,10.145759109311742,-4.2,-1.2,0.6,28.739736268083167,-16.167253631877816,38.14010321011087,6,S02
1260,0.1,-0.07,10.145759109311742,-4.2,-1.2,0.6,30.35242126717169,-16.65428593156176,38.823948729714935,6,S02
1280,0.1,-0.07,10.145759109311742,-4.2,-1.2,0.6,29.427266358338148,-16.675893897116815,38.186293766574565,6,S02
1300,0.1,-0.07,10.145759109311742,-4.2,-1.2,0.6,29.322699047235712,-16.071297864741542,38.87466941688673,6,S02
1320,0.1,-0.07,10.145759109311742,-4.2,-1.2,0.6,30.03931007339516,-16.13532504345147,38.66249244450476,6,S02
1340,0.1,-0.07,10.145759109311742,-4.2,-1.2,0.6,29.40329283023366,-16.131589510330755,37.595409698014294,6,S02
1360,0.1,-0.07,10.145759109311742,-4.2,-1.2,0.6,28.783494553882,-16.734724586684102,38.45300711166181,6,S02
1380,0.1,-0.07,10.145759109311742,-4.2,-1.2,0.6,29.771135211944223,-15.803699243658572,37.97075196253047,6,S02
1400,0.1,-0.07,10.145759109311742,-4.2,-1.2,0.6,29.966809092745315,-16.162536075378107,38.90341111537849,6,S02
1420,0.1,-0.07,10.145759109311742,-4.2,-1.2,0.6,30.179659846090733,-17.30513248898514,38.54010672675645,6,S02
1440,0.1,-0.07,10.145759109311742,-4.2,-1.2,0.6,29.788031050030295,-16.868392674350602,38.37650729084178,6,S02
1460,0.1,-0.07,10.145759109311742,-4.2,-1.2,0.6,30.259994605150997,-16.256747797244074,37.41287738026468,6,S02
1480,0.1,-0.07,10.145759109311742,-4.2,-1.2,0.6,29.81784974421871,-17.19404334289977,39.10853232107956,6,S02
1500,0.1,-0.07,10.145759109311742,-4.2,-1.2,0.6,29.725993531220485,-16.231049348772633,38.35069547545243,6,S02
1520,0.1,-0.07,10.145759109311742,-4.2,-1.2,0.6,28.872435602523495,-16.325291084649365,37.701082629756506,6,S02
1540,0.1,-0.07,10.145759109311742,-4.2,-1.2,0.6,29.675780633602947,-16.669339886911626,38.2136850931222,6,S02
1560,0.1,-0.07,10.145759109311742,-4.2,-1.2,0.6,30.16381394246131,-16.400835524776753,38.326771377423974,6,S02
1580,0.1,-0.07,10.145759109311742,-4.2,-1.2,0.6,30.1300914835851,-17.58249710593504,37.22615371995306,6,S02
1600,0.1,-0.07,10.145759109311742,-4.2,-1.2,0.6,29.763939008155013,-16.824257674902587,37.359631261770744,6,S02
1620,0.1,-0.07,10.145759109311742,-4.2,-1.2,0.6,29.878095190222105,-15.742918854083868,39.17426899592448,6,S02
1640,0.1,-0.07,10.145759109311742,-4.2,-1.2,0.6,30.25957810451936,-17.109206066352478,38.47839618224349,6,S02
1660,0.1,-0.07,10.145759109311742,-4.2,-1.2,0.6,29.26963027109514,-16.93446429673659,38.70599437358158,6,S02
1680,0.1,-0.07,10.145759109311742,-4.2,-1.2,0.6,29.23550695862621,-15.994591612839764,37.227286379895574,6,S02
1700,0.1,-0.07,10.145759109311742,-4.2,-1.2,0.6,29.521493580559383,-16.954903491315193,37.621094672912555,6,S02
1720,0.1,-0.07,10.145759109311742,-4.2,-1.2,0.6,30.256247060160586,-16.72782539714048,38.68546365867579,6,S02
1740,0.1,-0.07,10.145759109311742,-4.2,-1.2,0.6,29.84081359325985,-16.572634622477942,38.33282652595619,6,S02
1760,0.1,-0.07,10.145759109311742,-4.2,-1.2,0.6,29.80919795761129,-16.43847271176999,38.3884588430212,6,S02
1780,0.1,-0.07,10.145759109311742,-4.2,-1.2,0.6,29.638546239623903,-17.141570892546312,38.28052813195962,6,S02
1800,0.1,-0.07,10.145759109311742,-4.2,-1.2,0.6,29.693616969112036,-16.738360075306577,37.92073768389506,6,S02
1820,0.1,-0.07,10.145759109311742,-4.2,-1.2,0.6,28.946951286096013,-16.574853580418036,38.05307440382958,6,S02
1840,0.1,-0.07,10.145759109311742,-4.2,-1.2,0.6,30.387036770881995,-15.851697340475038,38.36333754974882,6,S02
1860,0.1,-0.07,10.145759109311742,-4.2,-1.2,0.6,29.511069265283737,-15.6746060867657,37.71398076229059,6,S02
1880,0.1,-0.07,10.145759109311742,-4.2,-1.2,0.6,30.20774285658071,-16.480785039038302,38.03248411680947,6,S02
1900,0.1,-0.07,10.145759109311742,-4.2,-1.2,0.6,29.656316859871637,-15.968978070550488,38.85984449307523,6,S02
1920,0.1,-0.07,10.145759109311742,-4.2,-1.2,0.6,29.571189167516415,-16.431838640820907,37.475348511847365,6,S02
1940,0.1,-0.07,10.145759109311742,-4.2,-1.2,0.6,29.56495639908644,-16.37995822859375,37.20739660188543,6,S02
1960,0.1,-0.07,10.145759109311742,-4.2,-1.2,0.6,29.187462278270797,-16.490121773916087,37.450167813321585,6,S02
1980,0.1,-0.07,10.145759109311742,-4.2,-1.2,0.6,29.943060395628223,-16.67126176564721,37.390156994947645,6,S02
2000,0.1,-0.07,10.145759109311742,-4.2,-1.2,0.6,29.297223065180873,-16.257931910157247,37.54514561431982,6,S02
2020,0.1,-0.07,10.145759109311742,-4.2,-1.2,0.6,30.4842626202758,-15.84314263033667,37.839876947322324,6,S02
2040,0.1,-0.07,10.145759109311742,-4.2,-1.2,0.6,29.070520975919553,-16.073835818739397,38.58018039236784,6,S02
2060,0.1,-0.07,10.145759109311742,-4.2,-1.2,0.6,30.066548217614486,-16.739770073421738,38.44032849008049,6,S02
2080,0.1,-0.07,10.145759109311742,-4.2,-1.2,0.6,30.010547602772302,-16.863372946162887,38.78552386206708,6,S02
2100,0.1,-0.07,10.145759109311742,-4.2,-1.2,0.6,30.105422276361907,-16.583117580641172,38.713855142196444,6,S02
2120,0.1,-0.07,10.145759109311742,-4.2,-1.2,0.6,29.334058356555868,-16.633120830291766,38.636734642747946,6,S02
2140,0.1,-0.07,10.145759109311742,-4.2,-1.2,0.6,29.326707394028233,-16.54332007964579,37.93704703713048,6,S02
2160,0.1,-0.07,10.145759109311742,-4.2,-1.2,0.6,29.986875415171678,-17.071609410643305,38.55626553900994,6,S02
2180,0.1,-0.07,10.145759109311742,-4.2,-1.2,0.6,30.067883441204902,-16.139670192449987,38.20506271829826,6,S02
2200,0.1,-0.07,10.145759109311742,-4.2,-1.2,0.6,29.350254833378465,-15.725824955769388,38.0857367927844,6,S02
2220,0.1,-0.07,10.145759109311742,-4.2,-1.2,0.6,29.5418142089249,-17.491322458873405,38.033562224431755,6,S02
2240,0.1,-0.07,10.145759109311742,-4.2,-1.2,0.6,29.313999861433693,-17.31488212803506,39.031418970358764,6,S02
2260,0.1,-0.07,10.145759109311742,-4.2,-1.2,0.6,29.527877604091294,-16.681265361574273,38.63605195894628,6,S02
2280,0.1,-0.07,10.145759109311742,-4.2,-1.2,0.6,29.07951760911869,-16.184356690782614,38.12931574700386,6,S02
2300,0.1,-0.07,10.145759109311742,-4.2,-1.2,0.6,29.750379169880777,-17.007725339321723,37.98576912520659,6,S02
2320,0.1,-0.07,10.145759109311742,-4.2,-1.2,0.6,29.952264565253294,-16.380019623624506,37.744640371519615,6,S02
2340,0.1,-0.07,10.145759109311742,-4.2,-1.2,0.6,29.40008077865414,-16.99246042966391,37.65747084132327,6,S02
2360,0.1,-0.07,10.145759109311742,-4.2,-1.2,0.6,29.779248540655765,-17.16397009011827,38.02817921634189,6,S02
2380,0.1,-0.07,10.145759109311742,-4.2,-1.2,0.6,30.034988181500307,-16.715371588138808,39.315250941285555,6,S02
2400,0.1,-0.07,10.145759109311742,-4.2,-1.2,0.6,30.215172169045545,-16.20027353839006,38.022820722878876,6,S02
2420,0.1,-0.07,10.145759109311742,-4.2,-1.2,0.6,29.272960423016578,-16.34475264402863,38.731632575102594,6,S02
2440,0.1,-0.07,10.145759109311742,-4.2,-1.2,0.6,29.31821343367401,-16.02549367320092,37.154931835735795,6,S02
2460,0.1,-0.07,10.145759109311742,-4.2,-1.2,0.6,29.74467739068023,-15.741261833017068,37.16667493393394,6,S02
2480,0.1,-0.07,10.145759109311742,-4.2,-1.2,0.6,29.72750483383693,-16.518555368759944,38.17073726713054,6,S02
2500,0.1,-0.07,10.145759109311742,-4.2,-1.2,0.6,29.795555989906948,-16.531836988717565,38.58408132653979,6,S02
2520,0.1,-0.07,10.145759109311742,-4.2,-1.2,0.6,28.801133297675495,-16.312448062656955,38.41781577302135,6,S02
2540,0.1,-0.07,10.145759109311742,-4.2,-1.2,0.6,28.69890609605623,-16.733631765653328,37.71627686921297,6,S02
2560,0.1,-0.07,10.145759109311742,-4.2,-1.2,0.6,29.888959286815705,-16.141634371327527,37.874396330721915,6,S02
2580,0.1,-0.07,10.145759109311742,-4.2,-1.2,0.6,29.70736228152915,-16.627553874003382,37.9551192203943,6,S02
2600,0.1,-0.07,10.145759109311742,-4.2,-1.2,0.6,28.66118026772673,-17.09844894196909,38.27452888263031,6,S02
2620,0.1,-0.07,10.145759109311742,-4.2,-1.2,0.6,29.996246921399436,-16.87395902327167,38.39327869015789,6,S02
2640,0.1,-0.07,10.145759109311742,-4.2,-1.2,0.6,30.285423148584698,-16.373278629623837,38.30995233011129,6,S02
2660,0.1,-0.07,10.145759109311742,-4.2,-1.2,0.6,29.796417422887934,-16.37984900409228,37.848295840766,6,S02
2680,0.1,-0.07,10.145759109311742,-4.2,-1.2,0.6,29.677009814044848,-14.779445658885079,38.525766706445744,6,S02
2700,0.1,-0.07,10.145759109311742,-4.2,-1.2,0.6,29.982136674229146,-16.908197686832835,38.23326708048162,6,S02
2720,0.1,-0.07,10.145759109311742,-4.2,-1.2,0.6,29.649832956756384,-16.724498250017213,38.069939978940525,6,S02
2740,0.1,-0.07,10.145759109311742,-4.2,-1.2,0.6,28.969509162696625,-16.307840030280133,37.71807763388766,6,S02
2760,0.1,-0.07,10.145759109311742,-4.2,-1.2,0.6,29.70557498134035,-16.82125417410372,38.42802389202643,6,S02
2780,0.1,-0.07,10.145759109311742,-4.2,-1.2,0.6,29.71565310077605,-16.914373343273972,37.433565260891335,6,S02
2800,0.1,-0.07,10.145759109311742,-4.2,-1.2,0.6,29.258756848861573,-16.37959104330874,37.527366336290186,6,S02
2820,0.1,-0.07,10.145759109311742,-4.2,-1.2,0.6,29.6288694495819,-17.074103644568442,38.50039340106935,6,S02
2840,0.1,-0.07,10.145759109311742,-4.2,-1.2,0.6,29.80865539081112,-16.870053974607927,37.92882809102882,6,S02
2860,0.1,-0.07,10.145759109311742,-4.2,-1.2,0.6,29.432790502707377,-16.13280901512971,38.50655276786058,6,S02
2880,0.1,-0.07,10.145759109311742,-4.2,-1.2,0.6,29.846779200863697,-16.304729775583464,38.21869569692733,6,S02
2900,0.1,-0.07,10.145759109311742,-4.2,-1.2,0.6,29.562456791874663,-16.555218764492736,38.0814709927644,6,S02
2920,0.1,-0.07,10.145759109311742,-4.2,-1.2,0.6,29.151548656708076,-15.732527044336528,38.2948078653417,6,S02
2940,0.1,-0.07,10.145759109311742,-4.2,-1.2,0.6,30.529102192107224,-16.746110234439268,38.16736897423342,6,S02
2960,0.1,-0.07,10.145759109311742,-4.2,-1.2,0.6,29.676136783969575,-15.783561293034285,38.35307118898321,6,S02
2980,0.1,-0.07,10.145759109311742,-4.2,-1.2,0.6,29.213280645683827,-16.66922664544062,37.803935708039674,6,S02
3000,2.112072434607646,3.8982539682539685,8.62754048582996,145.8,78.8,0.6,29.593485740636577,-17.75544088171904,38.43933576100895,6,S02
3020,2.0139425040255814,3.7426565045727114,8.7159546554895,137.06468003763732,74.89835396005712,0.6,29.677332460954652,-16.920664523302094,38.212670914426916,6,S02
3040,1.9205984266317093,3.5931601047088724,8.799219984741159,128.83806550757365,71.18699344287676,0.6,29.75594996558963,-16.859392486745794,39.0042183721186,6,S02
3060,1.8318067936117863,3.449525542528403,8.877636318707584,121.0905317116908,67.65663811400462,0.6,30.111256364156745,-17.09060530559126,37.6934386157957,6,S02
3080,1.7473455796337662,3.3115229720881403,8.95148604089086,113.79417915998302,64.29846024623855,0.6,29.187685309096786,-16.371359620312653,38.330647952949626,6,S02
3100,1.6670035876688227,3.1789315598332615,9.02103509005812,106.92273310225768,61.10406264571239,0.6,28.788416212796754,-16.401641055279207,38.065744350356084,6,S02
3120,1.5905799208887685,3.051539131216482,9.086533917908353,100.45144891065465,58.065457654537425,0.6,30.158536792303273,-16.29334769880886,37.479226054852965,6,S02
3140,1.517883480319343,2.929141831173514,9.148218390969044,94.3570229722585,55.17504717749707,0.6,29.450368577230606,-16.028695038209868,38.2736096603655,6,S02
3160,1.448732486993238,2.811543797911472,9.206310639970434,88.61750877092112,52.42560368285115,0.6,30.062431585296327,-16.117911846783493,37.92510125963504,6,S02
3180,1.3829540274079948,2.6985568494882184,9.261019859756088,83.21223785609844,49.81025212974186,0.6,29.96632328647686,-16.04734888759385,38.37152070611512,6,S02
3200,1.32038362115218,2.5900001826811088,9.312543062610285,78.12174541410397,47.32245277701067,0.6,29.059906080649355,-17.099782288578925,37.48526131350479,6,S02
3220,1.2608648096186854,2.48570008366326,9.361065787715033,73.32770017375488,44.95598483043893,0.6,29.346668499950663,-17.21278874268966,38.60210712639253,6,S02
3240,1.2042487647767133,2.3854896500243687,9.406762769291541,68.81283839399575,42.70493088752212,0.6,29.035366463005445,-16.17418803882067,38.159243229578514,6,S02
3260,1.1503939170241773,2.2892085236912476,9.449798565832152,64.56090169578353,40.56366214088128,0.6,29.281059508675952,-16.17868252267187,38.98684343924694,6,S02
3280,1.0991656011899589,2.196702634320694,9.490328152688644,60.55657851436196,38.52682430331276,0.6,29.64678551349178,-15.64098029646747,37.20877960945526,6,S02
3300,1.0504357198008345,2.1078239527540736,9.528497480150913,56.78544896108986,36.589324219281174,0.6,29.22686018458234,-16.48872722648074,38.75130402057455,6,S02
3320,1.0040824227710696,2.0224302541390817,9.56444399902564,53.23393289626681,34.74631712937772,0.6,30.427978365085888,-16.01264693915747,38.428919458958994,6,S02
3340,0.9599898027137358,1.9403848903396408,9.598297155607675,49.889241025961745,32.993194555898135,0.6,29.858073234946197,-16.424460244904175,38.311614603003804,6,S02
3360,0.9180476051118694,1.8615565712697288,9.63017885782651,46.73932884674086,31.32557277924793,0.6,28.960185507083867,-16.54105317681457,37.88425358013163,6,S02
3380,0.878150952624751,1.785819154801227,9.660203914246502,43.77285327244559,29.7392818763601,0.6,29.57719436424845,-15.814684275307295,37.507679109711454,6,S02
3400,0.8402000828399242,1.7130514449096093,9.688480447501718,40.979131786830315,28.230355293715387,0.6,29.45868808569369,-15.931820893463593,38.74662972808791,6,S02
3420,0.8041000988152018,1.6431369977344432,9.715110283654194,38.348103974965554,26.795019928892426,0.6,29.735213005529275,-16.30828358717112,38.79558670414335,6,S02
3440,0.7697607317868803,1.5759639352443704,9.740189318877759,35.87029529487755,25.429686695846364,0.6,29.653893439592935,-17.18958508257314,38.001199221434206,6,S02
3460,0.7370961154508114,1.5114247662083893,9.763807864787818,33.53678295896347,24.130941550324263,0.6,29.51857397976022,-16.81387030478289,37.592097870896716,6,S02
3480,0.7060245712519158,1.4494162141869527,9.786050973660748,31.339163802318264,22.895536952976173,0.6,28.96864588094496,-16.680640873099797,37.46517330769872,6,S02
3500,0.6764684041452517,1.3898390522676283,9.806998744713923,29.269524022264473,21.72038374881521,0.6,29.61391657792382,-16.131720072997084,37.45630462722223,6,S02
3520,0.6483537083179327,1.3325979442808735,9.826726612549447,27.32041068011471,20.602543442721007,0.6,29.55128061197915,-17.001247190347392,38.19745490151862,6,S02
3540,0.6216101823860996,1.2776012922418218,9.845305618800179,25.484804862542198,19.53922085167132,0.6,29.410338836299037,-18.06316361601167,38.0893753660695,6,S02
3560,0.5961709536048421,1.224761089773966,9.86280266795636,23.756096405911496,18.52775711532852,0.6,29.764468669364216,-16.7296789581161,37.80139048965263,6,S02
3580,0.5719724106515044,1.1739927812801798,9.879280768294032,22.12806009254953,17.565623047503813,0.6,29.319209859219928,-16.05010475452376,36.822427184925054,6,S02
3600,0.5489540445642451,1.1252151266357227,9.894799258772895,20.59483323323798,16.650412811874386,0.6,29.850345180277824,-16.551610589893492,38.87002860408005,6,S02
3620,0.5270582974381148,1.0783500711867087,9.909414022720652,19.150894555199596,15.779837906139445,0.6,29.754124464496183,-16.892710415471313,38.108186848292604,6,S02
3640,0.5062304185003127,1.0333226208460085,9.923177689073356,17.791044319552523,14.951721439572431,0.6,29.623829523266032,-16.444278205641805,37.69340202968702,6,S02
3660,0.48641832720473666,0.9900607220867077,9.936139821896418,16.510385596633924,14.163992689660331,0.6,29.453083893435036,-16.36568732929404,38.508512774355104,6,S02
3680,0.4675724830034903,0.9484951466410947,9.948347098868787,15.304306631763886,13.414681924218774,0.6,30.152952789016172,-16.739255369123587,39.50208083515066,6,S02
3700,0.4496457614697086,0.9085593807206607,9.959843479373003,14.168464237947287,12.701915476035612,0.6,29.62954631901502,-15.650631885652766,37.694493157195204,6,S02
3720,0.43259333646194476,0.8701895185798483,9.970670362796463,13.09876815570938,12.023911057726924,0.6,30.074996954745124,-16.33911760804809,39.18528917571336,6,S02
3740,0.41637256803546807,0.8333241602532251,9.980866737613932,12.091366323743696,11.37897330509021,0.6,29.267164799632372,-16.000985294686732,39.019425781995,6,S02
3760,0.40094289582019127,0.7979043133024395,9.990469321788153,11.142631007330621,10.765489537810806,0.6,29.900630398848527,-16.51434161385692,38.54435887473455,6,S02
3780,0.38626573759861893,0.763873298415733,9.99951269499419,10.249145734573954,10.181925726921088,0.6,30.135542196428993,-17.201516924960377,39.0787030943841,6,S02
3800,0.196937591174971,6.78612976887549,6.632728186548174,-4.2,-1.2,0.6,29.532635111783073,-16.44906102485345,38.422735366935974,6,S02
3820,0.20862018594680548,6.823974769746446,7.047092561922286,-4.2,-1.2,0.6,29.752565537671043,-16.610719655752256,38.736284686624955,6,S02
3840,0.4704463205689552,6.5506601333897905,7.0456592595196845,-4.2,-1.2,0.6,29.799380917630053,-16.04834547484272,37.99892409655336,6,S02
3860,0.1394308479537388,6.70142911140638,7.124975254401024,-4.2,-1.2,0.6,30.129290289830088,-17.45994214495101,39.22512805548431,6,S02
3880,0.3650577297005828,6.752743777424754,6.818762030120664,-4.2,-1.2,0.6,30.488682684356498,-16.448754754866535,38.645925616921794,6,S02
3900,0.551491855418329,6.675811015126171,7.279134199432817,-4.2,-1.2,0.6,29.842605886662042,-16.114466252378136,38.477074560646095,6,S02
3920,-0.09482558738402072,7.204776503742287,7.057868173537227,-4.2,-1.2,0.6,29.750172215416995,-16.94034258595629,38.05261994740363,6,S02
3940,0.1728249454533704,7.03378059576626,7.341010361936793,-4.2,-1.2,0.6,30.51144011371703,-16.1972058876052,38.185033007975164,6,S02
3960,0.26918454113717194,6.483966863540104,7.162299511242997,-4.2,-1.2,0.6,30.072355907695577,-16.68353231329808,38.06169785468815,6,S02
3980,0.5390855052316377,6.393698729658488,6.913528933907996,-4.2,-1.2,0.6,29.557413753903305,-16.99025574272762,37.66942583447437,6,S02
4000,0.08367500059008673,6.613261453365411,7.32436689501511,-4.2,-1.2,0.6,29.52261809809788,-16.545480480541237,38.87351559353171,6,S02
4020,0.15704465061701584,6.800591401488025,7.206872131337549,-4.2,-1.2,0.6,28.832742600099053,-16.926029820981118,38.48547350886562,6,S02
4040,0.17825806927754076,6.736647001443756,6.705883912165272,-4.2,-1.2,0.6,29.149583155945685,-16.979677947125428,38.52289882163897,6,S02
4060,0.016490908641823315,6.486901817131542,7.057007638423524,-4.2,-1.2,0.6,29.48353683499339,-15.968411964975772,38.20275117097886,6,S02
4080,0.13795313003088572,6.467222827565307,7.031395064258463,-4.2,-1.2,0.6,29.275182368207766,-17.465791218766938,38.93864175332387,6,S02
4100,0.2445194082206751,7.049247890494882,6.669196823875834,-4.2,-1.2,0.6,29.870055124187708,-16.270514820608135,39.22751427670815,6,S02
4120,-0.0290366177048956,6.664618517793109,7.404327017552649,-4.2,-1.2,0.6,30.508957347372185,-16.390645947536633,37.99207642403105,6,S02
4140,0.3469031180977198,7.0983634065674766,7.442342631507353,-4.2,-1.2,0.6,29.45276552347397,-16.582571580214555,38.86318501159691,6,S02
4160,0.007881404594231756,6.797165903028299,7.4001855285648634,-4.2,-1.2,0.6,28.935631008243174,-17.25845323220628,38.09191835752056,6,S02
4180,0.06114962014795979,6.8732951482120646,7.065321181558241,-4.2,-1.2,0.6,29.315298694461024,-16.163407085194265,38.1813037228162,6,S02
4200,-0.012385047530511853,6.873133260441887,7.037250602359156,-4.2,-1.2,0.6,29.5725725409495,-17.79406360891068,38.13132845138369,6,S02
4220,0.02324474422248747,6.609636805609401,7.041553353966277,-4.2,-1.2,0.6,30.05872780612164,-17.049026143780353,38.89446640803469,6,S02
4240,0.0698080946888355,6.89962690186239,7.036529957555125,-4.2,-1.2,0.6,28.907763230938038,-16.84591381723844,37.50851189213979,6,S02
4260,-0.20046335621733122,6.927012958548436,6.752360216026268,-4.2,-1.2,0.6,29.625426858816887,-17.0852911954971,38.29348908741928,6,S02
4280,-0.10268047620420478,6.6815591249055215,7.12308216735485,-4.2,-1.2,0.6,29.995871578966685,-16.784114761142437,37.371675959854365,6,S02
4300,0.14239415484700135,6.878736045181647,7.2993459457741,-4.2,-1.2,0.6,29.03469810886427,-15.979878485545681,38.14943075611006,6,S02
4320,0.05230850321823211,6.596819381398771,7.378273061153508,-4.2,-1.2,0.6,29.662241835365805,-15.58726917055418,38.59897147615184,6,S02
4340,-0.06013172816449758,7.290550635809569,7.419338056522218,-4.2,-1.2,0.6,29.782477033658473,-15.570297322618298,38.190424525844136,6,S02
4360,0.27579808485923063,6.580983330923808,7.551917491661973,-4.2,-1.2,0.6,29.19641730876427,-16.571356635935352,38.22729140073487,6,S02
4380,0.3921407044101687,6.621172583680804,7.235742883230056,-4.2,-1.2,0.6,29.49205444027033,-15.800855274133786,38.42191877433483,6,S02
4400,0.71258692300811,6.97133273435281,7.0947456285704265,-4.2,-1.2,0.6,30.485712524533465,-16.42843744279078,38.229353994081286,6,S02
4420,0.45699085776670423,6.722210135230643,7.424094225118742,-4.2,-1.2,0.6,30.111833324854974,-16.57567546256576,37.947971447440466,6,S02
4440,0.24417278538489517,6.838743215034126,7.082898707247644,-4.2,-1.2,0.6,29.8869750499749,-15.695716436180044,38.035847703125604,6,S02
4460,0.1617951545575163,7.092256810150382,7.149761760612294,-4.2,-1.2,0.6,29.62867730535067,-16.28541082911287,38.190024481765754,6,S02
4480,-0.10188289209821913,7.036123921207316,7.4675887964438035,-4.2,-1.2,0.6,29.480405710961744,-16.287048012207954,37.696226392017046,6,S02
4500,0.16387101877951554,6.845730428491644,7.304518080440947,-4.2,-1.2,0.6,30.04933447739912,-15.854618604366651,37.78039520890165,6,S02
4520,0.01564229057322508,6.500673766619663,7.576521261776919,-4.2,-1.2,0.6,29.552954516641787,-16.726805727545756,37.24281078675849,6,S02
4540,0.28300446907686916,7.062568653501957,6.928018780375823,-4.2,-1.2,0.6,30.10031066989348,-16.28816016094308,37.68151499322308,6,S02
4560,0.2814805961836244,6.616493314060448,7.212854083119028,-4.2,-1.2,0.6,29.816640061806556,-16.92488030453207,38.09515488033968,6,S02
4580,-0.307818673663669,6.87591309204518,7.009791286061221,-4.2,-1.2,0.6,29.718379120875184,-16.367228088297615,38.24658791268876,6,S02
4600,0.30206836777789453,6.946936405625521,7.121658981835832,-4.2,-1.2,0.6,29.39136868151905,-16.92200832884121,37.8541896894758,6,S02
4620,-0.19294207672802552,6.7492398540320675,7.145735232279001,-4.2,-1.2,0.6,30.54951561686713,-17.37348556018565,39.12102230521825,6,S02
4640,-0.16469345326681653,6.776272301617118,7.066405032863739,-4.2,-1.2,0.6,29.626719673858382,-16.194922542849802,38.104519647201386,6,S02
4660,-0.07823212311991201,6.480601632874079,7.3664144549624595,-4.2,-1.2,0.6,30.073692461765464,-16.903043773859615,38.305361923430105,6,S02
4680,0.19111175152504145,6.846581804895226,7.18460732312136,-4.2,-1.2,0.6,29.41841623721572,-16.253747040584663,38.313990018940196,6,S02
4700,-0.030632003432563726,6.8883206030376085,6.985285789372204,-4.2,-1.2,0.6,29.313661863375703,-17.271189336654295,38.17821534052104,6,S02
4720,0.16705220895194417,6.719804585622373,7.050895205725365,-4.2,-1.2,0.6,29.635361236622902,-15.978611261871757,38.44344233068584,6,S02
4740,0.27944234466273676,7.38950905804477,7.178573881695021,-4.2,-1.2,0.6,28.993141266389966,-17.467466522672694,38.226601333683156,6,S02
4760,0.5738346878179015,6.750414027667621,7.0849471346394255,-4.2,-1.2,0.6,28.85762258947088,-16.907123741455802,38.074957133779215,6,S02
4780,0.08384592499900262,6.639947827783725,7.11018147161992,-4.2,-1.2,0.6,30.10668907721229,-16.88751897955636,38.23846532742502,6,S02
4800,0.10805285482354006,6.752748670441845,7.15392920416834,-4.2,-1.2,0.6,29.317521112202716,-16.5580701660897,37.89153149521866,6,S02
4820,0.10334556887478288,6.715059742645024,7.184941223281187,-4.2,-1.2,0.6,30.407667991560206,-17.289468266766903,38.3984527232248,6,S02
4840,0.08029239457709889,6.7452481416312855,7.163088035864844,-4.2,-1.2,0.6,29.74221256054032,-17.511632296669656,37.962168757396796,6,S02
4860,0.08089680957813598,6.735436569081611,7.15664922585624,-4.2,-1.2,0.6,29.09359525798944,-17.534781740272834,38.19763695762795,6,S02
4880,0.10599969502652057,6.719418375095027,7.199946534196141,-4.2,-1.2,0.6,29.270400168162,-15.773636486467502,38.07835894054721,6,S02
4900,0.1125560068087374,6.739964971607139,7.178206189098356,-4.2,-1.2,0.6,29.618981652063365,-17.063044988546928,38.15931298475042,6,S02
4920,0.12045003783834951,6.716343236503488,7.168143084220863,-4.2,-1.2,0.6,29.761985376860572,-15.789290089574429,38.15641296958195,6,S02
4940,0.09838631338396603,6.7446277000115415,7.175745241789717,-4.2,-1.2,0.6,29.782485618834126,-16.76264097824021,38.77789606023828,6,S02
4960,0.10904380452164472,6.728257498694695,7.197942362902925,-4.2,-1.2,0.6,29.865877590018265,-16.889064928966683,38.356641575056166,6,S02
4980,0.08302841856038887,6.756723712390643,7.201012092971891,-4.2,-1.2,0.6,29.020126106645463,-16.532652052081964,38.071513183743534,6,S02
5000,0.12061474269375774,6.751210838501263,7.158165222860193,-4.2,-1.2,0.6,29.150807238771925,-16.368892987794705,37.52507718442708,6,S02
5020,0.07878606892993334,6.7579862965582596,7.169171888525093,-4.2,-1.2,0.6,30.14715622272721,-17.040330839155654,38.65949642715765,6,S02
5040,0.10048083385466941,6.749853681092035,7.168995648018243,-4.2,-1.2,0.6,29.03545649925018,-17.09668386085436,38.91358890265313,6,S02
5060,0.09435338003286964,6.751681837724859,7.190830972961321,-4.2,-1.2,0.6,29.855758223490305,-16.957496691424474,38.02348507021505,6,S02
5080,0.09855419706316604,6.771080534840585,7.18040203131966,-4.2,-1.2,0.6,30.076863826593975,-16.588773138671797,37.78260658292408,6,S02
5100,0.09494595805280591,6.749617444578639,7.187800057226481,-4.2,-1.2,0.6,29.57041469550205,-16.519490805540826,38.779888191888396,6,S02
5120,0.11933170305395502,6.754020654366675,7.173476213536351,-4.2,-1.2,0.6,30.184733813710437,-15.87232272942692,38.59668962126214,6,S02
5140,0.12283508794642714,6.758193955613571,7.178613343497469,-4.2,-1.2,0.6,28.92584392504834,-16.4297728414536,38.399970188362246,6,S02
5160,0.08705811255918261,6.736193469032631,7.184226046513585,-4.2,-1.2,0.6,29.894284477054683,-16.575482495877527,38.08036414279406,6,S02
5180,0.0687922457382009,6.739417187110463,7.160583998453854,-4.2,-1.2,0.6,30.256429951224856,-17.181180223016263,36.350921805285026,6,S02
5200,0.10278717948322312,6.77043898145847,7.1490004259830755,-4.2,-1.2,0.6,29.468923157634595,-15.946566050215665,38.15473578866942,6,S02
5220,0.11877099691394864,6.7101950291136845,7.152780210887895,-4.2,-1.2,0.6,30.24566383567715,-17.33432189964244,38.153215502647406,6,S02
5240,0.09334933863901879,6.712838517628398,7.160072344545009,-4.2,-1.2,0.6,31.024761849016087,-16.8669216505188,38.78425307897241,6,S02
5260,0.09992374125487982,6.697886270063171,7.149179590601475,-4.2,-1.2,0.6,29.253942449472095,-16.428184287732797,38.55811537552448,6,S02
5280,0.11328473917891521,6.736333472454006,7.1663078699757605,-4.2,-1.2,0.6,30.224556599659525,-16.714172453598074,38.104314322074416,6,S02
5300,0.11643449491883776,6.764933749504151,7.197068264534972,-4.2,-1.2,0.6,29.23765885019329,-16.497347903279483,37.84555646098551,6,S02
5320,0.1153002851812046,6.712651881126223,7.1809610146046845,-4.2,-1.2,0.6,30.350849998722953,-15.937575949356763,37.74497572918058,6,S02
5340,0.0893482860321668,6.758336937714477,7.1662996517318005,-4.2,-1.2,0.6,29.61171688872216,-16.173237634469913,37.7850147728414,6,S02
5360,0.06968552758071436,6.731483369102131,7.156411936700761,-4.2,-1.2,0.6,29.464880472393858,-16.409899717962663,38.17923820331412,6,S02
5380,0.05374876704338992,6.732025230191093,7.1809095259260705,-4.2,-1.2,0.6,30.335949057621637,-16.75077108344886,38.537373378756676,6,S02
5400,0.1385928533859877,6.7434154286679515,7.159265403224409,-4.2,-1.2,0.6,29.55860023628432,-16.478956076220648,37.69290122875559,6,S02
5420,0.0961494117207385,6.7536031102236525,7.156192305729233,-4.2,-1.2,0.6,29.57213331067797,-16.457021452676024,38.89727259243166,6,S02
5440,0.08049719851614333,6.734213079785162,7.1468639739481254,-4.2,-1.2,0.6,29.753897572191494,-16.218373185725085,38.197922813308004,6,S02
5460,0.11463887026758528,6.731629310775082,7.159773001878404,-4.2,-1.2,0.6,29.852259413892607,-16.376803625326048,38.12763869781378,6,S02
5480,0.11514501926981222,6.759335814916019,7.168282061091811,-4.2,-1.2,0.6,29.849681560866784,-16.58322829017063,38.42579328540349,6,S02
5500,0.10251800285188846,6.743462895780118,7.177750692097734,-4.2,-1.2,0.6,30.120707780936666,-17.38421458204369,37.63638683913391,6,S02
5520,0.09979102577473282,6.728142792590485,7.187911776208756,-4.2,-1.2,0.6,30.004902180008532,-16.67572383042519,38.283733626694385,6,S02
5540,0.13615612460002066,6.717199003542604,7.144122286838562,-4.2,-1.2,0.6,28.775669434696276,-16.32814065060085,38.334874328491004,6,S02
5560,0.08065140425345281,6.7247976845526996,7.162121900480051,-4.2,-1.2,0.6,29.348606335132306,-15.877113137796089,37.92342219935357,6,S02
5580,0.09313553237431689,6.740309436161579,7.190138510880385,-4.2,-1.2,0.6,29.175048089021924,-16.92530626421579,38.217724436269116,6,S02
5600,0.08076023283138462,6.731154170599328,7.19132219458676,-4.2,-1.2,0.6,29.4243656853119,-16.437064584267194,38.5998737996407,6,S02
5620,0.11997157712000672,6.745059120634515,7.164959770457734,-4.2,-1.2,0.6,28.98696653395223,-16.21962904404783,38.58992523510803,6,S02
5640,0.08212703321579316,6.781559762008469,7.150994451382627,-4.2,-1.2,0.6,29.936312336718167,-15.917872958006784,37.618314716752856,6,S02
5660,0.09151318121258126,6.707452341305289,7.181571342560887,-4.2,-1.2,0.6,29.29325857423351,-16.616983748992947,38.094222151885944,6,S02
5680,0.12082829121632806,6.747391614748216,7.146745897380781,-4.2,-1.2,0.6,28.770554761347892,-15.955825787943645,38.237719406204754,6,S02
5700,0.0824625980011822,6.725547555892231,7.178090054672479,-4.2,-1.2,0.6,29.878783576581824,-16.628338851154396,38.93927381281449,6,S02
5720,0.12467889145426823,6.771004707698141,7.1856378021679275,-4.2,-1.2,0.6,30.536453009646927,-17.591262554363173,38.25598274075862,6,S02
5740,0.07636094285337627,6.755876965930594,7.138170051320949,-4.2,-1.2,0.6,29.937945761587272,-16.428837665494683,37.94468611333017,6,S02
5760,0.10719288365063447,6.714291473559366,7.181601179906814,-4.2,-1.2,0.6,29.354851961797497,-16.747405659330695,38.12683213515359,6,S02
5780,0.11291012840383066,6.700657668639776,7.197864214235757,-4.2,-1.2,0.6,30.35428329147036,-17.01722247660522,38.08693260846285,6,S02
5800,0.11190264590461463,6.757110840207824,7.138586690193402,-4.2,-1.2,0.6,29.50013430454177,-16.142664400693217,38.288379045089776,6,S02
5820,0.06264213005886247,6.73083419306222,7.16633514243336,-4.2,-1.2,0.6,30.06269570041794,-16.493040961916122,38.18273100468229,6,S02
5840,0.13034126696409445,6.715916972801816,7.169897994822471,-4.2,-1.2,0.6,30.13648124613824,-17.158212809356904,38.624189511145744,6,S02
5860,0.1117548614600503,6.761643416349177,7.154414683779089,-4.2,-1.2,0.6,29.054608135714137,-16.51847822372524,38.72808621019779,6,S02
5880,0.12180165093946509,6.770933189604337,7.173241205685167,-4.2,-1.2,0.6,29.54959447391483,-16.021578060031366,38.19880207251259,6,S02
5900,0.06954784081413788,6.696176583448355,7.144093294436091,-4.2,-1.2,0.6,29.451972850639617,-17.204091372463537,37.827684388815015,6,S02
5920,0.1297446630934689,6.702958415798604,7.190185908656447,-4.2,-1.2,0.6,28.964220102254277,-16.1889583584113,38.46324095210857,6,S02
5940,0.12012788669741845,6.733644959165892,7.169052168497311,-4.2,-1.2,0.6,29.938316518870607,-17.021681969863984,38.17005683038577,6,S02
5960,0.10022099185230311,6.737114025864644,7.131235734033567,-4.2,-1.2,0.6,30.289317986972506,-16.74779799543331,37.898571254643905,6,S02
5980,0.0995598840269844,6.72714071963046,7.13230851075564,-4.2,-1.2,0.6,30.247952550859328,-17.848301035406983,37.22333479043774,6,S02
6000,0.1277427390517564,6.7418452736094086,7.145755033240448,-4.2,-1.2,0.6,29.523241717033002,-16.317347586924647,38.66221296763746,6,S02
6020,0.09109707518117219,6.72749352688292,7.1853881735706615,-4.2,-1.2,0.6,28.626970793140288,-16.6141213793319,38.715339326010756,6,S02
6040,0.09583005574449788,6.788512596175111,7.1364889412417165,-4.2,-1.2,0.6,30.677506718514767,-16.78038267871503,38.75250054156278,6,S02
6060,0.09121834688751111,6.719817432066594,7.17283484853301,-4.2,-1.2,0.6,30.55657743937627,-16.533768802820518,38.17165312628146,6,S02
6080,0.11330773803137152,6.685755601947079,7.179393662566169,-4.2,-1.2,0.6,29.978496363929686,-16.75065264240869,38.6221293461811,6,S02
6100,0.10405547219697463,6.78493605459421,7.1625632706604705,-4.2,-1.2,0.6,30.09451821940062,-16.24689460144645,38.40799343318323,6,S02
6120,0.08586371525237914,6.764276150938648,7.17859967075364,-4.2,-1.2,0.6,29.41279524393351,-17.708030260548096,38.24163550783044,6,S02
6140,0.12424298363864639,6.728346229816368,7.149715406393241,-4.2,-1.2,0.6,29.87115281190535,-16.75610019198576,38.356187304027394,6,S02
6160,0.08814974059158535,6.736400427932763,7.156299853962792,-4.2,-1.2,0.6,29.573909255211046,-16.661929682348486,37.79449675875415,6,S02
6180,0.11020684621206216,6.724488526488374,7.130355201597952,-4.2,-1.2,0.6,29.67925558225951,-17.405805375115932,37.99789100052778,6,S02
6200,0.07259088214308494,6.7602346664560145,7.161653673144591,-4.2,-1.2,0.6,29.771230428029355,-16.276838029681244,38.62467230224912,6,S02
6220,0.13347821249300867,6.747608531121217,7.178670978072639,-4.2,-1.2,0.6,30.329449013908928,-16.616322664467546,38.456504496806296,6,S02
6240,0.0842548718642758,6.749447168119522,7.158751685073656,-4.2,-1.2,0.6,29.820707329206478,-16.73005107880779,37.96298846824986,6,S02
6260,0.059837742089526094,6.70446686263402,7.156616825519989,-4.2,-1.2,0.6,30.60021759199157,-17.27277990317011,39.17252102786376,6,S02
6280,0.07590149424555481,6.742312871756748,7.1676670728676495,-4.2,-1.2,0.6,29.589321212409573,-17.168312662206823,38.17338675379039,6,S02
6300,0.09267391637830871,6.741067222886895,7.173327480109933,-4.2,-1.2,0.6,30.012330508997252,-16.58400798266361,39.0981092086203,6,S02
6320,0.1157881820406786,6.739199933675884,7.1436606595028,-4.2,-1.2,0.6,29.58252327994371,-16.599021782203604,38.11685613980516,6,S02
6340,0.09592685531217468,6.709888952624213,7.167342357593372,-4.2,-1.2,0.6,29.818938975663936,-16.075138731481136,37.94188475087721,6,S02
6360,0.10623355834548748,6.72369965416251,7.174112647468028,-4.2,-1.2,0.6,29.772838677753647,-16.294002214905667,38.12928895149621,6,S02
6380,0.09766916868461929,6.75945065638466,7.160997957256983,-4.2,-1.2,0.6,29.184501510255,-16.672711767701458,38.676479232220544,6,S02
6400,0.1232050735838285,6.7278018571040015,7.175285333095652,-4.2,-1.2,0.6,29.72773772872831,-16.609287379278257,39.22867890214289,6,S02
6420,0.13011313617446943,6.736149060800246,7.160868995418548,-4.2,-1.2,0.6,29.058016254566258,-17.139439902896257,38.987923761086705,6,S02
6440,0.09321247968035,6.757148397854151,7.150309388805415,-4.2,-1.2,0.6,29.615006192022904,-14.882969957031083,38.0744840963896,6,S02
6460,0.12078537167360598,6.739729558425565,7.198479358320061,-4.2,-1.2,0.6,29.64540055561889,-15.970100960149534,37.425460573441086,6,S02
6480,0.07579126135227375,6.7219672245174005,7.1434125423197505,-4.2,-1.2,0.6,29.69057631780557,-16.418427858828792,37.8660523103053,6,S02
6500,0.0950082514908153,6.722679770151085,7.148866705124374,-4.2,-1.2,0.6,30.1151610345639,-16.542865830576485,38.84911977715449,6,S02
6520,0.10340131774443477,6.73287724023465,7.1717072203281775,-4.2,-1.2,0.6,29.174018203844305,-16.97997675267368,38.35710350776201,6,S02
6540,0.1230138323619467,6.751081684118228,7.183201525461204,-4.2,-1.2,0.6,29.761160619921036,-16.293049019111137,38.402214959135065,6,S02
6560,0.1202772772940996,6.761125810381426,7.164604593002628,-4.2,-1.2,0.6,29.9065055911945,-16.807581722747972,38.241803405587106,6,S02
6580,0.10094974045399616,6.7787567549998755,7.167978330414178,-4.2,-1.2,0.6,30.20249863680121,-15.76035950122546,38.288631721430576,6,S02
6600,0.06650383232270693,6.7335826499757285,7.160894314545433,-4.2,-1.2,0.6,29.98516846116875,-16.046188528038364,38.24893737134224,6,S02
6620,0.07966370679361973,6.75428936251831,7.159096323601989,-4.2,-1.2,0.6,29.151744596279052,-16.879194974844317,38.43696433226031,6,S02
6640,0.13491212108190334,6.72263626047823,7.164342400263149,-4.2,-1.2,0.6,29.564760006251852,-17.951785167071066,38.744492209297505,6,S02
6660,0.10123940191319447,6.742238414916609,7.167511514774168,-4.2,-1.2,0.6,29.952624955048144,-16.46355096647931,38.14456495070573,6,S02
6680,0.09939365058473558,6.7538156437013,7.150029493400021,-4.2,-1.2,0.6,29.841068181990472,-15.74068881141289,38.220625363427935,6,S02
6700,0.0883181373001116,6.713327524959645,7.137198036286246,-4.2,-1.2,0.6,29.95604107705372,-17.012266290858165,39.087019766409355,6,S02
6720,0.11987881421514945,6.725484591675744,7.13113862798829,-4.2,-1.2,0.6,30.734335630980837,-16.48940986436334,38.490352282840895,6,S02
6740,0.08330516886827229,6.762898547697455,7.150046693123637,-4.2,-1.2,0.6,29.262469683508137,-16.49540892711139,38.62760145657936,6,S02
6760,0.09151472613487611,6.7306150241053455,7.150495608928976,-4.2,-1.2,0.6,29.682312301127805,-17.75231916032844,38.44615454806215,6,S02
6780,0.08897227445209971,6.740126344078471,7.154489058159819,-4.2,-1.2,0.6,29.28676216966822,-16.37293923296675,38.1155242650619,6,S02
6800,0.0827056003829304,6.743138131810947,7.16921586275457,-4.2,-1.2,0.6,29.74355361627413,-16.687221071783945,38.570434468917014,6,S02
6820,0.07728318675642817,6.744493467013585,7.161146018995343,-4.2,-1.2,0.6,29.19559947904138,-16.973658164106816,37.83409838589258,6,S02
6840,0.11216988655155169,6.734498846525344,7.135040232324523,-4.2,-1.2,0.6,29.808811153387495,-16.684989437440365,38.278948807132615,6,S02
6860,0.10426032648199986,6.7951485600775055,7.1459471230089155,-4.2,-1.2,0.6,29.66268681508454,-17.06138611832415,38.696099566571526,6,S02
6880,0.1264047745793843,6.7646451959726885,7.159205306667233,-4.2,-1.2,0.6,29.882427744181744,-15.983039198584295,37.920814300800785,6,S02
6900,0.08744365272484018,6.731308742622616,7.165830298650319,-4.2,-1.2,0.6,28.98575380448484,-16.27789186032191,37.523398597353605,6,S02
6920,0.1577702388999735,6.710441451498414,7.162945958269353,-4.2,-1.2,0.6,30.246152203445227,-15.620435197495366,37.83123622432214,6,S02
6940,0.13193924950040736,6.756679020148867,7.150377494521225,-4.2,-1.2,0.6,29.061089581322364,-16.352097317446752,37.98273633753571,6,S02
6960,0.07555959793047311,6.7379577711496115,7.14206423679515,-4.2,-1.2,0.6,30.03869111848257,-16.090393596123082,37.66931670006979,6,S02
6980,0.089906870947507,6.741012761438111,7.196113798039176,-4.2,-1.2,0.6,29.84800207278529,-15.361159242616752,38.09726808180829,6,S02
7000,0.1152763455969319,6.714996088727755,7.184015479556777,-4.2,-1.2,0.6,29.565675371387517,-16.476870592319436,38.76846967636012,6,S02
7020,0.12026893536826846,6.713454845087758,7.148063235739152,-4.2,-1.2,0.6,29.821791112006363,-17.49038591119328,38.22468168190996,6,S02
7040,0.12473276535786094,6.7382851123878424,7.173708303209318,-4.2,-1.2,0.6,29.508760241375562,-16.245299986299976,39.02436245537321,6,S02
7060,0.1288505097308844,6.745991269824835,7.168466768138142,-4.2,-1.2,0.6,29.84255449568243,-17.432005120692466,37.577884822861655,6,S02
7080,0.12961336185880434,6.727532628690795,7.1565533087658055,-4.2,-1.2,0.6,29.629997960547303,-16.821365082678962,38.43033971411218,6,S02
7100,0.058530440735276135,6.734786316416852,7.20485346931964,-4.2,-1.2,0.6,30.0314448577062,-16.29070248724487,37.50993276984551,6,S02
7120,0.1109694730575285,6.731657713244912,7.151907769789614,-4.2,-1.2,0.6,29.95144689669914,-16.639501895370366,37.93774284685117,6,S02
7140,0.11859659557567372,6.761129411161605,7.157040402353944,-4.2,-1.2,0.6,29.611775796429505,-17.399525931745444,37.52287592882772,6,S02
7160,0.08894574690575985,6.752455638553703,7.119344804929298,-4.2,-1.2,0.6,29.93299001225365,-16.891621073865473,39.06003533420753,6,S02
7180,0.07583851267286001,6.7426504388415935,7.169945767283993,-4.2,-1.2,0.6,29.32880934042087,-16.39857442553101,38.48839070156634,6,S02
7200,0.12461610258085384,6.749179977576672,7.140378904323879,-4.2,-1.2,0.6,29.993303418507846,-16.965366777526636,38.174926059320825,6,S02
7220,0.0942986004238372,6.704082317037089,7.172993510519517,-4.2,-1.2,0.6,30.024837134583684,-16.585733526995867,38.17463075373507,6,S02
7240,0.09235026099583793,6.729830625848772,7.147443211460588,-4.2,-1.2,0.6,29.012287772967518,-16.831651832030005,38.08527302731813,6,S02
7260,0.11472352133091587,6.761328779263067,7.159018266077729,-4.2,-1.2,0.6,29.661407408099272,-17.001286332551516,38.10250186837207,6,S02
7280,0.10624516113888512,6.733677339202973,7.197300327360881,-4.2,-1.2,0.6,29.18859688055593,-16.87771381751223,38.362348965145365,6,S02
7300,0.07995960948802086,6.755495576267091,7.162280742416556,-4.2,-1.2,0.6,29.467051357895752,-17.50549146058346,38.460882684236374,6,S02
7320,0.10354667142753377,6.754178461348256,7.168909887244765,-4.2,-1.2,0.6,29.388194669132865,-15.696422798099576,38.25079501463111,6,S02
7340,0.07886977591900594,6.736724772499561,7.180806194721218,-4.2,-1.2,0.6,29.775328220958656,-17.29578611389669,38.38663720425208,6,S02
7360,0.11036045348003244,6.721026065601421,7.219873649877911,-4.2,-1.2,0.6,29.311857258452577,-16.479742631686975,37.28847314185118,6,S02
7380,0.08774961364513252,6.721385216412105,7.125136316893112,-4.2,-1.2,0.6,29.20378756396233,-16.125162346557975,37.83495012721939,6,S02
7400,0.10174568912584715,6.761731364654963,7.192289074567855,-4.2,-1.2,0.6,29.099241547288884,-16.660403552905944,37.59653692969333,6,S02
7420,0.09503277860995415,6.735496418663632,7.174760203604747,-4.2,-1.2,0.6,29.065377009936913,-16.00640112846969,37.20799091454446,6,S02
7440,0.1092315543265082,6.722620027234628,7.17278849255645,-4.2,-1.2,0.6,29.707381866180675,-16.903639450505153,37.76363800751595,6,S02
7460,0.10857155490533922,6.723797324820414,7.20251123413178,-4.2,-1.2,0.6,30.111167723358342,-17.363135895740193,37.91376801829168,6,S02
7480,0.11522841557395826,6.745494463045776,7.180156579854459,-4.2,-1.2,0.6,28.792085197471337,-16.297339782842336,39.09225853875146,6,S02
7500,0.06050749887565997,6.748409022038588,7.1403471824013725,-4.2,-1.2,0.6,29.389112492625227,-16.214395889259148,38.463342058217385,6,S02
7520,0.15646441917062626,6.758816062262204,7.182355398687176,-4.2,-1.2,0.6,29.994846722048074,-16.237021245365604,37.75923736679039,6,S02
7540,0.09911353787444897,6.759725250099428,7.162063544994192,-4.2,-1.2,0.6,30.75274727532147,-17.226704657716713,38.19304048721334,6,S02
7560,0.08675477128906511,6.7637864972007495,7.120276787871813,-4.2,-1.2,0.6,28.834336010017527,-16.298883345426763,37.63125028460589,6,S02
7580,0.10288579459519932,6.736813334513686,7.180494195373509,-4.2,-1.2,0.6,29.523985281390896,-17.289935357743943,38.41554703131777,6,S02
7600,0.094577705937686,6.7347946660077955,7.151060578932105,-4.2,-1.2,0.6,29.007119884405444,-16.61886029188188,38.27565055764838,6,S02
7620,0.12021071260241287,6.737392034334933,7.182719303174924,-4.2,-1.2,0.6,29.60564514007642,-17.87795516915097,37.874787602396516,6,S02
7640,0.11666426421364923,6.760260526201374,7.147644281495694,-4.2,-1.2,0.6,29.415821370272205,-17.245199405007895,38.0820629081091,6,S02
7660,0.09659084704369546,6.752425687582433,7.155777965702575,-4.2,-1.2,0.6,29.235484259178776,-16.260733751566057,38.379593397211856,6,S02
7680,0.06142384885542386,6.7165074928446735,7.184313660942744,-4.2,-1.2,0.6,30.390325282339813,-17.148268284090207,39.0166363776305,6,S02
7700,0.10624985844554656,6.745199456243155,7.172225547512465,-4.2,-1.2,0.6,29.272265565690358,-16.410528739319815,38.22012516084499,6,S02
7720,0.07284264909301397,6.71162616715268,7.181764921023958,-4.2,-1.2,0.6,29.37209156829004,-17.29703939285934,38.97103119340129,6,S02
7740,0.0749472237090727,6.722052831165798,7.190698672031024,-4.2,-1.2,0.6,30.344917882452233,-16.091353839630422,37.78796563024018,6,S02
7760,0.0916443331349259,6.751514735990083,7.204071181091983,-4.2,-1.2,0.6,29.19767548692347,-16.055501848015915,38.99407337891494,6,S02
7780,0.06142461457077073,6.7658512869187,7.174878643832439,-4.2,-1.2,0.6,29.320450253281436,-16.2528487940372,37.85526321437291,6,S02
7800,0.09831365550043464,6.768294348142263,7.155473887060619,-4.2,-1.2,0.6,30.455374841481206,-16.523787446720767,38.05158520408906,6,S02
7820,0.07987814990756568,6.7618947916886825,7.1711936054424665,-4.2,-1.2,0.6,29.827564824982886,-16.67340482203759,38.16098789213716,6,S02
7840,0.08111145315728353,6.749471185106938,7.179631669043814,-4.2,-1.2,0.6,29.902380157508343,-15.472131867262926,38.18080396508453,6,S02
7860,0.12212834212458995,6.727423628723983,7.187443962056529,-4.2,-1.2,0.6,29.39662282839559,-16.310943933974745,38.817267236030695,6,S02
7880,0.0815166179891946,6.733206178087836,7.195107779573735,-4.2,-1.2,0.6,28.6366197685374,-17.15582416497808,37.99221714657955,6,S02
7900,0.10840194374962762,6.72299938264805,7.149363583893654,-4.2,-1.2,0.6,29.659995248992036,-16.57762868275764,38.17139895484394,6,S02
7920,0.11484482618574382,6.764260354653525,7.19701284696012,-4.2,-1.2,0.6,29.856216727846988,-16.85629590314557,38.46338343826809,6,S02
7940,0.08552123214015665,6.703041029016426,7.195742579775681,-4.2,-1.2,0.6,29.276210538255476,-16.151382043843274,37.621061286751434,6,S02
7960,0.09116621728905308,6.735940354335574,7.1775510780812795,-4.2,-1.2,0.6,28.438806928350743,-17.191489523024977,38.238190438392785,6,S02
7980,0.07987827065392167,6.727068277637105,7.153435826578938,-4.2,-1.2,0.6,30.38992714617502,-16.977650686077197,38.192316182298775,6,S02
8000,0.10678119231847755,6.746208077021591,7.200759730588142,-4.2,-1.2,0.6,29.200037378217054,-17.167740983548953,38.617217884943436,6,S02
8020,0.08910027552153224,6.727741044291669,7.186345555832653,-4.2,-1.2,0.6,29.320359998765813,-16.68672673732877,37.988881494683966,6,S02
8040,0.07553653977159439,6.746392125191613,7.163245030099299,-4.2,-1.2,0.6,29.34291308839975,-16.93020542228043,37.643288908481324,6,S02
8060,0.12579039385739763,6.746376214715578,7.161788473490499,-4.2,-1.2,0.6,30.502253140194632,-17.67270158716279,37.9893510686751,6,S02
8080,0.07701041695632807,6.7476590966168715,7.1933128530866615,-4.2,-1.2,0.6,29.469043892112524,-16.52113010704059,38.34711468906173,6,S02
8100,0.09288435158010204,6.732330047929622,7.1636909177604275,-4.2,-1.2,0.6,29.365138038158445,-16.459113594391212,38.22543083288867,6,S02
8120,0.08927277695311604,6.753838642664077,7.159236779549094,-4.2,-1.2,0.6,29.748700996674888,-17.06998281786684,37.76688782786487,6,S02
8140,0.09552516597165021,6.69277988135285,7.152004052862264,-4.2,-1.2,0.6,30.63210748343704,-16.62419514006119,38.31510937554023,6,S02
8160,0.11801145373425707,6.735136297720028,7.17835309392089,-4.2,-1.2,0.6,30.081984061128964,-16.265267094620693,37.94853634172492,6,S02
8180,0.11127068860325043,6.723834067591903,7.156672702819815,-4.2,-1.2,0.6,29.930219323064826,-16.982480663878896,37.93081888532374,6,S02
8200,0.10173631325706166,6.717861827924387,7.176189297950711,-4.2,-1.2,0.6,29.323147163721664,-16.05536912414248,37.834157974062705,6,S02
8220,0.09740395828873769,6.7743024558541345,7.173847265730756,-4.2,-1.2,0.6,28.991048698045148,-16.593199696920195,38.186834064800635,6,S02
8240,0.1145463771624951,6.759301426926067,7.17232889820751,-4.2,-1.2,0.6,29.564230319033623,-16.716629847965066,37.23611820416444,6,S02
8260,0.08024337637322343,6.734413430003626,7.156894586434105,-4.2,-1.2,0.6,30.202811223044137,-16.219204377234313,38.195852892038666,6,S02
8280,0.14088828903885403,6.744038776811228,7.1572096535793985,-4.2,-1.2,0.6,29.937219521620708,-15.876273664322266,38.62163436007429,6,S02
8300,0.08193815315868046,6.746077437296457,7.18242145292309,-4.2,-1.2,0.6,30.012349368551423,-17.368044654096536,38.131443999098465,6,S02
8320,0.1055053256719793,6.792803459164923,7.183394450092088,-4.2,-1.2,0.6,29.800079851158888,-15.270310849217875,37.96603311092684,6,S02
8340,0.11787551213456933,6.7320344741953715,7.143858933035491,-4.2,-1.2,0.6,29.141042982294863,-15.815112567028805,37.92007763725945,6,S02
8360,0.07499010507554157,6.736068497742724,7.179202450853387,-4.2,-1.2,0.6,30.529427461503253,-17.13213618126145,38.317889368480536,6,S02
8380,0.13248820601016484,6.736647977660245,7.207095428882973,-4.2,-1.2,0.6,29.413724183305888,-15.76004487024844,36.84802228383365,6,S02
8400,0.12659345929435473,6.716421037779855,7.188896788212213,-4.2,-1.2,0.6,29.80657619581576,-16.647978000396066,38.647549196043464,6,S02
8420,0.10637720346484436,6.757942496143288,7.170546211720309,-4.2,-1.2,0.6,29.86209679688129,-17.28392641856246,37.62641975339497,6,S02
8440,0.133858717826089,6.758717016281743,7.12947219169954,-4.2,-1.2,0.6,29.146212908041683,-16.324611953612383,38.29751535174836,6,S02
8460,0.10244677553905686,6.711336306734622,7.141543112065589,-4.2,-1.2,0.6,29.29100964863292,-16.96088099475312,37.71374687081051,6,S02
8480,0.06649565079029734,6.714765638597997,7.130705517540351,-4.2,-1.2,0.6,29.969823073706202,-16.82654508701519,38.387383635255894,6,S02
8500,0.12639033997657,6.72494583579356,7.148474688294658,-4.2,-1.2,0.6,29.12584627885427,-16.18521529629506,37.60997795570849,6,S02
8520,0.1330689796965421,6.723979367692268,7.211888822606893,-4.2,-1.2,0.6,29.646022796654183,-17.615963772489195,37.47989364723063,6,S02
8540,0.0853788648636632,6.714633730730854,7.145038381061241,-4.2,-1.2,0.6,30.366232817503036,-15.775658087549363,37.734576363616085,6,S02
8560,0.06879061685794058,6.736239597492951,7.194738973035862,-4.2,-1.2,0.6,29.107021762201928,-16.75705675778081,38.76193261369073,6,S02
8580,0.12441777053988633,6.723170810267926,7.131430525849825,-4.2,-1.2,0.6,29.432340635587906,-17.144585117847996,37.84586416239873,6,S02
8600,0.12955269927160007,6.746385087899945,7.185516040008696,-4.2,-1.2,0.6,29.46629678035522,-16.161216205026477,38.93982279294609,6,S02
8620,0.1024470171151022,6.7477544927681965,7.155282309784799,-4.2,-1.2,0.6,29.236419127683128,-17.44352662504384,37.1720013440589,6,S02
8640,0.07370739112880645,6.728736216021509,7.164628438141333,-4.2,-1.2,0.6,29.349678422400764,-15.805256345625308,37.75543881710806,6,S02
8660,0.07397366453034632,6.7606831807247545,7.189052142362919,-4.2,-1.2,0.6,29.135163121135573,-16.57147078583014,37.41092778386755,6,S02
8680,0.11496722100533066,6.7273838813112805,7.171608619976489,-4.2,-1.2,0.6,29.747447526096284,-15.98269680352891,38.180365765942774,6,S02
8700,0.12154975078966705,6.74089536583119,7.157643312021043,-4.2,-1.2,0.6,29.79714780872564,-16.276861562697178,39.18744065950548,6,S02
8720,0.11514429603664754,6.748253105426312,7.163336110186399,-4.2,-1.2,0.6,29.603945377033295,-16.987827732444643,37.97956520557923,6,S02
8740,0.09387564453209939,6.747167309306566,7.166711478815264,-4.2,-1.2,0.6,28.946926508664532,-16.96981263576033,38.07812918841815,6,S02
8760,0.10304304076224317,6.755210298612213,7.19616503522759,-4.2,-1.2,0.6,30.018331500359473,-17.192963015096844,39.340849664749804,6,S02
8780,0.11824448611529349,6.71591938076276,7.160178680253709,-4.2,-1.2,0.6,29.868264448632495,-16.301225292726144,38.23153255814567,6,S02
8800,0.11553995476359502,6.732708748552911,7.157018655261231,-4.2,-1.2,0.6,29.191148714378528,-15.232918072190552,37.83808122825222,6,S02
8820,0.08358897706223956,6.744129153366464,7.169336127461084,-4.2,-1.2,0.6,29.49839186282722,-17.558742896538163,38.27160159699701,6,S02
8840,0.08947464961839473,6.743956420229023,7.155975732723857,-4.2,-1.2,0.6,29.753411843970625,-16.157583864766192,38.38188618135081,6,S02
8860,0.0943649878469793,6.745458814942873,7.179464561084169,-4.2,-1.2,0.6,29.17970057753862,-16.735130197954767,38.55606202707785,6,S02
8880,0.12422000906109504,6.744814609738013,7.171471245308208,-4.2,-1.2,0.6,29.686385440640144,-16.18577145194387,38.269076548207146,6,S02
8900,0.0903659355361505,6.74432008125864,7.180948861604479,-4.2,-1.2,0.6,29.19369502227527,-17.06917797649637,37.85973031662621,6,S02
8920,0.11862853158339766,6.747405334970708,7.1478305420990775,-4.2,-1.2,0.6,28.955909793722327,-16.166733656710896,38.04113322306597,6,S02
8940,0.1039327767686698,6.734166824190054,7.2008358499749985,-4.2,-1.2,0.6,29.3237360996656,-16.558567604115716,38.162828143748435,6,S02
8960,0.09692870802859625,6.742993328430546,7.165287748263535,-4.2,-1.2,0.6,29.50087645487484,-15.664401882217485,38.47048074271525,6,S02
8980,0.10105453878244419,6.757050928601263,7.132981459050843,-4.2,-1.2,0.6,29.913017704871983,-16.369572880954152,37.97005686590905,6,S02
9000,0.08235333292459278,6.703672315067841,7.173982199069643,-4.2,-1.2,0.6,29.73451872881821,-15.911674211910963,37.903986932942246,6,S02
9020,0.09358471707737162,6.723057415692226,7.152473119201324,-4.2,-1.2,0.6,30.260045016443158,-17.174298594397154,37.80522866707389,6,S02
9040,0.12101968482059135,6.773888931445976,7.175806300381243,-4.2,-1.2,0.6,29.379326184283464,-15.986196418730717,38.87612334229519,6,S02
9060,0.12020269955468907,6.749510776553123,7.142254388302432,-4.2,-1.2,0.6,29.285554379877656,-17.251881315145965,38.08808077424924,6,S02
9080,0.13917654588068257,6.742286554946906,7.18159147444324,-4.2,-1.2,0.6,29.787188877467734,-16.657020930781435,37.54481107225216,6,S02
9100,0.10899689720934835,6.740711346621096,7.175194584709587,-4.2,-1.2,0.6,30.141303434135736,-15.672823808075977,37.04295889074462,6,S02
9120,0.07962291994885605,6.703088848712881,7.174385471811979,-4.2,-1.2,0.6,29.96998755643965,-16.726098184610905,38.2344725394565,6,S02
9140,0.09642775839768218,6.7605156291919455,7.17114602975606,-4.2,-1.2,0.6,29.629559224310366,-16.64374236638234,38.02147295852101,6,S02
9160,0.06384825170398063,6.776798684302257,7.1741175869192615,-4.2,-1.2,0.6,29.984136977823496,-16.5338324857315,37.55978886767131,6,S02
9180,0.0865586300263994,6.720849056880044,7.1617982613562585,-4.2,-1.2,0.6,30.5937833170569,-16.941313979874923,38.396643103611495,6,S02
9200,0.12676979551314407,6.7283325631087845,7.146274998319156,-4.2,-1.2,0.6,28.872441597867425,-17.032808476281197,38.50607060978394,6,S02
9220,0.0991561657878151,6.702477302108804,7.150822852212975,-4.2,-1.2,0.6,29.25830597044769,-15.908286686756638,39.1822447565972,6,S02
9240,0.10086266722898576,6.700813175114721,7.154032754656928,-4.2,-1.2,0.6,29.204871237754322,-16.507360868216573,38.96917122918537,6,S02
9260,0.07223364768847654,6.746209610933204,7.151842805123422,-4.2,-1.2,0.6,29.968915171647208,-16.15281072635794,38.706640057968485,6,S02
9280,0.1060178897655175,6.7619830282698485,7.176659248010818,-4.2,-1.2,0.6,29.405455535633827,-16.095375593387438,38.32340510246856,6,S02
9300,0.10302239329958181,6.732030160331348,7.185070583263167,-4.2,-1.2,0.6,29.553093094168737,-16.075321023706355,38.66170771199209,6,S02
9320,0.07284711815614323,6.7394148096798405,7.168065691159452,-4.2,-1.2,0.6,28.481396806115534,-16.76086029044565,38.126718398941286,6,S02
9340,0.06839091006046072,6.7667633445152235,7.174049295213977,-4.2,-1.2,0.6,29.56900022246442,-15.911684275458894,38.44022553418589,6,S02
9360,0.07926431810294363,6.784143144112542,7.137827127266835,-4.2,-1.2,0.6,29.129409153945996,-16.215043155451532,39.12484652724525,6,S02
9380,0.10748106430063797,6.729534880411427,7.2046316902953125,-4.2,-1.2,0.6,30.309737713704095,-17.478661326643945,38.59883831180935,6,S02
9400,0.09487068558622348,6.717425667145917,7.160970041868799,-4.2,-1.2,0.6,29.06024521159941,-16.871800947524136,37.53626321949984,6,S02
9420,0.12513054015880484,6.7114992541435345,7.179215139698283,-4.2,-1.2,0.6,29.190213649921297,-16.195032803022308,37.809323041813016,6,S02
9440,0.12463603012296512,6.764818540305245,7.163701661807611,-4.2,-1.2,0.6,30.02229297635962,-17.099058510919853,38.41768951893848,6,S02
9460,0.09913483139690653,6.774585381175494,7.195655043865544,-4.2,-1.2,0.6,29.982983921402777,-15.703076100348845,37.41368325788637,6,S02
9480,0.11261921503442024,6.730043238041748,7.152449142003835,-4.2,-1.2,0.6,29.67233995476314,-15.749669472804662,38.17966063514945,6,S02
9500,0.11767158923090747,6.711732906179137,7.169021227547421,-4.2,-1.2,0.6,29.49893213525898,-16.201313498785026,39.109543871509686,6,S02
9520,0.07610322634739256,6.76380336617845,7.141016687823326,-4.2,-1.2,0.6,30.12864600061077,-16.35785624108471,38.0415362752721,6,S02
9540,0.07105264383744368,6.7580842708349085,7.139810899852819,-4.2,-1.2,0.6,30.26171895708735,-16.310063476937486,37.725489983392066,6,S02
9560,0.10206701833881168,6.732333950646009,7.18604137266168,-4.2,-1.2,0.6,30.175896387755557,-16.626515390792022,38.389525751513965,6,S02
9580,0.0680662249059164,6.742682108793038,7.160661932970976,-4.2,-1.2,0.6,30.097990165569367,-17.072332100119944,39.18674751402372,6,S02
9600,0.08384766975667245,6.746978083964536,7.168530265637056,-4.2,-1.2,0.6,29.81719356044601,-16.44063554332713,39.45822347779309,6,S02
9620,0.07685893135106406,6.749402151551911,7.114605364279187,-4.2,-1.2,0.6,29.823839735347732,-16.141214589433417,38.889421014699714,6,S02
9640,0.11068155867756091,6.7447547494959394,7.180591346814847,-4.2,-1.2,0.6,29.601246817885407,-16.079153579225455,37.00852475158234,6,S02
9660,0.1300335419212701,6.7165123516112635,7.197281511441819,-4.2,-1.2,0.6,29.07621576841871,-16.68795229315395,38.44677239900837,6,S02
9680,0.0903276403485222,6.743786130530715,7.196248597247381,-4.2,-1.2,0.6,29.07044113740405,-16.5562336291748,38.004442469938816,6,S02
9700,0.12016750220592312,6.710651992863264,7.1566704446699925,-4.2,-1.2,0.6,28.669007156099653,-16.4001671801036,37.93859237760279,6,S02
9720,0.08217599240509964,6.733545037212033,7.185194666965707,-4.2,-1.2,0.6,30.33318879112323,-17.107417104061447,38.31761549282924,6,S02
9740,0.11500070806014753,6.715437344223063,7.163398697873629,-4.2,-1.2,0.6,30.075706284893165,-17.283705352072083,37.9818457423225,6,S02
9760,0.11413023223149861,6.739509614217963,7.169739418592465,-4.2,-1.2,0.6,29.979309200422442,-15.791924559347578,38.28853387575504,6,S02
9780,0.09524328018175494,6.781872892507049,7.162552963105296,-4.2,-1.2,0.6,29.251909559443433,-17.019059680001256,37.7260415613603,6,S02
9800,0.12568447187168919,6.748245410654697,7.176215314937665,-4.2,-1.2,0.6,30.096738414801298,-16.114017694906455,38.49840913818817,6,S02
9820,0.127332302183908,6.7596406823748785,7.171984827537265,-4.2,-1.2,0.6,30.369923747211256,-16.981526381905528,38.43757939900704,6,S02
9840,0.17744108943136827,6.7341225442840615,7.16836917703168,-4.2,-1.2,0.6,30.063251355792463,-16.427153215521045,38.467159971393386,6,S02
9860,0.09389231859387234,6.707989720249941,7.14623142311868,-4.2,-1.2,0.6,29.48203562973278,-15.716161356657375,37.644116616592456,6,S02
9880,0.09736026383920829,6.758005060953624,7.166721566435537,-4.2,-1.2,0.6,29.85492746568743,-16.717829667606196,38.631201251211685,6,S02
9900,0.12078985260367178,6.709330819764868,7.18092904475378,-4.2,-1.2,0.6,29.273678896050345,-17.00964720678593,38.28669746160355,6,S02
9920,0.05745740132665211,6.741744423217587,7.171553542919633,-4.2,-1.2,0.6,29.565928003020556,-17.407162302901813,38.24956102957485,6,S02
9940,0.09652761018553128,6.735992513879162,7.145194745294519,-4.2,-1.2,0.6,29.365164623674367,-16.78031192951726,37.89805149060703,6,S02
9960,0.10777841540410366,6.733658219259335,7.168387911356698,-4.2,-1.2,0.6,29.50829608940381,-16.422787459667287,37.61458136994707,6,S02
9980,0.12875131817962765,6.723920355245648,7.156759181640151,-4.2,-1.2,0.6,29.462664777449408,-17.753742110861886,38.34855237852202,6,S02
10000,0.08480184445556352,6.728202156280503,7.188624769448703,-4.2,-1.2,0.6,29.448371630984344,-15.827891521907391,38.2693431235558,6,S02
10020,0.09142728129230826,6.752214532671877,7.1694599952472,-4.2,-1.2,0.6,29.809988828977524,-17.13257421097739,38.65246872993319,6,S02
10040,0.11433067034885465,6.756327607304995,7.154000049515763,-4.2,-1.2,0.6,30.856848559196862,-16.528359788840667,38.19667118649428,6,S02
10060,0.07310312466780972,6.741973316343521,7.1753602650198705,-4.2,-1.2,0.6,30.215577175024553,-16.91566279604571,38.0790425912281,6,S02
10080,0.12893995995196722,6.744624605154091,7.128598979656441,-4.2,-1.2,0.6,29.31523388739594,-15.883974585720962,38.36437764651516,6,S02
10100,0.06499399659487018,6.7343200465558235,7.159445698932468,-4.2,-1.2,0.6,28.88113711855732,-16.249272102544005,38.80709463959239,6,S02
10120,0.13224489532953027,6.747849822632113,7.172734597804654,-4.2,-1.2,0.6,28.891240818975888,-15.704888164142444,37.708993566332694,6,S02
10140,0.057340023566622406,6.753809725080641,7.17734051200009,-4.2,-1.2,0.6,29.905614597800678,-16.446649966151277,37.8609512242122,6,S02
10160,0.10109979732388231,6.739692141313688,7.153615734058489,-4.2,-1.2,0.6,29.48106362225947,-16.042604925847836,37.898062295456626,6,S02
10180,0.07681596910247956,6.7295695581898975,7.15632671857845,-4.2,-1.2,0.6,29.49716350746308,-16.251210872939733,38.5304357876774,6,S02
10200,0.07976196840009483,6.763986135813682,7.178692893622024,-4.2,-1.2,0.6,29.991487017995496,-16.190410683367915,38.43975710155275,6,S02
10220,0.10698724316428893,6.766153311933441,7.198274772318517,-4.2,-1.2,0.6,29.427079128117573,-16.490189093713486,39.311868237040756,6,S02
10240,0.09411639061893215,6.768991508313743,7.168290928279569,-4.2,-1.2,0.6,29.305328276650624,-15.989854348377813,39.38634986696449,6,S02
10260,0.0708916784923115,6.702689839834349,7.157725456528242,-4.2,-1.2,0.6,29.640597766876535,-16.200234629571675,38.73226211284816,6,S02
10280,0.09229949854624288,6.736111327987364,7.166738178463364,-4.2,-1.2,0.6,29.587592954402602,-17.08381718101119,38.88519674292268,6,S02
10300,0.09669167202398428,6.728524053803923,7.200845775855745,-4.2,-1.2,0.6,30.40967775170084,-16.611853243294654,37.179857557453744,6,S02
10320,0.08886820052232434,6.743580851348534,7.210195041095762,-4.2,-1.2,0.6,29.02377642158347,-16.979833156856607,37.72747745772159,6,S02
10340,0.08048796439972915,6.766274703171131,7.1541173107992915,-4.2,-1.2,0.6,29.924768767313793,-16.83204796889154,37.82494028456619,6,S02
10360,0.07004823633031129,6.721413816873008,7.147761420399365,-4.2,-1.2,0.6,29.84730101770223,-16.030242716590752,38.50490032100907,6,S02
10380,0.11556583032830504,6.762193027943353,7.167554710539404,-4.2,-1.2,0.6,29.416163010361117,-15.730803723261763,38.14169541243814,6,S02
10400,0.10882812674117827,6.738391520901465,7.174127201593863,-4.2,-1.2,0.6,29.710842382032617,-17.031279523266896,39.45780638850314,6,S02
10420,0.07352568141313326,6.751067193355118,7.167982521640347,-4.2,-1.2,0.6,29.153905955772647,-16.897660892806968,38.412272322760934,6,S02
10440,0.100887615846969,6.720514421806261,7.170047681450576,-4.2,-1.2,0.6,30.19369634998997,-17.132907605932203,38.53420318513361,6,S02
10460,0.10094071929395536,6.74966714779435,7.13264398868745,-4.2,-1.2,0.6,29.644724438567962,-16.85235020064543,37.764499337318455,6,S02
10480,0.13472514488807458,6.753490917646147,7.164983443557377,-4.2,-1.2,0.6,29.45571128232595,-17.272057421890075,37.84514613460872,6,S02
10500,0.10401869487443466,6.723183685416645,7.1683281721098595,-4.2,-1.2,0.6,28.899478229562643,-16.87384205414353,38.162801252301705,6,S02
10520,0.12941999637420762,6.723642072441354,7.1615114874273385,-4.2,-1.2,0.6,30.04991822911976,-16.165637324491364,38.75880572690415,6,S02
10540,0.1034467720411727,6.753895368269998,7.169918910545349,-4.2,-1.2,0.6,29.616989006681454,-15.919568198663592,38.531588362271336,6,S02
10560,0.09470768478017855,6.738599936537764,7.163550977734342,-4.2,-1.2,0.6,30.012410803003284,-16.293759426901467,38.86462472199542,6,S02
10580,0.12350672604855767,6.759096521507623,7.159791098842778,-4.2,-1.2,0.6,30.21655693161604,-15.679279134079279,38.432305734877325,6,S02
10600,0.11249122806131286,6.705321091673107,7.189457741132332,-4.2,-1.2,0.6,29.96887305512623,-16.376407925819194,39.01076889694545,6,S02
10620,0.1153106389809975,6.711111859744386,7.162953385032655,-4.2,-1.2,0.6,29.324333747563163,-16.587178578864794,38.08152488746223,6,S02
10640,0.08930627307350511,6.723643878589395,7.17392713564833,-4.2,-1.2,0.6,29.01171913462311,-16.32951757844934,38.184990820259856,6,S02
10660,0.11645341754504539,6.717413341159264,7.159899783471865,-4.2,-1.2,0.6,29.908023217245248,-16.35646487226076,39.071837638814436,6,S02
10680,0.07821673142579796,6.708509050522306,7.125855076584763,-4.2,-1.2,0.6,29.975670145029838,-16.80003809837775,38.32883777264411,6,S02
10700,0.09924612963671577,6.745203724919309,7.163564401103104,-4.2,-1.2,0.6,29.321998155525254,-16.545832993152167,37.80072540850822,6,S02
10720,0.0849283697442338,6.748604547200799,7.147508522905751,-4.2,-1.2,0.6,30.375201747956368,-16.791407928031596,38.27782922079782,6,S02
10740,0.07693153947461509,6.761856897983784,7.187422078411142,-4.2,-1.2,0.6,29.122749632231823,-16.906728570860164,37.82154619637585,6,S02
10760,0.10313344794317891,6.735990335278394,7.17097952719359,-4.2,-1.2,0.6,30.66971134094973,-16.294664644208396,38.291052174460745,6,S02
10780,0.10047063392869561,6.74438881184557,7.1590226420359855,-4.2,-1.2,0.6,28.863251814197966,-17.258753386148193,39.13712363113746,6,S02
10800,0.13038820328260867,6.738926770635624,7.1872615643412106,-4.2,-1.2,0.6,29.975932849232713,-16.499448539369837,38.729774976725665,6,S02
10820,0.11352302587010843,6.763996734177498,7.171538526487832,-4.2,-1.2,0.6,29.857909828014545,-15.968962080312156,38.537815152413714,6,S02
10840,0.08469244126093893,6.75581135806479,7.150871242972446,-4.2,-1.2,0.6,29.903834841222658,-16.476525190869957,37.606306832407164,6,S02
10860,0.10411471284566841,6.748583522274869,7.17090373249627,-4.2,-1.2,0.6,29.458601850275826,-17.13275831139671,38.119079018283315,6,S02
10880,0.09849740689308935,6.753949339505387,7.157552647841644,-4.2,-1.2,0.6,30.287633003878476,-17.54340926506984,37.8580384180547,6,S02
10900,0.06370033019977636,6.765032759015703,7.184926394724484,-4.2,-1.2,0.6,29.624758718961353,-15.501130355635357,38.549187166228144,6,S02
10920,0.10816018221748196,6.768836678468629,7.123154878330056,-4.2,-1.2,0.6,30.350791889689624,-16.80437033730729,38.07719173541149,6,S02
10940,0.13820363500833652,6.72735312964397,7.166091913059514,-4.2,-1.2,0.6,29.44586782871254,-16.919566270299534,37.36640318423283,6,S02
10960,0.10828886619336182,6.709288601214737,7.175278131901737,-4.2,-1.2,0.6,29.57153575615647,-16.79666022697651,38.628468744311185,6,S02
10980,0.09596441010639194,6.72526385682109,7.163340807401198,-4.2,-1.2,0.6,29.92339192275713,-16.709893490457418,37.667720081954506,6,S02
11000,0.1116843310955927,6.732911340341541,7.1648998937154325,-4.2,-1.2,0.6,30.10671520195186,-17.27533429961827,37.852127908325805,6,S02
11020,0.10492942041627837,6.709399018533433,7.180641497451623,-4.2,-1.2,0.6,30.42362389040022,-17.838685003289417,38.04715823475227,6,S02
11040,0.08091025482656375,6.727386137633419,7.1484022719490445,-4.2,-1.2,0.6,29.250714664256407,-16.323416264861457,38.66199903976741,6,S02
11060,0.09516414412661507,6.747581405739802,7.160172362143454,-4.2,-1.2,0.6,29.64887497534974,-15.575987982659077,37.97090595169453,6,S02
11080,0.08592296560916708,6.725636810484017,7.182437134654926,-4.2,-1.2,0.6,30.554332177582815,-16.425315140572742,38.22968879953687,6,S02
11100,0.062185475969006816,6.688719395999708,7.171517180590777,-4.2,-1.2,0.6,30.221297880333996,-16.31515333671358,37.5007107836783,6,S02
11120,0.07020429606223727,6.695448115102176,7.209197574074097,-4.2,-1.2,0.6,30.06272127774246,-16.70556802079568,38.15728751758213,6,S02
11140,0.06899507833063144,6.7338918979774895,7.150022925262851,-4.2,-1.2,0.6,29.334879331100638,-16.465991097729177,37.581006280200775,6,S02
11160,0.08258076507503125,6.768307112367531,7.152635605672058,-4.2,-1.2,0.6,29.280305126805242,-16.406200287960193,38.989064647518816,6,S02
11180,0.10067368073727107,6.785420212025554,7.141850451709243,-4.2,-1.2,0.6,29.126537868655557,-16.448996141760865,37.874619296968596,6,S02
11200,0.10266105226194791,6.722963815437317,7.17056299660638,-4.2,-1.2,0.6,30.27276818316269,-16.061990568653115,37.991093506813485,6,S02
11220,0.11916262236516315,6.7489582748937815,7.196502194332291,-4.2,-1.2,0.6,29.406478154554662,-16.21136131156517,38.5619157964965,6,S02
11240,0.07806054530437843,6.772423230802578,7.192578661368656,-4.2,-1.2,0.6,29.505445128154758,-16.158119045634287,37.58730627045553,6,S02
11260,0.11000983671510979,6.737123330984171,7.136376772010872,-4.2,-1.2,0.6,29.789852982878582,-17.136242274856354,37.950064503287784,6,S02
11280,0.1147044807009075,6.752053308486234,7.173443146632016,-4.2,-1.2,0.6,28.929918033041755,-15.216139209073056,37.42224903957427,6,S02
11300,0.09986348435411588,6.739464871141746,7.15458382967242,-4.2,-1.2,0.6,29.02467704356301,-16.99854246128973,38.826497801429156,6,S02
11320,0.0973922156376506,6.745384790815883,7.196973537812213,-4.2,-1.2,0.6,29.71174775706364,-16.267114238605956,39.10261021284649,6,S02
11340,0.10986061485337739,6.73973761799455,7.177294483961229,-4.2,-1.2,0.6,29.620807706016702,-16.903298092789026,37.977022034701804,6,S02
11360,0.08129991743412576,6.726948944496133,7.188947875341399,-4.2,-1.2,0.6,28.998936526077788,-16.9337710348156,38.38710400498222,6,S02
11380,0.09321808393386516,6.724230936597269,7.191021730388272,-4.2,-1.2,0.6,29.667753102704985,-16.90542392453709,38.03458966219022,6,S02
11400,0.10732906236531273,6.745582319771821,7.1869528199723645,-4.2,-1.2,0.6,29.652026997504304,-17.777769655847834,37.91577241221898,6,S02
11420,0.09177113708829707,6.69416764474667,7.1528834235595475,-4.2,-1.2,0.6,30.071689038091556,-16.868173263529282,37.58206618259002,6,S02
11440,0.09512615699716064,6.7200774692441865,7.1764373407192625,-4.2,-1.2,0.6,29.320561966955523,-16.36889628304696,38.40040528925529,6,S02
11460,0.10294406244393618,6.7359749856222635,7.174184452519217,-4.2,-1.2,0.6,29.678500989175443,-15.701945603394895,38.46812931401849,6,S02
11480,0.059992709253724734,6.788284602758108,7.165830596005866,-4.2,-1.2,0.6,29.271383707945667,-16.107119579245357,39.16130432253041,6,S02
11500,0.08828064688194925,6.728328293220006,7.204687290441948,-4.2,-1.2,0.6,30.295411735054234,-17.196170502781964,39.00139577095552,6,S02
11520,0.08427541999963853,6.737794519561693,7.185483138937971,-4.2,-1.2,0.6,28.82271558769034,-15.913551717445522,38.528767098086895,6,S02
11540,0.09506636500490985,6.712536965164155,7.1623527402064795,-4.2,-1.2,0.6,29.924839622488847,-17.162794873139656,38.273267977078795,6,S02
11560,0.11806801184007117,6.731076048842464,7.152661852879078,-4.2,-1.2,0.6,29.056237937566124,-17.067888733851063,37.46075982793333,6,S02
11580,0.0849010783561609,6.696104099033301,7.152981030114938,-4.2,-1.2,0.6,28.921313802918714,-17.22888539801079,39.12670466610299,6,S02
11600,0.07888172739872551,6.732614721429418,7.168114370398536,-4.2,-1.2,0.6,30.48238004025322,-16.874390329132567,38.518736692756356,6,S02
11620,0.09583848507222138,6.744013511900695,7.165636220468463,-4.2,-1.2,0.6,29.2163063005323,-16.206443809567173,38.63280089033015,6,S02
11640,0.13880066821390538,6.765684103768441,7.179262232861152,-4.2,-1.2,0.6,29.7405343638126,-16.499189098101834,38.28856714199537,6,S02
11660,0.10870300563066107,6.7716528649953815,7.186788637311405,-4.2,-1.2,0.6,29.842808596694468,-16.67084899283263,38.340570852491936,6,S02
11680,0.11335611465971629,6.7546687232349205,7.198767653059654,-4.2,-1.2,0.6,29.87922463548389,-16.020698738891284,37.82845480565554,6,S02
11700,0.09233390520988126,6.745037727070075,7.165606114066981,-4.2,-1.2,0.6,30.14107641746006,-17.278871577970477,37.699665328714445,6,S02
11720,0.0910117720790813,6.7074677590132525,7.178143961610158,-4.2,-1.2,0.6,29.066026573008507,-16.86653077898042,37.67700174211819,6,S02
11740,0.08161029232545942,6.750401489782252,7.181416845138665,-4.2,-1.2,0.6,28.53831691110806,-17.054541463036074,38.2929134229979,6,S02
11760,0.10196278833331258,6.7556536552994775,7.188825614770013,-4.2,-1.2,0.6,30.106097151654126,-16.280109359544753,38.3867297372185,6,S02
11780,0.07796198994764654,6.747417179247658,7.167302015968023,-4.2,-1.2,0.6,29.48776643668994,-16.61124733112956,38.94978208601971,6,S02
11800,0.0954358121241082,6.744131794604118,7.165903763464025,-4.2,-1.2,0.6,30.11144258228552,-17.07574991959776,37.92031071509797,6,S02
11820,0.11716955386255119,6.755440512358404,7.196753048028434,-4.2,-1.2,0.6,29.049111711431593,-17.27112416579967,37.76126205778986,6,S02
11840,0.0688851967532767,6.773150386588656,7.165270841934497,-4.2,-1.2,0.6,29.66848672162081,-17.03031694167099,38.59462108085013,6,S02
11860,0.08568863391663153,6.711295378631413,7.14102611419931,-4.2,-1.2,0.6,30.539741061828497,-17.10126900889665,38.00005903958122,6,S02
11880,0.09991257242606974,6.725862487822301,7.157962625980588,-4.2,-1.2,0.6,30.07362170958863,-16.418055941502114,38.66077834068031,6,S02
11900,0.07389981659369547,6.7369589872510565,7.173332471643982,-4.2,-1.2,0.6,28.958656632760828,-15.859959240295831,38.362969229873016,6,S02
11920,0.08750050356342805,6.718988472690556,7.167058903734061,-4.2,-1.2,0.6,29.10996718961009,-15.651977560752803,37.87592028063095,6,S02
11940,0.13624346274458168,6.72610384507468,7.155099710136542,-4.2,-1.2,0.6,29.27381217783965,-15.876884710653702,38.90236154791554,6,S02
11960,0.09324549790924547,6.738089202314914,7.143239774437106,-4.2,-1.2,0.6,30.331541421882942,-16.545592796807142,37.284631182947415,6,S02
11980,0.1175127462489916,6.731299524039591,7.147457553973029,-4.2,-1.2,0.6,30.131247043995806,-16.775833457438047,37.86577890420351,6,S02
12000,0.13337028758814132,6.755458473281538,7.168259793959797,-4.2,-1.2,0.6,29.37637876870192,-17.01627270671156,37.94298590466376,6,S02
12020,0.12821215569305225,6.73740518289862,7.191983955497294,-4.2,-1.2,0.6,29.069775274240133,-16.704417130673516,38.124594844242246,6,S02
12040,0.11686627638496017,6.7510831328049274,7.161031071283724,-4.2,-1.2,0.6,29.761895137747317,-16.61468801536583,38.58511840356739,6,S02
12060,0.11993879395239744,6.785876211680312,7.145925671094862,-4.2,-1.2,0.6,30.465773427701617,-17.217634135095565,37.9832662173404,6,S02
12080,0.0872397123650394,6.73850079393429,7.183571163913785,-4.2,-1.2,0.6,29.87900979173351,-16.32741040334198,37.610835841389544,6,S02
12100,0.11359394324020523,6.725827414461499,7.154942859351486,-4.2,-1.2,0.6,29.833441866403376,-16.165254166206005,38.12994867977746,6,S02
12120,0.0785993545881638,6.73749944758923,7.1460502020050205,-4.2,-1.2,0.6,29.7316907728237,-15.608841272680895,38.43852696821646,6,S02
12140,0.11739587878880643,6.734197321536316,7.144078204285911,-4.2,-1.2,0.6,29.409709744442498,-15.907746583739922,38.56234337736659,6,S02
12160,0.09360245538030446,6.778782381431533,7.141667291082911,-4.2,-1.2,0.6,29.61853863083219,-16.086097508178078,38.25720503759018,6,S02
12180,0.11409587454505597,6.746607901068768,7.167765524820134,-4.2,-1.2,0.6,29.77152962069119,-16.935531891924846,38.300484183096025,6,S02
12200,0.09865582130856332,6.745441754296134,7.160864176849661,-4.2,-1.2,0.6,29.618980611439497,-16.99472665958623,38.36439130793944,6,S02
12220,0.061179197259049946,6.7294527479109245,7.188026182787701,-4.2,-1.2,0.6,29.566120445306925,-16.89787862580381,38.802645443429554,6,S02
12240,0.10627017828957401,6.754778894803829,7.146002041334094,-4.2,-1.2,0.6,30.033943117419646,-16.360258358756518,37.959493930815654,6,S02
12260,0.1043073676471065,6.772332034073365,7.152693092032747,-4.2,-1.2,0.6,29.48256491197546,-16.345844332507692,38.11302647201519,6,S02
12280,0.07391044802529415,6.738333199453693,7.157609881189643,-4.2,-1.2,0.6,29.606910240114082,-16.174139177544568,37.58357494492669,6,S02
12300,0.09654351535441937,6.750550708898292,7.168222470329461,-4.2,-1.2,0.6,29.64269984301864,-16.51007166394365,37.1577362529916,6,S02
12320,0.10309214336485455,6.740555161982695,7.168461322195337,-4.2,-1.2,0.6,29.93717714754904,-16.145960840301395,37.78368128137286,6,S02
12340,0.1292430925509877,6.715141061922123,7.140305431629178,-4.2,-1.2,0.6,29.512122575692633,-16.936605839493968,37.98991654975382,6,S02
12360,0.0793321893893491,6.766869202600312,7.170792055666543,-4.2,-1.2,0.6,30.371684643413836,-16.473710391348302,37.010616901725044,6,S02
12380,0.12092755065907686,6.790376204339034,7.1551154566229975,-4.2,-1.2,0.6,30.22606914687179,-17.003830461553846,38.40364465794382,6,S02
12400,0.10340275592836347,6.753859897314005,7.144944078623539,-4.2,-1.2,0.6,30.181114586255237,-17.135053036000443,37.07807879946478,6,S02
12420,0.14319995859810775,6.728546502618615,7.182124736083573,-4.2,-1.2,0.6,29.922096382657383,-16.9224176769674,38.130872493899474,6,S02
12440,0.11466304391330062,6.756672858349668,7.147445323611605,-4.2,-1.2,0.6,29.53785535539101,-17.83142095477436,38.224980618608136,6,S02
12460,0.11940228444893904,6.7091308578595275,7.154055531736069,-4.2,-1.2,0.6,30.112173736823873,-17.00476618539954,38.45984425584036,6,S02
12480,0.07240832768221744,6.754670198850093,7.202980401741247,-4.2,-1.2,0.6,30.12507020243467,-16.2191488632267,38.334413451397666,6,S02
12500,0.1280997344364216,6.768309704798743,7.186603973563346,-4.2,-1.2,0.6,29.257396284955323,-17.175007726792245,38.41248701511612,6,S02
12520,0.11843005116484678,6.7448270443566924,7.187216891561183,-4.2,-1.2,0.6,29.854804304915543,-16.26198404090509,37.918136762323904,6,S02
12540,0.12092899349887784,6.784192431331507,7.171129215318023,-4.2,-1.2,0.6,29.86983620597011,-16.56383593849855,37.95122020818938,6,S02
12560,0.08096853736657678,6.747156091759976,7.187860447807684,-4.2,-1.2,0.6,30.136224351966096,-17.79362442498835,37.87245865346953,6,S02
12580,0.11128736625326346,6.7673948990629,7.198542185672771,-4.2,-1.2,0.6,29.341875589303445,-16.301744969768414,38.387686399252274,6,S02
12600,0.09553418784354767,6.745057027339407,7.178075540776635,-4.2,-1.2,0.6,29.071977339744524,-17.918531728958,37.711533032953085,6,S02
12620,0.1445571157691683,6.716621051779962,7.159497113768293,-4.2,-1.2,0.6,29.51179177481883,-16.852899316483782,39.22420026947093,6,S02
12640,0.09301684549290477,6.743642650788676,7.170293022881376,-4.2,-1.2,0.6,29.687994125161808,-16.470311898154883,38.79203742442322,6,S02
12660,0.09680003446026925,6.720134181392517,7.204597421587948,-4.2,-1.2,0.6,30.624742287377565,-17.187809654513355,38.154062825833584,6,S02
12680,0.09667589425837407,6.765944300410702,7.1306368713640245,-4.2,-1.2,0.6,29.50333241007828,-16.512601202640646,37.9982434492963,6,S02
12700,0.07846260237746444,6.731821276304098,7.15693772111755,-4.2,-1.2,0.6,29.313088044186244,-16.922476618449103,37.19377854006251,6,S02
12720,0.08389948091867003,6.742570938482031,7.152388005849196,-4.2,-1.2,0.6,30.10571964696526,-16.44017007131196,37.66506939036204,6,S02
12740,0.081610193769289,6.702016462330303,7.137374442720792,-4.2,-1.2,0.6,29.791321160620452,-16.112024425329846,37.95943280273576,6,S02
12760,0.13773618692163322,6.731722104762307,7.146690897499175,-4.2,-1.2,0.6,30.05934221348974,-17.41057178544397,37.74180072837264,6,S02
12780,0.1034859915750693,6.760895317771003,7.180300920722564,-4.2,-1.2,0.6,29.32741946528415,-15.51858688706101,38.11768949210485,6,S02
12800,0.09439388005315177,6.732281404652437,7.1587771271919545,-4.2,-1.2,0.6,29.428842377559338,-15.934724755039916,38.252357162351544,6,S02
12820,0.11142083094582171,6.746334487329726,7.16526615845843,-4.2,-1.2,0.6,29.70655224139228,-16.27220584395632,38.796569226484976,6,S02
12840,0.11194935004600454,6.726122045090674,7.1788769962667764,-4.2,-1.2,0.6,29.213327903738808,-16.15270849749571,37.51633656104318,6,S02
12860,0.11756953100497433,6.7336853254094695,7.186983577388204,-4.2,-1.2,0.6,29.537958094317663,-16.314730868048137,37.993956762270386,6,S02
12880,0.07948645160618789,6.71539624431359,7.149423501999155,-4.2,-1.2,0.6,28.973763501705086,-17.026214458396957,37.962873128631706,6,S02
12900,0.09313255372410945,6.7496613074537635,7.167914961368159,-4.2,-1.2,0.6,29.96519527620815,-16.85103396681802,38.97069965153981,6,S02
12920,0.09381236958816061,6.753519928566851,7.1177006026760825,-4.2,-1.2,0.6,29.852033188934286,-17.518822953842047,37.77424774818168,6,S02
12940,0.1276373575290939,6.7078814961714155,7.176203722274004,-4.2,-1.2,0.6,29.454706229555025,-17.454073459669196,39.29578010921844,6,S02
12960,0.1309915744551275,6.73378121543613,7.206899305345349,-4.2,-1.2,0.6,30.228663659141006,-16.71867249090583,37.84885361110492,6,S02
12980,0.07078178784370232,6.675370418144397,7.191058238961306,-4.2,-1.2,0.6,30.26252469091641,-16.722723908194695,38.769976766442745,6,S02
13000,0.10808673747371843,6.727500248398925,7.165000361209633,-4.2,-1.2,0.6,29.709296553582995,-15.730329449445618,38.50853339956076,6,S02
13020,0.06753239298922975,6.710742717753504,7.15236503688234,-4.2,-1.2,0.6,30.29805683307735,-17.326902842098526,38.49067061016954,6,S02
13040,0.11284716698868037,6.730703719406555,7.167959414153719,-4.2,-1.2,0.6,29.500764307111417,-16.937496643531006,38.482494930674974,6,S02
13060,0.0698055397642364,6.715871562057345,7.178163032682039,-4.2,-1.2,0.6,28.71633892022586,-15.728475150178685,37.746456432946324,6,S02
13080,0.08352861173881374,6.750387745781581,7.184511994047081,-4.2,-1.2,0.6,28.80534011519184,-17.546413435289914,37.82999240264775,6,S02
13100,0.10123676584352406,6.714260827436478,7.160594462341716,-4.2,-1.2,0.6,29.637028810893682,-15.996484014539991,38.038537943930905,6,S02
13120,0.06598237350788014,6.744679522167425,7.175040306620531,-4.2,-1.2,0.6,29.334649694149668,-16.650735694592214,38.33488393971551,6,S02
13140,0.10410334401540729,6.747868119788237,7.151345702585963,-4.2,-1.2,0.6,29.886637410552634,-16.6496355730292,38.17093148948251,6,S02
13160,0.11133434802202236,6.732515932868661,7.190983221592641,-4.2,-1.2,0.6,29.339168039796352,-16.553435768943736,38.32340162307495,6,S02
13180,0.09405411535876887,6.7368924730134765,7.152852499707184,-4.2,-1.2,0.6,30.48144104997666,-16.72984372008061,38.05000274898211,6,S02
13200,0.09853322358655194,6.757285149299311,7.191724123482071,-4.2,-1.2,0.6,30.059475286292376,-16.665504989869543,38.52040346717186,6,S02
13220,0.11472541576203739,6.730836720826528,7.177497481094398,-4.2,-1.2,0.6,29.788365466914186,-15.470314051857896,37.83864356540676,6,S02
13240,0.06576753319780171,6.696422540883519,7.1402742416937715,-4.2,-1.2,0.6,29.615552279576168,-16.330330424372463,38.046263619268736,6,S02
13260,0.07935608093645816,6.741548602096837,7.1590903746631644,-4.2,-1.2,0.6,30.184668014752788,-16.705543501341346,38.53430815382783,6,S02
13280,0.10477143221079757,6.757005803374242,7.150327231126042,-4.2,-1.2,0.6,29.38158694035892,-16.519811416798866,38.07362576709232,6,S02
13300,0.10532618165331642,6.710603623536961,7.165909644315239,-4.2,-1.2,0.6,29.132190432250457,-16.016138042998286,38.47942926264574,6,S02
13320,0.09477039936640061,6.74804919911618,7.189146768852489,-4.2,-1.2,0.6,28.717593721159563,-17.139146023681498,37.86214049661,6,S02
13340,0.09911564535085618,6.750172737899787,7.177042519345033,-4.2,-1.2,0.6,30.129509104599183,-16.259892681753904,38.817749804668765,6,S02
13360,0.0924651215484764,6.76074473156388,7.20250747183237,-4.2,-1.2,0.6,29.685012042038135,-15.595531616315299,38.27740817925529,6,S02
13380,0.11842495640206353,6.742245399955977,7.179187434670105,-4.2,-1.2,0.6,29.765935967694567,-16.109842765323986,38.256026361185555,6,S02
13400,0.11396068315949234,6.704362628804381,7.165587245335396,-4.2,-1.2,0.6,29.631843255337298,-17.005936111489014,38.21762115530508,6,S02
13420,0.13305324816270503,6.708076121119331,7.121585354754427,-4.2,-1.2,0.6,28.917952290444095,-16.187537240627467,38.77903531157691,6,S02
13440,0.11025426086625972,6.764918395734294,7.161147879399754,-4.2,-1.2,0.6,29.25895362391414,-15.93527675744627,39.43873526541361,6,S02
13460,0.1186200966856667,6.728272961446667,7.150787069994196,-4.2,-1.2,0.6,29.977982512585307,-15.31037768887576,37.78426046751013,6,S02
13480,0.10542725553314733,6.759154317776822,7.181232557971478,-4.2,-1.2,0.6,29.168140101087435,-16.921223225518567,37.85183694550634,6,S02
13500,0.1036473966358418,6.759252947376595,7.195406018401729,-4.2,-1.2,0.6,29.86921842039192,-17.234618929042565,37.64605449979725,6,S02
13520,0.12099217238652908,6.705662068562212,7.175046438243386,-4.2,-1.2,0.6,30.499422623093395,-16.629156871622147,38.623182373224914,6,S02
13540,0.12303905145848583,6.761202359235764,7.142845602742162,-4.2,-1.2,0.6,30.569730550715782,-16.635582552192524,38.09660961466572,6,S02
13560,0.10198257795457646,6.741753836221629,7.156835678342325,-4.2,-1.2,0.6,29.774114119850456,-16.555627693552502,37.53721396203376,6,S02
13580,0.14223180852609074,6.700250000932186,7.194716483941597,-4.2,-1.2,0.6,29.539205393677893,-16.470213378590756,38.49933726140752,6,S02
13600,0.07024715187922188,6.747410210995084,7.145065947922904,-4.2,-1.2,0.6,30.227089729797022,-16.824119873999418,37.266486127721876,6,S02
13620,0.11658331225476483,6.731538841767104,7.195633216490539,-4.2,-1.2,0.6,29.113988788000555,-17.37272095333505,38.20691932205126,6,S02
13640,0.09555937170554114,6.737943218057124,7.200624676026386,-4.2,-1.2,0.6,30.227515298355556,-16.24192980161871,36.96389758390494,6,S02
13660,0.1474504735223124,6.743253985085466,7.160328103882254,-4.2,-1.2,0.6,29.959669679554086,-15.65940715145696,38.17228043633738,6,S02
13680,0.1068888266843462,6.71302061547233,7.154305877789583,-4.2,-1.2,0.6,30.228109745572688,-17.08733187179718,38.32413549830964,6,S02
13700,0.09964820713325326,6.717833993364661,7.17379146291861,-4.2,-1.2,0.6,29.20746662221655,-16.78971071957087,38.39027642170288,6,S02
13720,0.115826790847395,6.759131041248069,7.157737123626324,-4.2,-1.2,0.6,30.089630928641107,-16.98063061753721,38.132652617638314,6,S02
13740,0.09774196593117795,6.746955121405393,7.166291624435895,-4.2,-1.2,0.6,29.662979910713634,-15.85241909049204,37.7338512455322,6,S02
13760,0.10432833762389404,6.727903157744102,7.1732455108704265,-4.2,-1.2,0.6,29.821774862208045,-16.82656950488616,37.49468490935869,6,S02
13780,0.11744370660345341,6.734476812866741,7.192742858109133,-4.2,-1.2,0.6,29.413774430633843,-17.04338443783741,37.82656855908548,6,S02
13800,0.11518477620209983,6.754589010002664,7.187000064595997,-4.2,-1.2,0.6,29.387829683434287,-16.28520610596271,38.33488154022428,6,S02
13820,0.060222867907840205,6.737198664356711,7.149297938931869,-4.2,-1.2,0.6,29.99967345450705,-16.742603604001168,39.12027238740035,6,S02
13840,0.07769319277732907,6.7236393329372,7.18929889962062,-4.2,-1.2,0.6,29.17932429129885,-17.136254032991033,38.886680666088466,6,S02
13860,0.10917082370608505,6.7593284234170365,7.182090992739413,-4.2,-1.2,0.6,29.764339083144492,-16.467695524447983,38.18159303557359,6,S02
13880,0.13170410464009263,6.7307988330191275,7.184847066814245,-4.2,-1.2,0.6,29.967941694736105,-16.623854646218543,38.39827601151274,6,S02
13900,0.13711339014256005,6.722639530916173,7.170930656004696,-4.2,-1.2,0.6,29.2236556384573,-15.587467514627276,38.72155592610338,6,S02
13920,0.07828548129176693,6.752945221889718,7.137952439201423,-4.2,-1.2,0.6,29.935726564118966,-16.71918835503033,37.20305167381273,6,S02
13940,0.10471564269632797,6.741415983250328,7.193879177822423,-4.2,-1.2,0.6,29.572014151088826,-16.438645873958897,38.2909827681628,6,S02
13960,0.1301958395050287,6.7364548963475,7.151341265734616,-4.2,-1.2,0.6,29.82158273716177,-17.330536957296452,38.4266571202921,6,S02
13980,0.10329827456012605,6.703953931344912,7.2074906223783595,-4.2,-1.2,0.6,30.043548242808647,-16.330294218862242,38.91448757078727,6,S02
14000,0.12090240782551527,6.738909148277899,7.179167529871708,-4.2,-1.2,0.6,30.23170494861163,-16.084191246100183,38.43149189807204,6,S02
14020,0.09851016352724891,6.700231873880816,7.180149115109845,-4.2,-1.2,0.6,29.37431182187841,-16.576001881051432,38.61736100586319,6,S02
14040,0.11413233955276607,6.7351145376311,7.168610796201252,-4.2,-1.2,0.6,28.92071848818645,-16.517132415264175,37.934857913325615,6,S02
14060,0.07257434450808145,6.753918630078061,7.154044569512703,-4.2,-1.2,0.6,29.602673308654644,-16.126397615207377,38.44518866076187,6,S02
14080,0.08851732048714891,6.745793710063316,7.194594242439739,-4.2,-1.2,0.6,29.963211559786068,-16.748555291805385,38.4232315264738,6,S02
14100,0.08697209560468736,6.771330378004579,7.155470462254489,-4.2,-1.2,0.6,29.95083484453531,-17.080705341606343,38.13530724434029,6,S02
14120,0.09341729976710429,6.7056738038112655,7.146103999612019,-4.2,-1.2,0.6,29.913206123209672,-15.883374299931818,38.32756721105124,6,S02
14140,0.09706981615683383,6.772498727628851,7.163833799703618,-4.2,-1.2,0.6,30.940899286675,-16.66536645043979,38.678439669652775,6,S02
14160,0.07711863973272734,6.723873684604077,7.174865749307894,-4.2,-1.2,0.6,29.057154991009888,-16.538962631841375,38.488910647984,6,S02
14180,0.1006160675792814,6.7865196446254705,7.170785004896591,-4.2,-1.2,0.6,28.698130004311178,-16.08110133777786,37.85238400780716,6,S02
14200,0.11538429894627246,6.7551130813718725,7.195884235400633,-4.2,-1.2,0.6,29.45491932516018,-16.347456766909502,37.96449083182009,6,S02
14220,0.08162705474885146,6.746520535823041,7.19500889915126,-4.2,-1.2,0.6,29.89956710390878,-16.405821071080354,38.70420099545255,6,S02
14240,0.10296076544176802,6.749593912075722,7.149306345389255,-4.2,-1.2,0.6,29.4293161247399,-16.37004123513411,38.52382531638385,6,S02
14260,0.12609649790032373,6.733749007778287,7.174412091081441,-4.2,-1.2,0.6,30.681652264500464,-16.226222198887164,38.152630818938206,6,S02
14280,0.14075690440493444,6.744592054974154,7.154140349149124,-4.2,-1.2,0.6,28.94931844558537,-16.615355587281535,38.02614969204316,6,S02
14300,0.05854295400259432,6.752766980820968,7.16260301299576,-4.2,-1.2,0.6,29.710386095511048,-16.254669907080476,37.353581768083856,6,S02
14320,0.08282702637572024,6.764651922584598,7.178053002986549,-4.2,-1.2,0.6,30.436130267258985,-16.757394906906583,38.65704459982492,6,S02
14340,0.08460080260677616,6.739926254707945,7.144597229182479,-4.2,-1.2,0.6,29.48006126671721,-16.793526324969246,39.38791755900245,6,S02
14360,0.07802218160966565,6.717333583165878,7.157358250173965,-4.2,-1.2,0.6,29.58955566147047,-15.60723479716932,38.41984835807037,6,S02
14380,0.08903413024106287,6.754321653940277,7.1699022835842285,-4.2,-1.2,0.6,28.791117583889314,-15.974470583644557,38.345918490504154,6,S02
14400,0.10797160177388472,6.728786529439407,7.179684454578941,-4.2,-1.2,0.6,29.85255204095049,-16.49108788388397,37.99615886838399,6,S02
14420,0.09166451602102015,6.728531699937173,7.172915398456739,-4.2,-1.2,0.6,29.682862406840485,-17.317513351336025,38.99934083922191,6,S02
14440,0.1313724789138828,6.718668054966993,7.1552861503481715,-4.2,-1.2,0.6,29.227259332195057,-16.319726872347413,38.50394781619297,6,S02
14460,0.07693450503189438,6.744039875434874,7.165068177293763,-4.2,-1.2,0.6,29.127542347870996,-17.0547986628294,37.95747988766809,6,S02
14480,0.04123412023296513,6.768331896854747,7.172036158478069,-4.2,-1.2,0.6,29.0285875179016,-17.346754178895704,38.843063915598165,6,S02
14500,0.0975041085372545,6.700622748979777,7.177631632439698,-4.2,-1.2,0.6,29.46400998260896,-16.685356809094444,38.31885720954656,6,S02
14520,0.10910740590094428,6.7888378549504935,7.186834788944677,-4.2,-1.2,0.6,29.800376567199397,-16.41275078801952,37.897143865132705,6,S02
14540,0.13075455007277928,6.7272496426361466,7.157644836433202,-4.2,-1.2,0.6,30.712213010361005,-15.452356931294116,37.424717066531166,6,S02
14560,0.07843319881843823,6.739859791896823,7.174746667555353,-4.2,-1.2,0.6,30.029564241272887,-17.447309515848886,38.81746233330087,6,S02
14580,0.09222371792449013,6.713787946365707,7.135136564945408,-4.2,-1.2,0.6,29.385810481510802,-16.897224112179124,38.508635265907564,6,S02
14600,0.07167933450991273,6.732248350066218,7.154760461011659,-4.2,-1.2,0.6,30.297338787045266,-15.66732773394832,38.11068610734518,6,S02
14620,0.08654506863145488,6.752952040519352,7.173390565133492,-4.2,-1.2,0.6,28.725398741417415,-16.944306202534488,38.4992901831082,6,S02
14640,0.08905205047077203,6.7597107713987805,7.163088998417435,-4.2,-1.2,0.6,29.4565313715994,-16.44249720683785,37.61035209905894,6,S02
14660,0.1125138039800789,6.687253087532357,7.149385095110581,-4.2,-1.2,0.6,29.729032845259283,-16.350541893397555,38.08074258698607,6,S02
14680,0.08021920388302654,6.703600958365157,7.158625868990223,-4.2,-1.2,0.6,29.683508726243378,-17.491331281096365,37.86710822904526,6,S02
14700,0.11445203292607886,6.699014267092188,7.161030837609712,-4.2,-1.2,0.6,29.588831576159368,-16.59158101159972,38.885524996264934,6,S02
14720,0.12387904843634129,6.731774654505646,7.182289113274425,-4.2,-1.2,0.6,29.407544600356715,-16.612445319044358,37.65753187250763,6,S02
14740,0.09145279808148592,6.754952343512295,7.163547598199035,-4.2,-1.2,0.6,30.458787531036613,-16.13419291223973,37.884329986851284,6,S02
14760,0.11045566170848142,6.7368122464283555,7.210411819101331,-4.2,-1.2,0.6,30.043499155290412,-16.61412344165585,38.96782929419406,6,S02
14780,0.07874419863625737,6.761530045384069,7.190872891130076,-4.2,-1.2,0.6,29.390720585644196,-16.51316867400089,39.10472161597071,6,S02
14800,0.10266741041167461,6.7193781989270445,7.189972814083173,-4.2,-1.2,0.6,29.92386932123217,-16.983098917314173,37.46460520818935,6,S02
14820,0.1304600887527015,6.74776291431544,7.190718706706064,-4.2,-1.2,0.6,29.012622228414415,-16.466249440381407,37.81524809920846,6,S02
14840,0.10076168604657104,6.742328886101077,7.214988612568213,-4.2,-1.2,0.6,30.121182982377107,-16.95253503383087,38.87385441400838,6,S02
14860,0.12936161307438454,6.745960911547554,7.177746664291062,-4.2,-1.2,0.6,29.546776009656433,-16.411046715803177,38.497031730093155,6,S02
14880,0.06389579918210556,6.767752346218376,7.159761964304168,-4.2,-1.2,0.6,29.334494337004276,-17.650949459665526,38.685862131513574,6,S02
14900,0.07755062296264742,6.770215725700076,7.12837768556488,-4.2,-1.2,0.6,29.811221748550803,-16.523694792035496,39.37274641681074,6,S02
14920,0.1165986620639336,6.783583248747689,7.175923032959366,-4.2,-1.2,0.6,30.39596914178837,-16.053463744957824,37.37750684219096,6,S02
14940,0.11571151569995328,6.753568611669948,7.18211418146531,-4.2,-1.2,0.6,29.331444198405364,-15.600531047544516,38.224003868213,6,S02
14960,0.12729560091752096,6.722360683118769,7.177405684947438,-4.2,-1.2,0.6,29.9463075618141,-17.263884722532474,38.60623714980253,6,S02
14980,0.09278878095023661,6.774376970050014,7.151471542234468,-4.2,-1.2,0.6,29.669351756514384,-16.058672240916373,38.84806728952931,6,S02
