timestamp,ax,ay,az,gx,gy,gz,mx,my,mz,label,subject_id
0,-0.14583275615157354,-0.13528028693164645,10.230885505809415,-12.255920165325158,-1.9192435941840797,24.08067033881227,33.551835698208336,-4.9331550688002626,40.869783793650065,3,S02
20,0.9611011709510223,1.2545392288751143,11.336729223813757,28.964208957319588,53.0755270324965,24.841149287048708,33.48169249446197,-8.232256837317614,40.62505931022002,3,S02
40,1.3199015938059337,2.3678081642704307,11.986847190029028,68.96598920239516,88.64204697655036,9.44746639229093,34.55454951959184,-10.498084717839642,42.016088942659536,3,S02
60,1.2753149142821705,2.5705483091118944,12.734052224783898,66.40243424549996,110.26847329526649,-5.2986707462444445,38.23715406561133,-10.300775854270153,41.845398118177535,3,S02
80,0.9923475809994,2.514545492718466,13.266901308218216,59.802141212672865,106.06549803809152,-17.436063127478175,33.70069204459844,-10.447831651168222,42.075335704673485,3,S02
100,0.6803945940706301,1.8579625970658693,13.018157795696887,41.085926326966174,75.59596161911713,-32.15153224083502,38.87127975524312,-15.560991209059795,41.735313680059704,3,S02
120,0.46583076577073756,0.9350763667588777,12.784969753486527,14.779036548582873,43.54770224745142,-34.13880019738114,35.09782468465731,-15.027258697633687,41.78525466502708,3,S02
140,0.12140304698065196,0.5554792784621951,12.623795638662827,-1.1138815891789742,17.77637284792783,-30.89388040098148,36.43152816087992,-17.217940439979657,37.53265671460381,3,S02
160,0.11144542462289303,0.0839743738738894,11.999699311651893,-10.865873878393222,4.60672095268234,-32.63942132415455,35.94275839839284,-17.888813632590622,36.254679124332625,3,S02
180,-0.18687298827103002,-0.45564866435695767,11.589348177908528,-6.233128306146758,-6.15679146156938,-20.346102976005056,36.423270049636386,-24.020948544975408,34.72331961065561,3,S02
200,-0.07374678504576135,-0.550499716128466,10.396286022577351,-20.82619328912863,-35.095164676140065,-7.196037256058531,37.79353706417051,-21.666223668349502,32.07949688363562,3,S02
220,-0.18045675654288054,-1.2653931806464562,9.842838053135791,-31.14789824505709,-54.0131760383226,3.745810210971353,35.23149635366366,-26.36223803267982,30.145263633095933,3,S02
240,-0.6683238653543637,-2.1458259189059827,9.16809144361065,-51.29909732633315,-85.86240613842989,23.59235183909527,32.93198602923731,-25.140232565824128,30.816504747355793,3,S02
260,-0.9804090577569974,-2.606946059023012,9.032723503039742,-60.44089930979668,-105.16490679736593,33.49632019499988,36.02128112309628,-28.903671818781,32.94158875323643,3,S02
280,-1.4546951976421079,-2.839678179554144,9.19735699377573,-80.8954708459362,-109.33840887448777,38.431264146236,29.72807630614007,-28.438966141990097,35.9393106848094,3,S02
300,-1.291008768579233,-2.251860858698743,9.421608483490568,-64.6015025172349,-93.67822700768032,41.80874966759026,34.708635947129025,-25.577135804947094,36.320623819495694,3,S02
320,-0.5516024750602758,-0.8749149966728704,9.654787655607418,-32.936962349836804,-44.317527352229064,37.69620805156766,30.495946383754102,-33.085422798366835,35.38767792922562,3,S02
340,0.43975348653641866,0.2518468247006704,10.370386667810461,10.61876262346506,12.671663689137675,34.12156805438859,31.01673804191705,-31.350005681699937,39.138763163832756,3,S02
360,1.2093792952243874,1.963929875085095,11.484967836620447,46.49999487610601,66.88588206123511,13.916592931520173,26.814418790538205,-29.43258634185263,39.760438599514984,3,S02
380,1.6107926093392493,2.7566178884873827,12.300192443098382,73.13346646263224,99.11263693210856,-3.1349721783533893,27.09786413328897,-30.619531113580518,38.7541406142377,3,S02
400,1.3605622764350283,2.5240238033732427,13.025232916034991,77.96399689112033,108.70188812298265,-16.866295452725765,27.092398680226644,-30.704038775654087,42.88036030149949,3,S02
420,1.0522567368018845,2.1872072717661553,13.18958250569398,42.644479519669886,98.50856233135175,-27.203736022302014,26.03419889325906,-29.173475284138718,40.458673319337414,3,S02
440,0.49097781058909784,1.6877266594349611,12.951980597151222,25.081467873724936,59.318857920979376,-32.16545104959362,25.830053336526213,-30.427024244774984,39.57202562972243,3,S02
460,0.2889624343074439,0.674857152105192,12.952097071827222,23.08359069472075,42.35775908557299,-37.15737191003844,25.36609131924226,-25.71474836407407,36.45922551945436,3,S02
480,0.21206526557575972,0.13410748681007284,12.39228360537176,-1.2196001602140711,21.375745023014705,-39.03219762288763,23.163335898360266,-25.05975169287892,35.72275821501883,3,S02
500,-0.09075971179504477,-0.1999890715124067,11.779026104353678,-7.603640240368613,1.9442706669212362,-34.959429057194235,23.231554223841464,-23.904884075189962,37.02007407718298,3,S02
520,0.2056138550557115,-0.4004539963620949,10.801201902980834,-0.7158698359889906,-24.552802845285452,-22.44469765045264,24.514307562638713,-23.185771818573137,32.659004591756116,3,S02
540,-0.018237640676940947,-1.0583952844764308,9.998422065123348,-18.50471759058431,-31.90961136121907,-0.2091971056938423,21.647401508390217,-18.395101749599096,33.47148440200297,3,S02
560,-0.3381162436553855,-1.7940312806578353,9.72327761181121,-43.69763842170131,-67.32022245431745,14.816674645631961,21.095586475296486,-17.510234082894716,33.667589634389124,3,S02
580,-0.6187156573317595,-2.2946222073931724,8.901026378501745,-59.98856256586842,-97.14634945377004,30.15659100410992,19.232063708120116,-15.615067229600221,34.23430105109151,3,S02
600,-1.2109198708988822,-2.996206279610522,9.01623021949973,-70.42628448705428,-116.06455376225402,32.24364219241205,20.440376098784583,-13.422067832750662,34.27993137493944,3,S02
620,-0.9411098844384339,-2.788303561131369,9.170498009990142,-82.7067753225714,-104.39377057491308,41.810648179435404,21.31643652490171,-12.764580959451237,36.44189463434322,3,S02
640,-0.6831451758066747,-1.6153978953283588,9.33126428091658,-62.83448481604996,-72.7362412077417,43.9895593311437,22.4606854286819,-12.972360916938737,35.67397855221388,3,S02
660,-0.2837222777406876,-0.3892146163192663,10.024279290795116,-24.802519072100417,-23.200130917608778,42.359248880826186,23.541872839427448,-9.123385793165657,38.763922396257485,3,S02
680,0.8665142212636522,0.9521613382655825,10.89265362447937,21.70105913815894,35.96135842419578,27.0509096178326,22.07642664412799,-7.891805503686831,39.50750750419364,3,S02
700,1.208593080121495,1.9332658825522404,11.706350180873057,48.31605156347523,78.6853778007676,5.739122671846763,24.33184656786877,-3.121478584959087,44.18133823408026,3,S02
720,1.412927360717414,2.744771899788501,12.476063267549225,59.53994697641713,109.28417944378265,-0.1952877282197708,24.8839949917639,-8.452634476482972,41.766535013736366,3,S02
740,1.4433574068168697,2.5479826919110025,12.943084767228811,61.50856983276984,104.3904428811444,-14.683331652009043,26.8364798894266,-5.837091535297033,43.64853548194612,3,S02
760,1.02768701880572,1.8806281715510516,13.481064206216013,34.44706466903827,79.12377033539678,-35.72087372828704,29.70462502632068,-5.183351261791066,41.440589846947915,3,S02
780,0.520976460141736,1.3879392561732031,13.496849100496238,20.42531987631637,57.2551322043367,-38.39898731987332,30.328154413877435,-5.214009902596764,38.77572751337139,3,S02
800,0.2737668914638393,0.4525390443886889,12.884685281051102,2.25356672056573,21.743659039206772,-44.87159549895224,27.439838474884716,-5.124593699359507,35.76426990953535,3,S02
820,0.09579546049344648,0.15681985287353814,12.256976855873877,-8.28441887603622,7.50205092215043,-37.75215965537455,30.710718766340452,-5.727283060630948,34.03823487264283,3,S02
840,0.25399996281398163,-0.19166615953828836,11.386220567507431,-4.617922747294173,-6.910632087881704,-28.509627461047856,31.398662672970282,-6.976233367067498,34.33373343821867,3,S02
860,-0.12231375055903682,-0.4818736778398184,10.954750857818345,-7.975305810907692,-21.7221522274725,-12.515599927318227,34.081760649839445,-6.070458625727161,34.137986255679415,3,S02
880,-0.1238860032074926,-1.0902741143678016,9.894591217973375,-29.65601158685931,-49.57777833200916,6.207898314551977,33.747793379529185,-9.386603610548686,31.375998157906995,3,S02
900,-0.5725597328324584,-2.010184285659548,9.516869167306021,-46.22523828838514,-68.978779665241,12.173383961927897,35.68321545823123,-8.562528469916826,33.33035376492171,3,S02
920,-0.9133670546292786,-2.286396722399364,9.32448941113959,-56.04849760093368,-97.5487592655126,36.47304320150739,37.040757640306005,-11.331241702775166,35.83416374931572,3,S02
940,-1.0145975380843855,-2.821709822858157,9.291369541180119,-86.25463519115726,-112.6357181389655,35.48117665947916,33.97183118560386,-15.343183126834168,35.47415528920268,3,S02
960,-1.1681474437851709,-2.5643199579884426,9.205110622862527,-68.29993149216025,-100.38126521437144,44.69631599825131,37.385615121132474,-17.859409809128106,38.265520309725666,3,S02
980,-0.5900455750935203,-1.6682477882597655,9.668637193619848,-42.83432401504181,-64.91575325044809,32.88242073479898,35.566973019830016,-18.616272328869094,36.97038048866672,3,S02
1000,0.06189741097137133,-0.15917978793965923,10.409221558925738,-5.176436972744179,-11.282859063542348,32.75006661596487,35.8850705382582,-20.122693070542724,42.420332608801566,3,S02
1020,0.9778453364546266,1.1126706617524944,11.124696668797418,25.413968167393993,40.912646817532824,21.565669170695195,37.356330186101076,-25.211727555821497,39.47198377188202,3,S02
1040,1.5254893584453273,2.5117721391255294,12.048227779009412,60.446948469512506,83.23266028548163,7.327905462270037,32.96316202730452,-23.147537343782982,37.98089064771878,3,S02
1060,1.2024210969411795,2.8807773935275875,13.066076855727191,66.42573008130566,103.4517944298582,-10.59283751085498,35.954203284164116,-25.114555531572226,42.30290799077974,3,S02
1080,1.1837502406667522,2.642172194269845,13.381649595395245,57.926083077909716,104.31057955015494,-28.26168075693254,34.23010138488523,-26.64389907616281,40.474424983831504,3,S02
1100,0.8000268517659292,1.9431167881742188,13.374634775964465,42.408314255473414,79.57646694177919,-32.292754275124416,33.81342777321595,-25.544733105185493,40.76851288817495,3,S02
1120,0.46983198160925865,1.150853843924344,13.344387276088929,25.006768326028425,51.46992912361767,-29.358424907369262,32.1692877852935,-31.07451549819354,39.46520009566427,3,S02
1140,0.22270383929883636,0.6356208653427966,12.588727993853421,2.4398844546621623,28.94131209456855,-40.770992794352054,31.532047185929986,-29.16189610152201,38.37556413138842,3,S02
1160,0.23807784970112553,0.26157415708750387,11.770241958672571,-5.695503330876123,8.003481291456183,-36.68571827373681,33.63354094829243,-29.11996559776839,35.07554924725021,3,S02
1180,0.22667663214513425,-0.3200325277105322,11.43175647052739,3.3000206981357367,3.1283264338604324,-20.202239796683074,29.843030537677276,-30.211201602123037,33.22217739721425,3,S02
1200,-0.10064025609180144,-0.8073179803449884,10.642016514463407,-19.741739586055306,-23.851964393775646,-10.053819932827103,28.60925392906814,-30.1123337842044,32.90271302689467,3,S02
1220,-0.23852427066606915,-1.2598538848395948,9.627083689723094,-18.329485521020825,-52.33553849536905,6.3345180890159565,26.87537025967929,-29.050151214920493,30.78507535360199,3,S02
1240,-0.6065797665858927,-2.2044838806102938,9.556587907574327,-44.00792036939091,-76.98185795883232,8.237959601795756,28.477801997204743,-29.952012435324697,31.949460765411832,3,S02
1260,-0.8755508525756789,-2.710804778136994,9.135492246501645,-55.37305709694715,-103.8799971533591,40.38284779028102,24.39733277164804,-27.12009287592642,33.82475215991556,3,S02
1280,-1.3637888419709783,-2.7182739082756733,9.304314597525837,-73.5956406591791,-117.41688634402381,36.80029802591068,23.526504892480798,-25.973711597139946,34.635951362228184,3,S02
1300,-1.067089502844907,-2.2772606386553074,9.577972447753199,-68.07135067514912,-81.87275659604352,45.77246632652663,25.35356893282284,-25.523862570818533,33.807038395294356,3,S02
1320,-0.6493640936090755,-1.2228594568242823,9.644672039504265,-27.276921983575132,-53.72692509455762,34.87325896477191,22.964928324663468,-23.030604655764623,39.733441293475266,3,S02
1340,0.0491294044568978,0.6049727298958056,10.197940338163066,6.348696474903822,6.38446733032864,26.313758002028973,22.93095010814761,-26.057205382971993,37.13497281918039,3,S02
1360,0.8301277338258481,1.6850617411665996,11.426902888063184,54.342138321316106,56.734725490077324,19.79553658777662,23.816188509919442,-17.102117655283614,40.89616278696252,3,S02
1380,1.326062130999864,2.672324645190688,12.344404238535695,58.05200663547782,97.41582542244235,-3.311143321955105,21.3879787192662,-16.69258592172644,42.19792019936802,3,S02
1400,1.341967649139185,2.6466819565038695,13.020879792140583,72.93872182261768,118.43434864252876,-20.83741414459908,22.008606829596896,-17.0107873457708,41.936482824359764,3,S02
1420,0.7694417069348679,2.3715579775144233,13.153498085955485,59.412621898853665,93.20166419235966,-31.813070387591097,21.79442217504004,-17.257876928088677,40.955060703615345,3,S02
1440,0.38339720576295055,1.6768889587372717,13.504458732851703,27.51014435531312,70.73009411072185,-33.46687656720899,21.851916483027203,-14.369668080186642,40.42609456646775,3,S02
1460,0.5756499234575797,1.2708437170994935,12.831956281354953,11.457164908736896,39.35895018394124,-38.89548717065472,22.3065507982469,-9.193290462928955,38.71058428671965,3,S02
1480,0.06700793752859452,0.2984953141575876,12.432021790118316,-4.216638349115572,17.07517411104715,-37.354968857685776,21.201863627744615,-11.681665275947068,35.7935659055803,3,S02
1500,0.1408319188820339,-0.02813062574478488,11.559440613959495,-3.350565863229972,2.6426212336907673,-26.011784793921755,22.298305235568137,-9.450077778160287,33.34244294542961,3,S02
1520,0.04045739223771964,-0.6461771592137404,11.177091955400748,-11.79857348694427,-23.26634515941975,-24.637313925340678,26.44685111923439,-7.235452717367951,35.87711788757465,3,S02
1540,-0.13203902281843527,-0.6655100827365943,10.242175670364022,-12.972253598238272,-37.84315540461358,-6.093899593360785,23.473394196505073,-6.082658281411069,31.635530399546994,3,S02
1560,-0.30025512208826943,-1.8217639840296158,9.785460603200757,-42.81682809853798,-72.21340829717833,18.759984595925083,22.21326135325794,-6.912490779225277,30.927189922319616,3,S02
1580,-0.7254404202263643,-2.30498220239849,9.468974945320655,-61.42790238265437,-100.32935334158539,20.947290320553996,27.335844284025438,-4.033254030839308,33.32865915685505,3,S02
1600,-1.2417945285742622,-2.8484905552335142,9.131842958479666,-62.49476888321733,-112.7634488796904,41.436873582720494,27.124168895715286,-7.466746926241049,35.869340143349746,3,S02
1620,-1.3853852263905904,-2.9267972958857142,8.998768745253633,-66.82287851981934,-114.44529083418253,39.874199021024786,27.989472192595386,-6.235837016012237,35.010475494536806,3,S02
1640,-0.8163760439211718,-2.2970037140116735,9.762672543497793,-55.86833448452181,-90.66358443088899,33.7937602911716,28.563972527128467,-4.485829381251824,38.27996020581194,3,S02
1660,0.22160131858364635,-0.7934608067315463,9.528330275931621,-22.19000998412703,-28.934773887964905,42.26846036379015,29.917282607011618,-3.866314904004937,38.193343494294794,3,S02
1680,0.2784755153418361,0.6650638538078393,10.676854183717147,12.051431454264925,21.285322699975442,33.02728699297695,32.76635738443626,-7.223491773938211,40.94263215549332,3,S02
1700,1.0177679059383649,2.052660879310908,11.694613775712465,49.97021649342087,76.11280793405396,4.850438394390324,33.570771757219845,-5.894077332811017,43.38894272844681,3,S02
1720,1.2478354316839166,2.363309117468239,12.457234827215151,62.94947972845114,111.34637650676842,-2.7538691103299615,36.236618689765564,-8.023962851639254,42.203502586220644,3,S02
1740,1.1030408072478204,2.7692831203738173,13.366934684829138,67.83451686454536,100.74655917152727,-14.186753502308353,34.105350061686636,-11.86646848104639,42.6503455382732,3,S02
1760,0.9033921588447483,2.146969930170917,13.43791337340528,55.755353796631645,96.74759881828031,-29.050565101423707,33.041496976587325,-13.625211245961504,40.823095780077814,3,S02
1780,0.637412313455666,1.6244835609046364,13.500450211162802,33.901507692556876,60.86583646003281,-31.30013994605405,35.38780530933947,-14.18824816793638,39.24735781313607,3,S02
1800,0.17090854061902055,0.749992583163342,12.907166283110323,11.481544632350563,32.522100686087384,-38.17521741563789,34.92002108844049,-17.919421010681546,38.91360455770004,3,S02
1820,-0.05110728483330923,0.1294782307991107,12.17358060269081,-1.1142358472172154,17.206733449156786,-41.316231364493305,36.82494055592059,-21.587188475806258,36.51845388105833,3,S02
1840,-0.12052311853035333,-0.26122016869702014,11.493188340488597,-6.005369635211821,-2.614950550194429,-29.294329727642932,35.79419625035143,-19.788896403901667,36.05755255625759,3,S02
1860,-0.059029614448936396,-0.34121517155023934,10.664844482282577,-11.417909399991473,-11.613361597204248,-13.571396637047757,38.777155044908014,-19.658171040842994,31.569149250510378,3,S02
1880,-0.03406932672707649,-1.260077530975352,10.01256812020123,-25.288229724866326,-47.097243340781446,-6.26201816603912,38.05038577802809,-25.22913578939234,29.138650717741424,3,S02
1900,-0.5321028550470349,-1.9249912270996754,9.54770039213337,-37.88169212374849,-70.67815840786616,22.048568861599865,35.35430935262097,-25.735778039879737,33.81791897323213,3,S02
1920,-0.8339306058530979,-2.5307402094751548,9.50184161596164,-63.381111580843765,-105.90780127772256,19.438953944744817,34.57418507227843,-26.80694808017642,34.97330147816997,3,S02
1940,-0.9457097579883259,-3.0408602592242246,9.262946274188767,-75.4623636811752,-114.23693630368902,25.72890285389264,32.39712073918734,-26.779452423560844,34.405690247698644,3,S02
1960,-1.19689380972281,-2.819982222498476,9.524571492304203,-77.99275641133853,-113.62955243456139,38.68322441458113,30.481491096820047,-28.898069446040285,36.763950704664566,3,S02
1980,-0.7610265400342676,-1.5853866470428157,9.653010676864149,-53.62191041296547,-68.85711167833796,45.24124109070436,33.51862227628606,-29.70184622096962,37.50282855952211,3,S02
2000,-0.04829252313015531,-0.12892806976115087,9.76400244960675,-14.049205938734193,-14.534568284759434,32.307974625306436,33.13110892096804,-29.996196290072778,40.202025825582844,3,S02
2020,0.791804368489118,1.1392245853241867,11.041129634652789,28.097002104515642,49.20894496833461,21.931063893888663,30.469486047014925,-30.862003695193028,39.35767008239624,3,S02
2040,1.2321073844355392,2.3221487623962855,11.928875185133274,59.982608033468736,92.9457990465319,12.329325740541387,30.112518585963283,-32.113378321468815,39.6901749709875,3,S02
2060,1.5126857629604926,2.7223969301471547,12.559280373179929,76.57677064719968,108.63937806304912,-8.003505750024255,26.438089938685323,-29.376615267222636,41.90035144825596,3,S02
2080,1.1481121263296514,2.5059962158099256,12.896113040795784,69.06342712517225,108.58648783882252,-16.864324839208322,26.40550813278851,-27.439542353580823,41.318308889056816,3,S02
2100,0.8639633578389283,1.9805196882376157,13.196744091974614,43.63904837058777,83.96267872354501,-27.649565988386758,24.648224919153762,-27.46745334497639,39.98525173211905,3,S02
2120,0.5450803679305571,1.2236421788196126,13.208783028704083,20.51093363242352,50.76775967150115,-37.55051836025625,23.86866568680575,-27.076445392422706,36.6743587515825,3,S02
2140,0.1524544660203948,0.5824434813938746,12.908689932888413,-0.006301451300059213,27.029117960064536,-39.96860091669732,25.653240881181365,-27.018706322374893,36.80839064272014,3,S02
2160,0.17918469514538862,-0.034177702274513076,11.94484935235503,-1.853199772461545,2.9358691028374997,-38.86852185058876,24.18849289951079,-23.88961942785428,36.46619715861433,3,S02
2180,-0.21582062624426698,-0.43682977171463316,11.553841684935323,3.981688900051787,-12.333679124145899,-21.251046982393735,22.250868473154085,-21.115929252299807,34.20488792125987,3,S02
2200,0.017022889245486547,-0.7650569177924513,10.556158221896515,-17.46209864134473,-25.783264713466856,-13.017079978469276,22.360177658464124,-21.14471007653775,32.64268855710189,3,S02
2220,-0.23418600311110718,-1.0890172640525428,9.664517320279392,-23.027348603650687,-50.4120153032418,4.022122013271794,22.867107778358495,-19.93589010186564,31.743208627126783,3,S02
2240,-0.5600180454801424,-1.8341632563953614,9.412653589871457,-51.754839367097865,-83.41601062680267,13.962807540889239,20.8966766923554,-15.082860167539897,31.597055185830875,3,S02
2260,-1.3920425847604556,-2.7916613357306677,9.193108665639148,-68.79429588429414,-99.76950189879592,27.357129067880038,21.582393773877193,-12.874063000401978,32.890367953985645,3,S02
2280,-1.1726603771853823,-3.1283892120335133,9.07366867522781,-83.18458260041817,-110.73536788396648,28.87739071153722,21.328414093570558,-15.270366691462707,35.82110745786869,3,S02
2300,-1.1442546698499367,-2.408054196638131,9.241891753346502,-64.77289114658711,-94.01253480681248,44.211092875286695,23.00093123885167,-9.200859281397454,32.143434576953794,3,S02
2320,-0.6802333931130482,-1.3374750667023818,9.791111499273201,-50.359367263122124,-48.70636923616166,39.015939529891,22.33609172046483,-7.1593110221668645,39.41600300004263,3,S02
2340,0.1881405932486468,-0.13307897491959492,10.11607857309248,-1.8428805330353955,-3.158115708212094,38.971289354718955,22.812830101800515,-9.075944916154416,40.031913437649564,3,S02
2360,0.7726023553630422,1.9175393104479264,11.274421761956633,43.20387046562239,63.34054195316786,23.36332328197075,22.844502682045896,-6.5021430726409735,39.53207573247728,3,S02
2380,1.2034088735365627,2.4714771795218438,11.959708394425624,63.98938599506401,98.0273732535932,2.675232552366719,23.329734532974555,-6.217373188502142,40.53905943735251,3,S02
2400,1.2684015962936552,2.765588047766761,12.757901168779899,63.410339950487,107.4718276922575,-8.607492425993083,27.566263135614737,-6.592087096513105,40.63762361822649,3,S02
2420,1.10274586260652,2.529799456461216,13.177624671938345,63.66979778351018,98.94916642902174,-15.065964447472792,27.566314542583214,-4.340824366587034,40.39104704793448,3,S02
2440,0.5091224267561661,1.6401641623148466,13.314922191017892,39.104869087252716,74.73515569075816,-36.4955757078165,29.048264108212017,-5.425090617416236,40.760732997670644,3,S02
2460,0.14247446936032326,1.0324595876651137,12.965683807628103,20.17912174441146,50.69355057428933,-39.90138352221102,28.56671139513733,-1.8689107975250172,39.439191938332925,3,S02
2480,0.042386071497599036,0.36705992816844013,12.506939768314531,5.768855780472921,18.41993662652345,-31.533086694541716,34.00298179803478,-2.6862394572251684,38.44055193467711,3,S02
2500,-0.053893338375829325,0.11938107592455147,11.693585077064943,1.3387548058012575,-1.2303662241200348,-41.38168610228562,28.905312188596543,-6.48040989152026,37.37847678428715,3,S02
2520,0.17915058444585497,-0.456901145631298,11.257972896745267,-4.503739732600302,-12.837613194120937,-23.325592175652673,33.76985765982371,-5.170769325166516,32.16970814295182,3,S02
2540,-0.06802135727633546,-0.5785459704044407,10.408444529942406,-13.109368083336765,-33.16858060035985,0.7491192766568723,32.91858436578386,-10.006094482709656,31.606904847776956,3,S02
2560,-0.38305284402494666,-1.4543287053715355,9.742169240707486,-40.278784231582605,-60.93333694715446,3.8593596820616676,34.97839626597214,-9.81476499202358,31.875127192741736,3,S02
2580,-1.1101957418739017,-2.037039846273751,9.18635859095058,-59.201413338595856,-82.3492143305997,22.461938676248174,36.16754830697245,-11.639479937194377,32.46588986892078,3,S02
2600,-0.7853888937831685,-2.852818726802836,9.089314145690466,-80.82499448410569,-110.03947105185549,48.671345639762045,34.25392734265042,-12.66082054161565,34.478038870062676,3,S02
2620,-1.352686877646836,-2.8130982251473093,9.218417267012137,-74.12086297791092,-109.86332942071796,44.57470018151634,36.72755101833188,-16.31320811181294,33.49048209291485,3,S02
2640,-0.9704474775714617,-2.428406678215525,9.257012283039302,-64.20438064353037,-79.48629604294133,43.794421105763426,35.77950275799008,-16.332442463372278,36.75506649435688,3,S02
2660,-0.25809016634922166,-1.0784874565427343,10.102466602778724,-25.65255253629078,-34.05035315124387,36.16303667288835,38.05182879793652,-14.351252908775425,38.70451366698966,3,S02
2680,0.22355875220973687,0.31149191852979985,10.612585046612717,9.263015546922016,19.471894986665063,24.150735971857806,35.95990595528943,-19.708299768287294,38.65371314252063,3,S02
2700,1.2006266370350627,1.9647012761016944,11.741287144304772,41.41846519179178,81.0710694889484,31.411951217869255,36.29694513135021,-23.206963468240037,41.17304682007601,3,S02
2720,1.1549090874608552,2.483975582189864,12.360051907511497,65.20593191327447,111.95419002681233,7.256550407655413,35.658602602161245,-26.239837918455322,41.7256556249612,3,S02
2740,1.2491980037958161,2.430702016451452,12.655195619576578,64.85693408546184,112.12493007098193,-5.267312516162342,35.03088786522244,-25.82150193386213,42.67625365288045,3,S02
2760,1.222966023393836,2.62811373783558,13.428634062097043,46.27247210978436,92.51624909706015,-24.180558348820632,33.69995979513099,-27.20891177767455,41.50199680828975,3,S02
2780,0.5518260881405486,1.2950781771442659,13.40061047019117,24.84417322193261,77.97932571089117,-23.852246621322696,34.45495887562383,-31.25337692651721,40.79473386937906,3,S02
2800,0.0714163642055173,0.6617071225427453,13.09298080451558,13.808879773814322,33.455848340813915,-30.91588707781945,32.01021080559544,-29.226290028357507,38.215172816809236,3,S02
2820,0.15207205820176734,0.3399528205316988,12.466875599470264,-4.595485200623536,16.501301176047587,-30.879423085781404,29.937554009114848,-30.59711342081988,36.24296054937923,3,S02
2840,0.22528852114628165,-0.32409599423278374,11.667340158703297,-2.531505762625786,1.0177562786759886,-22.133377682757917,29.764578338908613,-32.15363988063929,35.75999041883024,3,S02
2860,0.0013561900145952904,-0.25119153865983884,10.871874425635928,-0.41308234095988805,-22.37848564658859,-21.997010887402453,30.706341378530944,-29.995173436142522,31.9441609322362,3,S02
2880,-0.25607832773879546,-0.9265109642797156,9.995667739883782,-25.36924111534843,-36.42439821183071,-1.7871313801373359,24.127272246192057,-29.480371916929776,30.627352212283412,3,S02
2900,-0.4105413656392597,-1.5883704771319618,9.639372314598592,-38.63511001606411,-70.17071207153163,6.8987325139484295,27.219410161093748,-30.994658929599222,32.32945457681164,3,S02
2920,-0.7282337492538931,-2.525457564476897,9.348147605999714,-61.61531793086348,-101.14018335869517,26.53437297964253,26.2378042498318,-30.683093462491783,31.856645695356683,3,S02
2940,-1.4134775014729144,-2.9245045882744476,9.30362781826914,-72.07080334650801,-117.36328047236967,32.16134220215299,23.415811271083168,-26.821240688788144,35.70681769459405,3,S02
2960,-1.412655660035384,-2.731259181730314,9.346159994409689,-85.46152884044412,-114.25943048703348,38.514680569188826,25.092673624826148,-26.151870035493378,37.22759609414538,3,S02
2980,-0.8663277368626353,-1.953887043795297,9.437619729329938,-52.46300185588767,-69.63903984816974,39.531985761335804,24.258859104319868,-22.701489946069458,38.1039953672497,3,S02
3000,-0.42871439898541575,-0.31944233535580907,9.885462613733402,-11.879986447370404,-15.390809481892177,49.11996065433893,20.927626904340958,-20.810450831675958,40.07281518018205,3,S02
3020,0.6700423581110336,1.37385985865575,11.007882948752362,22.34033637767439,38.88877518336953,18.37991167687302,19.640822747472455,-22.193880894821117,40.75628255400664,3,S02
3040,1.300871974404551,2.078244533267124,11.9091917470633,55.928373320971055,82.02781574896316,11.056988778289933,21.74748110186053,-19.594032438590684,41.47357040747106,3,S02
3060,1.3163971083102863,2.779943451756669,12.432371099221715,72.05738537322782,111.1467720300474,-9.812756470804521,21.67623698091522,-19.79796541674236,42.28484171434462,3,S02
3080,1.1115570802671302,2.733363965866529,13.239028234042346,59.49487889300337,104.36082146145887,-10.217674078856424,23.36443273936748,-16.74749147250437,42.62344252089689,3,S02
3100,0.7603098497292039,1.9810703496168867,13.494187146983892,49.39606506710189,87.3834589828389,-33.38192597270613,21.52571461752187,-16.28189227323913,41.59446996262162,3,S02
3120,0.37357217131410836,0.8861301654998175,13.359821771473722,29.91689396598642,63.50271885595657,-37.61938193875448,21.543242155664366,-11.478771625771827,39.58820369760818,3,S02
3140,0.19123686815166174,0.6489658304342207,13.031522156112388,9.914240465234471,19.58224380147039,-43.88916306987193,20.539213763424698,-11.804111329225961,36.49229801224781,3,S02
3160,0.03400228258759601,0.3227498641359671,12.006858553266945,-5.671897632410383,14.486627170443755,-35.51215987866673,20.950701388588307,-8.884905064629315,37.56721359023026,3,S02
3180,0.12068837839246274,-0.23986628699217843,10.97305653089313,-6.339204576203931,-4.827601570474483,-17.577480977101466,27.633249004156855,-11.06133729781618,32.361965270857084,3,S02
3200,-0.021896719089341557,-0.6360873621298619,10.483124386423,-10.533200578624097,-18.880179009486227,-6.68632014896517,25.925970051942635,-5.763860845080236,33.78705511080439,3,S02
3220,-0.12205229189267544,-1.2164420760064085,10.111482063793572,-30.5796742412959,-51.660438334214724,2.5526918168306096,24.074405916715737,-2.79004865347461,33.49908377486761,3,S02
3240,-0.5557553554767243,-2.220366594616666,9.366535687704872,-43.648017870026536,-79.12085258947143,18.857289399833174,27.14872734254638,-6.678740730776523,36.06720979272132,3,S02
3260,-1.0701675026348028,-2.3739399975896758,9.037092182104441,-59.1760506993594,-105.23661425066892,29.646253981512142,28.95902546002286,-6.454278747821179,31.913597808304537,3,S02
3280,-0.9655171350764865,-2.858902306187621,9.248269378850875,-79.89921150599348,-104.95314960918648,36.13473556459899,28.517908669733163,-3.3462746807134947,33.95788219099968,3,S02
3300,-1.0407527339713996,-2.449468917057376,9.297215475040083,-74.26175890205151,-95.02317014837205,35.466219875649536,29.989755982726116,-6.327540138715741,36.237850394403445,3,S02
3320,-0.602479499431495,-1.8799199716335633,9.679708829640818,-38.70605688920572,-60.278588040002816,36.58422758574509,32.01976214829763,-5.67436216654694,39.3036182485192,3,S02
3340,0.1092185130975485,-0.018594021142416706,10.418927717373194,-8.91636345024802,-2.033832461484788,30.05153663135025,30.342601166308864,-5.756615343270999,41.37083708158995,3,S02
3360,0.7780949355530448,1.513868597375701,11.066213792361312,29.829506046609904,61.49735677859843,16.59948249954993,30.787596724369724,-7.485616273726848,43.185638546488185,3,S02
3380,1.1644849152564576,2.591139202177032,12.062893106322731,64.79214093079386,93.23022396164076,10.09777495778405,36.83083899758931,-7.272443147586215,44.166342847521825,3,S02
3400,1.2753703437092698,2.765826434146403,12.724144994141648,69.6644708713072,118.63147214509884,-16.06050506092116,34.36319608294021,-9.020576870864684,43.469473024581504,3,S02
3420,1.1982292913128159,2.3658363709358348,13.444609790672136,65.10890297853256,102.1166740679209,-25.701238976857336,34.05058113770066,-10.448808083305728,40.88831440679314,3,S02
3440,0.9314374238882842,2.2196996773868163,13.402169760461547,40.01403764133817,79.12244477853905,-33.9365689980011,36.03094952216293,-17.014495841623535,39.65258081242928,3,S02
3460,0.46605043558407966,1.1240277749247993,12.947211324717733,25.645216073820993,52.96978794706985,-37.79106830490357,36.926240140868785,-14.243617288839726,38.886068774734156,3,S02
3480,0.08808790736489977,0.5959870938266896,12.505112046890975,3.67137207506871,28.165570292486922,-39.462679200897064,33.85164749878177,-18.00810484644432,36.99433142696122,3,S02
3500,-0.1735089356054362,-0.03487842475274687,12.112010713537776,-3.5920027194512594,3.550371997530214,-31.04910650114445,36.5510313515188,-18.859484955931272,37.471338099642466,3,S02
3520,-0.04691799296338062,-0.25302429998537207,11.13242647534455,-17.60762976457009,-10.960697904472742,-15.69488289300705,36.25094317063402,-22.36874074482906,31.05892868333468,3,S02
3540,0.0498761909444881,-0.8083725003229838,10.747410481035306,-27.752551427464212,-31.89077524445965,-14.452668846971477,36.16671797572815,-23.438683030210722,31.64887087273259,3,S02
3560,-0.07401683798356107,-1.4347289013216342,9.793543679174823,-38.31746833721095,-65.64231712621954,-0.21715682745027076,35.73968322933409,-27.69314687026087,33.39154292539206,3,S02
3580,-0.5305880188758005,-2.2741120553420533,9.26717474982172,-55.89188474162913,-85.68050695088762,24.877041524000465,34.79348435995523,-24.92158192743738,33.12893903949528,3,S02
3600,-1.1744651463683558,-3.004988139161731,9.360396862205798,-72.29295666595952,-110.08294138726767,25.35613158857538,35.427703112596504,-30.593904733714563,33.33267584236774,3,S02
3620,-1.1326758331250604,-2.9130610200727927,9.009249070597331,-72.02461421107824,-113.1096674992317,49.99329473132781,32.399653547622826,-28.18067484854583,34.52783877322559,3,S02
3640,-0.9144442698320111,-2.2238485845570803,9.220607550366568,-69.84449512051222,-88.0459359027912,33.951775198423285,31.632626435887474,-29.14682507443961,34.80545499479774,3,S02
3660,-0.5473609081468325,-1.1227662397996838,9.81278973687465,-33.54944111595366,-39.156963896845006,33.704998937073775,32.51493881898662,-30.69614316643366,37.88990732733635,3,S02
3680,0.4676399816065746,0.5118431789536575,10.429428481056394,2.1373534111503147,20.46675937156628,30.666117295666933,29.877535691688873,-31.602690764350452,40.511409001080885,3,S02
3700,0.9967998159178613,1.7177649739995857,11.390609109633145,43.17034318592792,68.27338410299161,7.316281296846716,29.532399568607847,-31.965827126638082,40.468305152176825,3,S02
3720,1.286402904425765,2.229439995796864,12.364517384458303,66.71222082455202,107.43899895417054,-3.7410889299283583,27.413355448893608,-28.54955032544652,43.5161980004652,3,S02
3740,1.5317280077210096,2.8746334095072577,12.816674120365828,63.096670473388755,108.23459463117071,-11.944256393795412,27.521754013020075,-30.69365521860426,42.04443241545239,3,S02
3760,0.8841223672274041,2.2194220966307325,13.09807021554949,49.61573778654184,98.26245485026102,-27.371863381903598,25.753247313734377,-27.42647706667798,44.398111215133255,3,S02
3780,0.659162548585585,1.4910110482718744,13.370703549429665,29.968565380044783,75.07595865148447,-38.01470823266777,24.045488038287438,-24.31753718337518,41.36105867357213,3,S02
3800,0.27477035557678803,0.8489900223411271,12.861569637850266,13.689666182245812,40.36211366600877,-35.318261403103755,25.24800778209344,-25.46028215754753,36.424283523165776,3,S02
3820,0.4087134195294211,0.38201861845682,12.563823590877867,1.9171666397950515,6.037109437349094,-40.74462224766609,20.072804581291948,-22.396579694764462,39.19931856538065,3,S02
3840,0.25355025498151107,0.05359039800685177,11.852518182136999,3.9146347976883673,-4.415419514338005,-29.11163318315782,21.490982328509382,-26.22794309773098,34.843248846522506,3,S02
3860,0.08541721086098047,-0.477648981517131,10.960862698721558,-11.181154145574208,-20.58967566998,-12.117848231644528,21.21180298580498,-21.823101362829597,35.39046833026036,3,S02
3880,-0.059416327407416314,-1.0569538015261486,10.157512998544785,-20.410813375874696,-43.683966610163026,-3.5690323822503855,21.297011936928865,-19.015767353805842,33.44255868150215,3,S02
3900,-0.4114577684041004,-1.9530372151875122,9.558477218069134,-38.02137483934157,-66.39314371612437,19.06057106244797,20.195894059489365,-17.615714894576,34.09548918217396,3,S02
3920,-1.0159603406375848,-2.4053789360450315,8.926937593698044,-50.985018977483406,-97.52969247304338,22.18112745187561,22.528397154339434,-17.931009769822772,33.169644118778066,3,S02
3940,-1.05346469806522,-2.7422422065087444,9.277076293915917,-73.98004281381321,-114.92201310232826,29.616580749792604,24.11323707831355,-15.914947256751821,34.03955497771557,3,S02
3960,-1.2835569087499663,-2.5755259787512568,9.158691571975401,-75.79923516940791,-109.35484640340123,36.84858449672473,20.399916154550485,-14.871829982195939,36.14922607163963,3,S02
3980,-0.7750776999747279,-2.008255856780006,9.410720057636365,-64.7058916172092,-69.11310535041383,40.43390815020626,23.250474728499224,-9.457554735926704,35.76321637202473,3,S02
4000,-0.25782134107812804,-0.477175690638762,9.794421628078368,-25.906441786127722,-22.22403195177819,29.92512258781128,23.23542563131932,-9.975088672690944,39.17347013513596,3,S02
4020,0.6653035386678771,0.8184847724820321,10.701118185147564,17.12323626856404,37.49819984206526,24.764608883077507,21.858762236755826,-6.923037420855391,42.67606052083229,3,S02
4040,1.1349984526973464,2.12311618182851,11.908070296469782,45.131049644914526,84.70884748024281,4.568051445184794,23.858947858758853,-4.425011397028445,44.2494671758421,3,S02
4060,1.2144081945324747,2.6296820618694654,12.506742791614055,75.81305301055303,108.23231281450173,3.850778384498169,25.17562331057531,-3.9159666504513386,44.17971629841751,3,S02
4080,1.5471068162954507,2.5956782401549914,12.671912343416873,54.611001550310974,104.51521898927675,-19.515636927715846,27.109761643822672,-3.295759648062469,42.66531894027128,3,S02
4100,0.7271541682178468,1.907601288503451,13.370636250730866,41.34863949741151,94.80756765906929,-23.21969109624925,28.16477471821675,-3.5133308140213386,38.047058554466894,3,S02
4120,0.7260883079069969,1.2667644663994313,13.191567804670358,25.16006167007323,58.443972586988046,-36.321456669036834,31.871213654350775,-6.3924323245013,39.671192687115834,3,S02
4140,0.3527532196606885,0.5230526032778235,12.922028619301923,2.770978237118573,36.32168295367294,-28.86239221370403,31.790997044995574,-3.739697270901274,37.94467375881477,3,S02
4160,0.01059371190367979,0.18837893246457604,12.32703045318349,3.00817095948974,3.0490932947203655,-40.645991627419626,31.978037161145984,-6.8665673638254585,37.912776054479586,3,S02
4180,0.1543000462025629,-0.1637059036212614,11.540130579348297,-3.773991502125405,-9.36414306430164,-28.571738325947805,32.70350838866662,-6.113081059332545,33.26875422567978,3,S02
4200,0.17763595215072275,-0.7927740461645985,10.679379159629136,-14.219430439817106,-28.55277688115747,-22.72572726675633,35.13291243478393,-9.471704654220966,31.131157211133488,3,S02
4220,-0.32685536319787145,-1.139068829057478,10.047875307592339,-30.981391534702137,-46.73524569742662,-2.000990140574252,33.56514495190511,-6.388318922660579,32.37632822178119,3,S02
4240,-0.8617163345922751,-1.8362784477324603,9.301298320754114,-43.91196120211785,-72.02284948964547,7.354442272345349,35.24837044594658,-11.49903130418325,32.668783166102,3,S02
4260,-1.030420087632258,-2.689385195572866,9.274573944212435,-67.36586132367106,-102.2677453209838,27.223653723608322,35.25844839285922,-12.412057356294534,33.1806553043389,3,S02
4280,-1.2450276388319015,-2.6407427645913653,9.101240509139076,-75.59812105614444,-118.35860629273448,31.056544177721047,35.79798399299865,-13.80291765924794,32.98088362813857,3,S02
4300,-0.9258927079890725,-2.46889646040095,9.01866928963399,-66.99690621764374,-103.58004524240928,44.6694273792667,35.73993210835404,-17.580495912772378,35.3573104618235,3,S02
4320,-0.806438088738484,-1.6684933991964317,9.701070718900606,-51.0314295208645,-68.48392159324332,46.9154292579323,35.65691891359614,-18.062450624989808,37.51480113876349,3,S02
4340,0.17377188324032927,-0.32596492794902393,10.033174548616318,-13.293100835467857,-5.053842986629592,27.601211792600285,37.915013088651456,-18.877778521103522,39.03810847775372,3,S02
4360,0.9842135576466915,1.4926937579885335,10.963094777362677,30.985944263874362,51.36269077380307,18.721647678264173,33.251031641138766,-22.007249249594068,36.67330093838489,3,S02
4380,1.0491312826728614,2.3744904257338355,12.141004071361069,46.751008419729246,96.75588877713523,12.02138396512337,36.893549890604845,-24.457304545492764,42.40450156637375,3,S02
4400,1.204807330075109,2.907084430392008,12.55143303417277,70.67357871040427,115.96792928101749,-8.367018479134508,37.70609045677663,-23.475596073812582,42.54750112801946,3,S02
4420,1.1340510428581285,2.6703952482197564,12.959896561357564,60.569336142054766,98.3103818597434,-28.34115497457273,32.3002439438296,-24.34824747557366,42.3019965092757,3,S02
4440,0.8868611484404452,1.8454504479947922,13.31362839503812,45.900177758870356,84.66236031697255,-31.69189971892729,37.23090327869751,-26.007224094666622,39.64814333207943,3,S02
4460,0.281146212527416,0.9242904748071181,12.852929670263594,26.281551578671664,48.1520913864554,-40.00967700019932,33.26686767959511,-30.530881709894842,35.86346134948289,3,S02
4480,0.19435025179982945,0.6546701717070735,12.59139744574688,6.926674565762531,17.05347179074627,-42.01056728479298,34.67265212185835,-27.40436351203126,35.80437777243215,3,S02
4500,0.0695911454100462,0.10268287890504041,11.885421853046285,-0.9377598447495403,7.903196286861514,-37.9141211645692,28.415287478770967,-28.723902609496303,35.09991074635276,3,S02
4520,0.07337463755592832,-0.2758543222786701,11.242238487022194,1.5039889709538725,-2.9012565192348028,-29.952464309340023,28.063552020571624,-30.56849335965566,33.83213445848895,3,S02
4540,-0.00535366423308227,-0.6742578506704466,10.317001513948087,-22.174088771259346,-27.560874967269687,-10.818749050832466,28.629978302012177,-30.62096758715853,33.97442158530488,3,S02
4560,-0.009853593717173162,-1.133547114336545,9.799144863471373,-22.342820204436112,-53.04900315750166,7.592495426943418,24.523865510765887,-28.168668128746443,32.646270258877216,3,S02
4580,-0.7154534657139919,-2.019650768779043,9.124977632438453,-56.23449361205911,-83.68985791810202,18.678329925481002,26.690562617828743,-30.67868026090434,32.83369859694723,3,S02
4600,-1.0124956742638869,-2.6173723416148262,9.33614145368708,-79.10172393552789,-115.16622356020314,35.13121507631984,26.149210864539228,-26.9058170725592,33.384756317701104,3,S02
4620,-1.0091147817160584,-2.787914618696408,9.077059585896047,-86.75507694387781,-117.46220738341968,41.21005320522326,26.349892526056415,-26.491012831978022,37.34417495646235,3,S02
4640,-0.8677316080256319,-2.2693134155821975,9.471302677531005,-58.06902027391336,-98.80259115186988,40.395729516271444,22.84390611238117,-27.758283877142944,35.351519941019504,3,S02
4660,-0.5458296521151006,-1.0355063049776316,9.968313176675652,-37.0002388094205,-37.33858096623319,44.40344570441888,23.264188894113325,-24.63548683945984,39.430729200664274,3,S02
4680,0.08977589053393525,0.4576515865885243,10.434206051910131,2.8738387705932444,14.709834488922299,20.57000180821734,22.588829024592137,-20.89573442337238,41.02481269907605,3,S02
4700,1.0202592746465096,1.5303318735021392,11.387658250320444,42.67214871147978,64.81672797270804,12.158763391438258,22.19233849266567,-21.938303780768738,42.42583632773791,3,S02
4720,1.4712110266714657,2.747868107530856,12.452543642548898,67.36509310167183,104.45746768837095,-2.9452127518342723,22.216329748915715,-18.893425399427674,43.41629137620533,3,S02
4740,1.3111576706231887,2.8816261893030806,12.786152507580402,74.84308334152635,110.06338753025562,-17.292134728596864,22.192759871371727,-16.315836297556853,41.416904966593414,3,S02
4760,1.1953154848386247,2.300050011114387,13.049751331042751,54.36811384146534,96.8636877721375,-17.31765839884546,21.261019148098246,-16.85363489475172,39.90282488989611,3,S02
4780,0.5547747184197536,1.801835715495689,13.19944141653369,34.25427727214232,66.36950571637963,-31.561935418779697,21.885026026921196,-13.519343565186002,40.44122266642801,3,S02
4800,0.2521573019604026,1.1001854730945435,13.100457937432209,15.486181107176659,40.57561360085689,-35.279748601294195,23.64827913569558,-14.042226883791415,39.87939760634742,3,S02
4820,-4.625707378969057e-06,0.5342748996373428,12.541889399565813,3.00639348201702,19.431717950800877,-46.49250582378708,24.446516022055455,-10.958581241738134,36.11293449152155,3,S02
4840,-0.0773897801218468,0.005994298751761898,11.701946395491024,1.4059972349472263,2.107029346320763,-34.86893715750639,26.26203858152976,-10.02206473700852,37.120699806317845,3,S02
4860,0.13273083650861978,-0.3507887124387139,10.792090470796065,-8.280563547778346,-6.3345281687659485,-21.25919978809983,22.635676379333322,-9.675081528870066,37.09692202619003,3,S02
4880,-0.24710679877826722,-0.7983918378491965,9.887696501849451,-15.634172354194817,-34.79451669063132,-4.622236186742763,26.20483273578114,-8.768636779135838,32.44590133962575,3,S02
4900,-0.1533881982395555,-1.5106829767491003,9.629375840139467,-44.221964141506966,-67.12361714669724,15.029844252554927,26.851192455926363,-7.126574833269216,29.422625880558144,3,S02
4920,-0.8047964856797309,-2.253849586789817,9.370386949162189,-54.7958179008878,-96.81269894529865,17.793501213209996,26.437607804245424,-5.349812320314893,34.396038720019845,3,S02
4940,-0.9980484094515983,-2.8153978333263536,9.314691664825698,-72.12171897273063,-113.68863586015327,32.02749686655245,27.89513610525909,-6.1493382272230015,33.75493101856375,3,S02
4960,-1.1770256180547205,-2.6159993016243424,9.337290951187521,-67.57043827605126,-116.09488818302164,38.593366302061405,28.077844827369262,-5.532412976832013,37.73254772525597,3,S02
4980,-0.9977610762213699,-2.4123581660942035,9.321450091064689,-55.14811095164881,-78.50590375418355,51.92646022726783,32.507313836029425,-5.687909078572357,37.940018933518445,3,S02
5000,-0.6105477649202328,-0.7483094771842627,10.34549343093078,-19.029533100805896,-36.228450777866016,33.40382373960762,31.49523719478846,-5.6587224126350115,36.65956914846916,3,S02
5020,0.7092006508807053,0.6643634174135513,10.623781288751397,15.263487375737181,21.178064795776603,20.453789327525655,32.41844953840716,-6.290822348472556,43.755004512859635,3,S02
5040,1.1043448991764215,2.1188228867837458,11.425176307301507,55.273136801578524,80.5935826285202,17.52997939934614,32.74415485845283,-5.5988540763356776,42.09986364969443,3,S02
5060,1.4367841527741427,2.618008849959249,12.460485732629055,69.30516926035631,116.3657607768488,-9.610097285419515,35.84375130352487,-9.7929655430871,44.024175162198425,3,S02
5080,1.2797976751751006,2.9107209445642743,13.058965538276082,62.55213486695983,112.23040577666244,-15.452118111224996,33.502363123409204,-7.537718028147564,41.444323105330994,3,S02
5100,0.8569997991704995,2.2639060547651204,13.186184731183621,55.71906078197171,87.56311482675866,-22.18305092200668,34.79263577967666,-10.523408169093544,42.18565851268912,3,S02
5120,0.4234360244311459,1.161941983225005,13.392849107201263,28.120964651252944,58.989472590163814,-43.220310848487706,34.254425153378136,-13.097655985007766,39.077422484668176,3,S02
5140,0.25134543587174774,0.5044274473342991,12.792339955200966,8.060659083478729,35.59151058525887,-46.74847866908981,37.66745538314518,-17.135850189166682,37.14417390426633,3,S02
5160,0.061115047953519665,0.631834247442157,12.33510406461026,-1.5131355135165725,15.393014889328544,-38.15695836963691,36.69337373344068,-18.42519079454221,37.751787221742134,3,S02
5180,-0.006340542568443505,-0.010676638002675917,11.696603562529107,-1.6456116748044272,-0.1971743281913494,-28.82843177004332,33.34516838980806,-15.124030055194044,35.91588696752471,3,S02
5200,-0.06533160359886767,-0.36328989462895245,10.666161255873673,-14.96985179429047,-18.36759950751297,-16.825041070780912,33.917005066206784,-22.975791339029378,30.899942917977786,3,S02
5220,-0.09763362121697836,-0.8314703703112183,10.141745306842113,-17.571364237645763,-40.05863835743796,-4.4445460530789695,34.54103584267405,-21.654700125482485,32.913526116549946,3,S02
5240,-0.2196085796745211,-1.7411645771954982,9.800550540188626,-43.08890112949621,-76.4840323325371,7.158862007603201,34.416086691591985,-27.883522768507312,32.78800031151491,3,S02
5260,-0.7432552751675181,-2.767186699880735,9.213743413085048,-53.830641366707255,-105.35808930881622,20.380017394999303,32.779322703905876,-27.044485698968366,33.890842523439986,3,S02
5280,-1.0487657582788046,-2.826061801070519,9.114268047883918,-72.30886934724788,-108.24348147759363,29.923040254123354,34.12110575531047,-27.33621055574131,31.560664018614315,3,S02
5300,-1.1812252249269959,-2.6701812648135994,9.086817264754773,-68.75225417118028,-112.41529242530966,37.77487422244722,31.682694622676223,-28.974124481584163,35.00685163889837,3,S02
5320,-0.6526772453076786,-1.771112350658005,9.513600790797042,-54.73685659359782,-68.68748287891833,38.51625960544273,31.330370831585,-30.696539885825246,36.82974442805575,3,S02
5340,0.0849664020301811,-0.500091775050311,10.068242179118075,-12.372638178648362,-6.935218880946968,30.784148223799647,29.622379120465116,-31.217396008665006,38.16934186762047,3,S02
5360,0.4345974591876509,1.3446404614473042,10.7300126328854,21.122745278855447,51.35348427365015,21.61102982806703,30.28470910212561,-29.689950034216704,45.65457409713208,3,S02
5380,1.409857160211384,2.4124387439110175,12.037807526775131,42.447118938141514,92.44128492523512,15.198759495660786,29.24639431928486,-31.607417505174872,41.262967585625304,3,S02
5400,1.4607161632250383,2.840613704669187,12.797836518010092,72.6957811465122,114.41077165835358,-10.278583241251681,28.950307496925685,-27.323249063913835,41.04178424082228,3,S02
5420,1.2172494227999762,2.6347980334093157,12.854256473198207,60.304315390972974,100.33338619654796,-27.8143369515667,26.38826022656487,-29.426255824070463,42.27034301604037,3,S02
5440,0.7748017906616387,2.184133222364108,13.231881029586672,48.830759045579235,77.95349720181362,-31.56281405259108,25.678483383376786,-27.274862544540376,38.79239949850314,3,S02
5460,0.6337801400066119,1.1448880113851034,13.180805167647623,13.19503234107821,54.11611503701656,-33.342288754657154,21.764909083667305,-26.10186994919,40.11951237656508,3,S02
5480,0.28995648178708056,0.35764517434239135,12.730997872160097,5.390063681676534,30.432822636079948,-44.71302094862761,24.494849756351957,-26.83753156467452,35.56729414753862,3,S02
5500,0.18550916505711612,0.20183125303436183,11.956654359959984,-3.7818597666219684,1.072996104416377,-42.030279468549985,21.296659804382365,-23.00820833569328,35.93289838180697,3,S02
5520,0.1239523420474904,-0.10249314766818617,11.326140743677133,-3.0316876409866973,-5.100033673480343,-25.906890776127852,19.684821407627854,-23.41716309393223,34.831005738881316,3,S02
5540,-0.11208689896582069,-0.6380445116260716,10.780399419134863,-19.774219196458418,-22.643926409985152,-6.942292840365129,20.405654083864018,-23.10759609429178,32.70957456988215,3,S02
5560,-0.20177670081334878,-1.063416881289328,9.634879577058811,-28.157915869253266,-47.42039499421606,9.30854209720618,19.451036746796134,-18.743540930622466,31.16360257429411,3,S02
5580,-0.7279723807259623,-1.6331241406146326,9.585272662094136,-47.30442316867219,-69.83650621052102,14.222261926252544,22.678809445068488,-19.156853036313482,34.425973378147376,3,S02
5600,-1.0878727916294868,-2.7544905535153914,8.9093628714111,-60.72703511510717,-104.25749865166546,15.605260035002766,22.22032679936251,-15.549334050735565,33.651270459371304,3,S02
5620,-0.9963805015432475,-2.8476667916917213,9.181807595442647,-84.30023896831042,-121.25247422837722,42.395740461373585,21.603993199601003,-11.721149547749732,37.0108895289914,3,S02
5640,-0.9005301758827867,-2.4350955594439845,9.385821990991419,-70.22666371207808,-96.5570963304328,32.18316717117038,21.240254154824143,-10.166904672782431,35.93636031322676,3,S02
5660,-0.36018885276448165,-1.1414722851738095,9.801300044928258,-44.17143049172444,-45.845836504665776,36.663543755895155,23.51244498269874,-8.481470409737447,39.18897127872741,3,S02
5680,0.11859708055734272,0.38015412099033724,10.366570912037764,-10.78958763116032,0.572339312238886,33.195073610456824,21.752102483182526,-6.3640521204156455,40.16739201236414,3,S02
5700,0.8710899653841317,1.4726056623117916,11.07106852250072,43.66411705413548,66.36893655475201,17.733871655164588,24.86531822546379,-4.178273111264788,38.95630123030454,3,S02
5720,1.5417872470963025,2.079397225120041,12.14707195369915,63.066777167422714,95.94198117170474,-1.6706762193988403,25.81566275420236,-4.820473022727005,43.24359608019196,3,S02
5740,1.3241859002068723,2.954169243459128,12.629800417763365,63.205615370976815,109.30361733061329,-14.533233248317764,28.896703890801536,-3.2540575373555383,42.59350213627995,3,S02
5760,1.1919361283644079,2.647933293589338,13.196023844226884,61.67609583245732,98.65980554387015,-18.69318478429884,30.279441460263833,-6.021002846116625,42.375974838987304,3,S02
5780,0.6993702302666727,1.8091039031339402,13.052166844838727,44.35457954496785,77.59765827102974,-33.987292746775516,28.19465717635194,-5.97004843418221,41.07650377923427,3,S02
5800,0.10936182381075675,1.0439964340645456,13.109081399321285,15.662423733662909,38.28869756434291,-44.71878900127478,29.017472928140656,-3.784111941429837,38.75074498091688,3,S02
5820,0.3383648482061361,0.3833497299902104,12.474871863641072,0.6347210451834622,20.975754747900897,-37.53418961649588,30.73355645730865,-4.321325743973335,37.28673799272592,3,S02
5840,0.03529010757063207,0.019879884784510263,11.856650499279908,-4.402546272338284,-0.41100886961761307,-33.3521544093684,31.609424028469277,-5.557953937448088,38.13339442613197,3,S02
5860,0.034653755626606456,-0.16312395299296473,11.166911279232265,-8.652190806963542,-7.885620373264948,-25.529923905774464,33.281705747887315,-6.257431542322577,35.532044336624125,3,S02
5880,-0.007989579144510484,-0.8937083946969542,10.265375697081861,-14.84352998857318,-20.073173650107275,-11.42964032825446,35.01708906634509,-10.488149548927844,34.03181085369951,3,S02
5900,-0.21626486491761052,-1.3449803514172818,9.563338524763363,-35.82136303806909,-65.05085370681405,9.518402122854058,34.007498623907495,-11.271604596565506,33.040575038345544,3,S02
5920,-0.7335633999972965,-2.514839419219107,9.340530561283495,-53.09999329500961,-90.82319063508982,23.218217377602436,33.99279407214338,-10.69424924462027,33.65361389366103,3,S02
5940,-1.0824550266640995,-2.696354502110355,9.117578898850388,-65.47606001880986,-118.2884683346104,35.645828406383444,34.09839650941443,-14.060134804068682,33.58637809410836,3,S02
5960,-1.363473636989059,-2.6698479280909226,9.088131450931998,-75.77531393014267,-114.41734317582826,38.33933892733665,36.00266839760563,-14.249861100089708,32.42951333153427,3,S02
5980,-0.6967021636500956,-2.364094343831637,9.46384739207621,-59.10749836404861,-88.93911142966871,33.076108459359936,34.780364743027235,-17.941784586519145,36.07911985544635,3,S02
6000,-0.40768158653645914,-1.2143031763820578,10.093966905353914,-30.784302132425587,-40.285022965707505,29.248780247322106,38.82264067067263,-20.66172073082904,38.2054178436795,3,S02
6020,0.4960587605825142,0.5149796435957041,10.851942248113392,6.592704890095235,15.018229317245453,28.127768451150992,36.36291950337213,-19.513751794340987,40.842816306410505,3,S02
6040,1.038124650621591,1.8083710184211848,11.617190389813238,49.10653356371213,83.72690360428219,5.562851199486131,37.000304983821614,-23.12158567869021,40.247691952265434,3,S02
6060,1.2475714051693716,2.7236928475914266,12.291252298588065,60.8452649987246,102.41643628178142,-1.658280844005286,36.21588955134172,-23.862018084265298,42.85529467455799,3,S02
6080,1.6311659211810194,2.9763597787264153,13.229668409608456,62.846915400309285,107.7869232521257,-18.25826565002603,33.225852539486525,-26.81994099654111,41.67955190466846,3,S02
6100,0.9020713748498576,2.300780511590555,13.389930365722465,55.67119798524976,106.67936050459521,-34.98563861162391,34.13484159618656,-25.105889639964523,41.349277669601335,3,S02
6120,0.646385636187762,1.3886477804544124,13.32879307816112,24.219232961821604,63.86839821978086,-47.77908139454295,31.845587817650717,-25.333289602650666,41.03955790700898,3,S02
6140,0.4874991158829811,0.808795650284946,12.709194543049263,8.41846116926342,36.708766759705945,-31.67885103411964,33.55029378193244,-28.34318999595746,38.368678417303514,3,S02
6160,-0.11077183173279245,0.3034404110414945,12.315416023162705,-0.1641759607132185,16.592372395227418,-40.44627960583588,31.401122510552216,-30.192203203785112,36.52548779247168,3,S02
6180,0.010121890897873131,0.09896419471615017,11.737262657135973,-7.727185408190353,-2.262107981294224,-30.297155174294897,29.61678475581446,-29.79502773296655,35.695694002672695,3,S02
6200,-0.060351339405618515,-0.5635829657656131,10.745845613505056,-11.732556866207702,-15.228254053744353,-9.251802763463827,31.80020627637727,-31.22319808177395,33.98570882459874,3,S02
6220,0.20404926717908758,-0.9968337708100383,10.058676794542732,-24.94819093026291,-47.22063315889727,2.5661306953909993,26.82234418525221,-29.032762050202965,35.869566347997875,3,S02
6240,-0.4930743839501006,-1.6462955121652831,9.607433233112886,-34.63924695753801,-70.89926463256127,9.91577440979864,27.204133033244666,-31.29041567347831,31.035939120580714,3,S02
6260,-0.8272735559134565,-2.284445839661889,9.28391662528138,-63.07126172187679,-100.87841615677858,18.390745504724347,27.197448639560008,-28.050913599802367,33.99333894395727,3,S02
6280,-1.0471555777574695,-2.422961625498067,9.297177921418907,-72.54662425272777,-118.04388781731434,36.85364974377537,26.38163387483512,-28.25797773843955,34.76053788097345,3,S02
6300,-0.9952792014926516,-2.535114772268756,8.970586492178235,-76.43424150005748,-109.15559416996221,39.13899980671158,21.81675209108034,-28.186859950594133,34.559100430639816,3,S02
6320,-0.586237094788066,-1.9744812877896376,9.39558484015794,-48.26507759474333,-75.2882468658265,33.25241104533432,24.214040871991042,-25.143363177796466,38.22005744042582,3,S02
6340,-0.2606987488253687,-0.47107620112131915,10.024691951706524,-24.376670105292234,-20.545479805525652,33.222211166181026,24.48474321817266,-23.055698612119357,38.52881283544328,3,S02
6360,0.79375646851973,0.660827169132044,10.804891501885555,31.044623000982728,42.81025331162921,21.62647219621317,22.607883133162204,-25.770193878006033,42.84853407413673,3,S02
6380,1.09999469911933,2.1278893498369205,11.775517833328598,48.53104104747575,90.23636115591032,10.929843650352657,22.749389715502467,-20.61295008294676,42.110514581066965,3,S02
6400,1.4440380324117232,2.5680691655632235,12.750725474582492,72.23473894177789,103.40047470011662,-7.643068309830477,22.58282834197491,-16.860324198566254,41.47300930615029,3,S02
6420,1.1085782017461023,2.562814441715163,13.348336814626132,68.08592689847539,109.41306352546168,-12.520921151349532,18.90481840076055,-16.496042208089996,43.24030456833654,3,S02
6440,0.93756954855535,2.108408637753551,13.560578484740683,50.556597759024115,82.94940901960506,-25.853933860449782,20.726054825455705,-12.499537743826213,39.117058293011894,3,S02
6460,0.5411141054238223,1.2553076878597182,13.41903824655514,26.36500649682958,52.524794805478294,-31.94531831001629,20.757153330270203,-14.004141737932269,38.76631445974629,3,S02
6480,0.4226217418092415,0.8684261051933344,12.86984718419266,10.070766430919356,28.56393562840957,-39.04342693273267,22.303125989276054,-8.213943015756014,38.05129793963517,3,S02
6500,-0.012061920559285164,0.16754054004825458,11.971475348935643,-7.072596990567888,7.994967611428227,-42.26820661380912,22.562557279723997,-10.562128442596343,34.94965292768632,3,S02
6520,0.04424963347525058,-0.17649116787440194,11.564401860478192,-11.410103538288563,-8.271301069496944,-35.204788362551746,24.903760467578298,-11.121754092987349,33.99610737902478,3,S02
6540,-0.09922034682880126,-0.418519338836965,10.783645311333784,-16.647406885275444,-23.444302667970423,-11.257726554982899,23.633656711646825,-4.9765414519274564,32.865106807201244,3,S02
6560,-0.13178749065726195,-1.200083669252495,10.082642222436714,-22.637860069563136,-49.902168401869346,9.681854625559678,23.029433571381027,-6.926583980571628,29.97165226792455,3,S02
6580,-0.5392183751453637,-1.8559996351859462,9.326862990402097,-41.97969084423933,-80.60236688834435,5.7614832849158155,28.16936661774422,-6.466415292647409,33.365064584326554,3,S02
6600,-1.3835422591838085,-2.776472060367937,8.704268716652864,-75.56607627164115,-92.03338958658485,28.534841239430428,27.86710665486515,-6.225830702614179,34.13486577767864,3,S02
6620,-1.361407606254585,-2.904248657956409,9.066036097283535,-78.2356389473283,-112.57719085897612,41.36065076820494,28.968553058923003,-4.695943103653343,36.74550501108476,3,S02
6640,-0.9797741600936637,-2.506446787369802,9.145825354256795,-66.87040318472012,-98.44045990410233,32.95316536614422,28.56553319759333,-4.327028066463434,37.286995274104996,3,S02
6660,-0.5187518166850447,-1.6208895338864882,9.406514207790542,-38.795977756530355,-61.47925118778251,40.97317550150019,29.69510589406908,-7.16981267497484,38.28835758257747,3,S02
6680,-0.029649041444101687,-0.12068199679735082,10.113698684444621,9.606479474307601,1.6182494484375274,36.45064502570612,32.018533914446024,-7.689437079981299,40.381267430748125,3,S02
6700,0.8479220197339151,1.3208319351493465,11.421148383157215,39.18652937614557,46.76843715408733,17.902070529167403,32.635672014109865,-6.840286911666325,41.99977201844565,3,S02
6720,1.2853754443218046,2.629046187534577,11.957201877506037,66.85201897242115,95.10558848215814,1.670240264232567,34.903788748321176,-11.000713013683031,42.69749836653989,3,S02
6740,1.4734804325532835,2.8505093584720416,12.744086079177107,67.94499863859708,117.0617957972345,-6.691811461097683,35.32161905137226,-9.184641829765468,40.974118686066234,3,S02
6760,1.2468654625729836,2.6327618081665176,13.231208927671245,62.9602226698874,99.73479092497482,-16.848542557736767,35.6989978925519,-12.260364485220432,41.90272289508191,3,S02
6780,0.7729217072931094,1.8168570535214095,13.208601013589606,32.356156308360525,69.00269837188567,-35.21947343890324,35.191691018839016,-13.722333284124069,40.90205559137163,3,S02
6800,0.26660690283357147,0.8667505364919439,12.807407038718248,13.575976745372092,48.94475481292772,-38.490785622574094,37.43921837525768,-13.622891602338854,39.61302786766209,3,S02
6820,0.2726687182305193,0.31712646154832885,12.656392020585807,13.299240795812675,28.174091638252225,-50.767462801110725,35.05411487010445,-17.63985535438531,41.86389195827623,3,S02
6840,0.29353417465399034,0.28562534593434363,12.027971852457384,2.661443712009146,-1.0802589969874867,-32.04064954335476,37.35276162372547,-20.168491999114494,36.924256748790924,3,S02
6860,0.11218536195539588,-0.05617705776862802,11.39830373890684,-0.08326756228700738,-10.728959874728519,-9.84053280945009,36.25276220817645,-21.97425095774347,35.17199900043855,3,S02
6880,-0.10943139926652021,-0.7547550512008516,10.428074657390496,-7.148254941065809,-40.08063670276494,-8.85953102110558,37.07373019284564,-24.079000761782027,33.9793317696026,3,S02
6900,-0.4508818187022269,-1.5490253465724022,9.965227802227238,-35.78979939532478,-65.5752569662818,9.785789437066418,36.05445301771404,-24.354145352100392,35.22646293036097,3,S02
6920,-0.7515829050322254,-1.9726174339854567,9.283280210562108,-51.72018763110842,-88.66804104369798,18.998195985649378,35.88132730884605,-25.164810253467955,32.01987561022253,3,S02
6940,-0.8391427966883042,-2.8380089204379217,9.172680617383818,-70.32324125561553,-99.86511736963534,33.451585222532614,35.85616694005347,-27.9813677373491,34.331900257181104,3,S02
6960,-1.226493924430152,-3.047531041971804,9.324064734198771,-73.44563218266617,-121.49010835404886,31.602665879924693,35.78540947174462,-29.228131022819735,36.3218868542677,3,S02
6980,-1.0765236686925266,-2.331187155129077,9.616714338401803,-64.18660197025784,-87.56112851162388,37.67607954166796,32.73031204975085,-28.061264022609652,36.22246981672012,3,S02
7000,-0.29790611646420695,-1.3331137928093209,9.768361455423115,-30.39639253051086,-44.48897464901305,39.50093355470679,29.939426895028028,-27.986101073412772,40.74686087423751,3,S02
7020,0.4968715682143424,0.24614089293101155,10.235327217598174,8.359992133576164,16.03255544780946,26.469383069295326,30.985500930469602,-30.16572518579264,39.207868504278146,3,S02
7040,1.2026257394970359,1.8572950805004333,11.572281826433837,46.73542999526794,78.08156311922686,19.945269599858108,29.79844426949562,-30.252418210169438,39.98080816367286,3,S02
7060,1.3984402034168706,2.3687444810045712,12.522032987749244,65.2005997493244,105.66203634523276,10.756036255715584,27.8809406133081,-29.59535984674593,42.37240866794782,3,S02
7080,1.464778911931099,2.8333628476975203,12.952159666804564,67.06743752428002,102.16588210852443,-10.10862474241621,23.557098061184284,-29.228550518316453,43.712139171156636,3,S02
7100,1.4653923054223936,2.4692836519563435,13.175797035537988,55.842448838944506,95.27524227995528,-34.69738997872115,24.85356071577357,-28.338893559742562,40.42220171633332,3,S02
7120,0.675660149589162,2.0583110020580544,13.172005375506755,19.923949317968383,73.69873004001018,-37.07392305812409,26.188083152306934,-30.86632673069699,39.80317907685698,3,S02
7140,0.4668513391975959,1.0069074694608655,12.844238073738076,8.409972300011418,38.57050709746762,-45.11682240360682,23.18674749681246,-23.354391429455912,38.745840852859736,3,S02
7160,0.16709629131579068,0.28740951731337755,12.451723384154409,-7.325097452096016,15.767106121391027,-45.729278557587286,21.17641062967326,-23.094529426761298,37.25217409056643,3,S02
7180,0.21604960588711764,-0.11814993547773468,11.670464185682537,8.192068885009427,-2.0268421695205308,-29.061588615400964,23.255573734056608,-23.181397136031475,35.418327618346346,3,S02
7200,0.017875424712183396,-0.3986687852344011,11.024547873344837,-12.195729266482617,-20.603978616525787,-16.96533987688193,20.51353744037338,-25.19647915631178,34.798160972589244,3,S02
7220,-0.2693054616999837,-1.1045364598608898,10.150179438705324,-17.900654000762607,-37.73940539856954,-2.0167889737693634,22.609337692679752,-18.319743254454302,34.518267133743095,3,S02
7240,-0.3167381741414773,-1.5417815932686172,9.352418374772911,-44.2530055114262,-57.56741209938282,4.552741359813107,21.477643686646793,-19.416541023018475,34.685158119355904,3,S02
7260,-0.9812817285702841,-2.16486409785737,9.124295441776853,-60.27627913388207,-105.02598070910052,24.174964901376125,21.716710565093813,-17.60512220526514,33.16029883604277,3,S02
7280,-1.263672969117213,-2.6967946499909563,9.251414701767809,-75.6610676317118,-111.811406548651,29.88847966244915,22.15857317557461,-16.209766594515575,32.2290142509369,3,S02
7300,-1.159379736701619,-3.0365487394931896,9.048374476604742,-72.52644365898246,-112.76130287480545,41.12611554637307,21.288427869844707,-10.646187486231927,36.44590442644852,3,S02
7320,-0.7645032287936413,-1.9270207126788428,9.508023710206144,-54.12922550019756,-79.00415277332289,42.21761130554269,22.292608209808826,-9.165426065475389,33.93182538436561,3,S02
7340,-0.2749060090097146,-0.7323625434042047,10.024368718256083,-20.78467308754854,-16.485206137733297,26.16372844083497,21.548322113187798,-8.492904406252839,37.02177828162912,3,S02
7360,0.47444288411425506,0.953420550467134,10.661894540563784,22.666192287684893,34.03579208661204,20.498826927708105,24.045180291030768,-4.774517460900316,40.82993627424987,3,S02
7380,1.1679963496517503,1.9364123678425391,12.083950176677071,52.995153558348726,86.24041844871442,0.6810654938782722,25.236051258466162,-7.456200528684878,42.21715622484549,3,S02
7400,1.4313123040803415,2.947013543825003,12.4258290084349,70.55707680876831,111.67364814394594,-3.465700474596049,24.36156827103092,-6.289269507578207,42.3592046325014,3,S02
7420,0.9716783824157108,2.7012143390938186,13.24227845739145,70.06626400472302,115.77145994956416,-26.123508873867262,27.810883229475845,-5.555342329072596,42.00811534989982,3,S02
7440,0.8194321514193605,2.0541338009962637,13.56282565634882,52.770011828416365,88.49270954154461,-28.283790306740215,29.635602947510023,-4.2574173760774245,40.795995250808176,3,S02
7460,0.5908739588456242,1.46281714670342,13.227583738277872,31.026065719885136,65.37417917010107,-43.679462041952966,31.06996872741578,-3.7408032334710115,39.939970098476806,3,S02
7480,0.2318294567836115,0.7924983092073257,12.706086804679785,17.549471839012348,31.0049699786594,-37.74695078800896,29.72456173921874,-6.957228010370888,36.89559880367174,3,S02
7500,-0.011239849218442358,-0.02928947221228178,12.360800987668151,4.812543766493767,9.260256527977647,-38.33718542344678,32.08443445779422,-6.399884972843308,37.830236040296526,3,S02
7520,0.06486826125750644,0.03878228598757244,11.452746839742902,-11.53506074490151,-4.621201447467283,-28.023408884369367,33.132099255152056,-4.587469641851429,36.35468163755666,3,S02
7540,-0.021814384191987765,-0.6492287456529637,10.973490590204639,-8.830610908594092,-26.523539661822046,-18.485820637704272,33.52161022643054,-9.128708434536103,34.09396708681,3,S02
7560,-0.4620898017096049,-1.0513340777165379,9.960030754954369,-21.77544844485791,-47.85573202319355,-9.19747768993452,35.05583434309741,-8.973283417344263,33.85790453119495,3,S02
7580,-0.6244491070926035,-1.7688326831198542,9.151788241006473,-43.9838384813307,-75.78155752551396,18.625152090385626,37.69299993805034,-10.943860894855995,30.979397536280853,3,S02
7600,-1.1405742180525666,-2.398193277570025,9.164434998207696,-65.13246458574059,-105.93408177853469,16.92620165949981,35.25908442630721,-14.56417618963729,34.14016825968958,3,S02
7620,-1.0712033893394068,-3.0659901857972534,9.173811585096846,-83.67855807406133,-115.92476437060246,30.954027773071022,36.91134461002233,-14.660594437724551,34.774151435535394,3,S02
7640,-1.1446082282444223,-2.516732256518692,9.50417689689758,-79.92520506007031,-101.71215555701737,42.43175534616424,34.3275989255095,-14.563119758313139,35.80183742004814,3,S02
7660,-0.5607790086520855,-1.6499303728913832,9.539888645309643,-51.64804494444182,-58.01278308309366,37.30479027134075,36.38814180183837,-20.041559195163007,38.468378925187984,3,S02
7680,0.0156931111253915,-0.21447819197066115,9.89559792098751,-14.665688513280855,-8.178147738025274,23.494237918981355,36.647738393334265,-18.215291915635063,39.9448008904352,3,S02
7700,0.7141221426508172,1.232865583946101,11.33451699914854,31.957069287394393,47.91232899012845,23.38405314771605,35.52569109237476,-18.25705362329517,43.08670360164542,3,S02
7720,1.3179108473779237,2.2630140544586865,11.831872378365114,58.632958969050776,86.54412390790831,4.071479770362121,34.82903770413378,-22.659480400602014,42.77211229923808,3,S02
7740,1.3932500137760067,2.733814533847643,12.693261249429952,67.06862309926466,114.97851362241266,-7.8674158166114925,36.12197399271086,-24.82403411068135,41.61353198570146,3,S02
7760,1.2552490862448766,2.5499036870905636,13.23105496632929,61.040699807754706,106.94554471354937,-12.564327014462746,35.16417503511459,-26.275189132101193,41.025460309816395,3,S02
7780,0.7817181482194182,1.6733917121005464,13.516640998276321,46.7951804746518,82.001105289943,-28.323810974458553,34.531301579179136,-24.4489771289328,41.58202094104653,3,S02
7800,0.35792811440952477,1.0940087532613625,13.192107350584935,12.599266274179481,49.52297632119623,-37.97825180739906,32.20523289549054,-27.796365249875905,39.21777023437071,3,S02
7820,0.12170032019283017,0.5638495027700976,12.548523025425755,8.592913054528122,26.040812995921886,-37.07995599541939,32.12294950371689,-29.87995918303642,39.11519026052095,3,S02
7840,-0.08300504468474482,0.06680626794526481,12.093998091163554,-8.568973654430751,5.491103155713317,-34.8880373209336,32.00416104273077,-31.11367857329333,34.43895582495822,3,S02
7860,0.05550147204053232,-0.15184944189623295,11.410017647349756,-7.374295840434082,-11.42836356050906,-27.644974140700818,29.671765331305984,-33.43406345603077,31.334203554882265,3,S02
7880,-0.06876713769334689,-0.5446220826778023,10.648769831253377,-11.870571970113676,-20.269690211207195,0.8349123529603822,29.392541605712207,-28.97101983264735,31.43886184752616,3,S02
7900,-0.010007993890153818,-1.3354914782686933,9.845043870872267,-29.2888610298869,-63.813129467565815,1.633723580514383,29.83866643506964,-30.097049828712677,32.836014911754475,3,S02
7920,-0.8024923417781137,-2.0243106504483817,9.517117591220371,-50.7860205818295,-88.71673279766469,12.083332033108887,24.12115013284859,-29.191190863063802,32.22742674225326,3,S02
7940,-0.8766937691955253,-2.708518506069517,9.161081618409717,-65.72125376402542,-114.68087053944042,34.14305401446569,24.862909676777555,-29.532646093232152,31.62269774688057,3,S02
7960,-0.9844143850716071,-2.813782503484621,9.284051078645058,-67.91194761432064,-115.23773466229775,39.916052827304554,23.901665032739125,-23.853740495037542,34.18053003936447,3,S02
7980,-1.0912851540891033,-2.3518086500618405,9.417789777227823,-68.76003768076455,-93.87382916147132,44.18708513836113,24.043147937096066,-24.827602388038446,33.15662989744325,3,S02
8000,-0.6386909777842994,-1.4701027963197963,9.68364229711823,-38.94302772785226,-38.86250386409813,30.18980683324287,23.681438621583233,-26.27864331422888,38.04709658179652,3,S02
8020,0.1221196670774117,0.25446198456668223,10.135333166302132,2.235591991542246,10.61441971584712,26.78653765230483,19.402142842368683,-21.397760541041286,37.786134643108596,3,S02
8040,0.9661914377065225,1.3859540873168708,11.368261986011131,42.67937857082927,58.247689157715286,15.042152249734292,22.026079811233473,-23.696159596779438,42.4119141787464,3,S02
8060,1.1335702577057634,2.739186086237795,12.034192138538144,72.66855740884192,101.6061725673291,4.457792831168367,21.84047588119815,-20.19535914954875,39.58814397845086,3,S02
8080,1.2433474940919234,2.704067771049954,12.885559605870489,63.921908353395224,117.75042538818441,-8.673798542128312,19.91837823788435,-16.011501052226485,42.60009332276767,3,S02
8100,1.134562352737982,2.4415898285055886,13.06715678388067,52.39773776781027,102.17395542277362,-40.14070249161604,24.124905871803932,-15.647754663815013,40.8300539271916,3,S02
8120,0.5221179852283993,1.4033935893647516,13.143690628962938,32.457642117091105,76.0071864177075,-39.524112516750144,19.283877658384657,-11.992908104355665,39.62828109643508,3,S02
8140,0.2243664345264817,1.0018371880529493,12.873569381946606,17.5285139542982,42.28276163591644,-41.4118489756541,21.061692587231768,-12.209071101701287,39.983867515215415,3,S02
8160,0.10983977455100806,0.25525870081955243,12.581030008692085,-5.97915767569743,19.482847840694195,-36.75483139561295,23.615799910039193,-12.119720979970019,37.21493855547844,3,S02
8180,-0.0900632949539309,0.12739534312488227,11.791229369870589,-10.562948442275545,8.714462877281925,-28.94424678694627,25.42420793807451,-8.144503191717154,34.98700171105228,3,S02
8200,0.05781382658409412,-0.3493880506386272,11.055907440287688,-7.023803670923916,-17.032030688311966,-17.273742255448962,25.201871898451838,-7.043337812162215,34.287742100309245,3,S02
8220,-0.1493997197542101,-1.0569032277981556,10.21674475544596,-3.889752685656961,-31.693124449896334,-3.6801090029915007,24.616933505429188,-7.541901236153965,34.77379130264672,3,S02
8240,-0.3344053271528149,-1.7677945859227815,9.769117917622117,-41.719168418786495,-67.67514047361446,4.607170576147569,27.126833473774198,-6.667020975903452,31.162493072026006,3,S02
8260,-0.7419723311122345,-2.3319206720104133,9.462522806325884,-61.116851838310694,-100.4017512147005,20.296658770243944,26.560216044619,-6.346372213486104,32.009832782482235,3,S02
8280,-1.4436067393944503,-2.655066640891619,9.08874292579947,-79.21099456239213,-119.81877708817582,36.50988548849539,26.597343758846026,-4.8777036825462545,33.741811789594244,3,S02
8300,-1.1719778132841883,-2.8233769000714095,9.296420739818613,-75.47708834336966,-110.79910425913586,35.094245266271216,30.82896624321988,-3.531389804137337,35.10593689453073,3,S02
8320,-0.7669470426775585,-2.1525837871270377,9.498149978933323,-49.885965003162234,-78.0750940509027,45.98640129243917,30.014325711720026,-5.719888688671472,37.01164585166361,3,S02
8340,-0.29245883933960704,-0.7602764239223208,10.006808815845968,-22.21960916018488,-31.311018554818126,46.80396993997798,32.468307455467375,-6.363452243314974,40.17596653785022,3,S02
8360,0.7014259784295768,0.7182871994787896,10.642614357873098,21.888292267087767,31.08200294488012,13.842570836494918,32.066587818243676,-3.0174146661704,40.71423699198105,3,S02
8380,0.9910408636239896,1.8854660468018174,11.745816453320705,42.9381388534514,77.31483851822442,20.03438612939818,33.17939624780679,-9.213587196608401,41.882441651704966,3,S02
8400,1.5217366734861366,2.823526368837304,12.169016525142888,67.71280682276385,111.61648986976296,-0.7376021598262698,35.145862709475935,-6.285452853421377,41.982256787999056,3,S02
8420,1.274691348268669,2.6920534206060087,13.031370147408273,62.49275122154425,102.34356785436633,-25.275636921049944,37.16220660380532,-11.469866480528752,43.35115074287813,3,S02
8440,0.9903167720024998,2.2657462896042366,13.125388293830078,61.398674216920824,92.2991351464746,-25.502942475670643,36.02423104020714,-13.085946719373393,43.79936654126313,3,S02
8460,0.6514746015486921,1.4799667437325195,13.06881504441884,22.119503551725455,58.189960125066634,-35.89751723091713,35.071962391088974,-14.134477754392151,40.51659011326253,3,S02
8480,0.04789063637320509,0.6109939795915453,12.960340848531798,6.060197562760545,30.62841897075231,-45.924992268524946,34.29101773859696,-14.452551807767517,40.16611281930726,3,S02
8500,0.1524696457099351,0.3161902628252263,12.089258384200678,-1.0683351065483975,13.894929598355594,-34.476688746158494,37.973725710898535,-19.175301140355963,33.15383491270484,3,S02
8520,0.08084398642582323,-0.08371080421344469,11.616740387886148,-13.545748790744536,-0.6174667753754248,-29.373553412095134,36.429323838354904,-19.09781800853896,32.68528556570146,3,S02
8540,0.3436238763550882,-0.4393127454749433,11.023135959250187,2.3821344339998953,-28.548077320998555,-14.700789088229747,38.45072572496125,-21.683496424577115,34.382849060776664,3,S02
8560,-0.35652563070546195,-1.1072785287328397,10.077602430524005,-20.459033797172037,-33.51519687684486,-2.9381184772763587,34.46653517403704,-23.266481623925387,32.93655073732887,3,S02
8580,-0.33164575944510155,-1.7624944033235344,9.310430447642991,-46.96644851967115,-68.70576073800909,17.336682716971204,33.4051024592614,-27.643705936302517,31.108039744827686,3,S02
8600,-0.8784099192822971,-2.741232231227262,9.1158145586019,-59.51587922917537,-98.7781832357991,23.523423803457213,33.76561366036336,-24.640079556247933,33.164407709691176,3,S02
8620,-1.3761438244835682,-2.8695929912703475,8.829661984375285,-76.00592433661848,-116.37131005444216,36.35385075723947,34.557634895958614,-28.76543500556773,30.346422348626337,3,S02
8640,-1.094650209601622,-2.7685768966220436,9.301956269385814,-77.40629682943896,-109.24933888980954,35.25564110032354,34.16548189419395,-30.342998311464076,36.591997434842106,3,S02
8660,-0.6345826109538764,-1.8791127640211087,9.871003868075023,-44.59785047197042,-70.70275225637607,36.2626739926724,32.44801724811711,-27.4106605580494,38.61180543920311,3,S02
8680,0.14545877140044866,-0.329366622166465,9.909529207393211,-15.937927698624435,-11.629193709738846,36.001671634728375,32.23358542431045,-28.099052911713972,41.172980165981734,3,S02
8700,1.037029438537609,1.4513894381473207,10.823800331261616,29.38877333156635,45.42902645563994,14.102528852552284,30.251735128801545,-29.57396689071822,42.62741417157857,3,S02
8720,1.2093687642811697,2.195245532510138,11.946158305838107,61.35251869715789,82.21867611655044,3.5731697880911955,29.097657477438897,-28.109435307268203,38.73927198157326,3,S02
8740,1.3780035106076463,2.855895866002162,12.586888860515643,73.00874487009752,108.82939221326036,2.027203841359787,26.860305980737618,-31.449180733092202,42.73600423570982,3,S02
8760,1.1367950459205267,2.6002795792912208,13.142554150427332,60.56630213326906,109.68492449729678,-16.018673251843033,25.242888328371556,-28.58261287339485,40.9310972151214,3,S02
8780,0.8417399703094185,1.9875725343144188,13.242930736595076,50.39833228538934,85.10882964636453,-33.50044302904848,24.665165907022704,-29.71913477150476,41.19430000733304,3,S02
8800,0.5162570302780541,1.3347165917349866,13.262399037830676,27.977573444737214,51.113531265632815,-37.9606893160232,22.7300768434177,-27.510118492282093,41.130769263974024,3,S02
8820,0.19940630381256763,0.7343242551044422,12.728550913344835,6.073272643560933,18.106361929563253,-37.045264628094976,19.617130252798084,-25.198489154750195,37.65986003552673,3,S02
8840,0.12430590262422882,0.2313832946939881,12.134919143673592,3.6082461726488315,8.655034216467023,-42.01345568545137,23.86523072895524,-26.345081030605723,35.89935056373643,3,S02
8860,0.06078787605542476,-0.2582996310118923,11.277268435468683,-7.0444385880151925,-1.7260655657863804,-23.699396657332937,22.849931879786567,-20.531860456146447,34.675207715353835,3,S02
8880,0.1398996057696584,-0.5944882923893782,10.562708439292381,-10.510197815809363,-21.306639719340442,-12.2245317626094,18.192298247812417,-20.383581977879842,32.940123616973636,3,S02
8900,-0.11725784197792835,-1.005670266281992,9.542209563474712,-27.52844647041474,-49.5499170504629,12.221290914189282,21.775348976286885,-18.575250209553918,31.933741871510595,3,S02
8920,-0.5019688832735884,-2.2238793560834456,9.524972982800874,-42.533589282008435,-83.91160612854475,8.668264658200286,22.19352219659786,-15.566422522817568,31.010207984638367,3,S02
8940,-0.716113791145194,-2.541470277335125,9.452154920594358,-69.81229097197216,-118.37745451243894,36.573109476916436,18.18069446695737,-16.102305772362584,31.73437120591687,3,S02
8960,-1.2458578037615782,-2.9071518332480357,9.077119161953915,-73.68176293498864,-111.37229929162714,27.05339785879307,20.46182960198573,-14.684455919908356,34.141207994996265,3,S02
8980,-1.0643166954787002,-2.433796748189859,9.425567350967704,-55.677529425188396,-98.54885833180208,39.75625763080082,20.183332844534412,-7.879362856908782,36.71861186208026,3,S02
9000,-0.33832444945369766,-1.1108000200275614,9.850078202014139,-43.75582029217878,-53.62230751316147,36.33997899498521,24.76645237747377,-11.49565456330905,39.26513490093105,3,S02
9020,0.030842612527589353,0.037245576045192436,10.35166237805225,3.7623083884404336,16.36378547403051,27.877454121012807,24.25578702544862,-7.338972040741329,39.720302864633716,3,S02
9040,1.0882756117704737,1.4309926619959805,11.51132598207286,34.85940255502475,58.625436883667156,17.43299976927803,25.570800542232675,-8.916441150139951,40.49968359278128,3,S02
9060,1.3210790190618988,2.4346132427649967,12.23203719511406,55.00798815201955,110.37553294227521,4.683740825579529,24.30127884194743,-3.256213964363368,42.291810895892915,3,S02
9080,1.2116710574690899,2.57174813761539,13.059654210740987,74.3518587263876,109.41809189749524,-2.777911561105817,27.122221390430735,-4.406543947684387,42.790776985623424,3,S02
9100,0.9646547626333917,2.3817399368613015,13.2659399909582,52.28339172691269,95.64919510874,-31.11308200183084,26.96708188136411,-5.9400310807896,41.310000426224775,3,S02
9120,0.6780181740629267,1.7392546035106837,13.601960773878806,38.651375938296866,69.16521257222975,-21.282911789908873,29.397159929898212,-3.132402089905951,39.0783081012083,3,S02
9140,0.0592978233163331,0.8500928427328758,13.155696131776411,19.839367285127857,48.70007430812148,-33.39864289417282,30.96282165500264,-4.7378910093925155,41.87563869901111,3,S02
9160,0.20514797980874785,0.517808432630096,12.618901633871207,6.092797614404424,21.137847025685332,-38.56295210602519,32.02869863528153,-4.125188675111461,38.41832884016178,3,S02
9180,0.0006140650211007292,0.21941868448034868,11.949876075471058,-1.134796708142105,-4.891576645691798,-28.248571561490003,31.24805611800169,-6.253454904073841,38.05612050620862,3,S02
9200,0.059864430475418645,-0.2997402834502877,11.1992301906494,-10.842349574866653,-17.60637035063148,-17.267013616345167,35.200315934081104,-6.268869697066467,35.605917546357084,3,S02
9220,-0.01840149055436939,-0.7592455867627517,10.350548031358674,-10.826588696468175,-32.58104185553184,-11.186095352019784,33.8943134604319,-10.202049775602774,33.40073558468147,3,S02
9240,-0.3385783700482584,-1.4038771444763398,9.7698515225871,-30.570754904395567,-65.75463536446233,7.599180380712678,35.88118568226527,-10.472475171776422,31.29253976437544,3,S02
9260,-0.6925736612695936,-2.1494850774748993,9.311665938240193,-55.87583958031012,-81.52505036155726,23.82212182490267,36.57193289156029,-13.2127130107643,33.664685992133215,3,S02
9280,-1.2420453485326768,-2.9144586686359966,9.121606452988324,-67.59216518073367,-103.47564183405578,36.344830653400884,38.665187792175374,-16.04545831779764,31.67009179139354,3,S02
9300,-1.380496359816135,-3.207620786767729,9.216460327258376,-73.02530945032848,-107.95391731192598,36.135818227543176,35.458136026227535,-17.04394729915419,35.86487864214952,3,S02
9320,-0.9404195147614288,-2.523353124831715,9.510360195078416,-58.95265214508082,-85.01558114258475,42.276818683145756,38.760854965858655,-14.196246039956877,37.28150880008286,3,S02
9340,-0.33445876755296244,-0.9446558733670665,9.958506624496207,-31.500947017185105,-41.97717288299722,30.055769419905822,35.37559492226761,-19.671387968444435,38.40400607252208,3,S02
9360,0.5766394560836838,0.8242374100802989,10.734293130319905,16.420327757356173,16.236880186215853,19.753742341998556,35.42331952304958,-19.877631313290962,39.59425959874656,3,S02
9380,0.9405077664595785,1.6222998985694472,11.372553447998172,55.85467627715059,76.4536232443874,15.472037706884686,35.83907426415334,-23.94220162663033,42.90675078876744,3,S02
9400,1.5292593364848703,2.786743678294173,12.765936679547591,64.25901054156287,92.31496933046229,-8.567584643682402,35.31407195538161,-23.142928275636848,41.007121000288144,3,S02
9420,1.6207222242729655,2.8498353784170516,12.962362787302702,63.33726937898257,113.04000560269203,-10.139073517871429,32.757219264652804,-30.150454265002224,41.66347488784766,3,S02
9440,0.9911671380430156,2.301657646774662,13.207324628160382,57.994036740413115,95.81989879195346,-32.028596629757814,31.490576403424452,-26.601053425972655,39.870050657122384,3,S02
9460,0.5249437758947544,1.5480531570564637,13.344680159725653,30.519066215592236,72.64267275879959,-40.39714159281644,35.41358729625893,-26.985325002429047,40.45644498371749,3,S02
9480,0.2063349342485326,0.790059956749195,12.993164183304879,18.19571885036039,39.26261522650742,-36.06977410243986,29.982762802321368,-28.28484517348421,39.618676906836335,3,S02
9500,0.1600627980757726,0.20326069531385393,12.279573920378525,3.6745648674124567,10.752487694275226,-45.22676433353382,31.938805196035474,-27.37707258041,35.79412877981036,3,S02
9520,0.09288792323969491,0.011047483683636061,11.507544080920622,-2.4030008762741826,-1.5260525298256642,-31.884936928633024,29.423992422371835,-28.557689401453644,33.477037686898235,3,S02
9540,0.15883172804515355,-0.31099925746887735,10.984407503381476,-12.03683709373231,-16.29222405776644,-19.88008365691805,31.907567727468475,-33.02678145886472,33.86824759403946,3,S02
9560,-0.07856416844976813,-0.9533915901241194,9.973882052189738,-19.850503228794718,-39.03257629707227,4.086365978679741,26.838760041072582,-31.253552993239328,33.917878719554295,3,S02
9580,-0.6285841324058395,-1.6132325424245848,9.629947231333954,-45.1359640027928,-72.01220244665501,14.205160840473232,25.808413900134553,-32.45943646719287,33.52509153048619,3,S02
9600,-0.9906495096333984,-2.175002805558656,9.113181678110054,-48.757962961469204,-98.62436216881677,26.78895914375775,24.54118424281537,-32.53618262235932,31.88960791422026,3,S02
9620,-1.2141945610355547,-2.902799226236669,8.837777891367926,-81.94682757774946,-115.14374144095954,35.4903078506728,24.48634888925259,-27.308783762948448,31.072755169958455,3,S02
9640,-0.916295041791778,-2.551149221950238,9.00862984913595,-69.33978352569173,-113.40433088898321,44.39806715553326,24.194064616375897,-29.301039237195013,34.843248422764105,3,S02
9660,-0.695989636995003,-1.883992737543575,9.706986162459133,-40.04806768788117,-71.61404872831488,39.82359605800185,22.248793933375396,-25.77212242638155,36.270143702461496,3,S02
9680,-0.35928053647841596,-0.624655312235896,9.763941492175901,-11.519346151454243,-15.989724160228551,31.266498918501725,21.585647316783025,-25.813925406468826,38.95020614801885,3,S02
9700,0.8781441546181291,0.8727527886348911,10.899837182000114,21.93237557325629,42.3205805725669,29.846837220952942,22.581325739800192,-22.35163683951254,39.07281101794257,3,S02
9720,1.1628953264511914,2.280522731576803,11.615902321721256,55.25502581388274,83.61324971666474,-0.5530456244609298,22.612274677174646,-20.545343237744188,36.90971462778584,3,S02
9740,1.6949355189778597,2.776440729925457,12.537895967391657,62.567028956360346,106.94684206407653,-4.397170988328976,21.691949918361793,-19.88843294503594,44.68212430448675,3,S02
9760,1.2129953002284868,2.5379288735918797,12.957779225730265,61.31820977850711,110.25917597801235,-19.94508688224024,21.73988506042423,-13.846827004365952,41.37684550544642,3,S02
9780,0.9329871298025315,2.0578667973260685,13.383525618282182,56.10703689447995,89.9012875432235,-31.476108949116252,19.691318423928426,-12.682588284583163,42.70836021128614,3,S02
9800,0.6055830342760207,1.1244126113492356,13.511897957242542,23.632863565204055,60.56924428493063,-34.97277823162778,23.133070412944505,-11.064184556548422,39.9945644715732,3,S02
9820,-0.0012210817346793995,0.4267731110248669,12.855746600351425,7.125879446925928,25.47305624315245,-46.64123199353933,22.932691834883748,-10.34516684337768,41.253565581012836,3,S02
9840,0.14660239330923314,0.0872515861044359,12.029317896560556,0.35794120347732417,10.799562261431014,-27.103558871739068,21.67987946284898,-11.727950371934956,36.563952035140424,3,S02
9860,0.037783952356681125,-0.06473154090992411,11.193337829286975,-5.9376409662450165,-2.0569724379420826,-20.726454228121767,25.142604516427273,-9.71178060118106,36.08407906960794,3,S02
9880,0.04941420016684186,-0.48823661362656895,10.634266092802712,-12.742378393436212,-20.029048854278283,-11.148887874810432,23.27602133842059,-7.832829590453048,33.829575727682794,3,S02
9900,-0.28300472173018,-1.2045636347500648,9.94415689810267,-28.559734761389134,-49.36815085996602,-4.871315572381451,24.29382199438505,-2.39958930955423,34.68671519510234,3,S02
9920,-0.518516635331957,-1.923461475968792,9.24913364493685,-53.289275580841,-82.96614245274141,18.70287741209478,30.559556676571592,-2.7250287250552105,31.710035663718617,3,S02
9940,-0.9983749000755427,-2.6098788970764795,9.228803847647624,-73.0868654378115,-99.89492659228962,25.327459242314806,29.79717411705002,-3.403255527716179,29.710327920662962,3,S02
9960,-1.2264694828521234,-3.0884268823718863,9.320361426768521,-83.42360851005743,-106.980547767652,40.72741216160355,28.801756079905747,-6.094078287192244,32.429170435302154,3,S02
9980,-1.1442453258689809,-2.5082936844678363,9.526892673171986,-67.92880794951306,-96.38232413481647,39.16023399680213,30.682475218358835,-3.232685952106464,35.11050238015763,3,S02
10000,-0.5976122535991175,-1.7695766360423681,9.693846825121373,-41.77266309991187,-60.43321300443062,33.826375293563494,30.852725876860774,-5.183538190262148,38.78618289864386,3,S02
10020,0.22065001725320635,-0.1289540232228956,9.998010273312888,-6.16928956481594,-5.985635065734784,28.725219951377504,31.82030129285436,-5.503526890795376,37.942708524863114,3,S02
10040,0.6555246281013576,1.3215597840422746,10.846498894148274,42.52442373576381,58.30071411276514,19.39710109891559,32.3379209984289,-6.9596986787065624,39.4894181029429,3,S02
10060,1.2856206396381074,2.2636532887894765,12.289924301199255,54.6202457535018,96.74837941469656,13.905131851519334,32.38903202416118,-9.300675517085097,43.364259844027046,3,S02
10080,1.312894917691417,3.0660635580685276,12.781912067235561,73.4423166049668,117.22146640202152,1.1283657827596696,36.31530533441537,-9.306519335610167,44.18780668523458,3,S02
10100,1.0632561410676855,2.322554784456858,12.92910247281437,61.78205374445666,103.05889273033117,-41.140612341075695,34.878654749390996,-12.759971320627269,38.86134909833199,3,S02
10120,0.7457470617649532,2.0422027599343875,13.434053529326292,39.592103155408175,71.77544676898208,-50.524827130352655,35.91253833081462,-13.180964059703676,40.63741892335753,3,S02
10140,0.5405282469757365,1.013024537706483,12.988748208937315,21.315396886774018,48.17898968707528,-40.69777622966714,36.87858999196729,-17.310207779361868,41.194641351659804,3,S02
10160,0.19779471154820755,0.3884939031828946,12.68179661484426,2.777571829982893,29.93302576942678,-40.254343408453714,37.9840909544734,-16.181159332420172,35.07768033928116,3,S02
10180,0.18191730108569143,0.15759469374940757,12.072639788134829,-10.113053077178021,2.474549233472178,-33.52634269696879,35.911429541562114,-18.99838635383567,36.20268874085405,3,S02
10200,0.25642536393533993,-0.2930735208052574,11.182703912095965,-20.925458130122973,-9.593345587892912,-22.459054514283903,35.87706133231224,-18.483308885272194,34.40202112592857,3,S02
10220,0.07126551834237227,-0.9901049403175513,10.317780104654213,-11.183372714647351,-34.08130721256921,-5.348825657921341,36.59924426802895,-22.71844967239745,34.372619828983254,3,S02
10240,-0.24191236989056678,-1.5397722484217637,9.667929896229138,-30.76569945108304,-53.68213732127264,1.6569337942125517,37.704175272441184,-23.605171666840636,30.062591251974656,3,S02
10260,-0.6406796304938938,-2.208698045228441,9.218168039130381,-50.72807626975933,-79.58546640979661,16.344395632148892,34.31857972463757,-26.487817722078677,33.17892685547649,3,S02
10280,-0.8995131768393924,-3.1301765845479883,9.220521539887972,-73.3897499906997,-110.6029724941334,28.81136094774763,34.62266136125242,-28.511606039457885,33.94269146441664,3,S02
10300,-1.0639416200014897,-2.951604602079832,9.35807407711977,-77.01433586151947,-114.5055745291272,45.342778824473,32.79009730640269,-27.33719632551245,32.760705972556394,3,S02
10320,-0.8528302496801362,-2.396536720032043,9.574872365409142,-66.28672647310692,-86.89964432537059,40.20669746411112,32.2248133688238,-29.895400925268085,36.833932125898706,3,S02
10340,-0.5427317564347364,-1.1440416840006504,9.735816179499135,-27.514475277311284,-42.91013229738359,34.57363183031101,31.508426396695853,-28.206670882876605,37.22783804868973,3,S02
10360,0.29637716866776276,0.519776589266409,10.575284624584,4.739003878261632,7.799425227749906,26.98321888909268,33.40880635462777,-31.137171854772024,38.26265263707527,3,S02
10380,0.9923447779544547,1.4953580308227827,11.482719854228304,55.40873081185173,62.019920255178846,13.81393885661306,29.41699231208249,-32.60192983083426,39.21131801725431,3,S02
10400,1.4994936122973788,2.628318228710925,12.36222555550088,67.04807380680784,107.90263640714858,7.238110126935929,28.813625539536023,-29.271681546201982,42.281288162755736,3,S02
10420,1.548474822551154,2.7295204068673358,12.937789065120157,68.52462031136582,115.50800775330816,-18.600752350844342,26.833011560835267,-30.326643564953766,42.53198777947365,3,S02
10440,1.241343678204344,2.490340274867484,13.08165319318221,50.32320789937782,101.79803106203474,-27.509248078949124,26.163097863547694,-27.586989889765267,41.97857381833104,3,S02
10460,0.7637843339292752,1.3686656475019823,13.416410754403172,32.3514659559248,60.37417778086772,-44.059761406817685,23.662934550087158,-29.551388746411373,40.469758196895825,3,S02
10480,0.5740237092256563,0.7150240283956035,12.925894195113376,19.264366651660637,45.77336714873108,-38.88820980771223,24.06501590629116,-26.09953918930642,39.201773225172055,3,S02
10500,0.40137616467281045,0.3614744923219355,12.377928605080621,-7.674118182501233,13.836318965602771,-36.041035604863126,21.410673199444695,-24.17655419724467,37.67378733790309,3,S02
10520,-0.14103797047745667,-0.09700126744104423,11.766124464237238,-1.6213619151049161,0.1659015377735118,-27.25452048328638,22.23668973935677,-21.49320955959272,33.398525663204346,3,S02
10540,-0.10696561776266225,-0.5017753618842592,11.092299640742317,-5.8393391006532,-12.617005914417446,-10.93482391374697,20.547232095036915,-21.818562008555144,35.70027662503149,3,S02
10560,-0.13850764895587547,-0.9449331711614897,10.200269852014994,-17.250771811400682,-33.6429028440992,-6.56017842074209,21.076416606302182,-19.059527788243603,30.199015970037177,3,S02
10580,-0.4165491318586866,-1.4928696544839422,9.397211659551838,-39.62685705494095,-73.01778452020831,4.859298805348489,21.409916547765977,-19.1222720004545,33.110537724108454,3,S02
10600,-0.9036270232421125,-2.4365317385645144,9.386199164701928,-62.662117878162164,-95.35393668700675,15.540469939705607,22.27107833655856,-16.037530005240292,30.28637375097786,3,S02
10620,-1.056834659061003,-2.9926322904794658,9.101022911208915,-73.10200740564483,-118.09984496149234,38.38929581791906,22.803437721516225,-14.35167700374595,34.69755127924138,3,S02
10640,-1.0480735971898536,-2.785208712101326,9.240570261717442,-75.82763710740862,-105.97188065135926,38.778344022615855,22.44546724650786,-7.7566068500330125,36.431440311932874,3,S02
10660,-0.7598678126220514,-1.8934545789980346,9.402707413863723,-53.19023331988755,-74.464097673884,38.185827131588496,22.661092488303375,-9.963629133918435,35.51399646528871,3,S02
10680,-0.42965620462053844,-0.7762934105516437,10.176036694563532,-21.30306841411082,-13.381888926703418,33.25638655501588,22.449667371810115,-12.390654568333176,38.88295360949398,3,S02
10700,0.7381602862745102,0.9648438861884159,10.975714085026297,15.667962114430292,36.9215605719102,25.61639312189041,22.765575900195053,-4.276992828351553,40.64986519446704,3,S02
10720,1.030182481379584,2.0325321034222124,11.633290117304915,58.21876700931986,79.44996486935815,9.38430056898213,24.625116837761034,-5.878609636092181,42.48992975958939,3,S02
10740,1.2925864752933836,2.676079245707258,12.422399908138098,68.54279218111833,106.64032763382036,-1.6056428958861346,24.221187566252826,-3.8952073458568046,41.711268246152,3,S02
10760,1.2775869462819918,3.0038875924498196,13.096766896118703,64.73201301559165,113.93715359302655,-20.02438710094284,27.905634895388992,-6.127467896563751,42.33106976949455,3,S02
10780,1.1413205960720212,2.2541214740494655,13.21581316331331,52.176463610990226,84.93866683494886,-27.558702747685345,29.53604424777467,-3.777125206189148,42.71515408443312,3,S02
10800,0.6412857737774649,1.6269033193113533,13.451379171999772,20.25129660920899,56.048586898818726,-40.90894676268244,28.454527310568718,-4.039073739780727,40.42137607663148,3,S02
10820,0.017278611346151274,0.6541988441235402,12.757597037174364,8.58701188849576,24.53020112200326,-41.951254010266645,30.703756267177024,-5.596205869015359,38.174520475556754,3,S02
10840,0.16784859570661914,0.30483421854979054,12.413352198822592,-5.767454204340704,10.598543305671113,-41.10400280810254,32.52529920073853,-4.4932573690882585,37.4603782823036,3,S02
10860,-0.0632059524844539,-0.2606815347263678,11.515190610930437,-9.58856984618846,-11.906186344990267,-28.292228123468426,33.581986200516084,-8.116911437091696,33.4998026583262,3,S02
10880,0.16178358133258952,-0.9272642240689346,10.76550855287924,-2.889875080288772,-29.65317299964697,-20.469793694505174,31.628763143971913,-7.343653702608869,34.71867504464531,3,S02
10900,-0.31088898508366847,-1.3089008936606672,9.79343906001438,-30.479221037339297,-45.26940485672432,2.057639304879417,34.72406882231931,-8.307371968046214,31.90927161030879,3,S02
10920,-0.4548807932806027,-1.8775647148541574,9.406296497372683,-40.3863595984444,-81.50809179183001,13.996582803431528,34.59477524075466,-11.024234829677455,28.89035936886356,3,S02
10940,-0.9622018996585789,-2.3770803323697915,9.227203529792376,-64.69698350637681,-99.52802819972808,29.42106434224407,35.265193187220945,-13.317340093551852,29.70268843264429,3,S02
10960,-1.2560614242646062,-3.0661610471538006,8.834278199738948,-77.26350934287612,-101.68780864811616,36.81348298320563,36.705575629384626,-11.158200678249038,36.29339532972334,3,S02
10980,-1.444778221837872,-2.7882221611226172,9.281115965973312,-77.10372097529331,-105.62479827850477,40.67390156115958,33.58926230576679,-13.210061403119758,36.17249851618863,3,S02
11000,-0.5182565782878061,-1.635328612365065,9.691144446217512,-48.33342716108636,-67.15100623880666,36.30244785807212,35.697159779776506,-18.326396389439026,36.3279048720013,3,S02
11020,0.16459437630466922,-0.13869233895013533,10.147973270373164,-11.090952226824022,-15.904067514855916,32.37174459208068,34.244694389453684,-20.356434131559922,39.81599218864613,3,S02
11040,0.4213151380440444,1.3966902712297364,11.262452887045898,34.067124823212644,51.55629084793147,23.194152436721073,36.736153252328165,-19.629418868087846,40.58526615231411,3,S02
11060,1.013954002148752,2.449149732546239,12.253980753868577,52.19038729837164,109.39414878557285,1.4277953766591343,36.26569830271109,-20.494346775753804,41.83371496838736,3,S02
11080,1.2667327194523557,2.620736010552835,12.588552381182717,66.32895704570112,120.63779477632046,-2.8925470560159012,34.78325551030342,-22.152657086803842,42.38570665487807,3,S02
11100,1.1689172475811116,2.726937654583912,13.00581821283069,66.91003521035736,103.2168560090843,-17.583702044334373,35.159002532494256,-27.498358588959835,41.04982278736716,3,S02
11120,0.9803426801211061,2.080203713240653,13.325198141900358,40.212789045631986,71.7764729521505,-34.65898557941945,34.813285017253776,-28.802556848312367,38.14831318144492,3,S02
11140,0.157651591670328,1.276249979902182,13.036558555798576,12.743828154170647,55.710201964038475,-38.22241620962191,31.42638858851921,-28.899774743636684,39.857598883626984,3,S02
11160,0.05877711044461079,0.4797301309774918,12.314579141352477,13.998512719440551,23.784596916702128,-44.32112232213207,31.9569563868393,-31.242484268639604,36.63450421482014,3,S02
11180,0.0423221526873171,0.22090472875772194,11.99829982794861,-3.4936791807033885,-0.9282995952480222,-31.4623519768597,30.55667911006828,-32.153504605776874,35.044584789623684,3,S02
11200,0.051927609484997105,-0.34168732748334885,11.416409741944097,-14.401165461707851,-1.0331919484692544,-25.003092646945678,32.66304880466971,-29.21374012087302,36.308178195765954,3,S02
11220,-0.15605203358035594,-0.7802607623103046,10.360854101898736,-24.717342889070846,-24.64974556527203,-14.304431384695695,28.407266857865565,-32.21851912060032,31.797522563582362,3,S02
11240,-0.24974602405204213,-1.3577540339146783,9.811144988311842,-27.08980763861282,-54.82891929004453,2.187385791886245,28.633673515951156,-31.378673522153303,30.53355521785053,3,S02
11260,-0.6534058838070778,-2.072963272584895,9.494103651920547,-50.191770078390036,-79.66828036900684,14.945755164570338,24.716157937866125,-31.800353655820537,31.914876598840586,3,S02
11280,-0.9773699056877271,-2.776156255487609,8.942356106005201,-69.97445135381223,-105.25912721930025,36.36655453839451,25.49030374431978,-29.72384894824403,32.81703364906102,3,S02
11300,-1.090689369190479,-2.5856544516118465,9.043265220170094,-71.90792723374693,-115.8180064412388,39.359798998667806,22.632915198607108,-25.957392381696373,32.20796013811387,3,S02
11320,-1.1291843443630027,-2.314901534082422,9.270722467947605,-62.68993807423703,-92.91464496607433,33.47317959955564,22.331157091076363,-23.265767131671012,36.95370224300907,3,S02
11340,-0.3131149414589627,-1.0912146057198107,9.965079667544815,-35.362512417837976,-53.64278713404627,34.36240347286348,20.567759569938495,-24.679411027454826,37.863875952273695,3,S02
11360,0.42876387916462877,0.13365382312518584,10.152963206974945,5.194438278336739,10.95030475165813,22.302646612895956,22.421479574932405,-21.067892045535295,40.460341300436035,3,S02
11380,1.0881662074264153,1.7919304532782863,11.296101370062573,41.743135723712626,61.47882728953349,19.235492373402653,22.582573862275826,-23.69631129118743,39.168865109455346,3,S02
11400,1.3484349811200045,2.5177965663429087,12.407479150383093,61.088191613253954,104.69729549888812,4.056800992511833,24.07744688050165,-18.121729885785967,40.733288036884375,3,S02
11420,1.298646625693839,2.873733141765775,12.826940212385928,70.97917211566974,111.35291921574033,-14.496366657519447,19.301567426859876,-18.676795036269848,43.891369477793965,3,S02
11440,1.1121516132771845,2.363720615445355,13.325528934384547,53.21645528146553,107.743151363846,-26.41472823252894,21.64211755208607,-12.38809692701975,41.66942149940622,3,S02
11460,0.6852220835961822,1.7875776274084887,13.286749391405662,33.562983416316,74.93050939771662,-33.651088143611815,21.239383102509407,-11.858738169561288,38.99912286974527,3,S02
11480,-0.006137167298651672,0.8621299871100181,13.162178156284243,10.031324744870282,39.28228368170804,-41.19022234240199,20.22777095119301,-11.886466101197822,40.22466317146705,3,S02
11500,0.16516295404090642,0.273437992153501,12.40727205414862,6.8376631688387866,23.32064777583555,-40.12310353925576,21.043250139029983,-8.930874046242902,36.095119776414194,3,S02
11520,0.015116442842092487,0.24909578040647185,11.918161784210529,-1.9483460166253304,7.39756097554547,-35.54311301526264,21.406269731501784,-8.10425120460772,36.494877652059955,3,S02
11540,-0.18951343809734714,-0.3140646925420528,10.782910171527247,-16.629887239528266,-21.75184165277445,-15.888679581454197,22.951019722461034,-5.493462584424849,34.08086103305372,3,S02
11560,-0.1258708185290837,-0.7686607252860029,10.317998809012739,-24.01439230561009,-37.95080609764891,-1.3762487372637575,23.23553164327963,-8.081117506901077,30.978280788748048,3,S02
11580,-0.4524653175738955,-1.6366076588756908,9.530528237323542,-36.07916693024486,-61.04815111557665,11.494008054390305,28.38230563506975,-6.0695615389600395,31.1470195869003,3,S02
11600,-0.8164937528754463,-2.1863713694694824,9.476811607979267,-52.68118637520415,-85.8982382746368,15.987917487365008,27.301252112861167,-4.363466273553722,33.33786340440389,3,S02
11620,-1.0931586985694375,-3.0291736350821856,9.21290264060524,-62.9651500230043,-105.88035892873633,27.82967547693877,26.341841071221804,-5.688393932378269,35.56016327212926,3,S02
11640,-1.0442376536920768,-2.721656513902572,9.027779520557317,-69.64197494115523,-109.85464684671827,41.44710605472961,31.224039991068583,-6.635591799694528,37.19405097888003,3,S02
11660,-0.8513843609295689,-2.025455340685334,9.529866409943,-63.637786489082146,-79.37009363042594,39.46776695300697,27.43741296625745,-5.502209023725998,34.79443486762915,3,S02
11680,-0.5849419971453736,-0.6546880855880113,9.850620898246905,-24.1326289003117,-28.994130896780565,40.38097618085882,32.275266353993345,-4.98656431684045,34.31465778684189,3,S02
11700,0.23011393692256554,0.5675188700124834,10.488608507690598,19.523587402965948,25.112564957045556,27.081295310438765,29.447847969805476,-7.138510925232218,39.419044042201186,3,S02
11720,1.0904093167743656,2.0822306465948084,11.57702647070308,49.840087388697775,82.09161694741726,17.050792835666165,30.575969486722098,-8.847469967140132,41.39589570715636,3,S02
11740,1.3012683812819081,2.4832335520651103,12.421065794027687,74.47605732961254,100.43988405489793,-1.31152014111405,33.70139499566609,-9.862973017913065,43.368154462476205,3,S02
11760,1.2878074628493406,2.720875150557857,13.253708322820845,61.391081702431364,113.77910087671442,-16.35528221103263,37.51523422435193,-11.963884264069224,40.837282692988396,3,S02
11780,1.0746802377037359,2.439777861868017,13.384648392790321,43.60365442615649,97.86638951918103,-32.09126549207332,37.081873524973744,-14.326155949093675,39.68990284128822,3,S02
11800,0.7649754688909519,1.4365533164893514,13.363472823439576,32.095815980258585,58.61546491516741,-45.990801590235456,37.025897744903574,-12.711861896878519,42.30053016121485,3,S02
11820,0.24721095979463517,0.7287362480838488,12.90664428801312,13.122983694168436,24.586509140646218,-36.06750389230925,34.97455325853386,-16.00461862043382,36.020495749362695,3,S02
11840,0.26502392924206064,0.2944565406830585,12.672238768839426,-0.5862295668410948,8.992021259208258,-41.19885601689102,37.07200346260761,-19.001322689188427,36.689038494210834,3,S02
11860,-0.029154214965499553,-0.3062215968417184,11.440489277848762,-8.26539856622879,-5.208659322812786,-28.339295329281736,35.46716243393051,-22.249704013148325,33.761868727952994,3,S02
11880,0.4246018362022115,-0.44267584655929165,10.998453352805486,-5.021508816197651,-22.81601310989633,-8.038543680512431,37.20645613499232,-20.477319150890843,32.50403186444241,3,S02
11900,-0.11067959205287775,-1.1799121066681584,9.93255080311449,-19.356008204305358,-49.8457095512438,0.35444719199160957,34.5527872885899,-24.089024679939865,33.90902567908453,3,S02
11920,-0.3842876071896273,-1.7550075164010543,9.697397673054722,-52.15889733471102,-69.22342789882941,9.381823787952989,36.010258632131546,-25.315296545133826,30.03564326763881,3,S02
11940,-0.9675459651080461,-2.7444103536773183,9.381588427219738,-68.043268398642,-95.70648322579622,27.254357293959664,34.00365795985926,-27.971512938463533,32.53626411968483,3,S02
11960,-1.1799356820990645,-2.857466970735548,8.772819761991048,-82.9512008576535,-116.18892757240447,32.47799375329936,36.78505896578283,-25.008199012301983,36.39332840311059,3,S02
11980,-1.4116247290313448,-2.7148414146778634,9.328771790364083,-85.65897701781232,-98.1330852388794,45.05127232089906,35.044483929332486,-30.799292470967924,32.39034770959808,3,S02
12000,-0.8993493317878304,-1.7731991482200755,9.671672330112179,-52.31966232049948,-72.3593252597941,41.43432787555749,32.527468773587984,-31.459845573342328,38.008001899921986,3,S02
12020,-0.19997409901046878,-0.1657945885511903,9.980348976077025,-10.041882747225019,-26.967930212426932,43.75743063558726,28.974515490089154,-29.1703161522792,37.22672355310506,3,S02
12040,0.8114579249070833,1.125847549083176,10.946201044747696,25.851832461247316,39.81373183680065,19.70815069429316,29.09933219688369,-30.29611910970928,42.87779071677787,3,S02
12060,1.1720592628562783,2.271440464802318,11.776730149850389,58.94847512370527,85.92593795741803,5.401332552931837,28.98680382707606,-33.669894023194765,41.3409753999639,3,S02
12080,1.3248650089379876,2.9795045184760824,12.824858436500913,74.50511946720053,119.72271146810635,-14.346807402148656,26.821230881412028,-29.01896737918681,40.81604475789657,3,S02
12100,1.3137855148731703,2.5896357253930478,13.060791154326317,52.868546232344826,113.32742470844791,-25.16964250600789,27.236186416423628,-28.718285453380496,43.8882192517206,3,S02
12120,1.1228280995365452,2.092681364925548,13.308890488689933,40.68536341505691,82.8954929616784,-39.18841806409663,25.716461876271904,-26.885384432459485,42.65571081560757,3,S02
12140,0.5560534703715612,1.033978138426699,13.298312219009912,23.517120438545778,51.488942415510444,-31.821263618385657,24.851687632266646,-28.177870898544924,40.34946354122171,3,S02
12160,-0.09721308648054894,0.6575952316321272,12.851762749429378,10.290126296315584,30.765886594971377,-51.90149827547457,23.98829514485759,-23.40046614373383,39.14292999133371,3,S02
12180,-0.061898809289689494,0.04212656371545631,11.85814547065565,-7.306524591949513,8.447168461278793,-31.470334240598902,25.774842057190515,-25.772329477979103,33.80922611607323,3,S02
12200,0.10531384128530799,-0.12473541172800476,11.270501581042405,-8.05052669130635,-9.970295714635178,-25.946080028929206,21.69127496637101,-22.613366623250176,34.02556078712725,3,S02
12220,-0.13037961659102398,-0.5766698209100636,10.788789975768784,-15.638906795025807,-27.711559392654344,-7.917877306462676,21.532656126043687,-19.66839107213604,30.803434534052478,3,S02
12240,-0.3267495365898363,-1.376559822160692,9.940079728064228,-21.285938024488065,-46.716365406171704,3.6993636637162974,23.630248930143868,-17.448966423634253,32.56472795129922,3,S02
12260,-0.4033970048360511,-2.2312776640828136,9.595823809074199,-47.28097970800217,-85.63933819791156,17.851747003378502,21.609059668426283,-13.425456371652938,31.764894389974184,3,S02
12280,-1.116002780487455,-2.3412244934011164,9.010885001776249,-68.80865248256782,-111.88142759155576,33.41125948298981,20.789773263531337,-18.80390185110081,31.657917273661212,3,S02
12300,-1.1583499380513598,-2.775628617963537,9.320336894337801,-76.65553825731755,-120.57556522822519,40.09909315159839,22.960805872623865,-12.523147009413375,35.32849017695685,3,S02
12320,-0.95914784709829,-2.5182086780305473,9.188138996184266,-69.55174622711007,-94.93332718127438,50.993391435478955,22.219526451814392,-12.05870316402659,38.89329909085324,3,S02
12340,-0.586217612801362,-1.378800168727373,9.817813184813748,-49.76855293016945,-58.414933872946364,30.35407931941399,19.637801920236434,-7.031386718785814,39.79614726928172,3,S02
12360,-0.021947608409711716,-0.045031347569384365,10.051304181029764,-0.8632396654517507,6.637812772747463,36.90687838919405,22.49962984236936,-8.322414388193957,38.89925629627971,3,S02
12380,0.8840735936499937,1.5136880152119139,11.009056573703077,36.44347726051168,57.30240980166268,13.046853871724103,25.676131018794948,-7.820213278036127,41.12164655702774,3,S02
12400,1.1748993331035626,2.270327681704448,11.988427522170657,54.32332076410109,102.70540369228448,2.3885410213414877,25.09258288602762,-3.914984864743606,40.99832977206367,3,S02
12420,1.4385751715414985,2.850823096192067,12.639895140418165,71.62220709938555,109.40800749542672,-19.040530750258412,25.269468054465,-6.642775028456708,44.84177162297601,3,S02
12440,1.1790000871159563,2.334295204744437,13.135319621572783,49.03875932495539,93.88142231238707,-22.819450346547754,29.01829686701335,-5.868649998492077,38.770847489043184,3,S02
12460,0.5876734929415995,1.7576055811572657,13.441794822241418,30.266275283672268,74.66728517297834,-30.687443450904325,28.263261484628643,-8.615857555306947,41.52046958928783,3,S02
12480,0.3325106792508578,1.0417862127730693,13.160249357413198,13.682510281690494,41.14330076853949,-36.385382462586,30.159204263702822,-2.222904337389555,40.714883574932244,3,S02
12500,-0.19826805433840752,0.5312650723092958,12.596069240809516,9.180748925610505,27.448173393260756,-43.22713555187756,29.506357449166735,-6.001189599812805,36.6831578040731,3,S02
12520,0.22553290603281828,-0.013149828059336788,11.897546402512223,-5.929807016799691,-0.25802917277626025,-39.77783324409102,33.987263039288145,-7.111474121493992,32.69628708267838,3,S02
12540,-0.02296800371621431,-0.40338572621544366,11.263300974888153,2.374242571028801,-13.334316930866517,-19.652849052701455,33.62846842798009,-3.6108115318214367,31.72862185481785,3,S02
12560,-0.29357987177766276,-0.6652298161754882,10.362271799670484,-26.40879971136145,-30.59200533459079,-2.6689517324473484,34.265421870893995,-8.41665924049437,32.69362649486692,3,S02
12580,-0.31030490744014905,-1.6784909037720175,9.766780961761262,-24.99676712717972,-59.981190894116445,8.832190599909847,33.54223143230593,-9.390593294822946,32.25559523732338,3,S02
12600,-1.0410270994094715,-2.1742022649447166,9.206599013112491,-49.85587778852843,-90.53835478228106,20.641479984322903,36.13933785108439,-7.827437008178481,32.60059793531141,3,S02
12620,-0.9582226694649724,-2.7323356009049977,9.034423599311577,-72.42783235317435,-116.96354714466555,27.45208391153264,37.49953615996921,-13.701127220672308,33.43591599720099,3,S02
12640,-1.1670525352819219,-2.963321472086618,9.310117020944313,-69.47782488924733,-111.35357821888951,46.03996875340897,35.63824823991896,-16.81802072828398,35.01361064313271,3,S02
12660,-0.8921116863691126,-2.0170206719178347,9.39886771203989,-64.40984906094778,-79.47351814235238,38.24616426392501,38.08656026539822,-15.557356971826753,36.381643459548975,3,S02
12680,-0.28640716422451873,-1.121311523681746,9.96915984722183,-25.25710620463256,-34.17258636497235,44.95028906256316,38.25068221517219,-18.719814454263723,40.16501559351777,3,S02
12700,0.29810611255055247,0.6274825154277845,10.750003027621165,15.038155680460775,29.628590811003942,16.074917730789263,35.96945037391235,-20.52235910625366,40.07348746460767,3,S02
12720,0.9357073626019697,2.2097353904319386,11.719583788192887,51.136215818434195,77.77074437731174,12.004227602226164,34.38952109722115,-19.674650100430505,43.78451978729307,3,S02
12740,1.2881150141627156,2.6003228875082884,12.678659810324321,55.4279512829376,96.33695951796489,1.6496095949504426,33.36130971108494,-23.240805270785124,44.067516416144585,3,S02
12760,1.426112453802894,2.516242463653362,13.256119207197559,68.48174730341883,115.13264025922585,-9.36335550123386,36.41736436132123,-25.731713650228755,41.24831985818191,3,S02
12780,0.6828386885894041,2.4449252761375897,13.045111000585912,49.77139242413317,96.91354360055206,-24.1726994143335,34.70721412736377,-27.655617392751644,41.3597052053793,3,S02
12800,0.8232587584414647,1.5045453435942941,13.07075414527237,20.06932712922764,69.75294069328446,-42.22258807981817,33.99873499540273,-30.171190981738675,36.65754754809809,3,S02
12820,0.5199636977837843,0.7703496858529411,12.93022302305132,6.4084122138658755,32.754276404746,-51.90381979610355,27.584659507526393,-30.16951948522305,37.95124742501816,3,S02
12840,-0.06268543615015842,0.43246349805445056,12.20540856559085,-1.6506873578953982,7.65697577979376,-39.58804643739632,31.640991462386765,-31.516572814806995,38.508108868774684,3,S02
12860,0.007940470888980797,-0.148106847671515,11.787542098043138,-12.398587664943559,-11.6050858283617,-29.431010871722112,28.735634929110038,-31.53873339514901,36.95945242564681,3,S02
12880,-0.19446843881146916,-0.5487343925530939,10.887514907712173,-13.47079757648951,-10.653991157259096,-15.293669094036124,29.97267252672183,-27.682843054463785,31.34103638483795,3,S02
12900,-0.07085390675992978,-0.9009031106790784,10.080528253498253,-22.527237320394867,-41.6961144638368,-10.200605061942708,28.37431061868922,-30.27463362247982,31.87773354766535,3,S02
12920,-0.4368792048263994,-1.6487933236743961,9.675380591059959,-22.390439140940643,-60.98642761681933,2.862601960918385,28.698228574438406,-31.237027129763007,34.09107935378984,3,S02
12940,-1.2493304491410138,-2.4393896671788036,9.249414770058458,-66.72952262752477,-86.90759848056288,21.06697443796084,25.116477580063727,-26.361280825677973,31.822951682836834,3,S02
12960,-1.1403339709013525,-3.1514663539255903,9.21600775959073,-72.42131748574472,-111.57283067897295,39.63068333335763,25.422851966932427,-28.68300995703316,34.60257921437143,3,S02
12980,-0.952606801917743,-2.8327293447200064,9.261825838764834,-69.78153363351588,-100.01301918374521,43.77690093203525,24.862200012990055,-25.11738589407134,35.07282363711815,3,S02
13000,-0.8904250222182213,-1.8355134832545121,9.557211135419056,-51.170135893343826,-75.76812739159911,43.49659337302712,25.77490162800756,-23.001430679184594,33.61577515994863,3,S02
13020,0.033741621272812716,-0.48938122887894403,9.942413388593762,-13.394540589053026,-10.329756764704436,40.126209472480475,23.028021375323313,-23.18901148538831,39.48352680061593,3,S02
13040,0.5054092665208274,0.8807884279466653,10.77678403236658,25.288047327228544,45.60944746727884,21.996624794728508,19.638421164120988,-23.847668451460148,43.05278948398462,3,S02
13060,1.2887295328468424,2.2871761318027306,11.677173334362985,54.46994176131252,82.02662545164324,23.73478508612476,23.655487564665492,-21.34350257637908,41.30657055094023,3,S02
13080,1.1928368281397177,2.6579933530217597,12.134309759013512,71.47568739870943,109.38391097789236,-6.910026686344915,20.966737934860674,-18.486118583404803,41.77856653442987,3,S02
13100,1.520573916716418,2.470449111946926,13.035638592646714,65.43175874361675,111.44737187825866,-13.911719900538964,20.614228351519436,-15.123574999548879,41.87625910703053,3,S02
13120,0.8247507152953982,2.056186594306419,13.430167156499643,52.90729935734167,87.46696383887695,-27.94121119488842,23.5276617882531,-13.624691495300898,42.778312238099346,3,S02
13140,0.4000846850820139,1.348636279099927,13.124226427176009,23.619544606002396,53.11406752857688,-36.10299617714218,20.728053579867183,-12.15473293727446,41.92903315952278,3,S02
13160,0.050292138833919385,0.665078701199844,12.49346430682072,5.497135441417973,29.757138529232734,-42.76874280850312,24.486481906853857,-9.751335612889207,38.520893849515524,3,S02
13180,0.30734723022042737,-0.016521166952954018,12.245853353233112,0.5998992169465929,8.263182015320304,-44.38083366920802,20.81705429519078,-8.229295300855833,35.412353302173315,3,S02
