timestamp,ax,ay,az,gx,gy,gz,mx,my,mz,label,subject_id
0,0.13540312929072523,-0.04795466939939752,10.13614118575156,-4.339082428918343,-0.8879605001370199,1.398651877521214,29.565514683980098,-16.258793839891787,38.037768605789296,1,S02
20,0.1271464218423626,-0.04775639204900515,10.135781409928882,-3.0491446305417504,-1.6861302513102652,1.038118524183376,29.65381211457186,-15.560530715251065,37.459740016603504,1,S02
40,0.12386301566111063,-0.0574796235780783,10.149461157719216,-4.270393773223102,-1.3374336363490817,1.2205127653520211,29.501829254561418,-17.04691574154244,38.15656953564066,1,S02
60,0.15494661461907566,-0.05395468794349639,10.140892989526185,-4.056978375586011,-1.4134200521349556,0.9234757279258903,29.09048018677273,-16.603591675514686,38.604300703888335,1,S02
80,0.13759002482564422,-0.03478559644155028,10.160089157625803,-3.7706910688722846,-1.2017331787274053,0.6965398408119258,29.91510250226376,-16.73401698483823,38.797781842944794,1,S02
100,0.14828420127118933,-0.03501202986048571,10.164339759850511,-4.171256993331414,-1.8637691309760855,0.561630413177814,29.52566677472267,-16.349574238419272,38.269016912445544,1,S02
120,0.17652730157340446,-0.006900558964913012,10.130707283866906,-4.150921376979612,-1.934491749206689,0.48039928565187473,30.17411732245743,-17.209213508236836,37.966458728715814,1,S02
140,0.15990995348670728,-0.04032270251925971,10.152231391844213,-4.2543470999726996,-2.029467186608762,0.18197224532049072,28.808917193020026,-17.109609701027793,38.18232646779975,1,S02
160,0.17156346608928086,-0.04418988709440412,10.155356525500522,-4.37026496571536,-0.42314025595697113,0.5954534052311204,29.54451437767871,-17.174423827554868,37.347961380672885,1,S02
180,0.14130852736281177,0.0005346640802816466,10.132877253527171,-3.547076007982861,-1.6171961597271745,0.8091748931479585,30.031858907345832,-16.552054935664817,37.793473746484295,1,S02
200,0.17246015185130675,-0.003989700040847352,10.144873914009356,-4.7938130463084505,-1.062993406631794,0.8343903079094477,29.324912080950483,-16.98234738904159,37.769432701149206,1,S02
220,0.16998653386296603,-0.03291205503667569,10.146810560453044,-3.773357909318291,-0.9033602947529786,0.9444725496576605,28.864920546787225,-15.977423417176178,37.95957701707174,1,S02
240,0.17075546396820462,-0.018161991063024276,10.152740181004134,-3.718389886593475,-0.9901433694766077,0.7570938999223705,29.579032335796,-17.024403756808013,38.43045803069856,1,S02
260,0.17780175043242719,-0.014759108357973866,10.15328500204978,-3.3605449067746207,-0.4785843411552313,0.615919709774764,29.453115558305612,-16.681160837880558,37.74450751196351,1,S02
280,0.18321971935262904,-0.012028040445755131,10.154162967011583,-3.7206673455811328,-1.147783830341367,1.0894302738979915,28.6176270325964,-15.962279289963423,38.22542336473573,1,S02
300,0.18017130696387856,-0.02661243066292663,10.142357944534842,-3.7465089669049774,-0.8646591538388968,1.1982882141527784,29.781475604507374,-17.017399512014574,37.45052112011928,1,S02
320,0.17613200121874595,-0.029071589389948416,10.137451894094708,-4.040248851256084,-0.2961247628645296,1.410217968012951,29.71670375874288,-16.22171293886909,38.24809039190921,1,S02
340,0.18788866422839484,-0.024269199050380753,10.135878276984615,-3.524024296641846,-1.0908075067714,1.2742385546090675,29.517506493838802,-16.460701052938486,37.83175666381236,1,S02
360,0.19281964008841906,-0.010186683634834659,10.144752935288478,-4.699640724264422,-0.8146180590437961,0.07956559184925427,29.728009861768626,-16.388073755991265,38.5577702298619,1,S02
380,0.18128018960622017,-0.01800764823965214,10.152044900478247,-4.259662299036361,0.05107721326717818,1.6141708302624744,29.869141688208067,-16.79029011204254,38.15578972000259,1,S02
400,0.1974336717019959,-0.011692798806010554,10.14587825810703,-3.392808437704997,-1.1497378018262345,1.5886208287241206,29.499474680736274,-16.876949496767725,38.56372329229739,1,S02
420,0.17063307975004977,-0.044818439676328085,10.135971058968709,-4.749778085621955,-0.0004305559982480389,0.5513004057190347,29.976720915161692,-16.446610163701305,38.2280415702824,1,S02
440,0.17668285053696398,-0.037358984304766654,10.162579593443773,-4.408506530721268,-1.6287096985703144,1.7794536703691093,29.46144107547723,-15.98791131814145,38.71443209895513,1,S02
460,0.18956388410579061,-0.03335166929006369,10.143412276550242,-3.232521474565953,-1.4419174680219198,0.7008376877048778,29.22707378577358,-16.725363476926667,38.081878278415715,1,S02
480,0.1743141194994472,-0.027459315216107928,10.124222904910237,-4.888468772933591,-1.7691224925224578,0.33952338042174196,29.896683745380102,-16.54823309587095,38.47687276540241,1,S02
500,0.16783978400537203,-0.054616542889032144,10.130820016429885,-2.967490104295803,-0.7082069109502352,0.45017751143542634,29.245621907525027,-17.435554943376466,38.43772390749536,1,S02
520,0.1949419304386278,-0.03591389455913057,10.134938421283119,-3.778068550237292,-0.08982021636150583,0.7984895807046197,29.319566067475165,-16.600950450248156,37.815864859670924,1,S02
540,0.17465867549084418,-0.06653610122021576,10.14506508588605,-4.643328329501612,-1.198689577866102,0.21971657131871564,29.262556374583816,-16.86333577989248,38.27804556855705,1,S02
560,0.17882776230356387,-0.03921587761346684,10.16485400672137,-3.407740026202175,-0.7172598694210426,-0.41768708468254256,29.806568580318075,-16.822490545901125,38.70976782170087,1,S02
580,0.1579633315757594,-0.06619197620535927,10.163639126668935,-3.837154758537691,-1.1038754100497055,0.3061401437893001,29.204194207828486,-16.066018294015713,37.796758582321786,1,S02
600,0.16851247941864794,-0.06237215906553925,10.153907833403581,-3.9008432328694496,-1.4467322100314453,1.2050231402762277,29.793146194204883,-17.06448531467432,37.87159707288871,1,S02
620,0.17102534943637715,-0.07613609529653,10.13336945993756,-4.0992628782501,-1.5003599224822763,0.7734863198530871,29.60674933869475,-16.518717681967182,37.90120856629947,1,S02
640,0.1502460049210657,-0.08197334849532534,10.13682202875513,-4.085272272790546,-1.303122274875516,0.7482986231712974,28.85699611031104,-16.62538107608272,38.305596800645205,1,S02
660,0.14263341383401074,-0.073628345842355,10.151172882704467,-3.348275771712328,-0.9799226844451598,0.721338116545523,28.9186545089184,-16.75469630277174,38.5622919461989,1,S02
680,0.13294810742322005,-0.07559942301838261,10.136480838560798,-5.373641266499751,-0.40753174381438373,0.6228757472962413,29.95421826021032,-17.021896647345592,38.03240845290548,1,S02
700,0.15109052562999348,-0.0758842366756986,10.137904349829014,-4.012982947632646,-1.2393319890186973,1.0135371430140905,29.664481088844912,-16.897426692244753,38.50662245102115,1,S02
720,0.15626407109271148,-0.08865352690068908,10.14158752459557,-4.466452498054752,-0.34058957102185317,1.593048363186754,29.84869230487384,-16.503693772416767,38.5657517256464,1,S02
740,0.11994078334082431,-0.08840550698495346,10.143403769201145,-3.8902183634939806,-0.6260195616450965,0.8627023588367221,29.767877116203255,-16.63242527081833,38.07577059742234,1,S02
760,0.1316584087906757,-0.0864145584775923,10.1475776872374,-3.818888760709938,-0.07975670983589844,0.6604018762385082,29.5625654449624,-16.046594498478793,37.77095573728483,1,S02
780,0.14136715492324708,-0.09952141283800724,10.153504575761337,-3.9127103921308555,-1.981898071617877,0.968676659474389,29.39790351477382,-16.544983588342852,38.41711522773868,1,S02
800,0.09016187496117171,-0.1116613035479706,10.14285805338017,-3.860581585282345,-0.736843193251165,-0.4561034544522552,29.411741960704454,-16.54601124448712,37.98840023539489,1,S02
820,0.1329258200253146,-0.10538627518873697,10.147252034916075,-4.19954469321526,-1.0616489875893862,1.3688342616985785,30.48662557615426,-16.82124208864868,37.54635815226567,1,S02
840,0.0997288977036438,-0.11000864328949964,10.144867919440824,-5.2023280570293,-0.859524607003116,-0.06932928429158514,29.33017514539999,-16.90191145734103,38.343672812603344,1,S02
860,0.10237552286225421,-0.1117149452306702,10.15248722289728,-4.096612534752369,-0.8483233671074779,-0.35619761188630683,29.571688140533045,-16.25346175095904,37.80975920309588,1,S02
880,0.09585443535214241,-0.13651251685340773,10.136827978780204,-4.389492136601439,-1.1683196637197568,1.227384874321618,29.20737470162962,-16.226846733475032,38.65458754673056,1,S02
900,0.09388701905916529,-0.13366323540020864,10.147694202355677,-5.711275760705883,-1.2887823313800624,0.5365367594121052,29.141191017645966,-17.0130001427439,38.51789717766736,1,S02
920,0.10655436524032522,-0.11254178271425605,10.144238791874821,-4.2578853303785635,-2.0951737718633128,-0.2781733742982321,29.618201372947674,-16.42318697973199,38.036606759264515,1,S02
940,0.08973670095382055,-0.11731346527943826,10.140765088493227,-4.190500077937798,-1.2109472855714722,0.23586682616063975,30.151631113601404,-16.29577441788509,37.92333441322953,1,S02
960,0.08303195482758871,-0.12832642631306956,10.135068706800855,-5.322430203170996,-0.8443428063040526,0.06770807347001317,29.288060133349003,-16.383743438704403,37.998620057215234,1,S02
980,0.05312437273441977,-0.11906516814786647,10.133395286718297,-4.731362691415756,-2.5200782555110997,0.36947115997068053,29.742198940267564,-17.1817833410597,38.516747237476636,1,S02
1000,0.07562737851430831,-0.13455879751336428,10.149911932926642,-4.810453238936235,-0.8570264419078915,1.9541622861758028,29.69248535970217,-16.75874354753245,37.77573300876427,1,S02
1020,0.062120673482315016,-0.13425622716075702,10.13145333355976,-4.61449480756871,-0.9729758064670393,1.004431394202651,29.71096355815486,-15.686789066523183,38.31527982613906,1,S02
1040,0.07318366132855468,-0.12298878117981718,10.139090149534695,-4.111055607415231,-1.4017525889636437,0.8334436513505163,29.92458911537493,-16.77377416189163,38.38748831714971,1,S02
1060,0.057430426287749047,-0.1282404871045684,10.150941897914166,-4.831700381760711,-1.5317302955933467,0.5259688268062782,29.894203674138886,-16.829418010254003,37.969013093008755,1,S02
1080,0.05747106794199906,-0.11738796611176845,10.151950938917144,-4.414909844071526,-0.4042920889358914,-0.09465423026108499,29.646080759564036,-17.061029688884922,37.97981914325619,1,S02
1100,0.04062310124416411,-0.11024298352326659,10.154941470732146,-4.195944077741002,-1.2451576734292704,0.09413349016081196,29.211192182976696,-17.258171177771235,37.09454127949388,1,S02
1120,0.06174659244550487,-0.12953721216634884,10.153410416512827,-5.033287897392579,-1.7579424492455997,1.2497886674983496,30.05601574093769,-16.30631424234937,37.58093173809081,1,S02
1140,0.0497392796810074,-0.11256282365097277,10.15279883181699,-4.066994954419641,-1.5100246045220653,-0.41007855067929333,30.133325433336584,-15.97637147325115,38.39865701799907,1,S02
1160,0.044878782503310045,-0.08999110282060088,10.153424951877694,-3.963034394780617,-1.6043562311729538,0.6016142718241361,29.900033801111643,-16.116357119724213,38.23097626024097,1,S02
1180,0.04232622522036267,-0.09336702639876736,10.143041461314672,-4.3766447975173906,-0.8450348402129848,0.28181300313162544,30.133488089157193,-16.91110741773039,37.938258305007494,1,S02
1200,0.017987840393372548,-0.08801281788864002,10.133880046219735,-5.2234625673072,-0.8564774730733602,-0.4342597244748291,30.060721848465143,-16.23673374745699,38.190165511511246,1,S02
1220,0.018297854054396476,-0.08998235199136362,10.13516386192847,-4.365087750914457,-2.187776176745243,-0.20269179951361405,29.632577280539873,-16.15076779204179,38.46136843228292,1,S02
1240,0.03531576953995254,-0.08730071418887589,10.11973694568299,-5.053257244340347,-0.6845155522812951,0.15924227335327712,29.300715194670122,-16.9895809028673,37.759863651310084,1,S02
1260,0.0328753337384894,-0.09132735023562624,10.147085679050408,-4.323710550517327,-0.7063010318805651,-0.10830351114100722,30.090659011527908,-16.248611907421942,38.16045602134677,1,S02
1280,0.028370809555014517,-0.07974605225086413,10.122811511040727,-3.263789680064294,-1.0763080288072384,-0.06060548899269713,29.43916524340138,-15.77571291857193,38.30839101633163,1,S02
1300,-0.003851296122527978,-0.08138154339719837,10.140146582758815,-4.775322410565602,-1.7841386529750656,-0.36308032955800285,29.806540395418665,-16.371800136284524,37.86452994287537,1,S02
1320,0.04381681271126955,-0.06556472638151101,10.146797129907762,-3.655839818421123,-1.0829864448928124,0.15392868056604475,30.2915062694728,-15.999676460339305,38.84040015033937,1,S02
1340,-0.005598604651068234,-0.08712760370815853,10.143181281592126,-4.828965642134822,-1.8149647513504048,-0.12693305547554634,29.972646716422187,-16.396913668702243,37.889972419499465,1,S02
1360,0.010771556511917607,-0.06377092791020751,10.161820634635683,-4.456415529284511,-0.9215624048185811,0.4301769488616303,29.234072717301782,-16.749421934396878,37.72917954633721,1,S02
1380,0.010381927069669242,-0.06260978931080453,10.143556236530603,-4.610590698676555,-1.514079446830557,0.6708000660244449,30.311073897394596,-16.908498051869962,38.47217342464573,1,S02
1400,0.02531342527387334,-0.04054026768361136,10.143178250152074,-4.398281391612955,-1.3765694918748208,1.3500839807518137,29.61897584688333,-16.913031597872695,38.46702748043592,1,S02
1420,0.018404095965766268,-0.03842572905992489,10.146879541620772,-4.418661867490452,-2.2466331118835594,-0.30793616906165533,29.4994111149072,-16.707636764684562,37.34142424979878,1,S02
1440,0.03271982527003742,-0.04677183620813881,10.15057126065473,-4.738249444713359,-1.8036343206236394,-0.2641814261464145,29.827701351782682,-16.521223583109425,37.87008508527779,1,S02
1460,0.014830552371065828,-0.057126864960388685,10.147993837489086,-4.365820297062833,-0.9221539090141962,0.0220092855278603,29.483998936720873,-17.26599614100585,38.534580065326104,1,S02
1480,0.015926181755308827,-0.05390659385379351,10.148779000242207,-3.415617188898654,-1.758639003720823,0.4857480100185801,30.293394947878994,-16.48621527869085,38.594437674705915,1,S02
1500,0.023249051070708973,-0.04229117857993969,10.133990366841344,-3.9559869976152005,-1.5684115925571644,1.1275375092381825,28.90221340314404,-16.648270915818454,38.033087765102316,1,S02
1520,0.02140737364759801,-0.06128528117185089,10.165143324174997,-4.266384715613831,-1.1454886048102397,-0.18529215605714755,29.772389827069286,-15.985988050978824,37.027911723040425,1,S02
1540,0.033687907148970186,-0.0289818117047229,10.166283919405473,-4.137501540866107,-1.544148006558926,0.3834505029453463,29.30830530523193,-16.988492832131747,37.97213904482856,1,S02
1560,0.02674945140811709,-0.018621082278294163,10.137458631098005,-5.079907191798959,-1.0458760960196698,-0.19292261370666164,30.30756112005792,-16.971003218276316,37.976289126504845,1,S02
1580,0.0313904031428881,-0.023143178192836587,10.139168176777032,-5.29252663561417,-1.3625322195638043,-0.3906819204870793,29.38097424819473,-15.987696178830284,37.77268049434792,1,S02
1600,0.05089200537110585,-0.017455446928651745,10.131227779592551,-4.259604206744307,-2.1476364207901013,0.0968874869680868,28.940177503882833,-15.748752652617753,38.006717814228296,1,S02
1620,0.035755440799428204,-0.03488238859676207,10.154192134212598,-4.536292257718233,-1.0775041177245437,-0.11054842877082272,29.364731588387738,-15.238420432876511,38.21031728431977,1,S02
1640,0.05265195583765994,-0.03337237576882431,10.171615490335569,-4.611245939088086,-1.6096268605459103,0.5450007046579279,29.96059066265891,-16.45676224339529,38.076176790085796,1,S02
1660,0.0368859258554808,-0.018410745143489567,10.132868755091403,-4.076916208913166,-1.7393571289350958,0.18436491318963555,29.482270718067316,-17.035336276158674,38.38360679088911,1,S02
1680,0.0272400415700204,-0.02349718333227075,10.138766882099112,-3.884707392509997,-0.6648176879161813,-0.4896402063398705,29.418067595911346,-16.197313759514294,38.379637122542896,1,S02
1700,0.048595887136224335,-0.008246063872048064,10.1508572445576,-4.939116673510375,-2.062871201390669,0.8974950620032174,28.79472371666217,-16.203695049543242,37.75909902408068,1,S02
1720,0.051928152915977424,-0.011606810328347941,10.164850092458993,-4.933398740041926,-0.874014069041498,-0.08243889521290904,29.05501062269,-16.310352914503113,38.143430061233936,1,S02
1740,0.06431893155974502,-0.02599594820254561,10.178233476766751,-4.307339984225884,-0.8935002026947301,0.34513754169992517,29.869468111053244,-17.06112098897102,38.074754474525456,1,S02
1760,0.0719452238685314,-0.02391236797575884,10.150141130819987,-3.4344754539539695,-1.8312643096955004,0.3414780289725592,29.549197125899777,-16.955993904549075,37.97582796595095,1,S02
1780,0.06285213229766602,-0.029411665302244178,10.165905993604074,-3.532673875995303,-0.7451433271396382,0.8191850588346081,29.3138335954313,-16.985955107898075,37.99482693752565,1,S02
1800,0.0803756284200786,-0.027865444038520926,10.147168598922368,-4.137020696999844,-1.6213502536612516,0.2742775247280256,30.18120524850049,-16.589328696857184,38.31883745708578,1,S02
1820,0.08012931325170063,-0.029984232327285032,10.153027175363624,-3.40327875945626,-1.8683022082481227,-0.12437520030304883,30.16742680645615,-17.564088489384915,37.74936657939117,1,S02
1840,0.08877111597085684,-0.04432612984901708,10.14444829545482,-3.772162877038219,-1.9916485295069337,0.7775474795484412,29.56114813681199,-16.408830535068745,38.2528430177081,1,S02
1860,0.10561408784383092,-0.0210692132781859,10.145131992157806,-3.7428766280432213,-1.4694659490714221,0.7833636567159321,29.401201822865644,-15.848382424389277,38.3622967172986,1,S02
1880,0.10025016949711679,-0.041312347902467975,10.153932951381522,-3.882108651751546,-0.972292020500017,1.5909543176707421,29.09050917389909,-16.512302362275996,38.17717829413653,1,S02
1900,0.09938086840412103,-0.033508527936123966,10.131873789857423,-4.007672037058868,-1.167489659513309,-0.02055031085434056,30.127274910356398,-16.335299806937613,38.195563301344066,1,S02
1920,0.10440770523487529,-0.035857636678063895,10.156367137281155,-4.4916381092994335,-0.04176904673663384,0.9065402840907748,29.326349607336198,-16.66105488261946,38.37030386555157,1,S02
1940,0.12707687470386034,-0.04011860642585397,10.132641787967328,-4.739924704811633,-1.8268727553146609,0.843291358101792,28.92297549111572,-16.024071439396465,38.09340064380464,1,S02
1960,0.1159009307146784,-0.056698540142304674,10.148173937321138,-3.864724418629681,-1.3582723165149098,0.3296374106589124,29.64735345157097,-16.74061227861966,38.37113043061759,1,S02
1980,0.11983503445099432,-0.07071912764236082,10.148524456386651,-4.5384808692081196,-1.5818166912948475,0.5136230347306151,29.70127583697767,-16.893782051545422,38.00909989289817,1,S02
2000,0.12850454518316407,-0.06157621612030824,10.165090017155329,-3.636312414408796,-0.49746564962813233,1.1513653094760126,29.022110074061725,-17.042686273654,38.38940448182963,1,S02
2020,0.15003622415709308,-0.058554533924033786,10.144752863465921,-3.883366071847985,-0.6500216339799577,0.8520250200228207,29.933230904017307,-16.203241572017962,38.48274022274237,1,S02
2040,0.13874552135148116,-0.058995947929827944,10.126928609937194,-4.727129760130078,-0.8532181341744929,0.10226770049574929,30.003625832559557,-16.64741012107904,37.78546343645567,1,S02
2060,0.14333435357985708,-0.0808977413896358,10.14438929938122,-3.4848253435354613,-0.22637103922218693,0.4048957058485574,29.462801731712666,-16.352308318251403,38.24616778260955,1,S02
2080,0.13443658691272753,-0.08013172508807029,10.147590037029083,-3.312248202807836,-0.6771885534103976,2.194417769896015,29.847422217613822,-16.31757682634955,38.024327002759144,1,S02
2100,0.13698560633751078,-0.09438512368383271,10.147019247546336,-4.084592726929826,-0.665629236416535,1.1543265819305988,29.196243730060836,-16.04530106267741,38.54611391704074,1,S02
2120,0.15817791392365121,-0.07400494830005812,10.148717493757992,-4.150731146237512,-0.9387791463361395,1.3952710001401505,28.66611486860523,-16.497488432843376,38.644092825411825,1,S02
2140,0.15617004990440186,-0.07296564480520644,10.145815164227171,-3.34168777226323,-1.469693191286547,1.0278578075524782,28.913350609157533,-17.12001884017119,37.79665239887665,1,S02
2160,0.16583503617511625,-0.09197200125050004,10.145849233607937,-4.037034843631764,0.02809832606683016,0.6212375372591498,29.589495687907984,-17.040233360664168,37.578680196383765,1,S02
2180,0.16875370498031736,-0.10190322454664541,10.138560800312092,-4.085208589732814,-1.1108906149619078,1.5554432486085221,29.238746197497907,-16.738356151307414,37.681493890649335,1,S02
2200,0.17976026201246242,-0.10264720595684933,10.140430184118168,-4.400206016240294,-0.6165053413603764,0.43111193739039977,30.189505808935117,-16.704754166626216,38.15374421950672,1,S02
2220,0.15919345622509282,-0.10923304857476833,10.132974935373388,-3.6231032043068065,-1.3634397336904436,0.1721251128414552,30.087386472077092,-16.450400480196258,38.01539234809693,1,S02
2240,0.16086521991794375,-0.10548989894809402,10.140902087008445,-4.289828556489115,-1.2165967399857693,0.9145501664548785,29.97845142403197,-16.19069033288862,38.305748324305895,1,S02
2260,0.17772289319482043,-0.09620597523273533,10.137915001361797,-4.0820745694897775,-1.3696989167534754,1.7194759060853673,29.615180419987148,-16.468786438232037,37.56239878386814,1,S02
2280,0.18406514038468202,-0.11992392119486597,10.14926667174798,-4.926333276712226,-1.7100658561205588,0.8572789398254475,29.895488199505596,-16.389321704207525,38.05339409795326,1,S02
2300,0.19439586772454756,-0.1160743675808862,10.135851726336123,-4.721825918719292,-0.844092633049558,1.3187661767000214,30.416580084861177,-16.396492890869055,37.08898004724285,1,S02
2320,0.18112736051467648,-0.11317824186514985,10.148735420289428,-4.333024302856942,0.2290086242210989,0.39122434958008034,29.308768808934477,-17.42483878080361,38.0281012976244,1,S02
2340,0.18198999468885513,-0.09872787896634012,10.141807124949713,-4.324940021488336,-1.1748833382637967,1.3355807690266044,29.77106369028335,-16.243357424804564,38.680461642400175,1,S02
2360,0.1822266468666624,-0.11894202112342453,10.138551067515136,-3.407079707494706,-0.40182059616995014,0.9958551634195862,29.272058569972895,-16.649644838460404,38.1593426113866,1,S02
2380,0.17371990246800348,-0.12499989882441202,10.151105057698098,-4.26494115219032,-1.5234243697037573,0.11310813807420361,29.42548656231726,-16.742885685513773,38.27502959879046,1,S02
2400,0.18689356038473137,-0.12359874292320176,10.152476680317623,-4.41815393637939,-0.8872180376827947,0.8970711290265885,29.215327973475897,-17.30946557660246,38.18734803684353,1,S02
2420,0.206360737520413,-0.12436679359618032,10.134597434365578,-5.128419981917113,-0.1678315994633437,1.4360771061267608,29.5074396817563,-16.346797829094566,38.47757513986536,1,S02
2440,0.17981257343466228,-0.12274176176633819,10.150886837340535,-3.7970235843813733,-0.2365300119744742,1.152809493451679,29.691698485827647,-16.701204088445127,38.3327038093876,1,S02
2460,0.18870380191559588,-0.11517673238944834,10.147523753782828,-3.8009955519216323,-1.6836142522471431,0.28488161533749795,29.591676189789624,-15.859077538191862,37.70620479967945,1,S02
2480,0.18387189845871954,-0.11308998672774767,10.14721412705814,-4.296273888625199,0.1388597429844367,0.9323403983489091,29.15913598084984,-16.680726088774644,37.94586869744411,1,S02
2500,0.156710437954765,-0.12021625637290365,10.150392784170597,-4.174316375769233,-1.6107826237777938,1.0413720567702902,28.975386982738527,-16.94709658731247,38.06817241490152,1,S02
2520,0.18951180353126762,-0.1182750907222207,10.1571002311785,-3.896034174541791,-1.0576738979670028,1.2477014990358493,29.255688514526838,-16.451833255910117,37.89785614564422,1,S02
2540,0.17501187892756392,-0.1263493463592141,10.145478079668722,-4.464717536358436,-1.6809290601621756,0.7214313022184584,29.995133929874964,-16.760079008891413,38.203353609275865,1,S02
2560,0.17985341777632013,-0.1086724281691161,10.151361354269804,-4.32792959356792,-0.2956668930812498,-0.3111509322853774,29.196410466994454,-16.38587183639168,38.40398398744274,1,S02
2580,0.16919665648908072,-0.10054862950432382,10.140496634765423,-3.1848376414575634,-0.5699896398800434,0.6795222959323549,29.232680670640917,-16.165484619340685,38.758631846625974,1,S02
2600,0.15438743146552122,-0.09354756255230917,10.148535736016894,-4.330110458389931,-1.3931059816507252,1.0007074938227714,29.649023959904397,-17.157067636242807,38.693563528205,1,S02
2620,0.17744350518265872,-0.09188208872359784,10.13775172256018,-3.4854976981431447,-1.0056113681274546,0.9345703585903871,30.058177867874488,-16.322784660938602,38.296081386537544,1,S02
2640,0.15871122849384425,-0.11626097571011898,10.144410747679933,-3.9973287762731577,-0.48225048997109754,1.6029370124462172,29.93203666392427,-16.591701207964434,38.21205822536012,1,S02
2660,0.17712986063998398,-0.09833409805236884,10.155195040674577,-4.260011129763787,-1.4669333152469957,1.582697666112424,29.34941010766901,-16.82645923621113,37.90878683362344,1,S02
2680,0.152710071259987,-0.09028603207183458,10.164217468990465,-4.7364127888386935,-1.8225586001129623,0.13707074613805292,29.820040123865073,-16.905096264178347,38.799809844950424,1,S02
2700,0.13572203042513398,-0.09969631801202734,10.133948195054964,-4.826404097854786,-0.3834496312789015,0.13056912120238323,29.920324357243995,-15.99776928665795,38.384627849861076,1,S02
2720,0.154078845110605,-0.07707270202452723,10.150759903998376,-4.3934642008651865,-0.8240508936115818,0.6057178483759438,29.955195230466206,-16.45775044653073,38.12065629973755,1,S02
2740,0.14295943526144467,-0.10245318528861562,10.142768312788865,-3.496876417691244,-0.6533023371920557,0.12485565168589985,29.45412247570422,-16.531562605966975,37.83363366078983,1,S02
2760,0.1564993253934563,-0.07251591192065715,10.141330893634716,-3.8268569874817095,-1.018783218675969,0.5776757667176864,29.30881378764147,-16.086066322017373,38.159966022544,1,S02
2780,0.12444900717880591,-0.059702342975073375,10.148322744682304,-3.57587151329429,-1.5276764807442953,0.8322960330928417,29.557511967651966,-16.88331638551567,37.4682595570459,1,S02
2800,0.10643887353275955,-0.044583409635460425,10.14086854127458,-4.3341306046813575,0.05102017690506533,1.5175358554373308,29.647997146571473,-16.103962605708354,38.57861988658551,1,S02
2820,0.1337626724564257,-0.06775840718670237,10.145029340614009,-4.316438686935933,-1.832186295158917,1.2398222604507245,29.38457767556278,-16.552452950255436,37.659150613701236,1,S02
2840,0.12456124397377819,-0.06614071652156339,10.144197746620332,-4.707425664181815,-0.8480140018606133,0.7828609790821652,29.75937581767424,-16.565375359654567,37.72106501731954,1,S02
2860,0.10832540213098808,-0.05054249471574894,10.148835272618312,-4.509854843235771,-1.4288349410223236,1.2343314206799398,29.16354304057662,-16.786623350266915,38.4257380914187,1,S02
2880,0.09910375213080935,-0.05198162815022654,10.149630635675432,-4.23804246208583,-0.48041762231191787,0.2625767313220759,30.319817736925163,-16.38212066518713,37.845254435729444,1,S02
2900,0.1005921160376511,-0.04638758178826968,10.154977995083629,-4.090986588303437,-1.767554548401581,1.4156370600289196,30.091128858937637,-16.678420566828457,38.193443779748016,1,S02
2920,0.09219071886924562,-0.046013836626554436,10.143682101841762,-3.766280433200881,-1.388472646964681,0.3111660150915017,29.34880171014844,-16.173142770164702,38.02365436439404,1,S02
2940,0.1002806926013326,-0.03321415224907968,10.146838749380494,-3.764854233562318,-0.5409211006147228,0.503225943026922,29.321087688817002,-16.067804849513173,38.210865908255776,1,S02
2960,0.08992061012915926,-0.018101087015389393,10.152146608736272,-3.8037736592381384,-1.8701456080951537,1.2209714224073678,29.559878865543247,-16.332109849186544,37.905210284961825,1,S02
2980,0.07793806315344748,-0.03454473653360547,10.159717931294407,-4.656452138808112,-1.4577115755895593,0.33938333544592225,29.611393724238496,-17.028414400642944,37.634558881865054,1,S02
3000,0.053729851520185924,-0.027970455890996865,10.140496035273976,-3.8591940275577445,-1.1514073802028473,-0.03305194061611061,29.451171693110275,-16.160191531257226,38.23678313340261,1,S02
3020,0.0716500756520525,-0.02965853154671156,10.154170684239872,-3.7198767020823293,-1.1812269593852336,0.2133898982972603,30.080082906430942,-15.936682663751562,38.42773149977226,1,S02
3040,0.06497421601636796,-0.024338123173260548,10.142479797453493,-4.094960285518544,-1.0134120269772247,0.37093570670295917,28.617525748200404,-16.48026937706276,38.03731618127077,1,S02
3060,0.06466146112172225,-0.02951697927686916,10.141281125579159,-4.820397604497816,-1.2823714166367008,0.8917555239564656,30.155197627624553,-16.233235680826652,38.79673271374821,1,S02
3080,0.054754375283614466,-0.002236079964990298,10.140786433153346,-4.239357212433727,-0.45072964639716473,0.24461023057513387,29.755281060821662,-16.563430125826578,38.41928961282147,1,S02
3100,0.054673182689339954,-0.02567965651921604,10.15750556223821,-4.349753977802624,-1.5764429767201946,0.06490613552685631,29.17941373338466,-16.271319318119538,38.21477888323327,1,S02
3120,0.04783309893570756,-0.029334247133459175,10.138008592900952,-4.22204628529954,-2.2665825177193524,0.8011378400986922,29.488785567960893,-16.944284219296076,38.174194373557306,1,S02
3140,0.05065316084894297,-0.014088518025887543,10.131348920648504,-4.8379431966688395,-1.382881464800838,0.43020287788271905,30.313156422531808,-17.499475137768776,37.788412776455566,1,S02
3160,0.039726884813379514,-0.027966378991154783,10.142983537393373,-4.184021336148444,-0.9972102356755838,0.567086116093286,29.639696065094682,-17.01745994948185,38.33959139587021,1,S02
3180,0.038959495171813255,-0.030170606895083066,10.149993943850495,-5.16165184095703,-1.9681572434479122,-0.057026506211146466,29.64401920467855,-16.240863389407696,37.984790465373976,1,S02
3200,0.043353988522715804,-0.00537948304713029,10.128205121071145,-4.676657275331914,-1.9414362749620213,1.1475750274586596,29.641887495282685,-15.933330643226924,38.31243902680905,1,S02
3220,0.03659701168921453,-0.007798460705033532,10.15234484792512,-4.3722667828255295,-1.893391096665644,-0.17475418315864644,29.71531152708112,-15.981883450164974,37.83671742331654,1,S02
3240,0.03243146266733933,-0.027722954221937983,10.151104268442793,-4.106205096296397,-2.5493216866996633,-0.1708106382146991,29.121838747826178,-16.06543298227117,38.086390748791324,1,S02
3260,0.04632855860842594,-0.025056527920620415,10.1409422998708,-5.05019024621925,-1.4058414636434609,0.48078312449531696,29.925234716390637,-16.70848273715467,38.115515503361905,1,S02
3280,0.025809618381467267,-0.04492842039877076,10.151906891690171,-4.162413999658536,-1.53782411596276,0.7746992807451872,29.578721720737,-16.43257319528599,37.979925019811205,1,S02
3300,0.033343463832543496,-0.03381952425690728,10.154327839575934,-3.6775113053903183,-1.840737093678771,0.8919164932485737,30.031306200444902,-17.446625612419297,38.20638604271688,1,S02
3320,0.011368492581614015,-0.03687494988321209,10.13589920380133,-4.18400332197169,-0.39291185107275617,0.2661250067927703,29.62798377396688,-16.45193011927155,38.49974897571138,1,S02
3340,0.014234617931115745,-0.04282864474257925,10.144433473727641,-4.858672648298134,-2.4058455282906746,0.9724945224092116,30.073171659893077,-16.637768749095976,38.43316833954685,1,S02
3360,0.023439054838801585,-0.043178589653845995,10.134017303418622,-4.277642902029778,-1.3662880668416595,-0.26951394528123085,29.276714961969564,-17.00921314220284,37.91004850819424,1,S02
3380,0.022121315168614708,-0.04741941177357821,10.141656235701863,-4.536533150519469,-0.7128364468934737,0.14423738250552787,30.07403450415213,-15.972308212055927,38.44092166866269,1,S02
3400,0.012937952039659598,-0.06959535029111466,10.146120902467986,-5.352647938577856,-1.104859875766652,0.498505769375293,29.27405921459469,-17.05147936967744,38.67843819862833,1,S02
3420,0.019762717557893994,-0.05212649603815238,10.12106871776236,-4.248075659949953,-0.488867629256337,0.5567226009324957,29.96291404291045,-17.160003642591214,38.374239193987286,1,S02
3440,0.029478506776423913,-0.06430744675665408,10.157808934101814,-4.631559526127621,-0.9678494767799356,-0.0933605387414308,29.396019323425392,-16.54258856375849,38.02515145278246,1,S02
3460,0.014620729814294187,-0.06398099391032794,10.132351136325646,-5.10129769126031,-2.089484073390542,0.526476598584132,29.406714446708452,-16.650868486972314,38.061889293249756,1,S02
3480,0.038936976389997116,-0.06818084192748156,10.151065221183504,-3.7475870233536583,-1.7426512696286596,0.1396362550882304,29.45163933506265,-15.903292246442788,37.91925510386488,1,S02
3500,0.023207980246866308,-0.07269717895027339,10.134803855731082,-4.942651080898713,-1.7248357683427251,0.1401133381339511,29.27145967154457,-17.349964533785013,38.32873822277618,1,S02
3520,0.025896858413819307,-0.07800413082128718,10.149246182202843,-4.769883952776122,-1.3520438735510385,0.3495397611007429,29.975602801558264,-16.377003118647714,38.574007402319324,1,S02
3540,0.036055154268052156,-0.06922860008613003,10.138916881754612,-4.539910446468849,-1.3414496334961805,-0.5087731866640387,29.88081526916082,-16.464604025437517,38.31864742152411,1,S02
3560,0.03842117248405299,-0.091983774496546,10.136263735879822,-4.782265267197991,-1.4362576162769916,1.1555626774608125,29.414736059467547,-17.137721327919643,38.21692463661686,1,S02
3580,0.03180810258565994,-0.08498071657023436,10.144721890099623,-4.595872180649075,-1.2295188205445624,-0.37003111789647014,29.527475261691833,-16.922171546737026,38.05400850884848,1,S02
3600,0.045638961749877756,-0.09288335854856997,10.138668044140207,-3.8524370895338143,-1.2699877726657967,0.3860797449783296,28.537208095590014,-16.26249335812753,37.609448427925955,1,S02
3620,0.057393795294791265,-0.101453254595004,10.135810727808149,-3.048118190123745,-1.2252201784571888,-0.2102972645533827,28.670063178210203,-16.673617168037502,38.075485654015644,1,S02
3640,0.05659128216328249,-0.09380972009955645,10.140509360510427,-4.103263937444002,-1.2285710609857758,1.205198337171712,29.66445865629265,-16.697760601344925,37.57355703350543,1,S02
3660,0.038813807050492234,-0.09329795012256407,10.143268215644552,-5.318473792555638,-0.6340964496455872,0.8896708273789887,29.14370912722184,-16.90506152022582,37.938631220935534,1,S02
3680,0.0711091667631039,-0.10147732640269835,10.151797893322074,-4.075540464522076,-1.3350337507690604,1.761079623792139,29.576239613301656,-16.21832042210798,37.54208305275476,1,S02
3700,0.05452110868422381,-0.10823283247660863,10.156292215096757,-4.351539554729037,-2.988722001116228,0.8718013350124416,30.238178825788772,-16.734643858433436,38.19458666141379,1,S02
3720,0.05923028158704288,-0.11577369649976288,10.15368828238862,-4.0704835760136575,-1.7173947953515876,1.0858422682524271,29.455984887222694,-16.341368089476518,37.820106235017725,1,S02
3740,0.06221163058337549,-0.10428829630753399,10.144568152532278,-3.4614266463956773,-0.7540591963373984,-0.13581401345506106,29.246786939795765,-16.594647401094285,37.520221092895625,1,S02
3760,0.059337951100063735,-0.1156577152526523,10.139736748834187,-3.938899944462415,-2.0710500696438174,0.4893126384586816,29.38334298397507,-16.489822377058758,38.00102165344362,1,S02
3780,0.07039974167982094,-0.12254300087381864,10.147789666686034,-4.068266155268007,-0.8915055581681713,0.25854551782961843,29.98293343726507,-17.27001946934807,37.82357374410474,1,S02
3800,0.08669985755689127,-0.11186503362451583,10.143148905176773,-4.577187792823211,-1.4661873810074753,0.21320778333911966,29.620261366155642,-16.05748317317511,38.423268788713784,1,S02
3820,0.06969881845438686,-0.12028732361443467,10.14586110386666,-4.537630015933131,-2.3283924209204887,0.6077662403764451,29.892164103168945,-16.1542532859648,38.33042341413454,1,S02
3840,0.0986960203971523,-0.12410691652685096,10.156570472641052,-4.201326444199068,-0.7719968696839128,0.04618010124528282,29.695142866256948,-16.7983702288442,38.61634471559592,1,S02
3860,0.10352442011356801,-0.11356540529675696,10.140494388765848,-4.173499335724061,-0.913320735186451,0.09204640388143304,29.485825317855085,-16.051063903715544,37.872214746285,1,S02
3880,0.10158430482858917,-0.1178233175172809,10.166178496706053,-4.749198986845692,-2.0379940366744176,0.8947865091865889,29.62772664501818,-16.265285105955293,38.37704727262155,1,S02
3900,0.09987612126769427,-0.12320111806154879,10.156192795019162,-4.611742305583766,-0.9277148263240571,0.5692549740817477,29.837542087382648,-17.139052063936624,37.86768918969169,1,S02
3920,0.11207174407176504,-0.10772259127892647,10.13030340666101,-3.1084098754335647,-1.8707943009341736,0.824194338594133,29.458535942646918,-17.19882707967169,37.59387235848757,1,S02
3940,0.11428986840408593,-0.0928491028735764,10.147974190206234,-3.989159222445292,-1.6866348629100292,0.6791557004491776,30.058815722040325,-15.8986448417313,38.082171639676055,1,S02
3960,0.10664768114965689,-0.10970070182380567,10.132008798471597,-4.25445229205289,-0.96542597411112,0.9341493914907251,29.58486690019069,-16.184540476077323,37.59234391941381,1,S02
3980,0.13587012944244928,-0.10977784439169973,10.136265011962836,-4.907418398701993,-1.174860091572523,0.7731778868071241,30.38568627820066,-16.70964401921259,37.77404068223577,1,S02
4000,0.12207876591063538,-0.1002847635549083,10.155565367814848,-3.910825972232734,-1.5470687902794094,0.8340290827920281,30.184068997296876,-16.65054197535219,38.810192187663475,1,S02
4020,0.13777660750585186,-0.10518924476287941,10.14576849834952,-3.4733894633422455,-0.9033254033814927,1.0278382624014157,29.695761768707946,-16.65342693263282,38.26021483327437,1,S02
4040,0.12718472623927282,-0.09609467445847211,10.141446958826755,-3.9027943971069092,-1.3250959028214533,0.14739061289618638,28.619346071444863,-17.211182401176032,38.11686362084967,1,S02
4060,0.13306784131454943,-0.08251462009205592,10.152811539761554,-4.387646102365665,-0.6506930736254082,0.15344152800238176,29.01498657813254,-15.838018535345677,38.00615812921185,1,S02
4080,0.14001650391215892,-0.08586041684943853,10.133262087113533,-3.9190755600976526,-0.761039412476599,0.8238788090027014,30.75867484947809,-16.72047939667116,37.88720701542569,1,S02
4100,0.13389150348464243,-0.10409655950981461,10.151408280117895,-3.7967213859126754,-0.8475830538237462,1.0172379160248564,29.105509350840396,-16.70698130320215,38.05473951449037,1,S02
4120,0.13902897815478238,-0.06101958757582444,10.141804899444343,-4.405730464048151,-1.0123038027155091,0.9956905310743247,29.953412900356966,-17.31576777520396,38.00219875482063,1,S02
4140,0.15456554928573063,-0.07475297493834339,10.155520992981476,-3.945955017671102,-0.46866990959373567,1.0685447879362868,29.922215967961325,-16.20741606350212,37.77962717842164,1,S02
4160,0.14321961840427894,-0.07642251800752503,10.13375504940505,-2.7294036459045397,-1.1652715828851257,0.24324334747095483,29.26523583660069,-16.268922916620355,37.635234968470385,1,S02
4180,0.15294543964852403,-0.06642853233950771,10.149243391922496,-4.487067683744632,-0.7941180206428601,0.5757172859736662,30.162415983315164,-17.14106327870864,38.273953296985646,1,S02
4200,0.16307572791250646,-0.052648914127431216,10.144504200610877,-3.374071601868507,-0.49079063517289145,0.9156140256492086,29.547857581685438,-16.728662298744062,38.12557030233073,1,S02
4220,0.1633136239200827,-0.06620378946280969,10.149459750819707,-4.135085392049773,-0.47517636211301717,1.4099723992822293,29.87049258097026,-16.197232557346148,37.86026536022339,1,S02
4240,0.16929384554480847,-0.05132297037966897,10.154250311306873,-3.489853390857837,-1.3560045525993212,1.2068866598122896,29.293980424141445,-16.33328412151799,38.01803837882245,1,S02
4260,0.1728323731796398,-0.036940774244330905,10.1355024447289,-3.457414293613566,-1.0781292449798905,0.9119607138507173,29.74461591804273,-16.64107796942819,38.067104959525686,1,S02
4280,0.1744583853250612,-0.04959764337057711,10.139660350734923,-3.378738402879648,-0.17399794122638812,1.0153927364931061,29.886719586107745,-16.606778488590997,38.22845562083303,1,S02
4300,0.17709093640960352,-0.03785403291528243,10.139852336881933,-4.3792540621352565,-0.35414188651209155,0.3303926977624054,29.892591190830167,-16.570405365151082,38.13786575007714,1,S02
4320,0.17611241724645166,-0.04010760914253461,10.139634142842839,-4.324391079430531,-0.7320498552895548,0.9830019582106817,28.703494845006706,-16.6479386673029,37.606912412318685,1,S02
4340,0.1731505218530885,-0.057949484685217684,10.149410650740005,-3.9609544048776195,-1.1175589552513667,0.4592464264037326,29.971510413383697,-16.556173943660905,38.29996823895012,1,S02
4360,0.18809666276766598,-0.03535231269239393,10.145988310740556,-3.5971438476207136,-0.7321048846027385,0.4994022952212719,29.00394647469859,-16.71539917287449,37.819568576898924,1,S02
4380,0.18383835860190353,-0.0587563583773323,10.138959862488344,-3.8798005848898662,-0.314609079749522,1.224665852232802,29.371717990642523,-16.833429091248746,38.3759291133152,1,S02
4400,0.18311760814421763,-0.04771857772553999,10.143222092962061,-3.971972592963618,-0.2264136413578417,-0.033410634230168434,29.896334787523955,-15.74993732483381,38.29794656687791,1,S02
4420,0.19676663710785622,-0.019063507105915728,10.14562913213363,-4.606141568393498,-0.8193293248560523,1.4778239762649674,29.62431757145199,-16.449153617531444,38.083601810562214,1,S02
4440,0.17080079676979296,-0.03875863783917624,10.144861666491732,-3.0180132381046345,-0.4800009940228587,0.9507547418229574,30.08903757310997,-16.94051492372725,38.54449079785316,1,S02
4460,0.1808719778373423,-0.02174290861085356,10.134590061334183,-4.036737099908168,-0.6420337088388353,0.7089490561588615,29.65923532194974,-15.647412794884215,37.69355447381578,1,S02
4480,0.18197214829762223,-0.03357364659008142,10.137962341966833,-4.209901394770575,-1.3982651090359843,0.8886084256472194,29.793287000559786,-16.774747025053628,38.35793484378395,1,S02
4500,0.16819139756575896,-0.02107803967516919,10.147579594309596,-3.7884350592436493,-0.11818897752695734,0.38654245449579877,29.46334366164964,-17.55446886011759,37.87668106069669,1,S02
4520,0.1718395972506,-0.03671721759305792,10.156338326348505,-4.780446626615978,-1.7737595693062342,0.7785700800356011,29.598775280344555,-16.9917073479345,37.693416040372234,1,S02
4540,0.16850347474690142,-0.016430647025319225,10.131217472818108,-3.882095324976757,-1.6179882985562934,-0.15656086202451858,30.14259560635215,-15.61469485283453,38.49781053273211,1,S02
4560,0.1719535343836226,-0.04485083931601166,10.129406182150435,-3.236469987379787,-1.0243851399913673,0.5449029186929263,29.359227863294816,-16.709042419045822,38.17342928597656,1,S02
4580,0.16436507636270326,-0.016567046369328695,10.146510320590394,-4.352695383072484,-1.0321448612235886,1.1798425005536162,29.598185712244312,-16.949060243512765,37.92367584928402,1,S02
4600,0.16421151597744077,-0.04252377672714815,10.137920121155162,-4.5069757345730395,-1.0424185275143085,1.4966444314958127,29.625937823250368,-15.574933563991198,38.71166712703816,1,S02
4620,0.19442825082827575,0.00282723237408411,10.137477143942611,-3.718728068224654,-1.7142562790815217,1.097314450247943,30.76254253677624,-16.140266729021317,38.5519826788779,1,S02
4640,0.15838946186424457,-0.011094806985022417,10.145931500398166,-4.069110467555181,-1.7869428108654886,0.0319844908452781,29.608271733307625,-16.398539758395742,37.546626882746416,1,S02
4660,0.16786695601647694,-0.026995495893412137,10.146577962908179,-3.4917756858820947,-0.6888973450175766,0.8364342689702394,29.757544994135216,-16.77723006688398,37.876122412879596,1,S02
4680,0.13796395110882054,-0.02461848960434103,10.141423370496872,-2.9872701780148283,-1.8271789369005658,1.4121506227211635,29.10785916119544,-16.794214489793763,38.32770541735519,1,S02
4700,0.1343965705772596,-0.03241176071593978,10.15718935124213,-5.024676705201796,-1.3487892512145225,-0.5266472260527663,28.925913413550628,-16.063656521724397,38.73314968929224,1,S02
4720,0.14174651125033297,-0.042836541221860945,10.133721080879273,-4.0275038559196705,-1.5108721737524538,-0.5966701952381391,29.183319540653645,-17.034771901360692,38.52156542003086,1,S02
4740,0.13231376458151098,-0.03713961756877441,10.1468857117905,-4.042388157408063,-1.2128632347609374,1.36899798943231,29.247903610582018,-16.621879025323036,38.48460388966922,1,S02
4760,0.11822531344512921,-0.02606559164411476,10.156395988344121,-4.660015539669138,-1.5474617089339013,0.811272671427929,29.418183470807463,-16.62899093304572,38.12160338763585,1,S02
4780,0.1311754318721295,-0.06636750090000586,10.147883763377806,-3.6161140886812344,-1.0812862596825539,0.6724910710161098,29.797505843817227,-16.485568289815042,38.16058782937442,1,S02
4800,0.10777267134307499,-0.040652017484914066,10.147986302476934,-3.6628274466555353,-1.742609746637192,0.3663259298585244,29.721878894189924,-16.178715391081187,38.10057711642198,1,S02
4820,0.12406537335560708,-0.05292638914688737,10.142269261277479,-4.552072915295694,-0.5168362410046226,1.2770187806007618,30.085425293443333,-16.62163590192798,37.47236230881987,1,S02
4840,0.12284473736687483,-0.056471001037842236,10.137969911553185,-3.986013030677024,-0.41044711327571726,0.029781340602839546,28.876034482825634,-16.419587042698495,37.44144009475481,1,S02
4860,0.09425720457146207,-0.07122544449669892,10.154898616913657,-4.099712585608696,-1.023553750917279,1.5163185594161492,29.320476455287313,-16.135395684106392,37.81003328774857,1,S02
4880,0.09998065205849231,-0.07321075462238039,10.14026063531362,-3.799466069890539,-1.439699320388836,-0.10489210677567251,28.88433666106515,-17.445942536820056,37.74624251322819,1,S02
4900,0.09311450764885415,-0.09707451651374051,10.141995023886798,-4.38022897066705,-0.49575143854382686,0.3390296551623888,29.254348699414237,-16.295108096600206,38.06694412192487,1,S02
4920,0.08871872298681857,-0.0779673895906494,10.150579795278981,-4.52090565672312,-1.1986720000420332,0.02819742992915686,29.709609054162037,-16.473712272381853,37.473703047745744,1,S02
4940,0.08724549128033732,-0.07169587567197536,10.145611809078089,-3.53717820419418,-1.1878359349745409,-0.09252461399176704,30.633142076321143,-16.82678003740731,37.6163339363833,1,S02
4960,0.10579420586730127,-0.08410604218070637,10.146152559880933,-4.090608181265585,-0.7607257164999535,0.361206958900926,29.55947466126383,-16.707151471097703,38.17085724331761,1,S02
4980,0.07042709851245317,-0.08556832367109855,10.149300110785232,-4.122566328425798,-1.5162414344211046,0.4189854619923755,29.243562323982232,-16.415450683260225,38.085034600714565,1,S02
5000,0.07684348243050383,-0.06791443575570678,10.166645127108982,-4.255623863339266,-2.113936711725282,1.454113936824323,29.709129716821128,-16.299163007710998,37.581268747980396,1,S02
5020,0.04019158479927997,-0.12734254313152202,10.152799059557474,-3.2947705467102337,-2.679004520381037,0.4600602987652247,29.065222129280432,-16.25655213379039,38.26977480248852,1,S02
5040,0.06617591090966778,-0.11282789476286802,10.146514369514598,-4.097592036930165,-1.313943398460569,0.38968085893360915,29.725057809970526,-16.567111372984318,37.6472572419904,1,S02
5060,0.07486173023886455,-0.10651366751347363,10.143040401491666,-4.361535864775828,-1.4537996471016075,0.8411654063513581,29.367060631522627,-16.492213221886065,38.197180370968184,1,S02
5080,0.0689638830374254,-0.10705998226361153,10.166968636340183,-4.6157226791080985,-1.801916203240772,0.6406185325840954,29.80957207241098,-17.44371221250354,38.36314048025924,1,S02
5100,0.06932471010018995,-0.121475478826325,10.126215411383178,-4.953642156951155,-1.41376999327405,0.6332326819032764,29.788027266033318,-16.005259898904473,37.87120401033812,1,S02
5120,0.04421257948985524,-0.11420459038003714,10.134033300769005,-4.920551621995969,-1.645621507486584,-0.24779936869106733,29.045062106178765,-16.57045522341103,38.4015982480852,1,S02
5140,0.05251988908676046,-0.09672158295341043,10.153963242071484,-3.517540003464749,-1.789084608049742,0.0401073589945069,29.454388624759627,-15.671019707963897,38.88565782539968,1,S02
5160,0.04724044010249418,-0.10803785173005041,10.14356134614892,-4.524349091757811,-0.7227002911544932,-0.12042829306212544,29.583273293177427,-15.736936453365631,37.980352204532515,1,S02
5180,0.017944304450059498,-0.1163909549319887,10.153284530498434,-4.951145261098254,-1.5766153835380063,0.18141632859253187,29.6143757474272,-16.704942208320382,38.20077110123002,1,S02
5200,0.042080836541841436,-0.11247698943195653,10.16387696258303,-5.147018011396143,-0.9776384844193959,0.7040245129850076,29.921620864584888,-16.75159068978473,37.665552992591905,1,S02
5220,0.03802889539183792,-0.11874284628584753,10.16118947708708,-4.199119196490935,-1.5464372085282636,0.3566106320141944,29.47837410714057,-16.71572250481153,38.668459693048014,1,S02
5240,0.029186840343974105,-0.11947122207014829,10.138384421440557,-5.162418202245144,-2.1769979521277003,0.3185935697190825,29.88141136715458,-16.95570467254928,38.56636869862703,1,S02
5260,0.010073499246601905,-0.13393478302902373,10.146496249091738,-4.270831339112245,-1.6405382909364719,0.48455417751941826,29.34697516717112,-16.845497938002268,38.71458625863735,1,S02
5280,-0.0010818579575147258,-0.11434206905710531,10.153753725625247,-5.376742377281396,-1.3020330439316374,0.14918202409240672,29.358913886175255,-16.659178115087975,38.90087663410419,1,S02
5300,0.027887414482877237,-0.13564814929704685,10.14224323442318,-4.517026316252714,-2.1570337977763545,0.8590508767153717,30.098544329934942,-16.488751956618124,38.09196751325033,1,S02
5320,0.037879874647964835,-0.12133861469441157,10.142484792325424,-5.217325114119798,-1.9236547328424611,0.09147535360006698,30.037008240933734,-17.092417065093024,37.60603022791929,1,S02
5340,0.02565798860067761,-0.11590190160758687,10.141776213420956,-4.700854021900639,-1.2332848320585508,1.0361078964383217,29.056881834638574,-16.10924668896467,38.23349837553374,1,S02
5360,0.02394442734890591,-0.1217084359260347,10.143582715489538,-5.197462780200627,-2.0782601048990688,-0.3548636903733583,29.703800434827706,-16.234727930880922,38.16549626959073,1,S02
5380,0.01327338637832745,-0.11434636898972422,10.153189681675498,-4.608699458811427,-1.7240349225768492,0.9201459206111632,29.386750856781966,-16.263135690721086,38.11760777258346,1,S02
5400,0.025708653489274425,-0.12432427246576332,10.15490586405132,-4.9080626229034845,-1.503512332754995,-0.31024995230266084,29.37910746873508,-16.860187421703785,38.589125907913605,1,S02
5420,0.021544488378239718,-0.11266221832707721,10.141347278933459,-4.608747830712327,-2.1373061911473994,-0.13244961950664835,29.46097030887501,-16.825552309706772,38.61032268583116,1,S02
5440,-0.003229086927065042,-0.10513249505360023,10.139732715595757,-4.317044758941297,-1.2996734987995202,0.15332537223444187,29.565014697359278,-16.124566720498237,38.333359588887994,1,S02
5460,0.02636483738903876,-0.11092461532329498,10.140335764798829,-4.128635210060362,-1.5841682705545888,-0.29116072793625636,29.769521324517985,-16.47855950556469,38.09048427674846,1,S02
5480,0.025620025222716544,-0.09513193761332946,10.158120517228163,-3.275296330541242,-1.6480104698270543,0.06925800114920344,29.271995799705557,-15.769921067053716,37.96145372956753,1,S02
5500,0.025888552265835973,-0.08311449171413815,10.14413911786976,-4.364694371072895,-0.8394528933342706,-0.22509679889720624,29.310335613885265,-15.863650217275344,38.202857160667385,1,S02
5520,0.017957533374560505,-0.08263257171015623,10.149918172626267,-5.317710811335084,-1.8465314668698967,0.6391427929359885,29.54576094588506,-15.824230739012386,38.222389935957295,1,S02
5540,0.027060074422906644,-0.10605005496876271,10.131541244000433,-5.188551009092518,-1.0121157504608769,-0.33912166564668056,29.53784280241882,-17.118700533934934,37.736619073048985,1,S02
5560,0.03494525429359398,-0.07993778303440696,10.144317276841171,-5.2063466937750045,-1.370552190963985,1.0878258911194632,29.639350777096393,-16.840681556385512,37.634897508987095,1,S02
5580,0.03527870426763349,-0.10012403853328135,10.137564115100341,-5.091237713654779,-1.9909116609141093,-0.052621328009889834,29.333895161329178,-16.38787560960467,37.96547551715652,1,S02
5600,0.04234497758319273,-0.0642193994015767,10.143408161416845,-3.4175588781893653,-1.4508351964895876,0.9203327826484338,29.48494952785694,-16.229509432437247,37.88172884940713,1,S02
5620,0.03632472108811215,-0.049558815911221105,10.142807323164375,-4.637764222827953,-1.5716542801157094,-0.6048087251168089,29.72487796562412,-16.944516485524925,38.52082443709105,1,S02
5640,0.04572548303009742,-0.06395492799153309,10.159944667636886,-3.8268136252794926,-0.9252887767454087,0.2717295203165665,28.809337643130018,-16.053257904254956,37.98581413519356,1,S02
5660,0.0582984938853172,-0.04976697708736395,10.17395534697341,-4.295211184111926,-0.7142705208792287,1.8536492686030566,29.248944838142627,-16.57402235940757,38.66908735414731,1,S02
5680,0.06445239430294812,-0.05718555458681633,10.148196870408855,-3.6946194368194183,-1.5845736035342823,0.6973978543613624,29.199410736431073,-15.90451059221535,38.669505917371076,1,S02
5700,0.05630384935315269,-0.06315026103550184,10.170778832800956,-4.425937358098877,-0.9087519619012304,0.3776623619179796,29.671287730426183,-16.55842902755151,38.90773113685681,1,S02
5720,0.06414148108230266,-0.05577864317352177,10.137236018908101,-4.498258977069083,-1.6422441044546594,0.5589592162824464,29.77874351499471,-16.63707131046618,38.65726682333669,1,S02
5740,0.06144719555722086,-0.054196896165624175,10.141127939942862,-4.472007696817859,-1.0056004744134235,-0.1652656058460088,29.555871211542463,-16.118170091520565,37.90460747017111,1,S02
5760,0.08754387711926184,-0.052005206555091624,10.148010295483969,-4.161610821299222,-0.7159774987100407,-0.15503830024329923,29.152723566267543,-16.161435549748873,38.213596212254345,1,S02
5780,0.0618176785315196,-0.03890428641119516,10.16713857934162,-4.750767007886113,-2.274484221680747,-0.6070702376549265,29.650509590198926,-15.834871109531454,38.6814000523724,1,S02
5800,0.07055712515053102,-0.03623295493032184,10.138723050052757,-4.56112944734941,-1.4029507585761665,0.46087569380575527,29.68700120384062,-16.140707147711726,38.595535367112646,1,S02
5820,0.08283672206665725,-0.03905533599670161,10.13585860445876,-4.466590032347982,-1.1598649954734133,-0.04062374422546522,29.167643355294572,-16.460418545687507,38.221798781034195,1,S02
5840,0.09714118974971395,-0.023695052829452876,10.135775432496578,-4.246813423557067,-1.4993634214934184,1.0777364485183147,29.70178506461382,-16.725193715001076,38.40940036885984,1,S02
5860,0.09249536827031718,-0.01812976516030597,10.140714669021103,-2.8070717689708475,-0.913803733187975,0.346228589647655,29.45585373125148,-17.241536438658592,38.11027124297958,1,S02
5880,0.11223284150015406,-0.04690329356554993,10.139983874434364,-4.023762335064568,-1.9880105060737008,0.7540642631630224,29.064649757982657,-15.80134784018049,38.413677387706855,1,S02
5900,0.12245239803193492,-0.02851519979492726,10.154512617750239,-4.9425185905742035,-0.7938294053559367,0.07726003882672161,29.57550314119172,-17.133397040272282,38.13541752254067,1,S02
5920,0.10907842738445381,-0.01857852242071109,10.149541966784211,-3.702713485431011,-0.9382198029414694,0.7927542821018395,29.771325211142152,-16.225738588388083,38.01876978200604,1,S02
5940,0.09284134824499113,-0.010921846064578751,10.1561232953967,-4.3377504700672445,-1.0654603677202343,0.11359524022945955,29.881412480627567,-15.957118900003168,38.125631359664396,1,S02
5960,0.11074767962945802,-0.02134094941545222,10.138323896777278,-4.564130998057653,-1.501091187673413,-0.24162579120814653,29.705323865646058,-16.78066046772563,37.87359886545983,1,S02
5980,0.13416083008365132,-0.0132905966308976,10.144105542402368,-4.336102163369617,-1.76428635799346,0.31124579153010273,29.05963851980975,-16.89375911640932,38.42117517743693,1,S02
6000,0.12400201640157482,-0.027255099868526006,10.150165041399754,-4.411086732008525,-1.1874706283213883,0.24197937521817747,29.033408703771467,-16.514580968978613,38.32295013028016,1,S02
6020,0.1208953185718129,-0.03526658749377924,10.131635596945385,-4.235310787518554,-0.9366146883860893,0.712228396921112,30.018855131994638,-16.02863509236164,38.41911594026813,1,S02
6040,0.14324566882248135,-0.02943787939621463,10.15668699822463,-3.6850347110555584,-0.896998679719396,0.08291609139825384,29.430076403173903,-16.48745222651082,38.09423854104047,1,S02
6060,0.14236079106656654,-0.01794863309742594,10.135749001616027,-4.3161468573341955,-1.0883309727660155,1.2289191460847628,29.04702052830515,-16.5976206809394,38.51371383537471,1,S02
6080,0.14060987528417174,-0.01929134777608417,10.155258959980833,-4.192927122464455,-1.1324041899912392,1.102781458997367,29.718575282218964,-15.832212936580229,38.138016577293804,1,S02
6100,0.14031121761626167,-0.0042780249362262684,10.147293127476738,-4.544839028417886,-1.2548030877419225,1.2925400640724005,28.752317426446535,-17.366979269192193,38.61542177122409,1,S02
6120,0.1446137279218349,-0.03582634274401714,10.144661577580674,-4.280069086315949,-0.8587979250638611,1.2084327333529032,29.66498553435466,-16.43744128460543,38.92269585337812,1,S02
6140,0.1594313185433206,-0.027230724742153788,10.133938180193757,-4.25702339954595,-1.2443283282777957,-0.02989186889951101,29.44278682792313,-17.611806106252278,38.52986631363673,1,S02
6160,0.15400713385333595,-0.017335222909253996,10.14980185656636,-4.026744442593474,-0.2722432507462764,0.9235507593573786,30.00832386341204,-16.051049625432398,37.91384182709792,1,S02
6180,0.18428680845318585,-0.03236277962951558,10.155089171920597,-4.31840116296607,-1.0772232375865565,0.7717509536692266,29.206886345355827,-16.546860739541707,37.823068205572056,1,S02
6200,0.164611676319334,-0.03013334917181422,10.141631364876742,-3.9414288092187877,-1.040507535784948,0.2099141469304009,30.07640372493448,-16.628724704925673,37.942974510161584,1,S02
6220,0.15575334825258363,-0.03425005997126714,10.150646457161779,-3.181200749967061,-0.5227337403103262,1.0898665047211806,29.22110058602077,-17.02437657324848,37.73637280208676,1,S02
6240,0.16968961691010792,-0.052968573604916615,10.141641589876055,-3.8010373791436214,-0.5887408132397517,0.9819239928087338,29.523720420922807,-16.622059814327336,38.1766154424688,1,S02
6260,0.1745502709099936,-0.051381314347929044,10.135407079547416,-4.014730703822574,-0.34510525734168174,-0.017404763817526647,29.914184039930834,-16.87733737588205,37.995110770932634,1,S02
6280,0.19024274570803118,-0.07163114510736175,10.140615178534157,-4.28100405710976,-0.32026592967833944,0.6372575758761472,29.526009037791766,-17.001944001957014,38.11333265217123,1,S02
6300,0.16255379415659416,-0.051883777014077107,10.15698776357651,-3.7032920318984694,-0.9866132369513172,0.9857631171618445,29.65260697243574,-16.09437530634509,38.37261130032115,1,S02
6320,0.1721598628146081,-0.07331435880144709,10.170191969639736,-4.782590508819417,-0.21553216792703567,0.5615740254833593,29.898387369440037,-16.262583840624337,38.039103988343015,1,S02
6340,0.18352332176524536,-0.06761026834045343,10.151477244076608,-3.6920731586056506,-1.2490708623127997,0.9618279306704423,29.40184762556948,-17.278086337143897,37.56902373383619,1,S02
6360,0.16987300642351594,-0.08187076946646002,10.12657261800501,-3.5179154441055154,-1.1219240190644373,0.757360227126135,29.52200048213588,-15.981904551830825,37.409196097746715,1,S02
6380,0.16890372392662806,-0.09010246987515855,10.172092394463812,-3.359676253985021,-0.6083907659299923,1.0972615697855428,29.358979013009076,-16.244226451810444,37.43026063632115,1,S02
6400,0.17802377726550161,-0.08135598151884521,10.152094399497129,-3.5629826101894264,-1.4142426301770328,0.3623706163246711,28.713333606898296,-15.77331706959602,38.421786968307366,1,S02
6420,0.1690845695897517,-0.07350441344805465,10.138595887430313,-3.6672175740420387,-0.7331788882186837,1.351366197700583,29.860994145765048,-16.619359588757646,37.83989505221658,1,S02
6440,0.17560561135066285,-0.09572437078817295,10.13917312080277,-4.7828942051847,-1.0994244796637038,0.9821735322268916,30.257858546797756,-16.596355321158377,38.64391448586431,1,S02
6460,0.17435970696338987,-0.09990132083260034,10.155918817358339,-3.477438775284972,-0.24050933087468718,1.220893519413849,29.462303946054547,-16.51141098997072,38.205672259188354,1,S02
6480,0.16398915286027688,-0.10222663418728635,10.156519125519395,-4.300301933670017,-0.19405257272370768,0.06397021641269285,29.08062712718753,-15.955689085778571,38.46516131837255,1,S02
6500,0.18650988614864394,-0.114720222600741,10.128398921544887,-3.561066646543265,-1.083742543095186,1.1074400563893034,29.678311761662528,-16.570562399011617,38.796992422015066,1,S02
6520,0.1844568940215947,-0.10555985173618092,10.145228641569814,-2.8584226684801304,-0.35203555951462917,0.7756029673187937,29.27115338555109,-16.604010476524767,37.99270142193491,1,S02
6540,0.1661319947383776,-0.11103457658957912,10.148346931855466,-4.636366094899395,-0.29739539175136886,1.1279845469234424,29.741588185961362,-17.029890767604932,38.28992356091671,1,S02
6560,0.16567209057566118,-0.11721518272071099,10.121231064420062,-2.9251358586060494,-0.11504089543379115,0.8379856845899792,29.709425681481207,-15.690784744703413,38.18662509669936,1,S02
6580,0.16148548629768159,-0.12319487066908033,10.150549447671462,-3.5439884980283027,-0.32712169622147225,1.28956946818345,29.67903346574249,-16.905417877422167,38.47111053275154,1,S02
6600,0.15543641444137182,-0.11864513652379427,10.15186419236964,-4.577252131492128,-0.8287002506083572,0.4237393996862307,29.993809722720968,-16.25974579056767,38.37567960354692,1,S02
6620,0.15767724786773268,-0.1273426524132677,10.147006688139117,-3.6203745693607603,-0.2294337187928155,1.1242427078047468,29.700720083754245,-16.88930349543753,38.38603586485152,1,S02
6640,0.14316394362120938,-0.11142631055531778,10.130525281795661,-3.8782545850677788,-1.6037434508719137,1.3952465102340001,29.346922024625172,-16.69315502324457,38.22637019853716,1,S02
6660,0.15815508480842233,-0.13150856894486918,10.13765382221348,-3.3009634097539875,-1.5308770788703354,0.4454060572036004,29.08010537543295,-16.438443370117707,37.8496161580448,1,S02
6680,0.14198675953902354,-0.1166847315669167,10.150766564126602,-3.7926832418000913,-1.6224412865488242,0.8711651652219371,29.1976742001665,-16.66428535895282,37.76778731738251,1,S02
6700,0.14308590098282667,-0.12706686380632495,10.162052762902205,-3.731701203028193,-0.6486792102794166,0.6969284340535589,28.907040068828785,-16.854659403776115,38.58051378162247,1,S02
6720,0.12784816424492332,-0.11492930153867052,10.150605764378161,-2.9259069298887566,-1.5773614334242476,-0.02703524188493589,29.175265709050702,-16.49806802094968,38.08537598594322,1,S02
6740,0.1358064483304741,-0.11767225577762952,10.143808221519272,-3.9910228303376396,-0.6266583107480249,-0.44904356404155854,30.13646034508084,-15.972755996963448,38.66718157595684,1,S02
6760,0.1212973325974491,-0.10508824315629098,10.144136674824157,-4.222006854031884,-0.7176113196191549,0.574143808903786,29.637230462955813,-16.675175574784735,38.05229073827489,1,S02
6780,0.1334597038806706,-0.11163718686996132,10.127057568558804,-4.016860420956023,-0.8611874116674751,0.5923653181132553,29.035763451621715,-16.769330302108653,37.971855212578,1,S02
6800,0.12850875390727684,-0.09322674828715843,10.15030235528231,-4.966371520719068,-0.5829082975350999,0.7506472562455491,29.45790451594637,-16.589645788001448,37.457108284427655,1,S02
6820,0.12278757003027889,-0.11820502526239504,10.1350611461739,-4.316849919911203,-1.945414953743994,0.29361067726836826,29.683497939495904,-15.915585731130191,38.5764475357519,1,S02
6840,0.09482210925081141,-0.11251781865778626,10.147801636983624,-3.7853005654643637,-1.55321321812728,0.435386802507877,30.51281269699977,-16.850292173920952,37.885091610924995,1,S02
6860,0.12842841810178174,-0.09941842442087043,10.149253541046114,-4.405046350076996,-1.2193782670161002,1.591779775214191,30.306875084386082,-16.944487288691477,37.98166593058283,1,S02
6880,0.11564715952116962,-0.11269926343861467,10.154555756619118,-3.6536418558893757,-1.8161353279443557,0.6092345721251493,29.887537045347205,-15.888716309211826,37.6046838534654,1,S02
6900,0.09310745711672103,-0.09302355328499187,10.140270773404811,-3.5478601128882397,-1.1167843152353338,-0.07814506446630098,29.199075167649124,-16.342402253091983,38.06557644691142,1,S02
6920,0.1029160340382187,-0.08685604694549853,10.14136000628247,-4.591692992250102,-0.5992971463148713,1.2921094978549572,29.23070627771018,-16.40746759303839,38.08324014185599,1,S02
6940,0.09151491591699273,-0.07344741870601179,10.16046609232344,-3.7614550241709446,-0.4591555051835531,0.26638096974921033,30.082948344952698,-16.618073173686064,38.00278950572003,1,S02
6960,0.08010379621729288,-0.09796470626782086,10.154768449957363,-4.275680616412394,-1.94582285785773,0.6209487011873844,29.65504235006876,-16.528659819525096,38.272896176847766,1,S02
6980,0.07377612122536112,-0.09411070696646756,10.141455016347983,-3.942215246261596,-0.5756967491860586,0.21329496528212177,29.467111767241125,-16.530601123102553,38.0425553626053,1,S02
7000,0.08930284314519983,-0.08026461946958614,10.14050316157697,-4.583145039839758,-1.0693792771540924,1.0287384057990936,29.63232702310745,-16.64240586443345,37.79336572982821,1,S02
7020,0.07745606801467869,-0.06389544333868458,10.146595606011088,-3.369340787017139,-2.3463870954711306,1.3826757371453038,30.115706441739395,-15.991313681778978,37.995737288597724,1,S02
7040,0.07500835348882559,-0.08118051485447213,10.14070969669329,-4.679936121243654,-1.294605735868493,1.0800441151072138,29.13462067026404,-16.09855411211222,37.910686031274665,1,S02
7060,0.047258984869128697,-0.06555593508036667,10.15276290541684,-4.6852787558949345,-2.070061572296236,0.4820171907588495,29.372826596174683,-16.18510356065335,38.21517722688371,1,S02
7080,0.04568287793656855,-0.06392857490125345,10.123088419799243,-4.357137098065,-1.5671170835418247,0.2582292883671596,29.709280924054042,-16.02973637029945,37.743997652847355,1,S02
7100,0.06224523256053221,-0.06939339403506017,10.140640967488725,-3.657076961330188,-1.1906501435527908,0.07330938563727885,29.470187954160505,-16.385275569314928,38.411627657728566,1,S02
7120,0.04286504202021616,-0.0688978688781269,10.154065091216756,-4.445246984108244,-1.147134446564633,-0.3138226509802947,29.22485545380219,-16.80087176200378,38.28069111666188,1,S02
7140,0.03953430541332978,-0.04487052026280984,10.147492457117961,-4.39315981142635,-1.669407428321102,0.25017602260744415,29.726304551780935,-16.895080040782986,38.72423394686031,1,S02
7160,0.04380767635404922,-0.05413512097825035,10.155999168634363,-4.305367410406087,-0.9695046167925201,-0.07609671128548345,29.723374629086415,-17.37131699276118,37.78657062345281,1,S02
7180,0.03330418540723093,-0.04645131426529637,10.151351597538216,-4.274255804704584,-1.0822003163516942,-0.021920786029517525,29.679894555324015,-16.773536807053937,38.26118254584364,1,S02
7200,0.0418988192412537,-0.038581207801674684,10.159458363856839,-4.836160438095802,-0.4191627820484223,-0.6432174054950347,29.201283602350788,-16.177248928433357,38.76094911943622,1,S02
7220,0.03530527535576723,-0.028420407808543408,10.142525015189808,-4.374116141128657,-1.4571387289262199,0.4021240093014921,29.21756711034989,-16.499929222572128,37.54831423985409,1,S02
7240,0.03189218270731001,-0.022019289593904208,10.137319730746768,-4.352719186710173,-1.0805778633257068,0.5814939568094236,29.195895338766483,-16.149130136274522,37.57917664433825,1,S02
7260,0.02813125693470657,-0.040466729834566596,10.148948088461873,-4.3800970612552765,-1.232957168601944,0.38690363616331336,29.563047377420947,-17.015018013834066,37.91424854320666,1,S02
7280,0.02625957114181833,-0.021569440955137575,10.150852146757202,-4.891365636700446,-1.4715182519763652,-0.08681294980600296,29.308734434581044,-17.572823165520454,38.23128263491149,1,S02
7300,0.022399931350531505,-0.01286880199602966,10.129839958633713,-4.543376867314615,-1.4463338185089405,0.30507841572627187,29.7872014987853,-16.39712451377456,38.10249709040755,1,S02
7320,0.019472459601861822,-0.03176591461290571,10.143496075526091,-4.394285869944416,-1.500228808575165,0.23706690013020454,29.566986183466536,-17.77236074540253,38.357993989574304,1,S02
7340,0.020358256951929277,-0.031392488596177104,10.132996129939645,-4.34999032005683,-0.5710138546279848,0.01615759440874176,29.18799911345896,-15.71739997155573,38.698735304464414,1,S02
7360,0.012166510448730836,-0.03164142227712198,10.138262109532691,-4.362568249301364,-1.5610944447878445,0.8984542503249773,29.628679666895334,-17.010551221954106,38.07841787502663,1,S02
7380,0.025804016990498946,-0.02098889468224735,10.147289625464916,-4.249156460140641,-1.8560061985548488,0.6300167719376526,29.911460261753035,-16.937331457354617,37.86982508711888,1,S02
7400,0.007763705190411058,-0.00946134282255967,10.166000422981588,-4.462711786481751,-1.8540247558642127,0.23877339960372668,29.952152584470532,-16.534517441278396,38.19017187949115,1,S02
7420,0.009283843538138506,-0.03763543714045386,10.135175815486056,-4.628666813776082,-1.7606177514411763,0.003794236368599102,30.05503186337475,-16.810203517551585,38.036518759891436,1,S02
7440,0.005345420381592747,-0.018768347319719006,10.14905243841095,-4.229273995894359,-1.4733949683442136,0.019463966102198138,29.043405806119875,-16.732434270746054,37.71049614784096,1,S02
7460,0.018841171671940438,-0.012542271667978458,10.155379215430516,-4.113916058424552,-1.14909098702547,-0.38623958192063745,29.328552434630872,-16.953314796420532,38.21012734429386,1,S02
7480,0.03415906079459036,-0.02361551457510136,10.12863208149992,-4.071606082251222,-1.8312732216631182,0.09975758859933259,29.353178564869477,-17.226487364277446,38.972835989320224,1,S02
7500,0.0240675482864295,-0.013405977929142276,10.145656106630414,-4.969982078011135,-1.535990193588794,0.24987709446806206,29.452662947081603,-16.934726700499446,37.68637224889645,1,S02
7520,0.023417609161101804,-0.04732730672026157,10.140311484468555,-5.021769308346072,-1.2074758436247286,0.7652868356050204,29.629361454763316,-16.195987961234053,38.13961474279313,1,S02
7540,0.03082129111528238,-0.03634081623730943,10.142990968745686,-4.179937303820965,-1.4378409882285246,0.3638068843261269,29.338280362555828,-16.21976156786068,38.708916965069335,1,S02
7560,0.046540807963369325,-0.03046229418082738,10.150183062767063,-4.206375179989376,-1.5081031879772386,-0.047484480924750994,30.04755836214551,-16.984900785449007,37.898005208488655,1,S02
7580,0.051031584207007215,-0.018792145923777114,10.137555093633027,-4.905933935456067,-1.811681600648328,-0.06451102494258942,28.971654901696827,-16.749764951001115,37.80657493757605,1,S02
7600,0.030300771321951817,-0.03448148138740258,10.14422702728535,-4.74738669053167,-0.9743835200711097,1.2344210462242773,29.413136478986832,-16.348845711093777,38.52620913953207,1,S02
7620,0.05205059659320675,-0.041908643933675785,10.147850360094628,-4.144264952895056,-1.4291044986777575,0.0007925942782868178,29.17647780449873,-16.874058498126743,37.9557867369035,1,S02
7640,0.0409279269759659,-0.05253417013627393,10.151802699093459,-4.178488998947169,-1.0880719312789433,0.3950675557662996,28.94224850466855,-16.133436932908353,37.564048353364164,1,S02
7660,0.028490543684252204,-0.037497110190364905,10.149387095054859,-4.423125002063834,-1.308095010685561,1.2218985107138405,29.216577631126434,-16.21981714528096,37.862724725201694,1,S02
7680,0.06896589213029239,-0.06420028010462504,10.142464254596701,-3.8650883815398602,-1.4291037966490125,0.5487127155870142,29.95761281622933,-16.34766533418913,38.303316286778035,1,S02
7700,0.061437616440880416,-0.04810942702946379,10.155528271766762,-3.844086218646069,-0.41730463291624453,0.3362341180151471,28.962315513542535,-16.811151074939573,38.49854006722153,1,S02
7720,0.06083198155530827,-0.0513414517693883,10.12310685538824,-4.147953801319119,-1.3615665754374138,1.5140851669554953,29.36173043900916,-16.9540257425983,37.98382936859749,1,S02
7740,0.05682259686349365,-0.05885307959702447,10.147093585274268,-4.1564994943574884,-0.6129573351507479,0.22276883975860345,28.824806153263605,-16.174528798797787,38.61551535758994,1,S02
7760,0.06818677776344173,-0.0736361404331898,10.142020506103025,-4.260115504009766,-1.2057356726202033,0.5781235299084263,29.505018513477452,-17.27876732295159,37.441497459213586,1,S02
7780,0.07912251389648094,-0.0726829720647806,10.132731191478223,-4.593213618338631,-1.0008958268494461,1.2712919947690544,29.233846067778074,-16.25758325963075,38.29394027833942,1,S02
7800,0.08014042077111438,-0.05955551152889424,10.15216384859336,-2.807108526396898,-1.360726819573203,0.9154118712629873,29.56870631958994,-16.131961807337532,38.4594471179201,1,S02
7820,0.07825227584140682,-0.101140008526302,10.158188844133678,-4.742308738178782,-0.49779858274536914,0.8052308028587513,29.962606622873036,-16.583157154185244,38.17779565223928,1,S02
7840,0.09464673229825347,-0.0883017526996302,10.140701714548053,-4.401695863301547,-1.864256859186808,-0.07364279600693091,29.40952237483323,-16.723671224843038,38.24909389262506,1,S02
7860,0.09362638946846125,-0.08250724930851039,10.12973618549147,-4.249729014389005,-1.3334912666890042,1.0219885118493175,29.441346617328204,-17.074593830921366,38.620107780257314,1,S02
7880,0.08613694922763841,-0.10116652016290997,10.149044480828017,-3.016877672350666,-0.7611961501890672,0.29189995863966667,29.213377067687706,-16.768230069796857,38.05803951948791,1,S02
7900,0.10678748094640446,-0.11492300674440736,10.153845082871342,-4.625746800503925,-1.0343213377376734,1.2458756024376365,30.443598361406874,-16.493402095837105,38.001342618457414,1,S02
7920,0.09446318532506923,-0.11680085596848445,10.152407304107818,-5.033040759706004,-0.3097754002857033,0.8039070650407536,28.989236634651732,-17.011007350462844,38.06321248909395,1,S02
7940,0.12809658937297097,-0.11089912336813365,10.13499467520728,-3.835535959435185,-0.5027296721022774,0.45338516779601556,29.60519565721961,-16.911963651132936,38.23956261254791,1,S02
7960,0.10510406558424615,-0.09507413229128113,10.155288528549349,-3.5915387887873584,-0.8536078907071178,1.4679248780612721,29.222703032513042,-16.83917255080202,38.459371565503986,1,S02
7980,0.12885874462215965,-0.11708826842749004,10.15519805818189,-4.268659523441363,-1.700558350823217,0.9206798082054574,30.063349053677566,-15.767906741568911,38.12852671154652,1,S02
8000,0.1388330446552849,-0.10020216485231653,10.142064233334281,-4.747748606611343,-0.1756049599664462,1.7442019317989743,28.780546884683258,-15.578893181856625,38.66051214826642,1,S02
8020,0.12054830990197216,-0.10196037121535213,10.148918284423399,-4.115327210274892,-1.4780054546669827,0.5984623034324466,29.4140604812614,-16.35009221485942,38.61786325777375,1,S02
8040,0.1253997943502784,-0.12137764528344273,10.130178256335558,-4.475229979427595,-1.5126866856556092,0.6138660133287522,29.72903383166738,-17.021067371362584,37.72778933650486,1,S02
8060,0.14073402142205096,-0.11501016983330115,10.14125325149748,-4.106016406099162,-0.591343802832408,1.25712289210821,29.440468039218363,-15.919482851977802,38.08439268080515,1,S02
8080,0.12735150694509842,-0.12490718635923603,10.155414691238137,-2.9820398577672638,-0.4193961849788146,0.5407543364626956,29.428673911192664,-16.46995709896086,38.0361108375631,1,S02
8100,0.14236446650826512,-0.12650575505222578,10.148034007211084,-3.7340163512980786,-1.3569678187666685,1.1506847146012043,28.824957645215456,-16.622087772992913,38.482587288864885,1,S02
8120,0.13754721385078167,-0.1095579556947317,10.158160646489959,-4.878695880688561,-0.27390413812411496,0.7566821570592486,30.38130366953324,-16.383269447699757,38.17868604131257,1,S02
8140,0.16061612744932036,-0.12152108888575897,10.140377775998617,-3.568789324929055,-1.8832947071523036,0.6046191420874,28.91976049840317,-16.063197818156837,37.91959270207006,1,S02
8160,0.1505119709984163,-0.11506274068378397,10.130926483158971,-3.798715511707433,-1.3304693533062424,1.0701196941473297,29.38260335498818,-15.742610659479729,38.55170476131243,1,S02
8180,0.16788576770928162,-0.13103525970155205,10.158135880447995,-3.5743248705098,-0.7774785627198482,0.18027782784459123,30.029764688546035,-16.264601516793768,38.099945878759854,1,S02
8200,0.16396692335811722,-0.11385167248037585,10.15141849021407,-4.475503270961445,-1.73881731452807,1.5172840303372985,30.09323056283992,-16.302536370445484,38.308268944639174,1,S02
8220,0.16974262416923264,-0.11374344618208171,10.144898711562751,-3.6658802905710504,-1.018309633495272,-0.29945970526414056,30.34948488861532,-17.086877396704153,37.771028326935806,1,S02
8240,0.17256619074227011,-0.08932243817802053,10.131706228577523,-4.444586907872863,-1.4756010229974243,0.7993263086390968,30.132979792860745,-16.8291772671085,38.08264692698313,1,S02
8260,0.16931638761428427,-0.10535885327778091,10.151589254319472,-4.29603306201213,-1.0206130101430508,0.8203963183066749,30.11401362821007,-16.47910042281175,37.82130977672878,1,S02
8280,0.18952996123657548,-0.1398180277264559,10.128405772366028,-4.098992706631513,-0.852594678756594,1.14887676961091,29.440531248652626,-16.295895224202624,37.796627301231645,1,S02
8300,0.1775898057311261,-0.09488270920643724,10.143839625359783,-4.396772732545887,-0.9099243184939423,0.33263272176704006,29.506150285382002,-15.899539721386496,38.503043626741636,1,S02
8320,0.17401509601191073,-0.10104313420891918,10.15961386643586,-4.986626510063469,-1.069342723469635,1.00877966461419,29.434307482150142,-16.721578087802694,38.12110965754778,1,S02
8340,0.18348327500642153,-0.0970456735221929,10.1458356200362,-3.8679436965794096,-0.9119105780901542,0.9150868399543213,29.812409026937743,-16.83363401534647,38.178081699647485,1,S02
8360,0.17541874503524105,-0.07949406188731514,10.162255814005517,-3.2369781932069253,-0.7833632483038051,0.7473007687863765,30.34190851529172,-16.81274014063007,38.04999915296845,1,S02
8380,0.18795701267712678,-0.09967672409902441,10.159494381830696,-4.274359672914063,-0.4383892750897238,1.4569400918192943,29.915708501635628,-17.22207650767473,37.761028557025334,1,S02
8400,0.18499691061691428,-0.08571179308532204,10.145446848691792,-3.4934050941025703,-1.2135899392016003,1.1599402400795276,29.694607663093052,-17.34422831595999,38.2867776715757,1,S02
8420,0.17754454000952213,-0.07137958182269474,10.14584785743943,-3.8060690579914533,-0.3887109815115001,1.4227520060083045,30.629915759741667,-16.040733069054845,38.340465569514144,1,S02
8440,0.16851987029416277,-0.07082136842731306,10.149501488732582,-4.409160718075315,-0.4762693284114936,0.36699905715112974,29.642552637636772,-16.287513034195364,38.073881338312454,1,S02
8460,0.18200388298212397,-0.07178037561101798,10.145590453811447,-3.4744232771882544,-2.273267983621432,0.493771413709498,29.26351955582538,-16.778082237448203,38.15107294416141,1,S02
8480,0.18359335770821023,-0.058879771474263654,10.167663215289899,-4.235540576448731,-0.006758499756152281,1.2771106901006481,29.475437507512158,-16.721053137503777,38.39982456339085,1,S02
8500,0.18579868939228816,-0.06926539660080633,10.153897657485038,-5.0583001697729575,-0.6150811997784676,0.740397940616455,29.337329731700027,-16.58126798706114,38.38302080288432,1,S02
8520,0.1808042007808321,-0.0715632196709555,10.162369998443648,-4.239300531017866,-1.340988210517103,0.08520670789584361,29.54462614685542,-16.919786999584634,37.93110424508034,1,S02
8540,0.16537398006801735,-0.058209657614375965,10.15749122776109,-3.5157964560091046,-0.7453283065865199,0.8523165689199568,30.07240354874843,-15.794177829624799,38.37429970552666,1,S02
8560,0.16915638944358802,-0.0467198074484389,10.135154344994113,-4.743508806084009,-0.33523200902713945,1.0419340682914506,29.742976550452752,-16.72432503774216,38.499345319123364,1,S02
8580,0.17518707429484964,-0.04206185396350172,10.132055776970804,-3.931457417283336,-1.3995611720140668,1.4850534124622987,29.488788410356275,-16.71947486490228,38.202759499862715,1,S02
8600,0.1551764991122625,-0.04453113131041382,10.14543743210548,-4.161882847579476,-0.9519763309218131,0.6743489536002227,29.493384376165576,-16.88675200153838,38.8654061578144,1,S02
8620,0.15934860664414224,-0.038913604451403114,10.137076899424274,-4.479509640232606,-1.2040117411356404,0.9165339841455483,29.755631879113277,-16.567497258038998,38.598168537862804,1,S02
8640,0.17613094196132478,-0.02966157310282575,10.15511505953618,-4.7331867466459085,-1.751426330730018,1.4873377392804468,29.62134741527605,-16.257751386087097,38.00895986412149,1,S02
8660,0.15170841894598658,-0.015833517061802783,10.158867947228108,-4.702944967425462,-0.8385790631129229,-0.16505387321059306,29.49829675630979,-16.296227722583264,38.104959500111626,1,S02
8680,0.1523251222872838,-0.03505332125226117,10.148614575326313,-3.947347027541903,-1.536303107115737,1.0994674759057874,29.575336045499487,-16.294025749566032,37.87564295137084,1,S02
8700,0.15359331009628258,-0.03846085241827637,10.155166055694036,-4.455718040566834,-1.4144329885230718,0.347305839230176,29.04213798449283,-15.93345254110076,38.08377963104014,1,S02
8720,0.13528253881995617,-0.03351933583398853,10.13735231209631,-4.47722406158177,-0.10760334976375319,0.32349673035733884,29.470821334824986,-16.777254362407547,37.77294209267953,1,S02
8740,0.12849118084568031,-0.01260068817738521,10.12335946282819,-3.6439993700969606,-0.8629013048303674,1.1397417437841209,29.986728570673186,-16.986916688605632,38.10502080589194,1,S02
8760,0.12209879475798371,-0.01745620134119614,10.165214980208233,-4.551306751822149,-0.723176353628696,0.5166334960241232,29.04059619554602,-16.565255327127016,37.70230547266603,1,S02
8780,0.14264295358679005,-0.03771625132392074,10.145101175396439,-4.457861766716933,-1.4124223655069048,0.4864796519287029,29.41913756163394,-16.871406589932015,37.51324851744341,1,S02
8800,0.12359189968171214,-0.017152330501171688,10.15279137050661,-3.6284799072936114,-1.6257228270485375,1.0750884391533169,29.195356635940666,-15.726793186060398,37.47479844333689,1,S02
8820,0.1323220438025099,-0.02130915276253033,10.14060444588674,-4.151931370741627,-1.3593930473977314,1.0222350365113455,29.91604127842561,-16.55493269410514,38.4780497062601,1,S02
8840,0.10310251582462077,-0.017741378254348808,10.150730978088793,-4.711053158071936,-0.27995147694542666,1.1790598179578422,29.97213934398383,-16.971117441975686,38.41383399947906,1,S02
8860,0.11141935949385653,-0.0002603465393479498,10.141888151363183,-5.163969637029405,-0.7708273011828803,0.7895728985782267,29.621448571924606,-16.180633335538523,38.04889248820361,1,S02
8880,0.10372111700175624,-0.025133921664468657,10.140255027891055,-4.547695580510207,-0.8782923921545136,1.4304145792903582,29.602907386296575,-16.6908830298239,37.76607566650093,1,S02
8900,0.09891721966682437,-0.012702105138869421,10.13679097519828,-3.1864904843425736,-1.4146003150069857,0.22984256208647225,29.04925936226992,-17.361887514459532,38.544708810367986,1,S02
8920,0.08301053530135385,-0.03229515982480398,10.151018087328566,-4.44241994207034,-1.255213430726848,1.0052704842522213,30.287880133665062,-16.553817404161922,37.973340873417655,1,S02
8940,0.07938584394020064,-0.01610241228568972,10.140947286403817,-3.4867005884322135,-1.639454937035442,1.478428968396165,30.104525572532697,-16.119928172995074,38.26268191117084,1,S02
8960,0.0939506098272314,-0.028693905750262885,10.125974202182533,-4.110168490406218,-1.5279316251310204,0.9452292882307992,30.02237865237417,-16.32145373862589,37.897789613067815,1,S02
8980,0.07834234174593373,-0.017568964231041734,10.14055649480388,-4.2498678301821595,-1.8836145427504298,0.4662610058453286,29.555190189527394,-16.487727057109325,37.91934434954147,1,S02
9000,0.0654164433731314,-0.04605176458684149,10.151062499324675,-5.189296269554008,-0.6016409160783136,0.24289909358946582,29.542336676359714,-16.231974636897576,38.33339873886937,1,S02
9020,0.07276251177525736,-0.025787086196023636,10.143743488451037,-4.830834549423454,-1.7388550224383263,1.0075000480342198,29.298829393511472,-16.18567984954865,38.15071552934233,1,S02
9040,0.08007604687795591,-0.03414584948346754,10.15544014784398,-4.6606932699738,-0.5899105003917255,1.2099153015225896,29.459102575574878,-16.21942143789365,37.34930478098176,1,S02
9060,0.05976115729719012,-0.03250255150686911,10.150336377973119,-4.248415771067979,-1.81208900552838,0.18297573540034018,29.472216492426167,-16.068511723355776,38.031664426409506,1,S02
9080,0.04428482544567412,-0.038173318977709335,10.141987905853574,-5.692751932128261,-1.9897307815801621,0.28177605413205775,29.558035938417586,-16.773906674341767,38.033585431555736,1,S02
9100,0.05033581510366331,-0.033354177255583886,10.147775210754974,-4.761289698216775,-2.8267393867891935,0.5437496458563572,30.083241101315515,-16.773472727934706,38.5785253546503,1,S02
9120,0.05569102880595388,-0.06481743656804423,10.13556826526598,-4.484155318934121,-0.49898061384010917,0.3141395461168158,30.404402599653217,-16.37149489808519,38.55295532828008,1,S02
9140,0.03662797812458744,-0.052881332970976025,10.150306184398948,-4.433692267615411,-0.9788511683375042,0.12205155858468475,29.83845110655381,-17.94758801079356,37.34634952080757,1,S02
9160,0.05269043429601606,-0.05811481203474205,10.159525778104472,-5.537836055260195,-0.7638592273456728,0.1604927405125527,29.542008469210895,-16.87884192250877,37.756274595115016,1,S02
9180,0.04188934747691094,-0.08120075644959299,10.146839797941023,-4.756222734962136,-2.3146382889795705,-0.22813704186984884,30.190405081003185,-16.726321433871224,38.03860363422848,1,S02
9200,0.01596038676732274,-0.06315441164430888,10.135714902183734,-4.531276847015107,-1.6654586455308924,-1.1384764004256125,29.302621482354965,-16.81209125832729,38.288686719618845,1,S02
9220,0.044772220635355145,-0.06356002084373952,10.159836822510698,-5.062164633029529,-1.4541217542954092,0.08162874550392363,29.35378948066531,-16.305772594278338,37.69851515084352,1,S02
9240,0.029719790272879035,-0.07312209640789855,10.169931396806847,-4.003734295534512,-1.3641231894443633,1.2705157345513034,29.597900421562862,-16.79822363204848,38.36371428273842,1,S02
9260,0.025426614593324015,-0.08632713482347598,10.149206519657334,-4.155636870344413,-1.3431338185659956,0.7113070937969406,29.721770432956284,-16.60832827384023,38.07605613686512,1,S02
9280,0.021516590887716028,-0.09803149972113537,10.159608011448919,-4.855582817390877,-1.6044250027980829,0.5616289567348243,30.114347905543912,-16.639365463723166,38.48149908900172,1,S02
9300,0.02614923063126849,-0.09352072511546083,10.13933707596435,-3.817501195926015,-0.9081477469436107,-0.38586763499172805,29.55282784317199,-16.78891747146107,38.40165994158096,1,S02
9320,0.0327855863579319,-0.08358223738731521,10.142437709929906,-4.248190558097231,-0.23892412622240444,0.2301363645024277,29.253386465295094,-16.38644241557703,37.61347920401486,1,S02
9340,0.016637163658003676,-0.10846065897559823,10.147665800948465,-4.600669679268686,-0.4741821546099174,0.6354613720835134,29.714894077774577,-16.77907312980031,38.391953883252754,1,S02
9360,0.030600823217379253,-0.09748329199004117,10.145726161266564,-5.2309225790991905,-0.11373447240263901,0.2369510836620129,29.575577303799257,-16.597163119550004,38.682595533016034,1,S02
9380,0.01747237976123224,-0.10906919974089697,10.138227520062014,-4.799816907445287,-0.8741635794915243,-0.769983552845077,28.87041083458865,-16.23591842223469,38.19010819214198,1,S02
9400,0.03475735094656324,-0.1172786847969271,10.156142052070175,-4.682435747901398,-1.4085201997705579,0.8791369073984157,29.575544494378597,-16.512673861900304,38.317865336423196,1,S02
9420,0.02600696850779645,-0.11453176811579316,10.14510054753851,-4.400366980231059,-1.5655899778104396,1.2079602770264022,29.44582073821414,-16.477728560225586,37.780451915788355,1,S02
9440,0.012883831878025637,-0.10319635434374744,10.166103720751035,-5.023206661057198,-1.526537209574172,0.3976530586365426,29.73482903426618,-16.63279591348497,38.12121186045917,1,S02
9460,0.014872482494689379,-0.11823537940199515,10.12685111994057,-5.101088590397452,-2.17429745823085,0.5942883550720592,29.500991184517925,-16.78792192969209,37.57155117280232,1,S02
9480,0.03029090146162698,-0.12301650375042758,10.157592179024377,-4.707604990812269,-1.5911405790945654,-0.14544348017954134,29.82630709752,-15.97224613918001,38.08297902776026,1,S02
9500,0.03708938419333531,-0.10356505878776656,10.148558945168537,-5.650808236604807,-2.460767475652969,0.021812676785137763,28.797558145806246,-16.595966202478053,37.97521808859926,1,S02
9520,0.03694969081297002,-0.10824630955945055,10.137301849904382,-2.8075133186518864,-1.3958567582897434,0.533007114903138,29.616905827315914,-16.292077656190393,38.40300478398219,1,S02
9540,0.015409290733226139,-0.1128613216690626,10.141767433655497,-4.404309530905678,-1.3871810652761267,-0.750346045038005,29.563099722515837,-16.35387634088736,38.357100938066935,1,S02
9560,0.025001873631000385,-0.10810971357021101,10.126508088276498,-5.047877670068162,-1.4210676388637178,0.9247924612841466,29.126947586627377,-16.00644330431748,37.47914051780756,1,S02
9580,0.030696027116859384,-0.12502446251499155,10.14630659503208,-4.298918603426129,-0.8023819923370535,-0.3888426366931793,29.38101392668935,-16.98457377454244,38.33603857817096,1,S02
9600,0.04076108515791116,-0.12954830403622392,10.143982155286608,-4.530963811781016,-1.0952471945776923,0.4394049865885721,29.381598709667863,-16.338387728889025,38.31679562408322,1,S02
9620,0.06025534240795345,-0.10286780265018372,10.161827461049983,-4.68344285999804,-1.572954290548779,0.9799900112897673,29.219727408201138,-16.634687254430638,37.49991010063959,1,S02
9640,0.0376445896844095,-0.1208157009718712,10.143874977588347,-4.440513205066707,-0.5464798999491145,0.28508658074347293,29.712781433125034,-16.927569512366254,38.443157044829185,1,S02
9660,0.03870041665538978,-0.1027374278023839,10.15473977323671,-4.905453694233776,-1.2901059060598317,0.6072674320066027,29.652086469936386,-16.770062493182586,38.449796040908964,1,S02
9680,0.057840864201434306,-0.09806668579546457,10.147289801658998,-4.824579333141892,-0.30485074036942283,0.804763283476637,29.859854728877952,-16.449204925907328,37.75457075744761,1,S02
9700,0.047643320486766706,-0.10915515186477494,10.140691969569597,-4.816312228811439,-1.8086085308593762,-0.5811357296998695,30.347880348650417,-17.174921828865745,37.73741516774126,1,S02
9720,0.040841264744389635,-0.11272557431819694,10.133482149811863,-3.7129394526312223,-0.9335321439577247,0.0593501491405658,30.104668081711583,-16.07619317382088,37.358715521152305,1,S02
9740,0.049311557606655024,-0.10846518218942688,10.160281347918389,-4.055153407008728,-2.2077316252985946,0.9319842509883627,29.37434177724735,-17.40397925414925,38.14673197328976,1,S02
9760,0.07801416623261748,-0.09383148003204198,10.157104425154225,-4.302777900880282,-0.9175821527017973,1.1129900803170343,29.05285469466854,-16.200758402032722,37.79450334197995,1,S02
9780,0.0615400329784975,-0.11071821672325267,10.158744640152342,-4.516448748689449,-0.49614877607867447,0.8570128257695371,30.398945902664504,-16.319791768484492,38.22233837385835,1,S02
9800,0.07333929211729537,-0.0952069782441092,10.156574274215934,-4.562343475512555,-1.4760433325702285,0.17621079976150178,29.746818553533718,-17.116233351998027,38.48195809648473,1,S02
9820,0.09801905371600324,-0.09163009486959184,10.162587258868609,-4.332842273700047,-0.7291267600030842,0.0937156768654599,29.579693149018837,-16.256631355427725,38.10565345374978,1,S02
9840,0.07993841833659218,-0.0929468093216915,10.139564653327895,-4.421041107428907,-1.3157141572600561,0.5879422224312592,29.511775666676762,-15.639873438404127,38.633731503098716,1,S02
9860,0.11110780073984278,-0.07712728968669552,10.139412528951683,-4.498508797894514,-0.336973578961247,-0.32558287877835757,29.556418766374648,-15.998284694466845,38.59312559069313,1,S02
9880,0.09679622420399554,-0.07077537852504862,10.163707881592662,-4.035190563471038,-1.3047940411495247,0.8041705310287114,29.286867077419284,-16.30264337643532,37.89206178447,1,S02
9900,0.08994649129877741,-0.0817718573197737,10.141203745533646,-4.204665588916492,-1.2167205666855372,0.6760793903522818,29.23386409889799,-16.572984501329795,37.308673648266705,1,S02
9920,0.11392010398134972,-0.06787127694906057,10.136887271836683,-5.081148941824825,-0.6943740205862486,0.4660951640550409,29.894861553275753,-16.55317591761293,38.66287566025381,1,S02
9940,0.11778732789262523,-0.05618553087708758,10.147001479020377,-3.8527092534422773,-0.759561481342194,0.7923272551586078,29.700489591634664,-15.942994852111251,37.99272477182203,1,S02
9960,0.10886562423930192,-0.046590196555079635,10.151082875200743,-4.178405642258576,-2.352305705587237,0.8983068303131442,30.076217104653054,-16.42302490283428,38.73303123728904,1,S02
9980,0.11789015029962478,-0.07335278023433606,10.146116048545037,-3.9652880964357315,-2.5225184631888147,0.2289169594126167,30.348899716357103,-17.214992782393757,38.45319313362989,1,S02
10000,0.14750857413986912,-0.04873775077105086,10.142484521591344,-3.741255905373278,-1.0019760007364331,1.0647597830579967,29.291504405776912,-16.755951699184088,37.940861469213374,1,S02
10020,0.12951526855142106,-0.03515387269255854,10.152245391073112,-3.737113915161554,-1.6325146366926129,0.399759145690476,29.973846536955914,-17.22058124834166,38.644757005985284,1,S02
10040,0.13653979547652753,-0.037468954931523295,10.134346020933187,-4.538683562250762,-1.4405468163267758,0.5264346162523059,28.91085696602438,-16.2591978789824,38.64322352310622,1,S02
10060,0.14204867463577958,-0.026234081542874335,10.146346668248459,-4.453284146828402,-1.8146748376715305,0.6032062486654509,30.10981106020813,-16.539287014836543,38.499048502166076,1,S02
10080,0.14071888307221808,-0.04131229803065903,10.143568328851375,-3.7592302135896123,-0.804389703055095,1.1904834818199228,30.145043162316806,-17.192520306998325,38.176240653650595,1,S02
10100,0.1591832076024407,-0.01886913046118667,10.159254086196977,-4.244217441214449,-0.9076861776553404,-0.15288622802491247,29.6629961405673,-16.119530847913477,37.38002382450225,1,S02
10120,0.15646726188153037,-0.02367425513073123,10.148360813415131,-4.201628922662486,-0.8303197183876921,0.48255645937102887,29.482899507312954,-16.200695047436945,37.54730805016728,1,S02
10140,0.13406635054684424,-0.03674717686146494,10.151176021812796,-3.694766510874126,-0.9335446276989738,0.9657339497223711,29.638750447248274,-16.433687474605296,38.25953726350705,1,S02
10160,0.1696793235715066,-0.025094943114188993,10.131274855311379,-4.028851593203338,-0.6349984476833004,0.7954216812549512,29.08874048353785,-16.816944375301908,38.68642182376344,1,S02
10180,0.16178665280194032,-0.023797616786682074,10.158498793998243,-4.402961488742762,-0.5744897782316581,0.9982943132003105,29.899288311333894,-17.842081969972057,38.122848495498985,1,S02
10200,0.1642345353962712,-0.007762674604571952,10.145215093974484,-3.8026235158527784,-1.2287457022157744,0.5474533366210963,30.51657397720147,-16.48084219912834,37.75111916400209,1,S02
10220,0.1662808057084622,-0.018527415434324707,10.139587290457053,-2.9504011258313803,-1.2456303105668918,0.5218433660601791,30.118701531722227,-16.175763625618664,37.30234730318271,1,S02
10240,0.17087337719159518,-0.018957338151541457,10.15380739425767,-3.324068566081987,-1.7106457199920098,1.0011015973623327,30.11208267175504,-16.0620241658204,37.032196493391524,1,S02
10260,0.18609223642542788,-0.008977035737095886,10.162235284378633,-4.369229443022171,-2.7015313910548704,0.9218943112964955,29.753682919090434,-17.06193803182141,37.92522947348289,1,S02
10280,0.17391342135777196,-0.020742082963191535,10.144022465438411,-3.402231287608794,-1.3361323971048522,0.8306014441245139,29.79601605430701,-17.104473800969114,38.315429405111615,1,S02
10300,0.16980393717971326,-0.037550994980882164,10.125165222640883,-4.736031563347053,-0.7939824968591624,0.4307711200709296,29.52057292562955,-16.64707001785598,38.339767854463574,1,S02
10320,0.17110042475891873,-0.01602649803526572,10.15361614403479,-3.7408162273479735,-0.5519168179326577,0.48487901072460743,29.79529561092186,-16.423248874756688,37.55672481999576,1,S02
10340,0.19427109107301135,-0.033506838155243246,10.153879211114575,-4.146495097515809,-1.745655475653366,0.7867287411319468,29.682087029012184,-15.700468689833308,38.46542030866858,1,S02
10360,0.1783799302393653,-0.015960717448953853,10.14311740329324,-4.746983695746687,-1.6303568716330907,1.136504240229482,29.789086426389737,-16.527535923370902,37.84086219698135,1,S02
10380,0.17949853290869167,-0.024122077935153287,10.13909284647648,-4.7750015676865605,-0.3891651184900753,1.3736198006377527,29.639285166721784,-17.137345305783086,37.83471642146282,1,S02
10400,0.18329947406476363,-0.01682298818248376,10.141915551765578,-3.6306479167488694,-0.7302109838293003,0.4429990708101866,29.66610155568598,-16.657702139398666,38.351914016774785,1,S02
10420,0.17313985361219036,-0.03964113384251262,10.175985361035666,-4.746063747118104,-1.1315928087352651,0.6011920179392506,29.321479010796214,-16.511304432387917,37.917898684749446,1,S02
10440,0.1894151843374126,-0.03383064204874477,10.124229374678977,-3.277621939842595,-1.7127076422421326,0.3218061321831874,30.27194306816315,-17.07742479557589,38.61632435871092,1,S02
10460,0.1826409896061763,-0.020374711805199446,10.142321545882988,-4.0678454067191465,-0.6148436383532259,1.230515733561223,29.078757792963042,-16.691694343216568,38.0215156169565,1,S02
10480,0.17952934634871137,-0.03233616594231375,10.150092382117638,-2.9780429400098702,-1.0865867487042402,0.39440009367961587,29.532628592707173,-16.290855431396473,38.2927977952587,1,S02
10500,0.19190841640736256,-0.027918121756933575,10.158006036415758,-3.638701198296584,-1.3134784699825277,0.6123274489405008,29.32981792733467,-16.56109664093401,38.246556171464945,1,S02
10520,0.18126218715727327,-0.03937107607331171,10.13775911627159,-4.0586003988736215,-1.2092150229388274,0.5482076868663446,29.582578357903714,-16.227692050296596,38.61971733213871,1,S02
10540,0.18835239809355608,-0.04688325808846532,10.143218749909291,-4.420514915562332,-1.4095436855389845,1.3679612624649988,29.343425758312048,-17.26598717492226,38.356591980026366,1,S02
10560,0.17455877163210695,-0.04609836065419685,10.127827828841284,-4.648654604123156,-1.2771222238206574,0.8851333533980218,29.982319661825347,-16.045884665618274,38.54565766045773,1,S02
10580,0.16250301287109892,-0.059919431897842546,10.157909628595386,-3.3888901231085056,-0.8619309258136965,1.1530743966112238,30.23672190038543,-17.028029214377405,38.26261418815868,1,S02
10600,0.1567625153382346,-0.060283965841318565,10.1391487674796,-4.772472635948908,-1.6978922170413457,0.7014037394856157,30.15578675705726,-16.548649887902094,38.25600655192198,1,S02
10620,0.1714127653326316,-0.07963891622593551,10.14390452184318,-3.7448297145614955,-1.54647845706864,0.3564304286150347,29.478469476335974,-15.535362913265134,38.63454229063418,1,S02
10640,0.16169420731920714,-0.06292003766288859,10.142171372548999,-4.138298014338281,-1.6702321250110783,0.42369051471285035,29.977201712401367,-16.38629651038577,38.25528245778359,1,S02
10660,0.14351752941811816,-0.10462482816809907,10.159112685776538,-3.9346472843749223,-1.3067979747499552,0.51057449390885,29.872878947609355,-17.403797547433108,38.2012473138981,1,S02
10680,0.1553884720166109,-0.0680632281512403,10.13898567249114,-3.538102441739647,-1.2694538093915062,1.6584788089195834,29.478730995277946,-16.70453618591093,37.914082432813004,1,S02
10700,0.14796291721766455,-0.09670291819141467,10.171990128301369,-4.112785594424716,-0.6143433003311652,0.7082224656998705,29.609252588710486,-17.11896871380531,37.82894821480597,1,S02
10720,0.13334612317065211,-0.08771829912253855,10.150393141991938,-3.5779576704363483,-1.7579461115429795,0.3874406304475797,29.762706943889583,-16.7720241451998,38.31042090161308,1,S02
10740,0.13646138723232037,-0.09683943394473382,10.148550940350773,-4.579799142239316,-0.3581390780291802,0.37275173622547325,29.37155371146175,-16.886686130038026,38.051409363730755,1,S02
10760,0.12333078819402273,-0.09572992488884219,10.145894240921091,-3.9267264574597984,-0.6122182146314089,0.7880210148947879,30.498389082404895,-16.184335565302483,38.94520735413132,1,S02
10780,0.1355892642286025,-0.10667313491298215,10.137343542844727,-4.170534315193066,-0.45743831566284554,0.203836222326451,30.059713722156147,-17.00796890997038,37.94463145462622,1,S02
10800,0.10957233545406354,-0.10592739164645862,10.146750126059079,-4.923830642733015,-0.6672460835277385,0.6588778034620919,30.028724690037677,-17.18879342870502,37.32295244952424,1,S02
10820,0.1373959113678624,-0.10282223651328776,10.159671776963851,-3.1733157382793475,-0.7726779019541139,0.6236894862775237,29.290354658861936,-16.582815967073003,37.83983759135158,1,S02
10840,0.11656356903663218,-0.1073034973153851,10.160511830372666,-4.4561884260199545,-1.1766300178260771,0.17700018386410382,29.70179004683218,-16.981614631544154,38.04344458019552,1,S02
10860,0.09294632125286881,-0.10753252136577868,10.1537790901434,-4.272294177209667,-0.8828035536786094,1.1009388275301382,30.284287083043857,-16.318970639912212,38.6606224338911,1,S02
10880,0.11513938198097542,-0.11741112909961673,10.15079617024567,-3.712434021759054,-1.5831562148611642,1.6783135883326574,29.93573527258054,-16.910720704732068,37.980442841624836,1,S02
10900,0.09751003441529534,-0.1144713431840631,10.148081794194082,-4.03459711722244,-1.463122014185325,0.34127057670884137,29.078408472452523,-17.14592715511021,38.102683238085255,1,S02
10920,0.10441098999150028,-0.10606881713312064,10.146124521313563,-4.33542677145938,-1.5110908314838551,-0.3626603569983302,29.583667589913574,-16.007853417805975,38.495832344012776,1,S02
10940,0.08374477537528704,-0.09415036599190144,10.12948815791912,-4.070400727410995,-1.0927300092820018,1.0062333892486164,29.22182055111966,-16.750780385291307,38.35682029228936,1,S02
10960,0.08644751763099665,-0.11108176467078136,10.150888531578333,-4.682581499502607,-1.0106198581255752,0.3427438543910545,29.673861681392477,-16.853750851450997,37.85020227587535,1,S02
10980,0.10112227136730538,-0.13960469033896555,10.141259674129408,-4.605032518534816,-1.357534092573187,0.47338279653758286,29.88906506259351,-16.398843880002676,38.36276606479173,1,S02
11000,0.07062944529840358,-0.12111546078004878,10.15153060439895,-3.7925010280832048,-1.3776725395954474,0.5683080609539286,29.81222143903288,-17.16570646539888,38.523966452660254,1,S02
11020,0.07513678929344159,-0.13076081894133018,10.154010740704036,-4.608233287967391,-0.8282875688436371,0.8987442617752109,29.50699046655855,-16.850064767194176,38.265367270654565,1,S02
11040,0.0687674720733163,-0.13064900706626303,10.14093630510454,-4.2251098518988375,-1.8113576979245052,1.0449778232805116,29.356031740184786,-16.41960510200824,38.22213794500817,1,S02
11060,0.0684636851932588,-0.10628428007469928,10.149306056266902,-4.0507447992455905,-2.173939777056132,0.5295645170267588,29.735355756395048,-16.962826203431064,37.98926693328985,1,S02
11080,0.03203794698339542,-0.11869111003942638,10.14052471827903,-3.470376095749148,-1.3955213239338677,0.3870166631191829,29.212866039391663,-17.310795073081827,37.94539622837068,1,S02
11100,0.039203594674965245,-0.11990539029789098,10.143354338938746,-5.3039429492444485,-1.8676733123001446,0.4426328073184818,29.335882685892795,-16.462073123451397,38.11664982324102,1,S02
11120,0.0525123016886133,-0.10971877596489533,10.16187757819746,-4.153209906376283,-1.3060553450585244,-0.6980024686387151,29.407606009059236,-16.486551112218716,38.47986887734043,1,S02
11140,0.04096216154018171,-0.10492200419750211,10.146819943873062,-3.5083960399511986,-1.3457158129939113,0.1712151396673845,29.597990286231163,-16.935376534475523,38.23782458902652,1,S02
11160,0.04423011383943531,-0.10205209068659542,10.158381513781467,-4.5249362794492685,-1.161559069621767,0.5793621713618147,29.330287505599095,-16.766862515698953,37.86750997834635,1,S02
11180,0.04181550503879434,-0.10627039577653608,10.134856653506661,-4.748580744168739,-1.8410761635629527,0.3492849186239838,29.85273794310278,-17.117011751244142,37.77735474267573,1,S02
11200,0.022999256516167466,-0.10051231290472651,10.133954270846708,-3.8257249056694267,-1.9954736751936761,0.3892344058715427,29.641084557525872,-16.6408948790775,38.17278897632497,1,S02
11220,0.02764836987144767,-0.09018147382523145,10.136642994950186,-3.8640241211745847,-1.8237751463002412,0.8357370066321532,29.515613263935798,-16.651353486901066,37.84943929705822,1,S02
11240,0.03413996862751485,-0.10014043175249666,10.150919940193425,-3.898823945933059,-1.4455278937641634,0.7316956778687045,29.627412617536386,-16.302444544129976,38.66787038704547,1,S02
11260,0.023616371487535107,-0.06634540038738534,10.122441039533015,-5.233593006353494,-0.5349344336919821,-0.032824077690796205,29.596170342512874,-16.536105959019856,38.19958806779245,1,S02
11280,0.019045301167853593,-0.08363935610584436,10.152296027245606,-4.142930474292435,-1.2710779442404878,0.7964951708819161,29.478419838344934,-16.469723535631076,38.34458020330286,1,S02
11300,0.024464563968118344,-0.07213800987716695,10.145732513860622,-4.996494445912261,-1.8774555535068418,0.6346587037970839,29.271830478007185,-17.066032933079,38.17343151714045,1,S02
11320,0.019201906124252002,-0.07601855994120069,10.151492266724693,-3.743115970408048,-2.0905673223319434,0.36719455030612314,29.437858711291014,-16.69100383736816,38.06662286224738,1,S02
11340,0.015896071472302778,-0.07712019141207406,10.146313205059172,-5.090768827844945,-2.1180262002953283,1.0272648452034663,29.07686085938325,-16.94991568324207,37.39619530502648,1,S02
11360,0.02008294706064781,-0.07088360330081847,10.137699239382114,-4.729747755692493,-1.1703033391679625,0.33192046626400556,29.976727183966265,-15.891427879396119,37.89397917036949,1,S02
11380,0.013277743696013034,-0.06417799185443784,10.15600795791421,-4.008965048257809,-1.4749649144997519,0.8370573755660251,28.467321900909976,-16.50818288429604,38.511975417861336,1,S02
11400,0.017986112945712923,-0.06930376882569934,10.152468243254972,-4.38285440585877,-1.683137405665269,0.21664332577201728,29.27358123073009,-16.791801907320984,38.22844816309307,1,S02
11420,0.028517379655742595,-0.05201728583818166,10.152306920332483,-4.062662552487237,-1.3541914680921003,0.09928642020699507,29.529894660748198,-16.46414331633263,38.42761772518765,1,S02
11440,0.026384953067290426,-0.035401155092381065,10.144858169815645,-4.59964933404615,-2.691560075384835,0.5828806509004217,29.98814548154829,-16.719661336404066,37.67266290123816,1,S02
11460,0.028156516213876145,-0.04614725223656387,10.134868556553917,-4.5248302782148695,-1.5033701690190866,0.6506938845672674,29.01724033489792,-16.624150232835266,38.09616865814286,1,S02
11480,0.01639183891774236,-0.02545055767398758,10.139023100366895,-5.3774831980124045,-1.2229894447799041,0.4670241799417115,29.137016119418988,-16.046772912938273,37.77067603232164,1,S02
11500,0.038161614919198235,-0.03910162963947218,10.138976546922287,-4.38713132305573,-1.9381294922658827,1.3375320664906734,30.14960673284205,-16.464215306344855,37.67929932106318,1,S02
11520,0.021421429801277952,-0.032083138994847764,10.145741082084141,-4.392359184364807,-1.37151133575602,0.42462688973091534,29.54333197367827,-16.226112140467038,37.92092664574264,1,S02
11540,0.010900075875710624,-0.029504132038002395,10.140983759417622,-5.032499436498952,-0.4061106766156716,-0.42799242752173716,29.067683354505952,-16.568930154995094,37.79726806740618,1,S02
11560,0.045041819906217084,-0.02359461722856076,10.161888299608524,-3.988375566907371,-1.2737243740512512,-0.276470752388724,29.592132487463928,-16.061720927048597,38.409484643935706,1,S02
11580,0.023191737325522682,-0.025579113239036194,10.161452186198064,-4.8997222991842895,-1.4343168485139073,0.15458162121661956,29.9119685294655,-16.37571077316314,38.36945107400341,1,S02
11600,0.03593741570381101,-0.01957123631147182,10.152028405289165,-3.7475109409562606,-0.9595706105967283,0.12233140899029382,29.46719921130943,-15.645306536145457,38.218291665891556,1,S02
11620,0.023475141261685012,-0.018296042239572617,10.158349687108927,-4.001624293537549,-2.4048751530103027,-0.05523256783461006,29.770331320454932,-16.897615459493732,37.982244425687945,1,S02
11640,0.0457109084410027,-0.024263312650930166,10.136463349136651,-4.695667698134518,-1.6250619691030834,0.3322820054470594,30.110989266072426,-16.436920731854784,37.692168436201264,1,S02
11660,0.05137420574678322,-0.027855359648046273,10.152139088865146,-5.051510304649106,-1.3701473151098018,0.5858958642498732,29.139791425624463,-16.299145368764762,38.720863901188814,1,S02
11680,0.06406565619618883,-0.04750983123438618,10.13033350739117,-4.1231272690631915,-2.103034945604728,1.1176203520754604,29.61481271295721,-17.299817998863656,38.26427392524833,1,S02
11700,0.04674369782199906,-0.015282439871399559,10.142797292440196,-4.050381399221595,-0.7242277448519037,1.1001042832352654,30.0484949521539,-16.76703531269403,37.774545592044156,1,S02
11720,0.07606849740878449,-0.0218195348653141,10.15152902208206,-4.578746346711426,-1.1404196850829484,0.7581507524989641,29.94533245086401,-17.475789966598203,38.6095418703639,1,S02
11740,0.07332635463667267,-0.01082545463348053,10.136302680366914,-5.000618883818007,-1.301768874957902,0.4885024013100895,29.348657928103854,-16.600643306137705,37.94786567667164,1,S02
11760,0.062045030400309106,-0.02211617570122716,10.153905174765695,-3.96155269829322,-1.0498745185943017,0.9685416301507355,29.95237057703195,-16.26172178478007,38.1311322261734,1,S02
11780,0.06947282778886496,-0.014965523955862543,10.147728591979034,-4.878381125261765,-1.7465091457281554,0.22592357984938488,29.65973544588843,-16.359432289197663,37.553562382839786,1,S02
11800,0.0902022811073658,-0.0298006098756917,10.145027082695488,-3.2859043406367743,-0.7660129173786306,0.089456896322343,29.63785348275209,-16.455065229666403,37.75162093565984,1,S02
11820,0.0859964881961047,-0.036986281029823265,10.147955425007476,-4.413301090642053,-1.3368945903647875,0.15406682594268256,29.74366782461477,-15.978024464036498,37.74234088096378,1,S02
11840,0.09493635508703863,-0.04592875649870188,10.155144707477845,-3.44975049722499,-1.2918995242855942,0.5962559184771399,30.017244295064657,-17.23501636872102,38.467941452528585,1,S02
11860,0.08281094761229682,-0.029045524037604402,10.132818526004149,-3.352056464458076,-1.1714339807894611,0.5975315953685171,29.28207463783512,-16.515094685970382,37.9265993673002,1,S02
11880,0.08915238759555862,-0.053503448479135934,10.160570296578925,-3.5306833894538974,-0.6569187529387712,0.8851177995773054,29.504880672317455,-16.1476031641279,38.478368012206325,1,S02
11900,0.11638950836902223,-0.057315556864271436,10.138077003505941,-4.239138400020913,-1.8044265216741397,0.19196927332834796,29.942616697026818,-16.056711536510917,38.14017627170108,1,S02
11920,0.1130386745545583,-0.04298434010280305,10.156313072484433,-4.194819409179496,-1.002992265176423,0.5636042671912743,29.91261745303264,-16.694751791734987,38.46616361841789,1,S02
11940,0.10068291075104559,-0.045834114010362526,10.148367298172934,-4.967333788140558,-0.9471092103587573,1.0006719701386275,29.621983108563068,-17.20324574322406,37.49733711868466,1,S02
11960,0.1269643242693279,-0.04098734652170977,10.152519009116409,-3.8471851240228734,-1.293729464821463,0.5252900579661616,29.662089176554495,-16.39717154056934,37.88178057362495,1,S02
11980,0.11694162604230808,-0.04822870670178267,10.145332323626267,-4.427660375583083,-0.7472423673821668,0.8161580185687467,29.610289115746205,-16.516621727400707,38.34734898911169,1,S02
12000,0.13460349470635413,-0.055418196621938316,10.13286865605988,-4.090864362017622,-1.6585932859310861,1.0664867311197863,30.10887573155935,-16.573698988847035,38.0564341060987,1,S02
12020,0.12880135615436508,-0.09099503730062669,10.145594390479594,-3.793672081133796,-1.088043092635171,-0.6979028175146577,29.714381271440434,-16.630581325714545,38.29749237556267,1,S02
12040,0.1277046212920765,-0.06805414238326353,10.153812425798701,-4.392810466162158,-1.4744597246092068,0.9433255264650672,29.02343947218028,-16.463860355008656,37.74542010810555,1,S02
12060,0.14936308749221983,-0.061030052144082386,10.14899793769242,-3.884786699292436,-1.1157232807927027,1.0150412294535904,29.2524956027702,-15.979643733665933,38.24169881246934,1,S02
12080,0.15806504016751674,-0.07477585042390335,10.148783606747195,-4.364324400047399,-1.3156739336687997,0.4051254880746829,29.829739676507515,-16.53379972782667,38.462317594432555,1,S02
12100,0.158144647803443,-0.07216493815681259,10.15617785364273,-3.4666025664067384,-0.9476798444144544,0.7626912373931578,29.350978137748996,-16.427611710678484,37.587790782115846,1,S02
12120,0.15004719701132413,-0.07933531436221493,10.152023020785464,-4.124492028202646,-0.6820193464524235,0.13814135440331354,29.4468122861923,-16.76524002072209,37.86488658741843,1,S02
12140,0.16369510638504972,-0.07763642312054946,10.163829622205467,-3.4398581811409694,-0.9110284255068304,-0.11471076490120358,30.30947711385146,-16.753750684750955,37.944069530446974,1,S02
12160,0.16806668471056913,-0.10553211949566924,10.138444550918525,-3.841207594260844,-1.0197822355695398,0.9626781504679236,29.48963942473541,-16.693193493959377,37.77746744965584,1,S02
12180,0.1729682287741837,-0.0987380515094778,10.152594340012056,-3.7018607991596153,-0.77302801734974,0.8717779696737178,29.640985336873417,-16.931224643993797,37.82878948256351,1,S02
12200,0.17269389059578705,-0.09704257051815626,10.15083483246947,-3.1669624640671574,-1.1674069832818588,0.8464618693189336,30.12314661907375,-16.586719262510456,38.67154948506848,1,S02
12220,0.18670881006031242,-0.11521317862331121,10.151738715239148,-4.019460550855749,-0.7050867948046554,0.5478849009938481,30.011270335508705,-16.979233968770664,38.27536933730138,1,S02
12240,0.1649130918802892,-0.10074284481438174,10.163771586371992,-2.9470482401101714,-0.8053909949495208,1.9353760276072514,29.385755368680165,-16.469599031901307,38.0113974655819,1,S02
12260,0.18150738826675777,-0.10680355903811498,10.13868813363134,-4.047841092011046,-0.9344688175269786,1.5840301132285588,29.29020951347654,-16.41870668865357,37.46328782206867,1,S02
12280,0.18272353894829746,-0.13623053033157226,10.162677394171912,-3.4713638827929616,-1.3753241430349903,1.4393097423020138,29.811325624237675,-17.41559100311678,38.962652068455554,1,S02
12300,0.16033480785078988,-0.11292422240200078,10.146056732325647,-4.369091673451248,-0.046895079852393495,0.07718366237993246,30.01572477307379,-16.269790846614985,38.60537709603276,1,S02
12320,0.17675617045852055,-0.12296455082240595,10.146785905293818,-3.551153839274627,0.19938548241437748,0.2579126721217573,29.690215323788237,-17.548048990564368,38.080577590559976,1,S02
12340,0.19381309196899782,-0.11399991212182423,10.153048378898772,-4.4362543625469995,-1.0850556884442029,0.9663552972923442,29.490725663914407,-15.870149203922058,38.38281637330179,1,S02
12360,0.1979012957329954,-0.11810504945478284,10.144241539359612,-3.077092870823887,-0.903917362622922,0.6930144138355144,29.176949793080773,-16.348028390668247,37.69471012289533,1,S02
12380,0.17692869348939805,-0.11160074525179045,10.15275844434926,-4.184690119762053,-0.9817573116909724,-0.4224558666670689,29.723541517159507,-16.174609530666746,37.910277524537634,1,S02
12400,0.1736441270610568,-0.11219897845035871,10.128120432674073,-4.113093708482168,-1.0640547738439412,1.5867630055590554,29.72349102043561,-16.556880582188796,38.38293999300812,1,S02
12420,0.18465396895474287,-0.11572756320368499,10.146775093082345,-3.657530389484784,-1.6364381408150923,1.3195608304985704,29.98066372055956,-16.36923094819851,38.67590327656089,1,S02
12440,0.18003985546213935,-0.095759463866454,10.141255891136602,-5.048091078771636,-1.1149942420389807,0.477612345847383,29.716294095610216,-16.602077026106485,37.993711504324374,1,S02
12460,0.1697078868382697,-0.09981606359060144,10.127095167625999,-3.3820453401096007,-0.3990329247097393,1.5320814055321832,30.205318838434387,-16.623207731422795,38.207759479212605,1,S02
12480,0.18176647077978836,-0.12267585646369919,10.146754329440821,-3.681855965967011,-1.050326083528268,0.9731058264055601,29.862002398017808,-16.83011344368253,38.046973861150136,1,S02
12500,0.17705037946396443,-0.12862361276818762,10.150042851033724,-3.829144788855646,-0.8418234595095572,0.9562096508726527,29.46701512232559,-16.56253905610275,38.40365977143603,1,S02
12520,0.18193316060271714,-0.12035493297290999,10.145979782523186,-5.05650741258188,-0.7868407756476392,1.9353374818476552,29.681653714261234,-16.52135391419097,37.89557021199376,1,S02
12540,0.1559346452922217,-0.10145024598161106,10.13058510114542,-3.5592928452195265,-1.1613230261690715,0.8673293572329294,29.512513732667593,-16.52768594632051,37.519861616179924,1,S02
12560,0.15605178132055514,-0.09587881483882996,10.127906965497068,-4.484538572941972,-0.0060143963213421525,0.8669419073689075,29.365229581908313,-16.382859487334418,38.67943442700151,1,S02
12580,0.1607329760662953,-0.11536589451988286,10.139077876355275,-4.872626808271961,-1.3238104153578516,0.6906327927662868,29.87957235440559,-16.67014581978043,37.773467273513596,1,S02
12600,0.15844813545230596,-0.09406412213534965,10.16241194047882,-3.257108881509079,-1.5091370215562798,0.9820433413245607,29.16523875041426,-15.894093839454897,38.74957648100225,1,S02
12620,0.1608151430366164,-0.09400264097782857,10.161032429014712,-4.281710851847883,-0.5903927047239574,0.8411245333707187,29.534916557676315,-16.79352140512256,38.15229326337789,1,S02
12640,0.14099702082923088,-0.11245551466028006,10.12934240307341,-4.052373238647341,-0.7645959108056961,1.02050194214331,29.29600257017329,-16.43657336982528,38.767955816910735,1,S02
12660,0.1472481990411252,-0.0982391129859373,10.148627793640133,-3.886938423603071,-0.6552018406533873,0.15324609925616617,30.18232949254497,-16.454808667069635,38.14261477711129,1,S02
12680,0.1446916920888618,-0.08538820126914261,10.154790178123287,-4.13109039816305,-1.3144468035931987,0.38548330602435554,29.62218048931923,-16.524081695379543,38.34259468891127,1,S02
12700,0.1346903753054265,-0.07742549862030484,10.153602731838829,-3.6746179832182753,-1.4471035287445757,0.4480894981159773,29.585058380760344,-16.281830695714945,38.71913858442477,1,S02
12720,0.14458113848455792,-0.07564746730259665,10.150000613771226,-3.2075394315860972,-0.9849328599091518,0.8414092128940236,29.969016607743125,-16.80094843711671,38.365335463163184,1,S02
12740,0.15882038253832445,-0.0772787295288609,10.135865058799414,-4.261701450799777,-1.008152759494189,0.6858796017677377,30.044925171809464,-15.6914222591296,38.11946353668274,1,S02
12760,0.138042843730232,-0.06716753045095884,10.148721347996528,-4.564586042576417,-0.6083396191208352,0.6446241079767605,29.606334274096493,-16.469352459392137,37.46244135713517,1,S02
12780,0.12934090882326782,-0.05074806404712871,10.15243189665356,-4.1974920385095045,-0.9728384941579777,1.1856115922360033,29.46136793602345,-17.748473775005795,37.67373711734312,1,S02
12800,0.11756726010724841,-0.06374934078097388,10.161958885591584,-4.827274587549903,-1.8193905093784033,1.0555290355159799,29.88611401320078,-16.19331041722742,38.33167480001334,1,S02
12820,0.09123093097738562,-0.06454668012472313,10.142904667467565,-3.952121706712006,-0.4487506829320258,0.45844163557026907,29.096208534097695,-16.385278919159312,38.266960237708474,1,S02
12840,0.12033360256679748,-0.055278138947446064,10.133529288769958,-3.1027517531228286,-0.36491961045810084,0.6740629763651532,29.65247243564979,-17.592243839568077,37.17406065430289,1,S02
12860,0.10302345026964423,-0.05665637673525459,10.155286746811736,-4.015513625458282,-1.0320239630146926,0.09018493996772492,29.551943533657703,-16.744808611242227,37.82799768086313,1,S02
12880,0.1273600335368943,-0.05966055420377544,10.153254401154829,-3.9510373245235435,-1.0759696451218013,0.3504517250950058,29.85339366004587,-16.540125869742127,38.09137169314754,1,S02
