timestamp,ax,ay,az,gx,gy,gz,mx,my,mz,label,subject_id
0,0.23152508114026016,-0.2381838033596121,10.340424131311956,-4.062479704357527,-7.884020771902005,28.670382736345648,31.96356569352953,-4.304181964245407,38.4700638342659,3,S02
20,1.3103215086507787,1.3987699216529115,11.095878325510201,36.81708293627754,48.021452664116445,21.801105658330425,31.336882704812027,-6.713464346938013,41.46488980818885,3,S02
40,1.2360541375119185,2.3239773442385814,12.015518902976323,65.57479345832562,108.81704677922566,-2.174848555974425,31.985798591349464,-8.242196796504265,41.16945814893681,3,S02
60,1.1904325354830578,2.699623943958499,12.984524912010189,68.15623878858194,114.42875312305297,-8.75132762727975,35.679115865411475,-8.32449812231357,41.75324086786442,3,S02
80,1.2923596927813086,2.5193526711305574,13.298516225287386,53.628596326629264,97.20367787743541,-22.764968001579287,34.00042588136904,-10.701590386611864,40.02395032778643,3,S02
100,0.6510053944387779,1.7240076729594642,13.549219931493717,27.46067754181023,73.32846828601247,-31.48251970696012,34.66678759951079,-11.871251050858671,39.89438374071971,3,S02
120,0.7187351383179966,1.1455832936323187,13.153278193955877,21.73028044115485,54.67241737138548,-34.685483319101444,36.50988571213915,-13.92577361939102,39.39383562233741,3,S02
140,0.1261994728282923,0.3088998932321796,12.644754437351903,-5.007679697362552,16.14960485900357,-39.67423075678744,37.84510615351306,-14.564145545275387,37.42885721101564,3,S02
160,0.08839004385813094,0.1799446796581095,11.838557588749568,1.7050447563061972,-4.361038186126405,-26.94151445510331,37.875310175414725,-19.555260409356173,36.855641712175654,3,S02
180,-0.00537840583686984,-0.3032510124507274,11.178882158612023,-5.302975397245605,-16.22088908279228,-27.15769825874732,34.35590406148867,-18.48300339282492,33.537823113913646,3,S02
200,-0.27778305033709283,-0.9558975822636773,10.391288888199812,-18.85888666221574,-27.327316276776667,-11.512222160545257,36.24270238069113,-22.315744962386724,32.344141387596935,3,S02
220,-0.16998242820751439,-1.3416383359062871,9.954575743899628,-34.42634780411116,-56.707298814607874,-2.687983747091575,37.0941953593379,-23.06060754553629,30.361411713971673,3,S02
240,-0.858634530886536,-2.291137430862041,9.409658716475196,-56.28733280030424,-84.84356567693551,24.12032664414037,36.17347119166081,-28.728563730331288,34.1942958098103,3,S02
260,-0.8237108882400234,-2.5191468477291967,9.511248202730224,-73.61009124353528,-109.24096106553135,26.41272840285637,35.647318903003466,-26.846854648152206,32.49161656617029,3,S02
280,-1.1999719695278221,-3.0954334224132167,8.83571252679262,-79.28510876773755,-110.24379167433142,30.90455121951809,31.39789089246121,-29.008602134377497,32.80532831327268,3,S02
300,-1.0549961139298412,-2.4466142294664155,9.514389520335834,-70.31434749767557,-92.96107109803843,42.571264933444574,31.724042304618436,-28.855409991294934,34.0425430310664,3,S02
320,-0.2051233105793772,-1.2722777309726756,9.834798305961103,-33.59136721707495,-41.031303139642354,35.044479918193126,29.12951674028094,-29.701451112929867,36.862740255296465,3,S02
340,0.42473656861651565,0.5503761512504193,10.407234369583572,8.880521074889195,13.50462684548424,23.317152903316245,32.66848087089899,-32.06320033936173,40.77294475021849,3,S02
360,0.8724373458681072,1.7215396298823005,11.469943956846835,40.81206234325895,66.73162951921317,16.7061544370557,31.330438580673434,-32.66700593779554,40.349789150390244,3,S02
380,1.4245223273855738,2.6051827178834803,12.28656458947391,68.78398205672184,106.42650657295404,6.960833229540179,28.494329807537287,-29.112333665781648,41.654129787765015,3,S02
400,1.3292365197550569,2.7277079458789952,12.998156345511884,71.80245281450033,117.30330587978935,-9.97541116572368,28.558376102215817,-32.649795454322096,41.8564845224224,3,S02
420,1.1111237433697112,2.428793303867371,13.390585334637473,50.94985626694749,97.23270087361333,-29.730291799063707,24.214683584641215,-32.11780419230678,40.09691608684251,3,S02
440,0.9057021921390347,1.6955945971462845,13.291384529954675,32.04139927122638,68.55579396216869,-32.361582446459884,26.128629848058065,-29.77107074194476,42.31435477829735,3,S02
460,0.29183686166445166,1.0168423400879112,12.677159095347449,8.191404105684835,43.96005697436157,-36.96161756783438,22.860668198978207,-27.61313427146413,40.55366830117757,3,S02
480,0.3511486787975867,0.6274554213558434,12.262705411808245,13.154960685340477,16.655124582385618,-40.44593295549989,24.14430958390663,-24.88495444967207,38.88786290814438,3,S02
500,-0.03923574352015963,0.0003743563726983229,11.882869499967553,-1.2674652385099425,-1.747082745415354,-25.41077183353296,20.92893253645095,-25.751423799591763,36.13430004658959,3,S02
520,0.018201035557252263,-0.41883365985552373,11.060119791783292,-8.197737638471457,-15.688374199692587,-11.482940262797312,25.910417250800677,-23.689741580742645,34.46293952519026,3,S02
540,-0.07516714726550652,-0.8503289631658688,10.35414341627068,-24.139200173123736,-33.07557144417876,-1.5311591023720283,21.166681622289687,-23.350841312586656,29.71355073173168,3,S02
560,-0.292064100048945,-1.6285454408248408,9.800930778523027,-45.13536128536426,-68.80083418628968,11.3202541550334,20.489595132231422,-16.325129716771833,31.33916222343262,3,S02
580,-0.6913568954115832,-2.3866474079159747,9.532132418916442,-48.511509665961775,-92.93394625797845,20.35718496675112,23.518355596649027,-18.212111449180533,33.10905301587111,3,S02
600,-1.1258429673078438,-2.91441061123332,8.80000556859405,-83.89226883565861,-117.65224363999369,30.0209883286876,20.179546340017733,-18.550302508555177,35.04757517960543,3,S02
620,-0.934294812388334,-2.8882277477147538,9.169108927383485,-74.60319141049635,-104.5669908944426,34.812321611382366,21.860764119826637,-14.526259727054342,36.5730390838021,3,S02
640,-1.0929292137261077,-2.225383445673781,9.637591970012046,-57.62402409181785,-76.65029457055692,39.59283636332111,23.13935002029031,-13.177745862519732,39.84424970033485,3,S02
660,-0.16553071235834196,-0.8156255299384996,9.85001538244662,-15.140532684963247,-30.797905807970626,35.806539472476985,23.754384699605843,-5.78947323670339,40.456269119807835,3,S02
680,0.5312141245218379,0.6286813592069083,10.760304386119229,17.786678390831145,31.899261525449486,28.592575437210574,25.361448080324063,-6.205800232055607,40.83421553844767,3,S02
700,1.2835372026730814,1.9134686206736853,11.594820059854474,49.588855342258704,74.3957341511964,13.351306357856458,24.40203933300527,-5.7728874813774045,43.267157763725045,3,S02
720,1.4255316841789127,2.7252442937849755,12.611139270862253,70.30096384090218,106.83466421857013,2.3253869623102754,25.80230797147552,-2.8510953754926778,41.566792048264674,3,S02
740,1.5693164815093943,2.6144082441347667,12.968130481993974,67.0317602202681,108.29256377872382,-12.583197848443087,25.70441982696981,-4.451275280628085,41.432683702503915,3,S02
760,0.9538719170841025,2.2533281472645976,13.240435772884608,50.09145197443439,90.69024785213882,-22.296820164489244,27.6933523661031,-5.411491376189781,41.303339695986416,3,S02
780,0.7273821145241094,1.477022645843327,13.353731974029152,31.616143284619792,59.64295639461701,-41.628844795727176,28.471228294816413,-5.318634428976811,41.2786766148028,3,S02
800,0.4532421470836544,0.7633791994910188,12.727828643953432,11.159830867165596,33.229562477607224,-33.587455716330005,30.531024105464475,-1.9041394703747114,37.41479327808229,3,S02
820,0.1127937194414088,0.14842155665250226,12.144698747950223,-2.517177316273271,12.953658054571966,-36.03988646806618,35.296771801547095,-7.002721941813616,36.79527107228196,3,S02
840,0.18898177826633067,-0.019084830911588517,11.444130953962395,-3.9300147715441076,3.0009235813078847,-23.83227579458745,32.29851274935707,-5.9251971575579265,35.61892259161412,3,S02
860,0.07320312865681566,-0.3660302179987754,10.721148450369103,-9.98978464892139,-22.59161130493069,-14.465916663954081,33.36151380294355,-8.094468716087977,35.087859119911045,3,S02
880,-0.000526632009836478,-1.0608674977620673,10.338416885700978,-19.41138792371609,-51.99110068699849,-2.595995951689207,33.27147425502828,-10.146142074216,35.54732872970649,3,S02
900,-0.5176338164313364,-1.6253448537623962,9.386765436446156,-38.81110055261321,-65.7933232061728,10.5766154270476,35.35574161237701,-8.742256467901964,31.68335067755843,3,S02
920,-0.8212070338374883,-2.464260388581326,9.17319826193656,-62.97802385366315,-98.870917509865,21.557728844960383,37.02318291813431,-11.335800525048981,33.404086854133354,3,S02
940,-1.4625481405670422,-2.970130751808636,8.873731355324795,-76.02210309783216,-121.22405506273984,38.9719457150282,36.48855863671353,-15.098720567456894,34.262994207051165,3,S02
960,-1.0859850834846065,-2.7804628307043067,9.251148088045177,-75.07044557069297,-109.49365272282911,40.02262029718221,35.354141080821336,-15.995803392145433,35.19291208095521,3,S02
980,-0.7828890722961999,-1.6905140979532203,9.515043943655208,-50.82988051986805,-63.72734001505479,45.61546529055083,37.390108921103504,-14.294980444416304,35.446245930695405,3,S02
1000,-0.13752526802023957,-0.44829951477681135,9.887948004210283,-9.465206381662863,-16.335507024303322,38.341722227327494,34.908527618910654,-20.089179379565955,42.56388151020519,3,S02
1020,0.7269846443124446,1.0090955863778894,10.668297996292557,21.3946046438366,39.968694213140935,21.636156953092613,36.684853725599595,-16.89990336039598,37.68284633491785,3,S02
1040,1.370489094589579,2.1491539445652417,11.793257726001517,53.322445961079936,87.48655884745929,6.438496433293826,35.7777320864015,-22.691963135506516,43.21473647436179,3,S02
1060,1.5797319579123528,2.5029624419050958,12.541238610759704,73.41016692457099,112.95252574343283,-10.023986518708812,39.28076319416479,-25.916223231902578,40.35212025841215,3,S02
1080,1.2409429889685992,2.9428004792814795,13.221190731655375,68.09512495488126,107.79917985947688,-20.283021060315576,36.339310696858284,-23.265656294875907,42.35320438866322,3,S02
1100,0.7668964115656016,2.0698875609198955,12.994374302575586,52.25789331345144,82.14165144357264,-29.03631219985918,29.90876755283948,-28.378161271381092,40.091546477555106,3,S02
1120,0.16637484241284275,1.1048091963146351,13.135508296062305,29.45779765097539,52.37525446529765,-37.00662553010178,34.48689790558974,-29.345838000400786,40.49109970366363,3,S02
1140,0.051159960146031934,0.7397697805118635,12.834486764686808,8.054961040546843,31.6599766341639,-36.54212014240001,33.73129810774206,-29.804721574099077,40.77502525671574,3,S02
1160,0.131190403908537,0.17173635208894406,12.368098564291397,0.2567925435273901,10.687502625094655,-34.19662827300253,29.984655184513336,-31.435187133762327,37.766248504611454,3,S02
1180,0.1756958503369408,-0.1820448154946099,11.25864510142367,-12.767024282717788,-1.5452979530218751,-31.809603512635462,29.224444053927243,-32.688446385253044,32.58951771453311,3,S02
1200,0.11794152355002371,-0.7382306096118219,10.425934425660031,-8.637363298305505,-25.6831346489688,-17.576326730186626,30.73670893905116,-26.96656517229603,32.935242109442676,3,S02
1220,-0.2609768037665571,-1.4933352958415955,10.023384786480273,-31.62779739398925,-46.86018172523089,-0.44671611896773833,25.529793533140772,-31.32543529230914,33.48702252945126,3,S02
1240,-0.6505102780396482,-1.9745566781426525,9.587405823144804,-47.15841988232112,-75.457613647569,20.176204319495458,27.525129898646195,-29.396368409407465,32.758562952282205,3,S02
1260,-0.6843706904930812,-2.6205790582341515,9.24783529159879,-65.19474129862026,-101.5713077328696,22.075917741977023,28.559007450713292,-31.26117640578667,33.17446939213164,3,S02
1280,-1.0738103405245578,-2.9712465796567944,9.148526095220783,-78.11473346115444,-110.34932033158904,36.37811136249994,26.732149318877976,-27.598790976487493,35.016528517728375,3,S02
1300,-1.062528813117011,-2.273302494033001,9.435319571635612,-70.38810105280581,-98.15733017089548,37.16308378787926,24.987063753058326,-25.985613009900224,35.96576735641499,3,S02
1320,-0.7013159403181632,-1.8960606332831242,9.703992684733874,-44.370984470468045,-57.21000921931196,35.01817409074771,20.890409448040103,-26.451035430092038,35.46483011673102,3,S02
1340,0.10126432008266642,-0.05806871615974945,10.2889377807099,-8.355539482703747,-3.51420519851572,28.614055453581784,21.908188340685452,-22.95421812051061,39.244465960558834,3,S02
1360,0.8801638166851371,1.3335688939120112,11.194179518537581,33.0330471467523,58.55565312808824,9.658890541631038,22.978900786977267,-22.14269992142011,41.10516050272704,3,S02
1380,1.3941831671712477,2.5826346241935787,11.919093728931843,68.84155072506,95.62381495050994,-0.03426817615315125,22.73979984884882,-18.154940645748997,42.31806422691371,3,S02
1400,1.4146857223097842,2.827616895629626,12.707565248035735,70.8674740093981,110.9380242669404,-9.17245113501755,21.496339009117737,-20.825953520145028,39.79945678115901,3,S02
1420,1.2727080508302837,2.652316410469793,13.267074057979277,55.59912506779307,110.40738076711978,-26.867292456049476,22.08324006750022,-16.248698252423967,38.233138782652325,3,S02
1440,0.5815755709740312,1.7669934281405797,13.233067048780764,37.37634461854137,78.24393086861502,-34.83129495501792,23.022466382370652,-14.088465815074866,39.2973727693132,3,S02
1460,0.5246727626098787,1.0475236430364034,13.217153988285968,19.538183260585033,45.96595923093295,-38.83800919245254,20.595416437656496,-13.020546245327234,39.60017361510696,3,S02
1480,0.3866296433992993,0.5041707265248665,12.596552246145388,5.512655595999504,20.500761919414952,-35.16579603458456,23.00742763417078,-11.525348116942162,33.52304989667072,3,S02
1500,0.060496890289815544,-0.15105067998228733,11.84902709323819,-8.986423718266487,5.673721031241348,-32.99596226490336,24.155242366357182,-11.870802167410407,35.2948706464889,3,S02
1520,0.1138196888278966,-0.16732259316111453,11.48659056752029,-8.357453263389388,-2.3425090217875892,-27.535168184261806,24.648611165468086,-8.593516302329581,33.323465331689164,3,S02
1540,-0.18445933781883508,-0.8606345974105178,10.266088214286924,-17.925181066612954,-27.76133059371351,-11.212421145082434,25.918305831210024,-8.881835737479227,32.92256029948534,3,S02
1560,-0.32736602391938396,-1.108460605685569,9.785805068339865,-22.896613145189928,-61.52259831300853,7.36459128153841,26.370251910399325,-5.522856574431224,31.650130260087725,3,S02
1580,-0.7870111013801798,-2.062586614625594,9.590654138424062,-56.77855407159059,-83.42232236949103,15.521563128688628,26.273003739997797,-9.734102814050551,31.026123708288317,3,S02
1600,-0.8450690948907879,-2.5999637494407737,9.103909578310226,-73.48646183812332,-108.0448856755785,22.59082997612117,28.42688758237707,-2.9893895736108123,32.57890167598122,3,S02
1620,-1.285081654814846,-2.8128523692046143,8.858929949115415,-83.89465103880475,-112.2224737300659,37.75235586720219,25.25714155305731,-5.674226854528877,35.41661061021568,3,S02
1640,-0.9243272838722066,-2.2672456505497616,9.185871236250076,-62.251467479768074,-84.55762711299938,41.34272667415456,31.929111243484897,-7.847254549077262,34.62929757983742,3,S02
1660,-0.616723150093255,-1.1096846869039259,9.865807637502362,-31.925430887612837,-52.84290657121854,39.94881063940781,28.086158712472965,-4.176069102589537,35.92452844789709,3,S02
1680,0.04671901659426011,0.4942042429848273,10.23092796025805,4.420904561221103,4.7477799586499785,26.50280000271177,30.726573135431156,-9.593599995663052,40.303348005056776,3,S02
1700,0.9504157189117376,1.4500151297223975,11.421659934883412,40.43566339701151,66.74923344217531,15.35871064553116,31.892763878355606,-4.787845429865933,43.10671558073861,3,S02
1720,1.4250565172746763,2.5640044443130097,12.242285677194632,67.70269261792008,96.49322581658339,3.7296518598739357,35.69476516051559,-7.589790435348222,40.47964229644768,3,S02
1740,1.3782460273419208,2.858861474325349,13.132543787014777,76.43885929875086,118.96675778112548,-13.734080824980984,31.654042122627835,-10.16470831709374,43.05484195580777,3,S02
1760,1.1089335676278784,2.392263570829809,13.197067303206103,51.826476432896456,91.12356004381438,-20.48330661979169,35.21020025018967,-9.548749615019457,43.18887713458859,3,S02
1780,0.759346752039927,1.629715638127486,13.26682964493265,30.04476301664592,77.06369072315236,-32.531450967964695,35.104346529880694,-13.647730217348162,39.75739198776221,3,S02
1800,0.2642876391247098,0.7356731980026343,12.789783406891955,18.52918972903083,40.709154632898546,-36.69038256435388,36.77722743484363,-13.470758144215186,37.019346865376626,3,S02
1820,-0.009110821427136664,0.32897146323778453,12.55021703420262,9.505008640278064,22.058156350635247,-35.222901914146576,37.15290638322931,-16.424271704145898,36.74951996353411,3,S02
1840,0.04063110726148314,-0.0824012028499474,11.786737670296809,-5.633906905622975,5.1998809047339885,-34.482545833499074,34.5069472571366,-19.0422864312187,33.94750700693912,3,S02
1860,0.3304672755308603,-0.5716792279677481,10.943037919486354,-17.818665802595515,-12.824147906860928,-18.62298675530709,37.00936356460169,-23.07162330449667,32.945687042258925,3,S02
1880,0.26944272995354535,-0.7581258056767064,10.363228332591637,-12.202902045046109,-37.9983494098765,3.5305725552771947,38.613462785794866,-21.241162306277673,33.440272337357456,3,S02
1900,-0.18243614602844613,-1.6624832458111998,9.6239414867619,-33.39478696507388,-66.76489255071479,5.826558302477096,36.618639315631846,-25.69042939649947,34.483428592221074,3,S02
1920,-0.8727762117217629,-2.2794312130754966,9.103582711393834,-51.72749235636092,-93.28736671999415,18.273589814486137,34.647731708050344,-23.788695662768763,29.646668823864093,3,S02
1940,-1.077513199637088,-2.956612589262737,9.197872407018796,-79.9518540973014,-114.31851945204524,33.05075640427668,35.09422978116805,-26.04622716736231,33.26068716632127,3,S02
1960,-0.7702407157579182,-2.7783737989194863,9.248703303351931,-65.12230869434444,-114.34862543607143,46.40031268671751,32.01363264223176,-28.16395496925894,35.248324271861286,3,S02
1980,-0.5497204760108926,-2.4373327547869756,9.411312690598695,-62.71603757910498,-92.41426645659071,40.04845022420271,34.04749394476039,-29.44041163558207,35.45208184474588,3,S02
2000,-0.41981452639700867,-0.630987979250285,10.146554046444084,-26.62180603015397,-36.91379436910402,28.568596520579717,32.697452403472894,-32.341473893830695,37.022811647676036,3,S02
2020,0.343600874725614,0.7264299655313255,10.498295533161444,20.922450747151814,26.651317666644,29.846949438287364,29.694934559954326,-30.745049217377403,38.40730113565516,3,S02
2040,1.0122345899730807,2.0713214127605166,11.644125970275114,51.25073935141523,77.44603898916908,9.848965651259848,30.412177393709065,-31.61753164642451,41.79971005426717,3,S02
2060,1.3609768587301188,2.768269578702307,12.404096705603031,67.21120639701469,110.84765619856728,1.354935444848504,27.083629830812164,-32.20855757559734,39.73851475270266,3,S02
2080,1.449027098211156,2.723800596828396,12.89234835044305,73.25530441227849,106.22037876551165,-15.458621968991592,26.778218663343598,-29.903746816353102,41.76205567704204,3,S02
2100,0.8303215344799721,1.998501963650005,12.872385298449105,52.75426912913791,94.81296699175942,-36.97011301731316,28.725852120951096,-27.44740122483788,40.34022777998183,3,S02
2120,0.8443625791786153,1.503134171161648,13.306922215910557,23.21510856845839,62.1239578581537,-27.25601352951882,24.7467709300936,-26.351774227375696,42.47640938126317,3,S02
2140,0.046574915682739366,0.6073365149254935,12.878350624834153,7.902162160420754,34.67082711104719,-38.46743452025165,24.481797182104494,-26.305093786015952,40.12150236129165,3,S02
2160,-0.05961574186511848,0.006319134313222258,12.437153506942321,3.742874400408887,12.834978654220773,-25.14251160564769,23.39462566724183,-25.988405368425937,37.76024424138245,3,S02
2180,-0.08930631259177763,-0.08523486486301378,11.64585664871987,-2.3792332650448422,-4.800507112464729,-34.983308375320775,24.0367995787541,-24.805935212787038,34.04053519278506,3,S02
2200,0.4888153338892053,-0.36138593994690904,10.729569895359992,-11.641628197840376,-35.64862905633528,-10.746701995658324,23.2456485260389,-19.499456875709576,32.57363511893121,3,S02
2220,-0.14530467830717236,-1.022207664917978,10.386760953407626,-25.331951147787525,-41.89270896486877,-1.9512542769704369,20.43993038375964,-18.812773987209425,32.44874580941729,3,S02
2240,-0.6392686181041649,-1.4624493560930585,9.49261114276257,-45.16427127491202,-69.01379153389726,12.492907693589762,21.580670708168746,-18.023490020992078,31.16371229926053,3,S02
2260,-0.6665080002584919,-2.4635835811857674,8.99441126382223,-62.52111403380677,-96.74259197233025,15.548457684328708,22.06569937836499,-16.45307260699458,32.63437057858821,3,S02
2280,-1.512835788116146,-2.907132398606564,9.162717041784132,-78.09396321765801,-104.43735550366291,33.64438215324387,20.74797289442747,-13.977880100600753,32.069180359474416,3,S02
2300,-1.4020431079920677,-2.709980438056593,9.2747852800245,-83.83954240342491,-103.13638657204359,32.56271011401807,21.576726779076957,-12.935971184973752,35.27482003557759,3,S02
2320,-0.8046384308467904,-2.017472396831538,9.61242143664915,-44.23721437477941,-84.61646636640668,42.45842419721102,22.891090585644285,-9.269170969004811,38.07491864009268,3,S02
2340,-0.26369159049424495,-0.5355155047825576,9.94461992034336,-15.015867332322898,-15.528145621831008,45.04620756773256,20.846001572356787,-8.558978417253691,38.87362398223093,3,S02
2360,0.43957511572298513,1.086212172479446,10.63930826807316,21.096220243401433,40.21371625010621,28.108851884566025,23.886841865338184,-5.9502542243109335,39.76291698243291,3,S02
2380,1.1637136446942131,2.2562945749098655,11.918523735243854,55.80524097119942,93.44649896433678,13.212951275359126,24.404337666318934,-7.176632954514201,41.92055676732682,3,S02
2400,1.2811204228750335,2.8647762045528267,12.706726150217964,69.18774769705242,110.95150448194352,-9.967397294784965,24.753563902073974,-6.973236400132069,43.23622911840016,3,S02
2420,1.2518917038647326,2.434989099840356,12.751290708151789,66.92774032419696,112.6243417479876,-21.01683929053919,23.767114104984074,-5.259589083544313,41.90911572273196,3,S02
2440,0.8535558126478312,2.08969677664554,12.888717811731267,45.78148496159434,78.61100429356198,-26.63429956074213,27.228536055536964,-6.043367109310226,39.78621698773928,3,S02
2460,0.7044247025014239,1.454149774771204,13.19833657812349,17.294341554388925,54.329597679461095,-35.97528582459083,28.580811109293172,-5.263753005154777,40.27528842151855,3,S02
2480,0.3869738300890262,0.6210604715696759,12.676972487467976,4.029355308222258,26.5565644701632,-38.897776165593434,30.04591004336051,-5.1662541754647595,37.203130545622926,3,S02
2500,0.0022593638332494698,0.07970455575284091,12.065764121780871,3.9634169098680117,-0.5576794286696589,-36.330668506530436,29.34716898182287,-7.158740430753199,33.639469913898424,3,S02
2520,-0.07983055721427992,0.033076230331002196,11.451849321955514,-8.270059794583606,-8.79392334604078,-26.125621349375983,31.73512446286713,-6.511431657260046,34.94071078206187,3,S02
2540,0.19320089961847411,-0.5744642144558381,10.557110071812502,-13.440587260648343,-29.560475437879603,-6.307553248989459,35.709981533979004,-7.033068363150599,34.737620318268135,3,S02
2560,-0.14404080412634374,-1.0640256652038358,9.768569655282985,-26.06637125126842,-50.91931067147866,4.8554354915837505,35.61701524047015,-8.876860399517058,33.16976052188706,3,S02
2580,-0.597580073576891,-2.0455351358434077,9.814577978903213,-43.30675449340925,-76.4823051256251,15.158502507077895,33.583520391562864,-8.228439613940537,34.12736787154655,3,S02
2600,-1.0836725443648272,-2.536396476796614,9.482815041163347,-70.03540204531902,-98.8425496845701,31.509189943786808,34.80425939093323,-10.38340219393705,33.44668827725077,3,S02
2620,-0.9691927098762366,-2.627996669292771,9.019911615792697,-78.34916160603204,-116.99624601411456,29.13640752677419,38.71433845470882,-12.091207013800565,34.42799733709623,3,S02
2640,-1.0991012799388797,-2.7853251115339726,9.243160814255573,-76.76673219284577,-108.35275548848878,47.11014462513615,35.51585119832153,-14.308689547663509,34.225890977159125,3,S02
2660,-0.3957849427355681,-1.501390944629712,9.642734903424625,-48.481849642338545,-60.89223061791597,29.844340145630603,35.71724352690457,-17.904622749827304,37.66224485296535,3,S02
2680,-0.07671650450645837,0.08827328699264261,10.155847500456648,-1.4671472117088147,-1.6450326022772053,37.29649422636321,35.531470681097595,-18.432630375899983,42.634772817363505,3,S02
2700,0.8607444322043096,1.3408251357399965,11.630638898204408,34.806152559268824,53.317349777163734,30.810246762173875,34.57204919807972,-20.916192649654697,39.216491929797456,3,S02
2720,1.343282908318257,2.2808247472381606,12.105234500852943,66.21861967723201,105.25651554529945,0.7786729545188814,37.306223150236875,-23.88629686806532,45.0243129045911,3,S02
2740,1.065911700621497,2.649868857679536,12.963685734475206,65.48451177099197,109.70685790856403,-8.595776234155958,35.57784851779664,-23.371892676752058,39.90745544405744,3,S02
2760,1.2008262416172764,2.4950226194025698,13.15881867451506,73.03189503556413,102.52589122435583,-22.51091551272658,34.23026957374057,-24.607882453360702,43.71304794151059,3,S02
2780,0.5462591820937805,1.7866916239991741,13.349608336630368,43.6842499447517,72.20952649766708,-39.73427074864227,35.41776352338927,-23.366001256843603,41.24218392483222,3,S02
2800,0.3505253102612761,1.1170168233269855,13.511418286457003,15.838845952741046,50.14484989503402,-37.055001921980356,33.58519295789192,-28.685415330673532,38.61384797178115,3,S02
2820,0.2685306691506106,0.5873227777064987,12.674546019497095,7.794124946709029,26.598785765985415,-37.61198574927193,32.28200053560629,-30.697978568156707,37.53906444690246,3,S02
2840,0.03402590867365489,0.10894761193809957,12.052100627979234,-6.949868090937321,6.075081923921208,-29.58953921420731,31.288536610349695,-29.480586047217763,36.34263953537185,3,S02
2860,0.11703116528042734,-0.20460866722208593,11.142246697804163,-4.742901311850278,-7.978312846009087,-22.412013181391167,31.06702610839127,-33.31097708743648,36.127158084034136,3,S02
2880,-0.11986263399293434,-0.8412395743143486,10.60129759703501,-17.687416054904478,-28.522764009781653,-7.6878330554524315,30.38650397104667,-33.60235283674976,33.25630908932743,3,S02
2900,-0.2000777163715152,-1.5414881875497797,9.781833014066429,-32.97746203086979,-57.418056161433306,7.034149949950489,28.0586898165886,-29.32610067965976,33.16053714774924,3,S02
2920,-0.5600202917781911,-2.319787755728069,9.339323872710462,-53.27639655292702,-89.83451546776244,16.076988443578276,26.165558127274053,-30.968964263247404,28.692031651711012,3,S02
2940,-1.1784745881552428,-2.9792840489762535,9.151757506417342,-69.72181763750653,-115.72462879160142,29.681012397757453,27.9669747526544,-28.7554732985848,31.955750977585158,3,S02
2960,-1.1863552392801557,-3.0794339702631235,8.991767611488003,-78.62221328421369,-114.78776553199313,31.593825814115068,23.413102381251278,-27.03755827377452,33.30290997960654,3,S02
2980,-0.993757905094882,-2.500282576477095,9.432444617322991,-61.29049762423926,-88.7007082869098,45.2947125244769,23.005409778085422,-27.69165652947782,35.46248690137914,3,S02
3000,-0.8245092320000457,-1.2257409787876763,9.868320160887011,-28.223024267811976,-50.717787866289555,38.738479266533204,22.801860446921694,-23.631214853868922,38.565025004064545,3,S02
3020,0.11553379611152634,0.3170163681348393,10.398678762624456,6.186873947459628,11.311177390938667,30.256529030523115,22.172341528826202,-23.46973892560899,38.770841539900495,3,S02
3040,0.9569517537261515,1.4232477069347782,11.511218668268212,44.55201744350873,70.28936957239578,28.117782872498054,23.542130335071235,-19.48002235175432,40.20014347934465,3,S02
3060,1.22241468279171,2.7549602762846788,11.956440529861865,57.79608382940405,103.12110591962545,0.38668488860920747,21.99138235871662,-17.742313266491742,43.07416619636043,3,S02
3080,1.3580129001704986,2.860323048165277,12.963878276839495,65.12967484452334,108.9411391867107,-17.39918007878369,21.779159663759707,-18.541770604340257,42.06010175233291,3,S02
3100,1.0094354912603978,2.49012085176098,13.547109642480825,55.130791863567154,98.69818907345542,-29.607835158158043,21.876818697651885,-15.83951963786937,41.051915309103876,3,S02
3120,0.3955222843183501,1.5852080401940363,13.285195480231494,36.20610616983811,73.43259610278714,-38.749287641919565,21.62219818464203,-15.810153896547064,40.83910117370336,3,S02
3140,0.09016249705345566,1.0155343744678744,12.966381843221278,15.269156895839231,44.07450166316548,-31.572738563178163,23.0123641700199,-12.968135366857215,42.091556374716355,3,S02
3160,0.09840918803195596,0.45787157058059774,12.398515492529542,3.3577506968437243,23.649359052206766,-35.26079723356277,21.19010674355346,-9.871312560731315,37.39582293577159,3,S02
3180,0.18749909952614496,0.090313023477189,11.766183270084616,-4.171053360004472,-5.4058707785812565,-34.162121542846386,23.88156356022822,-10.32379557590434,33.26722510172243,3,S02
3200,0.1440980994913597,-0.5628637186228991,10.942963788404755,-12.436939565579223,-16.297889105481236,-20.950711610711704,23.200984445079676,-8.01939576947584,32.192652512054906,3,S02
3220,0.09567973857201885,-0.6580204390064528,10.593705846176551,-18.70530130650977,-33.316732834846455,-5.765223897170033,24.180571140835287,-7.512592352021717,30.447933269941302,3,S02
3240,-0.14678939082080214,-1.7119387906248769,9.542264547981745,-32.551528044113695,-59.60938401282439,13.394448570067551,26.512009396248605,-5.15717040594201,29.976873902770198,3,S02
3260,-0.5543200168395704,-2.1927429192735555,9.387254230731905,-47.581266346979504,-95.16953142710915,18.548630787929312,26.134886108144258,-6.490867746121031,35.92949761055736,3,S02
3280,-0.9670916229214593,-2.920045750765365,9.160327804693262,-64.28390443633691,-112.40099957935897,32.556129382075326,27.848465863340238,-3.425373299550346,31.275601570731524,3,S02
3300,-1.3483357548498842,-2.873135230081516,9.341951705208173,-80.05270876430949,-106.25254482105123,45.69070071853227,28.350786323602662,-4.43282497446949,33.765647068994525,3,S02
3320,-1.0261341282438032,-2.2939840002225833,9.423455351444053,-57.56961979820026,-77.01880691519406,48.99072069849314,29.6235736006269,-6.161011616046647,38.42205285702208,3,S02
3340,-0.4409663191528168,-1.1312168932387074,9.846990287558812,-27.957910365898258,-38.84611492775757,34.5644600459139,30.555624547119276,-6.306385608402495,38.52417815805331,3,S02
3360,0.2887675613209526,0.41632351962187536,10.351920246704506,5.437867004837929,21.111488520232246,27.064118981547708,32.12086608170984,-8.161197364433853,38.791568895981854,3,S02
3380,1.0676790815155668,1.9900854178751224,11.667574519724596,46.991756705614414,73.72745200674466,14.360692360144334,33.6234861536868,-10.085194092303244,40.498653781337474,3,S02
3400,1.3961918382556278,2.6599775634249845,12.423594027738718,67.16587404773676,106.35598498845452,-0.8917270598520594,34.53676169002196,-6.232893752811126,42.01302880607977,3,S02
3420,1.2906985054820903,2.779348982177654,13.226593048413525,62.465698710846226,115.35668521277402,-12.774782327839409,33.63983605480056,-11.626239797713806,40.09354517362838,3,S02
3440,0.7870369235768541,2.1519332130751403,12.948605254627688,49.856944333187535,100.03556198228874,-23.593658066870724,34.0778188549199,-10.372038335028458,41.96595143162748,3,S02
3460,0.79595977788242,1.4368466084824023,13.454117429287756,25.050683497716943,68.13030613183666,-38.95314985263157,37.60389431893881,-11.66420090673957,40.429881970200746,3,S02
3480,0.2164573520849272,0.8149370282660793,12.827963370325099,6.523797837481115,40.24394806348682,-37.38029357397452,33.09311687211974,-13.995563243199399,37.540933320409145,3,S02
3500,-0.07491751962471657,0.10280804198724719,12.063367369174017,-1.3783861001912836,18.465519927157402,-47.675852549111276,32.09697812309035,-17.814538499909624,36.3940856289034,3,S02
3520,0.23893472737018984,0.007411228427292096,11.835387716831146,3.2246696874389214,2.082899257874166,-33.77840693220852,36.61289958887524,-19.631599647844872,35.20320134346626,3,S02
3540,0.24621017495492947,-0.5909729188400294,11.141391813420757,-10.728261709837161,-21.45799297551419,-4.864683362760987,37.48428705748891,-21.882569950624237,34.30393764867335,3,S02
3560,-0.18167219009480598,-1.042691293430702,10.186346094676814,-17.307278645304084,-45.14106340098806,-5.125343292494532,34.94404951416982,-23.83821846226591,30.375149963782523,3,S02
3580,-0.6321349203859399,-1.7374507298411463,9.58120722297837,-40.02016375521732,-71.62007739024436,14.418184413244058,35.72710729741688,-24.70207931206478,31.066314733209417,3,S02
3600,-0.9740659967621,-1.9973817684630948,9.445791242461304,-64.62145964054888,-103.48041515594184,20.012184681483312,35.65472036520708,-24.411044814183892,30.992829432617235,3,S02
3620,-1.3188860280566443,-3.025445616534694,9.114685119269648,-70.76865964263779,-109.65119010046091,39.137364693991806,33.659399263420624,-28.168264225291622,33.34471190082885,3,S02
3640,-1.23964988203206,-2.7073598543986988,9.131795393455603,-68.22379608799748,-113.9221010116895,48.18331474631171,34.51568436649317,-27.912160462021273,35.990995520642386,3,S02
3660,-0.6392565057863324,-1.9568678409725127,9.858964244588341,-48.92727720632848,-67.97345227053054,37.899961301592164,33.36881318132049,-31.27863518720301,36.280926498142385,3,S02
3680,-0.3044917527059833,-0.7508400938282076,10.035010204819066,-17.234246248958435,-9.699806492659006,32.74216709587813,28.309125685976863,-32.5975833096856,37.04594349106031,3,S02
3700,0.8717512694332725,1.119410933662865,10.71599083880337,27.710073467127398,39.41610796675234,19.10616048247084,29.950804010828026,-28.428499736297017,39.01917081062904,3,S02
3720,1.2573067848118473,2.154127948308985,11.904807473817046,59.833022245285065,83.019903185004,9.22950292707064,28.541838879953797,-30.150716048375326,38.92233950371577,3,S02
3740,1.3996747018521907,2.9867901599521933,12.825283924798244,75.62876491408758,113.61283287702037,-11.064146934121764,27.783457558099613,-28.56192552069463,42.460428970898086,3,S02
3760,1.1986431793178038,2.766404955028048,12.957004238751177,55.73858302230478,106.6294809895882,-15.903006288366472,27.69096901466186,-30.210506718974695,38.62148452075816,3,S02
3780,0.9436984719757892,1.8715851599533324,13.19940061037542,47.074864028405806,83.16462870503491,-28.185527588213578,24.48331604881956,-29.500554745964575,41.59635133317398,3,S02
3800,0.3816094495375709,1.4829023419375966,12.961516549907339,18.03779519329227,61.001361010468045,-30.268475186836902,24.42158781832297,-23.66762668160723,40.283120587539884,3,S02
3820,0.3129307732944636,0.614023282694383,12.782400851233003,7.710236544296367,30.786103284750357,-46.27520166757782,26.60192521943485,-25.767646170740722,38.85695638676605,3,S02
3840,0.11098086719316023,0.33606973480959584,12.276206652427526,0.7768498596512048,12.681507117443369,-45.25360891579055,21.59228954184998,-27.37822271544777,37.43462852699792,3,S02
3860,0.09689524659471754,0.048902433717530364,11.507646667221616,-7.064102395572561,-0.3014497063915058,-27.767380574364932,24.662916802957675,-23.86442739139421,33.52398185236563,3,S02
3880,-0.06059569923760269,-0.4705281624045452,10.44548345626635,-1.919377957739921,-22.89029601171966,-18.488675240175645,24.40117435033997,-23.084635377740913,33.00979641196378,3,S02
3900,-0.33040582983136,-1.3353813182463992,10.052921787999248,-23.523438227844004,-47.194339154139236,-7.503090471669816,20.05873802848734,-18.78764238381804,35.21159241588382,3,S02
3920,-0.6478770894586547,-2.127931358321646,9.685060998443372,-56.16833097324171,-86.7957929428266,16.695596942224054,20.934315689360904,-20.010728986157844,32.558890561001064,3,S02
3940,-1.032442225059013,-2.8712654440380514,9.300754580269883,-57.63568263955119,-95.94690788190529,32.093127427259624,22.64520089880191,-17.20775222769106,35.58247105489591,3,S02
3960,-1.194003162208581,-2.800663180911624,9.109223042128617,-81.84371846075172,-115.87965975916335,41.71622865778033,22.18083812980874,-14.650912087892836,34.64327649531758,3,S02
3980,-0.9474101558816886,-2.262984001497581,9.821108056910933,-72.39914344512877,-100.93198477523741,31.8479584024264,23.281206314659258,-11.653944716650276,35.42264666991479,3,S02
4000,-0.6889608485220431,-1.918476477823993,9.542711586859939,-42.321627253222324,-62.695493082861674,35.99327718214255,22.064487642684515,-14.986036784827986,39.99992382533596,3,S02
4020,-0.14723570724819496,-0.27814491737714825,9.765115117288312,-9.830800575987535,0.7425603665823657,32.081533239606756,23.23051813900839,-7.808176083869274,39.621617122315925,3,S02
4040,0.3694033130777661,1.243721110357029,10.972011023493307,35.87995761635938,50.10830356632863,15.234119134422665,22.1765050766651,-7.856951126484576,38.20168902075117,3,S02
4060,1.2942470793418925,2.1244100574828515,12.012908448772516,61.66438882994318,91.71666052098735,9.00953733767411,24.135764333597702,-7.693515147749588,42.41623766570786,3,S02
4080,1.3806848927793696,2.8297138977022303,12.816965058360836,64.40260823982035,112.85218986452023,-13.853185478902205,26.902944790588958,-2.228321479181096,43.62617424072692,3,S02
4100,1.195712467040804,2.5048442183442203,13.219128840300533,63.34846362323057,104.79710212064383,-19.320585411335923,25.48390366998806,-2.8774779812876465,41.6035563102565,3,S02
4120,0.6153795916621042,1.876211596815967,13.459410993045815,39.123706755871545,89.23207795440605,-27.51850063273229,27.2096734216587,-2.243157554279425,40.54756413964893,3,S02
4140,0.5153448274171296,1.2295561815275478,13.268284669783842,18.131294401660504,49.174607081008986,-40.965963236231474,30.17731500049423,-5.302100507430255,38.047016352537355,3,S02
4160,0.14916586124702402,0.44370825341194414,12.721818552229383,6.368148132910364,20.050721768658665,-37.823076146190886,29.976217243425147,-5.447381400258524,36.189354877630926,3,S02
4180,-0.14108901161707474,0.09549424894003888,12.224529405307962,3.837190521542916,2.2544701406922067,-30.776749431733293,29.027253202886,-4.763434883441049,35.677095235418044,3,S02
4200,0.25746994062520856,-0.21930649304031502,11.024388811680117,-5.608257930238807,-9.603103990143643,-27.415569436274158,32.85257945638081,-8.549659888651561,34.979053001633375,3,S02
4220,0.1308611470861872,-0.6416302482212122,10.326917787453548,-7.407912399966052,-31.772961204180977,-11.20921322923915,32.907911807124115,-6.5677595476069275,33.95022871736444,3,S02
4240,-0.37458426237697917,-1.4171356275619047,9.771034845410325,-31.520358034455153,-50.270822418123274,3.014612684708096,32.380715406226926,-12.729923901574043,33.320318872513994,3,S02
4260,-0.8096332056624179,-2.0400181987172585,9.225444366444457,-37.188862014987436,-78.26774951046215,19.342724780854212,36.33191036575641,-7.673972402190891,33.240197219535894,3,S02
4280,-1.0239372186967033,-2.9052635062484202,9.089282989224968,-72.05579347702444,-114.09164687931477,39.32528467735511,35.51968716554458,-10.952508132471445,32.27916106364485,3,S02
4300,-1.1669794523853503,-2.9507340241323647,9.300941966456534,-71.62180272928086,-111.44596727920234,32.785691254794116,38.338632725005795,-12.842881911673757,35.112092848116426,3,S02
4320,-1.0267928422709094,-2.017804409540694,9.501963173873305,-68.74223908394895,-97.72977610010742,38.2634981052829,34.323611276656564,-14.365818810684093,37.02978577842471,3,S02
4340,-0.3702958288760244,-1.2481726369368857,10.092836728562068,-36.0755973108279,-51.37730112106255,41.82338370066345,37.79147454615266,-19.834027301152304,36.00905108559781,3,S02
4360,0.003908563710595836,0.22617025384784017,10.303334476553166,5.139755645212229,6.114380400725534,28.35204854064091,38.59164321952485,-16.991589033877844,40.02850267984679,3,S02
4380,0.9753869973085936,1.4573294799238903,11.111680474835996,43.96590277377222,54.86742311031209,16.34267318230353,34.7089701557953,-21.044577486003853,42.9645719809433,3,S02
4400,1.305589995713017,2.801358932409011,12.338139217520924,68.46434795233839,103.81725262503029,5.648405134817533,37.339817301221885,-22.391972126885584,41.35160176284881,3,S02
4420,1.3222496146053841,2.6311713895673923,12.785907645748692,74.42326297004968,106.14813484451162,-11.267627685879791,36.32361821481385,-23.614556642087084,43.6970491812646,3,S02
4440,1.1036499933713004,2.5571820436180768,13.166879524327427,54.12693467759623,104.16174333763574,-24.89756825209173,35.75607798477861,-27.05445408754638,39.1063519475461,3,S02
4460,0.6574203149902437,1.7363841875782162,13.123305016853303,44.32261174650602,78.22813538119563,-31.709261647068672,34.97264450493738,-30.05689562855901,40.4333172610095,3,S02
4480,0.609502901137839,0.5911846615788432,13.091844774455677,7.694360155334786,47.69232855672812,-37.96193724865518,34.79789270728254,-30.096207656383953,41.28346792195154,3,S02
4500,0.15902205379672177,0.7057813961877832,12.514785238594806,4.498870783029198,23.660529018489346,-32.893656211642956,32.799653082417805,-28.98471157607633,35.460080986337076,3,S02
4520,-0.03332429043320809,0.13847403673643063,12.009420100323066,0.36688853865751714,6.211114218831878,-35.54036617150238,30.82604889244787,-29.815944251644524,36.767588534011125,3,S02
4540,-0.07664618111886728,-0.17639152314012063,11.24481296841538,-14.511537163168015,-15.394000051589298,-15.086008145354329,28.083264544402436,-29.14551496931399,34.18053734784445,3,S02
4560,0.12384492998799801,-1.0084330185501829,10.525666643003,-21.44961415921917,-28.720422616287095,-6.023918301303183,32.224478988424714,-27.81652839254601,33.97713352073053,3,S02
4580,-0.224412441225021,-1.6426513614052465,9.704326991268578,-32.80912471887993,-63.45639899626512,7.517721945436441,29.26923275702044,-31.261019713371482,34.57877616701745,3,S02
4600,-0.79320421949358,-2.2151809723401317,9.21408680187529,-53.69293155141624,-91.98918501640954,18.20818148137375,28.556622959580864,-29.947956239086512,32.62291541559985,3,S02
4620,-0.8953093477204995,-2.722910870177328,8.941801139883037,-74.22122997802641,-119.38491302967437,36.12361879243251,23.54046680015439,-29.147832468049877,33.06414720285056,3,S02
4640,-1.1021037732629944,-3.0729498741067443,9.112208815257935,-72.28298685969948,-107.57887324914228,34.89191951831965,25.003196206343013,-29.13856692162767,34.73913868780477,3,S02
4660,-0.9564943363988238,-2.3138046754701844,9.199286738630661,-64.0801376669061,-93.96651672958305,42.60201315436206,21.033829028478433,-27.81038244624375,36.20541932114959,3,S02
4680,-0.06866526229096767,-1.094678195825183,9.745390605699233,-27.077276253209266,-33.6082381898907,26.56598206431432,21.76381461081647,-22.907558750340094,39.28056797469617,3,S02
4700,0.38325995626428566,0.4626054562351018,10.511455181776695,5.322564853248902,22.377551125667477,21.912038878514018,22.95687264504088,-24.436411162465987,40.016201055812815,3,S02
4720,0.7754469548996968,1.8160781533575785,11.30919412352792,46.80363940893962,81.51053127346219,12.137911848387677,18.76333246267428,-22.033107479728343,40.93333309649177,3,S02
4740,1.3591105882724555,2.39931772040312,12.177063508963489,62.820381652886155,99.4085079651614,11.739001954005921,23.398849477364415,-17.545891120776734,42.28272617600486,3,S02
4760,1.7997150852423203,2.6939633812380595,12.9154535100939,61.49615675651738,108.3655027009341,-20.777773971789365,23.01128853149667,-17.90055628786539,42.42267108358222,3,S02
4780,1.1221993035809528,2.288373959553845,13.27734037194993,44.44477715480916,86.10266481567362,-25.988826250374462,20.063236043404153,-15.6697456584664,43.4619398628825,3,S02
4800,0.7097721142376815,1.4770141352816741,13.049655777146617,30.855727583107093,63.105797771504186,-35.44684330860302,21.715162829784095,-17.263603200596215,41.7383140419041,3,S02
4820,0.23787211506094197,0.8738396785720801,12.766229077106699,7.8103711598737275,42.07042505310217,-50.37883730809247,22.421953955155107,-13.99646863360449,39.35696004380636,3,S02
4840,0.1595230932604153,0.1256116145390662,12.417755791379204,2.078940364025856,14.872384310455526,-32.751030605571124,24.405181752342394,-9.493658802249035,35.07922866959011,3,S02
4860,0.0621699217537792,0.11868122554563287,11.720021128531984,-3.7762311227390737,-6.324181986239244,-37.057731986290115,23.31807022456631,-7.795798194596616,33.05320340950125,3,S02
4880,-0.061462205846816165,-0.4942287365343915,10.663181660308343,-6.01044755193619,-18.51434150436173,-28.833619375449864,25.26579336845227,-8.87730081580613,35.47937971886615,3,S02
4900,-0.07152623260331051,-0.9022985180566965,10.270737272452584,-30.521194068262705,-50.60096505118362,-1.0582298422963006,26.05113778126889,-8.78991546136676,32.365057660595596,3,S02
4920,-0.35914291368545215,-1.7992500902064132,9.79323041632501,-38.70310791961212,-75.58025371805635,16.792032721293154,27.88450978126467,-5.483223032470797,34.78568863651168,3,S02
4940,-0.8389281565567311,-2.4596143381895033,9.0426206849592,-60.51286124911097,-101.36800564784369,22.68209685784468,28.279170162044586,-6.169013247873464,33.15658910065578,3,S02
4960,-1.4539323872695793,-3.246725283261429,9.337203617022753,-83.19614703160656,-116.73280441232177,36.1339344390233,26.260002218527305,-5.361925751065099,34.75370367391686,3,S02
4980,-0.9681398927182646,-2.8593031109093823,9.480540013317478,-69.02703577782775,-107.23029188306899,40.143684278982775,28.241947640512628,-2.1481161417301555,36.26325790936967,3,S02
5000,-0.729075210507339,-1.7468084259969316,9.503492993974671,-53.84384132104879,-78.00884502009033,42.11091515592677,28.48215920541731,-3.633041635795866,36.766369389996576,3,S02
5020,-0.22588816261640446,-0.561504139159346,10.02728047264356,-18.05756208243963,-20.498799616824154,42.41275042830869,31.98679943039621,-6.8898335586130734,40.2144372634081,3,S02
5040,0.5920713108232091,1.0094957877178878,10.615113896496423,21.571576506372118,38.85577109090147,25.25723843699457,29.787839064738954,-6.132773199799682,39.52439328284396,3,S02
5060,1.118257093733285,2.2453445358528485,11.69028571802668,58.333163147974915,79.30075508316513,9.65903734110499,34.278883848914674,-7.655059083855724,39.54858511559398,3,S02
5080,1.1173741642087933,2.616196853487797,12.784944363361413,68.2720657889073,111.09803144483058,4.350648061631443,31.430577342348357,-10.745781196212643,40.17456333173839,3,S02
5100,1.4792593183589278,2.8879420475323014,13.142717066915221,58.798201996856974,109.36141754110395,-19.92196160862153,33.70995880218494,-8.460004468244769,42.55021905367129,3,S02
5120,0.8720444694667949,2.1831660259969605,13.451265048171386,52.889118253073356,83.0011234537794,-27.84489377852107,36.929647256990336,-12.445770997010795,40.37577210238001,3,S02
5140,0.5333190471740514,1.512691391069184,13.2830384410462,28.084356965005508,54.47557257697235,-43.68825230149048,36.258795251964955,-14.603740509587254,38.79136534282209,3,S02
5160,0.2707568196859766,0.7360460560712832,13.02129419204685,5.242560417327073,30.719806436704204,-43.74627876000681,34.16784273243057,-17.29038559713397,39.936626184394285,3,S02
5180,0.13641765344466888,0.21887617985699898,12.161072177120644,-0.3201917713578015,-3.9417744283652185,-43.326034124570164,36.64746277293581,-17.45565615646578,37.73128421847162,3,S02
5200,0.3291876625752405,-0.05379238050589402,11.644041622876337,-4.832946617809057,-3.5595370972197244,-25.63813017758534,34.14887570887024,-19.914131970099263,33.51925552529568,3,S02
5220,0.15982110411488526,-0.5190699321719522,10.520957154177193,-9.567307082572604,-22.693786324110814,-11.55635812656333,36.77681480808215,-21.301332575631346,33.635312191454275,3,S02
5240,-0.20043031319454033,-1.1342522084290647,9.848881263660704,-24.489018287218922,-45.8699028213875,3.2919995518930887,38.52627292862943,-23.317439069518514,31.494629900707384,3,S02
5260,-0.3242163114100104,-1.9801244068711132,9.3622607173651,-47.83218669564065,-72.0834732593034,10.117001940174022,33.88981583798615,-23.567338871508465,32.604038667837145,3,S02
5280,-0.8975723686049509,-3.000891276116313,9.127251906648416,-66.6027023514145,-101.0215089103626,28.580410237757132,34.866436395239305,-26.929686061304288,34.69074151885681,3,S02
5300,-1.0791967214310567,-2.791249486116232,9.154759702347203,-70.82395253672546,-112.29005269801851,39.48766480897077,32.507155418768946,-27.16434084282004,32.55172763281437,3,S02
5320,-0.9991534279442446,-2.717488331497702,9.368940138350775,-68.40240608531612,-100.82611015047743,43.338019258758806,34.04060904920219,-27.99919332989765,36.99254575764105,3,S02
5340,-0.9297849918402715,-1.5828857872119588,9.238740217037348,-43.13261520932539,-60.09195392396973,47.001515607182284,34.26873959461346,-26.98676492846186,37.68997859947029,3,S02
5360,-0.08855527364914514,-0.2978547896122084,10.14229181427156,-11.149568222829878,-11.360433240799384,34.96715709488827,30.619909776885468,-30.119565276790286,37.11237081474156,3,S02
5380,0.5902176860239482,1.4959979735631972,11.341310517248164,33.40649065286584,50.13051202023914,21.26135388972724,29.18769336509628,-30.94848943465597,40.337022328213806,3,S02
5400,1.3895048232243596,2.2858446068514464,11.93912317796966,63.484338558723124,92.0660178528404,6.4315118493688095,30.725278542608915,-30.258636163534618,42.09714637489927,3,S02
5420,1.354576562903355,2.9835933672774706,12.842623633810694,63.14845092642794,110.43685342527297,-5.935223267347181,26.391750325653078,-31.120633757787925,42.712836022507354,3,S02
5440,1.1530599661067114,2.5690553596552665,13.370198383791005,61.262876974482765,103.15808449937659,-20.712496895418457,28.268372188402207,-27.526539454757756,40.98894790287162,3,S02
5460,0.6930071831098394,1.6886514863689248,13.144523039103715,30.393461981742615,72.94654457071448,-30.737228850629542,22.93791151417154,-27.324282361688244,40.958138383105045,3,S02
5480,0.5678265622065399,1.194599280538514,13.573777880716582,25.355451293454205,61.995585499911456,-35.601097015540454,24.283646607094365,-29.98463898870567,41.91133407962591,3,S02
5500,0.2898225422560479,0.33700634111431405,12.67300589767081,0.344439227117884,22.18798326463315,-39.477202588494734,23.192420291194125,-28.400064046244758,38.16042291300453,3,S02
5520,0.1601231256241437,0.09400911154342634,11.871250710223018,-7.4635386955588725,4.944165409393001,-37.54974174483196,24.61132647774708,-22.421486173800705,36.899484206626965,3,S02
5540,0.40198689497380236,-0.346406107584566,11.11982040290815,-12.534975579423502,-8.63579684488718,-22.58386311881709,21.490080778365744,-21.655266065622257,34.076844613203406,3,S02
5560,-0.14640178743494708,-0.8177376071773679,10.542132260984861,-26.16785620974582,-30.547400958471282,-20.38731657033153,19.637344116711354,-18.936314645057326,34.50538240665521,3,S02
5580,-0.17761827164421964,-1.4193245196295385,10.07520682910485,-30.401845396023777,-49.24609538483685,2.043134406758718,22.687481928548486,-21.663918753503665,31.897038203086318,3,S02
5600,-0.6309562969484408,-2.0599926080165702,9.379563265576293,-48.5343631577793,-85.81265558464243,11.432382095398133,22.32678733263446,-20.19757384149012,35.01281107951196,3,S02
5620,-0.9491061451935822,-2.652993949951221,9.133483192501004,-70.90317570398578,-113.55651780096038,28.243659995275696,19.16316258187002,-16.05284155092479,28.50188377773236,3,S02
5640,-1.2193616241130907,-2.7971582296602393,9.22729963400483,-80.71117332433847,-111.84924551431901,31.75398873137906,20.45106385698498,-12.29119736065001,35.53407454775113,3,S02
5660,-1.0812934138693038,-2.415592989850892,9.568134670133066,-67.5874333286362,-105.02142605806675,41.93106910234077,21.70427799084985,-11.295561922112004,38.2930751831401,3,S02
5680,-0.6688206741923798,-1.4640027873273058,9.755423033768412,-39.1172070196245,-49.794221852474976,34.084326799775994,19.874683026832187,-8.251990567517932,39.83652425585057,3,S02
5700,0.45242184932698803,0.32123124320411706,10.380370222087969,8.501897073337972,-2.894864136089409,30.451468329765923,22.33794277707797,-9.06210172707893,37.89509851209813,3,S02
5720,0.759517335382574,1.5849774467683488,11.103441502303061,43.30942727817281,62.11190742097626,17.791061338464477,25.180832610987395,-7.479180356490668,43.06551743046515,3,S02
5740,1.4813128529972215,2.5728846197782755,12.038028657556394,69.63541045165508,102.42797643636595,-0.8728004424389965,25.94170802164811,-6.652260583812821,40.53819170220695,3,S02
5760,1.3779937822212704,2.966994801952785,12.759385932133018,53.6448841839124,122.44643768824204,-15.12584813417422,27.99403454901197,-5.786553390962131,41.8481197514501,3,S02
5780,1.1741299574677522,2.603855480784581,12.897677897977282,61.61144987473581,108.65648601384657,-24.693387175992278,23.915892329769836,-6.150803705477474,41.09197976806716,3,S02
5800,0.6213282947231696,1.8818839104634444,13.097397879622035,34.19288413673658,72.78388759107335,-36.773174942729035,27.192274221348644,-4.967214179167971,42.37952040702616,3,S02
5820,0.5091004858015962,1.0180014962604713,13.106881224349399,21.82875732470351,41.68011360063299,-28.381858814990437,30.325533757179265,-7.923546838736118,40.67732186288715,3,S02
5840,-0.24984315017816447,0.40022900319863103,12.606023567824119,-3.925302954693544,11.7731929882409,-39.94283125127901,31.54979106882102,-5.523260710322372,38.89105771625081,3,S02
5860,-0.03465069289111242,0.10683216175808002,11.942735237683417,8.521006335523325,6.561574663543911,-26.051183412769813,30.965035387429037,-4.512718877322072,37.575145257088586,3,S02
5880,-0.0616460060181479,-0.3142376088058707,11.063903436430424,-3.007252162422229,-13.576776326345144,-27.568197081289277,32.10342375703253,-5.683372941452003,36.29728139429139,3,S02
5900,-0.2867941794008898,-0.8934882397885955,10.541616306433307,-16.980444946841196,-42.04519239802604,-5.473874376358689,32.176527802598855,-6.866729906475295,34.422457191965634,3,S02
5920,-0.32908499828379434,-1.5968988059335087,9.929691926006234,-36.34188308902053,-71.88030395101693,11.029261953467953,33.63693169602618,-10.227644564236659,32.604694184995594,3,S02
5940,-0.6554855382209618,-2.071882763445022,9.253104069491815,-54.163234180511914,-89.67329424792258,29.300599085624988,35.47779759235274,-10.668166387734086,32.458293271950815,3,S02
5960,-1.221652686606661,-2.657545665313748,8.932128011797088,-76.69471468455232,-107.58999573555751,35.86790270635299,34.34918809812419,-16.11811707810199,34.23352148226245,3,S02
5980,-1.2159377244935798,-2.698405952246448,9.20614844506158,-77.00770513454121,-119.58983902570469,48.29481590817538,36.33428357505487,-18.271656742506117,33.42697726019014,3,S02
6000,-0.8876446701074839,-2.3494383292819143,9.683018983964363,-63.00191833241141,-80.81443013239806,45.411807261956014,35.68469034700592,-16.52545588209656,36.2116981771173,3,S02
6020,-0.3701441399516159,-0.8213980868880648,9.831303624031941,-35.18231015274448,-28.689435727246785,27.215231251104733,36.851088214353766,-17.954042283296218,39.909864881956004,3,S02
6040,0.28907906712246423,0.46855999730649617,10.69368518959952,11.464283757658631,34.75840725656961,30.796158226418807,36.61263292663418,-20.34455288100412,37.63049822059635,3,S02
6060,0.860992515103589,1.7419471372322934,11.441822376095303,45.47340308258705,80.84675244444232,18.1426554780755,36.20963020853304,-18.609315752380553,40.155740364598906,3,S02
6080,1.5212533429187136,2.8037111865138953,12.570216480039909,65.7642775863556,103.42029598823329,3.762168779696166,37.187563095944085,-21.99304059891488,42.244873228681506,3,S02
6100,1.3961094712284152,2.6958576123339806,13.385356941151246,63.06295651772835,113.08083135692482,-10.101537149982002,35.86233372439769,-24.86429820742801,43.554564238918786,3,S02
6120,1.15471553191525,1.8014099300495476,13.467576069562778,57.08874414051566,89.4481577199279,-32.6874386232524,35.18271904227023,-27.079827605772962,37.19803397552764,3,S02
6140,0.6500717810830542,1.5813602978838182,13.108369370534312,35.7580107865672,69.31037207946012,-42.668530279873686,34.14746144985311,-28.545325055725176,42.4866679377384,3,S02
6160,0.3412761515415984,0.6275423675378435,12.96392843366113,8.044604581208237,42.36440526293396,-40.053441578795706,32.579170345188146,-27.138416909344198,38.36006405013183,3,S02
6180,-0.14788374113735023,0.2334054328249835,12.760364992575026,-0.7105978647318993,14.021496284103101,-47.51447628683119,32.12223973054307,-28.936610428751884,35.9066342453071,3,S02
6200,0.309564606026912,0.04492083398775826,11.555831853623069,1.6966362582549666,6.043320968088252,-34.32427503497665,29.131404473453493,-28.69346636274965,36.321836253475134,3,S02
6220,0.09648704181316747,-0.3764583658400086,10.813775383529592,-2.2817718446868422,-20.2408238119499,-20.7822053918163,27.615803273921998,-26.626977363161362,33.118234707008426,3,S02
6240,-0.1324432631083652,-0.8326468611283484,10.086006606921906,-15.837386209567487,-43.26464761749032,-11.800371555275392,28.940577788112787,-29.625501608761134,31.53703106763723,3,S02
6260,-0.8139462137290464,-1.6052373926872048,9.514602429037547,-35.096539749441924,-61.32251502396046,10.338103422442911,27.84376872649309,-30.524530856308058,30.320897230811592,3,S02
6280,-0.8220256651456416,-2.5955088351761075,9.29796008961784,-58.365258749320304,-82.33415379058683,22.905098151334965,28.098574654528036,-30.606962763960034,32.5016694827182,3,S02
6300,-1.091484621403302,-2.8562627542026613,9.107722143898721,-75.94289591303762,-109.8021791061293,40.94188570810283,24.05791523139499,-30.79654592862005,32.32603067248926,3,S02
6320,-1.023269422679241,-2.8937460998515663,9.031175621300482,-71.75171641773836,-104.86516511008394,33.211974268193586,24.27763917896234,-26.577623353734467,33.994966745612906,3,S02
6340,-0.6974303186491165,-2.0846264868935904,9.600671768757644,-55.85290073443761,-76.93233693887493,35.72870970920089,24.57373442741874,-23.266133951415522,37.80015691173112,3,S02
6360,-0.13615138770267804,-0.5995096895130434,9.858181959729645,-27.427236331478756,-12.958526299713688,32.61915780250223,20.668390268641936,-25.26124560391132,39.033026311271776,3,S02
6380,0.6301129934222776,0.6792422462641061,10.870445914872755,27.45895176103123,38.879235242528594,30.05085748345194,21.29036008681956,-21.900766920961008,39.33061515894209,3,S02
6400,1.2149978406903794,2.002976953744312,11.903004421332406,61.20005584007684,86.65600447223129,10.036790536382476,21.095814958533794,-21.541288895626877,39.79879659312087,3,S02
6420,1.3583661030463057,2.709083418698753,12.404738754863374,72.00417179231387,109.60487250621955,-10.160497040407323,20.458788188009223,-19.739376278325246,42.1971335147383,3,S02
6440,1.1299823500559474,2.739545594738682,13.041176575565776,57.8413743053722,109.12846558582604,-15.287170388719304,22.145597112813377,-18.977814990525374,40.94987007514649,3,S02
6460,0.7803928947120311,2.06928723876841,13.401704678885071,55.905731421050795,85.3824553551967,-23.035026934205817,21.00756169055554,-12.72590577486432,41.554216732906184,3,S02
6480,0.5718129749904152,1.4174765949852526,13.341989140604769,18.82376768401326,55.92402462383756,-42.144852007393006,20.405741920725724,-13.077520607897485,41.57147939295335,3,S02
6500,0.27984601115440894,0.555228565002444,12.669469497354433,8.954135711147512,34.324210141634424,-30.65977432414691,21.222995427640154,-12.231279255765493,39.43037359625027,3,S02
6520,-0.09651990409771008,0.007373930692808575,12.00164349332455,-2.3415055356012795,17.736278778045396,-32.36807458509055,22.220315781702336,-10.457920396442441,37.244526632139,3,S02
6540,0.08706084230143636,-0.062399682962591324,11.470679069164879,-10.48968812683137,7.721106998125211,-24.556422516511955,21.613233954065095,-9.674047128007386,34.799930885861784,3,S02
6560,0.3226365071340426,-0.6102371492941474,10.680703470633633,-6.634785302684608,-23.33119742916529,-9.109860766573057,25.35849183137666,-6.343187999756965,36.18590464770547,3,S02
6580,-0.276151991838121,-1.0987526560475238,9.893087850041638,-22.173323792412067,-46.66589746474766,2.5761706758798413,24.60999267222309,-5.880205021889448,31.998763337415067,3,S02
6600,-0.6747068942134805,-1.845440026821544,9.309709583940128,-52.21575646898161,-68.77791410082256,12.398996519715842,23.750442405465783,-2.8320123692746284,34.89644381804843,3,S02
6620,-1.131300288738488,-2.7271319479433394,9.203769167000063,-70.08411243253484,-103.93576896116106,31.942392437664612,26.1877891782843,-5.445538122460253,32.369946614487986,3,S02
6640,-1.0614556171682983,-2.848252643425067,9.156927240813092,-81.43709474060535,-106.49250458362353,37.207263486490284,28.59485334690968,-6.605007202637199,32.79021174062316,3,S02
6660,-1.0192232154986398,-2.5698786611648385,9.291863051753504,-77.27471455017135,-98.4288632573546,35.6390793827534,28.912411217049282,-4.404557010412089,33.92419930305179,3,S02
6680,-0.6274102237561419,-1.7369193475734723,9.949999451499506,-43.05920890900918,-57.38267432498578,33.51428133142706,32.49655647592613,-3.453809187147455,38.04147188137026,3,S02
6700,-0.11865126263532702,-0.3650237654849239,10.073690452835706,-9.573489357774656,0.9214882104630775,26.522927588041874,31.415765685924388,-6.301916534745369,38.39593180337375,3,S02
6720,0.4486215624896265,1.1333303881783594,10.65085118134468,19.872355105889998,47.148761348444886,26.8608247419538,34.161922980196294,-6.721157069963381,40.75545345650084,3,S02
6740,1.3038042397776395,2.312014449939836,12.135188370786441,59.30402004599959,96.4826368283828,1.726928930893075,30.55810854542148,-8.661789358313223,43.14952080654017,3,S02
6760,1.6587609769296678,2.805073189459866,13.046170453268457,55.362860382769284,108.07746947647492,-8.226874420061717,36.078187513977106,-9.734604390144437,41.55210566242134,3,S02
6780,1.1102518618200965,2.360554832607656,13.091170449345043,62.65528034508429,110.72884856492816,-25.526008168916647,35.65856164547384,-12.932298965032604,42.265463377062744,3,S02
6800,0.7507587128011699,1.6595219435483437,13.42950156354921,40.50901965021867,83.19882980567478,-39.485917010062025,34.112180282909065,-11.61713305811346,40.47861889273544,3,S02
6820,0.2514757057181105,1.2177862830236734,13.242647306846548,16.651244922876625,48.55244828319244,-37.435158225822775,35.939829880916804,-17.93643618586134,39.10326857201395,3,S02
6840,0.3696325361209005,0.531951826011029,12.842425356673456,8.327067464530298,32.50988387977383,-39.40551736491819,36.92388853059086,-17.562783529151407,35.09717127551846,3,S02
6860,-0.05493589168702967,0.18185285597346884,11.986656436531886,5.264119528821161,0.5435493048878908,-33.49097441713718,36.25239402558397,-18.756743699639422,36.041847679293866,3,S02
6880,0.023507510639317192,-0.2731312870562361,11.180079683758445,2.2378637503050856,-6.350560888675691,-29.344674496350706,34.74353214877867,-17.688782418009303,33.68910663179584,3,S02
6900,0.12061243840892533,-0.5196875820988686,10.313365380014952,-17.189855556836854,-25.532025305941747,-9.799274604533315,36.60082760535606,-20.51446256031641,34.96557990239519,3,S02
6920,-0.2027975714367359,-1.3382160813987658,9.742444338091765,-34.84363039459297,-58.57409883392931,5.7635644860493915,36.262745495095466,-24.181651995912,32.49960796995177,3,S02
6940,-0.5479897960938949,-2.1685366605048313,9.335786169714783,-53.1459573684588,-80.88320930131287,13.231905097382237,35.135604070349466,-26.45375176076803,32.01616860810229,3,S02
6960,-1.0040573813572664,-2.876334404781936,9.318117587866922,-71.73245295226614,-113.95469480474256,36.50223846687307,34.39411963409023,-27.072409486710256,33.30556317205018,3,S02
6980,-1.0707624243412952,-2.7910770526524877,9.253937708454902,-83.18671841245843,-115.61700732651265,35.61458525219435,34.22526170537768,-27.02339657505022,35.642052338408874,3,S02
7000,-1.0264234654865814,-2.4057159468162785,9.564000314409608,-65.81181914360208,-94.74007704518752,42.45715589932061,33.819532739857834,-30.244771765268442,36.55157896823747,3,S02
7020,-0.4345575384450062,-1.3922347184043307,9.930380114797634,-32.06493856579609,-49.61982298404347,42.539412058347004,30.096270951946078,-32.703766319563,39.96044411503891,3,S02
7040,-0.002575530960185979,-0.022604516821099284,10.160129293559663,-1.6618309585437165,-1.5339737610331194,31.52544744148657,28.144298657327674,-29.487790921428655,41.40200327241063,3,S02
7060,0.8502848274004747,1.5792015584831862,11.132028204078722,37.40483739079863,65.35898734331516,23.242090857739324,27.499267322113504,-28.183595224888286,39.18942006276696,3,S02
7080,0.9386149720594323,2.7580518255527307,12.148019103955424,67.62083095387284,107.07409044223756,-0.7356516407792691,29.350098262933173,-28.77673443598137,38.230307762430215,3,S02
7100,1.1170395111296718,2.6308083063927397,12.851385425508846,66.20235558619746,113.37058588007007,-6.70185403528363,28.025212807189256,-27.760200951086787,42.25176136155452,3,S02
7120,1.092549338086699,2.3247320518924983,13.178661933473983,55.36054553753602,101.65610668642556,-26.332388872153658,26.462144053020243,-27.794403003149466,38.89202428702049,3,S02
7140,0.6615568471178754,1.7286853687263513,13.023812455335598,44.58407579943665,74.36093149295782,-32.874550155281895,25.940258813035307,-28.51405507748113,40.89580753213138,3,S02
7160,0.4671115204342454,0.9160452096458349,12.903903076915519,7.522069506058071,46.366689651659875,-37.09074526177113,25.30411667939208,-28.077070030627905,37.121183250385016,3,S02
7180,0.178451782678491,0.28353775165669715,12.383663226377005,7.872511368519773,14.335222207222248,-31.144287867365474,21.169908729996372,-26.912939133322983,35.580621934111704,3,S02
7200,0.2728019990442484,-0.05661797965892205,11.94723299423577,-1.2289503643732607,6.492441228522015,-26.370744023876735,26.13430813453699,-25.420676624759906,34.80145453549092,3,S02
7220,0.13740273517074922,-0.2671642479251468,11.251909171042277,-2.2070305893675,-10.892561141313319,-22.33689175316382,22.148908578723418,-23.833389251015554,35.10788484162069,3,S02
7240,0.24003005561972174,-0.7966421704473192,10.189305503360055,-20.3581806919389,-33.56742492494305,-11.745601950494276,20.141269588355712,-21.378047956520597,33.81841132263254,3,S02
7260,-0.18924129230362116,-1.482514208644261,9.520865603277421,-33.30294427515032,-57.91432620716659,10.644405949591805,22.645042694527714,-18.258629214943134,31.74230675734914,3,S02
7280,-0.6539405218919023,-2.2257208184883774,9.315533943453064,-58.0584994979593,-96.21687294463538,31.259089017787037,21.131520313005247,-19.388755264328275,31.154201281373492,3,S02
7300,-1.1589944418972413,-2.9333861440554942,9.114475787543476,-66.31755617657707,-112.02971232869194,35.06214897897262,21.12965226807986,-12.391666241919964,33.350843792966145,3,S02
7320,-1.318643325429986,-2.8876291074628893,9.133776477561897,-76.54808052761932,-109.97004479593535,31.197728392125867,21.0884526954513,-12.600916411956325,33.284695049314536,3,S02
7340,-0.8159928198787209,-2.121265908320503,9.540675101023366,-55.797257783203726,-89.63346045583096,46.448008231571755,20.378333238357232,-11.24657728022558,36.148769143485154,3,S02
7360,-0.5907182189857272,-0.9040878576924236,10.070911308750794,-24.38677142042211,-43.62778672854389,36.73105803425165,26.974545196760126,-8.670074807221173,39.357457136658425,3,S02
7380,0.287626124438035,0.27437476707276437,10.557440501051873,14.784865761416306,14.97168220186039,28.913021288205172,21.35974479264467,-6.668571651752468,40.2257023431327,3,S02
7400,0.9482724542283045,1.739787832975131,11.610365830092423,48.56296199245454,67.2244712784249,20.01956204990141,23.597542024847854,-9.223846235305988,41.377026145030854,3,S02
7420,1.6568668425110655,2.7262632403679294,12.539041399078451,78.68785347772008,115.91335057888377,-2.9157040350833463,24.35351137661883,-5.696708158347545,40.84723509998016,3,S02
7440,1.41913204254994,2.8176279218127025,12.987000172537918,70.61485094554645,104.38891352287695,-13.42458288851328,25.609183749059532,-6.072512414311051,42.12316078608858,3,S02
7460,0.9089501242121808,2.3312236319182738,13.455346751239595,61.359152014594414,95.1127671469927,-31.479249082653816,27.508109985723767,-5.140617333104584,41.04954121338624,3,S02
7480,0.7119046053226068,1.669228527194337,13.478651936504528,33.37504838601936,66.5267457958102,-33.51637793031782,25.98733766914433,-1.3377882402887131,40.31348257868738,3,S02
7500,0.39654376925746915,0.8788581949812393,12.948646583203088,8.438969886414942,32.92985441872752,-48.545766547009,26.1863278917932,-6.0167937210608855,39.985807783259574,3,S02
7520,0.12517931422627282,0.24961439587640105,12.431421870678502,9.144315508656518,15.89841302461469,-36.62988240480898,31.42504945662478,-8.263729266370417,36.533368114765516,3,S02
7540,0.31061703785739514,-0.16327122269966438,11.579684822508787,-7.416033660850724,-1.552486485571663,-30.7353589801196,29.315855319898006,-6.483981838086541,35.054001783888225,3,S02
7560,-0.08411790019691634,-0.5095248333061484,10.957884307561867,-1.3700421610489375,-18.07445153480529,-18.450708984076574,34.4465440471341,-8.03619468580925,35.449303628468336,3,S02
7580,0.0780642694948367,-1.0754523981699904,10.310713263506425,-13.64846656896735,-39.765984236412535,-11.555302450424525,33.14040578992288,-9.144386901984138,32.1588179304276,3,S02
7600,-0.22601147326776275,-1.791538786124822,9.803144911621581,-30.960118927161098,-62.33529519687173,5.428833787589797,33.91249654641309,-10.425723070195358,34.353973773700304,3,S02
7620,-0.8683339100918719,-2.5892822134206437,9.309292036826697,-56.353009370732565,-95.29445748138849,30.086417669489418,37.75826214038421,-11.384490209452222,33.968923100368194,3,S02
7640,-1.0516935337116415,-2.645769670773954,8.92890644436657,-80.49303639025558,-110.81302836008645,29.226058630235208,35.23313576278164,-12.291279812592224,37.42757569066429,3,S02
7660,-1.2176852585873064,-2.9680078997386534,9.41506928517648,-83.02728954652332,-113.01140441747685,45.82762431855677,36.46016653326958,-16.637935192433385,34.93135281620379,3,S02
7680,-0.9608676477290302,-2.0050399547875455,9.496874403979433,-51.80597938964913,-73.38003878214538,47.28887190845719,36.56159448684775,-16.09492101350888,37.50628306143287,3,S02
7700,-0.019871459768935798,-0.5590324299176603,10.075751771807406,-19.56422968852198,-26.502803999853214,26.193338613270306,32.746572133225996,-19.058032145675895,37.57219288830499,3,S02
7720,0.5742163416204051,0.8730236502733684,10.906047143980743,29.003267261718836,31.031422609446206,33.61439232011287,38.02379473288542,-21.398872733247444,38.16896305388783,3,S02
7740,1.4498480799609612,2.079784771798901,11.737965142393108,50.23233201180032,86.79024384112422,0.49447292354573624,39.05997627274081,-23.681322164583236,40.167582122359725,3,S02
7760,1.316279583017206,2.6256057039589913,12.359537205706754,80.9851655922177,111.66232064252269,-1.057685746966356,36.43723937336526,-24.99054166121227,41.05432404883591,3,S02
7780,1.3865426825800902,2.6428551161043528,12.856238940263347,72.1460730215262,113.81940984891324,-16.170527013453253,36.44374677177507,-23.041658820468612,41.92445037926844,3,S02
7800,0.9649623666752499,2.0253303277193746,13.303515105006941,50.297668044402634,87.9467128489593,-22.525818033869903,34.19382768525625,-27.364811944012327,39.496440430699515,3,S02
7820,0.8857342093967788,1.4205675243823015,13.31293735930125,29.61928179293025,58.316025104511375,-34.68435226900404,30.826547346995497,-25.17618679353071,41.11892535779642,3,S02
7840,0.4609530531437348,0.4439821025192679,12.857118236514916,5.744085977965693,32.25579137446673,-37.2103583148396,33.77047533965533,-29.314259895551103,35.4556167863932,3,S02
7860,0.33994325812225323,-0.09109330791091247,12.26837124351368,-3.6278333803341845,5.979072829184699,-32.98277317831293,31.674535783020723,-32.47259970902421,36.10532596177971,3,S02
7880,0.09532473030426115,0.014905493493231364,11.247591224835052,-20.007614457671327,-7.466541093032084,-23.760495049393818,30.425769339670097,-34.45133924758156,32.34008561108352,3,S02
7900,0.18023246999883352,-0.6228944105388152,10.768228969833245,-14.980681593593925,-27.905183710683072,-26.04366900372073,29.42687344748489,-29.520353555256545,32.74100526323798,3,S02
7920,-0.18023138706943623,-1.0960813723160057,10.148100177449429,-20.319903411776913,-43.95317932032763,-13.155264869691443,28.336994974390606,-28.90152120121619,32.60295992300064,3,S02
7940,-0.49092889886920676,-2.1726344250447505,9.516627853288385,-47.18246923136304,-85.67365880227227,12.846607983540062,27.36680978906484,-27.629695393078382,30.732442322107925,3,S02
7960,-1.1426923307065158,-2.5629406023523074,8.88169287604801,-73.94435403786753,-99.52189583318211,18.88289114770003,26.457960361012454,-28.84799734961926,33.21049090029252,3,S02
7980,-1.1546578932254827,-2.7990744220919708,9.093047743448016,-76.80963194632193,-115.14883528401846,38.867027259233,23.83357813996249,-26.68479537547417,34.124461002569824,3,S02
8000,-0.9447656499156897,-2.3379980836197523,9.249112694030496,-71.14701311288414,-109.5773364086315,37.16417284885717,23.110846541068582,-27.024045507206583,35.862329415200776,3,S02
8020,-0.6918229033481028,-1.635004281979907,9.565905336119373,-54.508837703416674,-53.13968834589944,31.858517520987444,22.539601012112556,-26.945972699306953,35.7442250386179,3,S02
8040,-0.020864562740495488,-0.3591168364072703,10.292595229124652,-11.423980339947839,-2.010977776354964,35.15226005143408,21.546114051032,-21.502072940103616,40.990597373675996,3,S02
8060,0.6339193440435419,1.0877176192346076,11.199845318904813,22.778374026188516,51.335593198362496,25.499240757005182,22.116813680015238,-18.946749020829053,41.54199864131699,3,S02
8080,1.4219367119051431,2.466560255370575,11.795932507844695,57.625663127175876,89.80373174185534,-5.840824560314845,22.25132391391679,-18.144868911961996,39.109506974342224,3,S02
8100,1.5744427231497182,2.8859220369885916,12.583692245839517,63.22900680392408,111.66249542568622,-2.884962598139309,21.787314455867758,-16.94963861537755,43.86053123115822,3,S02
8120,1.2072415551991107,2.6011155952573053,13.260362889581408,62.967734626245985,103.80679613923553,-15.64019737506372,20.978615075056027,-16.87654505706836,43.623443101755115,3,S02
8140,0.7329866595196691,1.8910768501340556,13.03936589531271,40.531626416583585,87.65572385478198,-35.356477130501716,17.90881971524511,-13.5615288774687,38.85287229985927,3,S02
8160,0.57391149047016,1.181435481930258,13.289424772700945,32.08756450828239,50.82118862726439,-36.58423783088658,19.27026025516013,-11.161502172938548,38.85409396017919,3,S02
8180,0.21617877191704504,0.48651501391414437,12.759927366328991,2.5372082563474745,24.311186149817352,-37.48334866163027,23.99979724907265,-13.499072065935016,37.275789056984216,3,S02
8200,-0.02667418079285705,0.11914542881932183,11.95941542383985,3.7020387189274695,4.640266279993059,-39.3368761102079,23.92055345218925,-11.478107186901543,34.203896515986536,3,S02
8220,0.19818392767295928,-0.3768116899068991,11.272083241801065,-8.987522710548298,-5.573221374718701,-21.393428020163277,25.300214972876127,-7.620185336358731,33.80103462582696,3,S02
8240,-0.21113319665500416,-0.6050750177397677,10.663865087520026,-8.435289771881795,-26.841153354454583,-6.221008088257154,22.71321733018221,-6.669670183533176,33.423686763311196,3,S02
8260,0.09215828363368397,-1.1443532750994898,10.09531595043862,-32.13625969779673,-55.6144699779861,9.304470891235592,27.669922340815265,-6.493772299113118,32.75734882039307,3,S02
8280,-0.606697534932539,-1.9509651797604104,9.440529915927218,-56.46906531774605,-75.24023056207695,14.641208637487443,26.93433395626231,-5.465952296471191,31.186061621278043,3,S02
8300,-1.1167892647327156,-2.5378321060541933,8.945941160645198,-72.2036319242365,-99.99037610795635,35.81674655270988,25.389232637971297,-6.357662074221554,32.753498904465545,3,S02
8320,-1.1382327957301577,-2.9463420331867516,9.03457777700462,-73.06022661482237,-106.72260065281532,44.43760433351479,28.70963496924609,-6.1959193639248165,33.604312675748254,3,S02
8340,-1.1085883800600052,-2.5131723696076174,8.91056193194069,-72.24173873419282,-87.31085038710616,34.12905168712824,31.985238176524614,-6.533974673104176,34.076638717877955,3,S02
8360,-0.6353645277937066,-1.407917272824125,9.676842391998994,-35.930357985300844,-44.04909560280404,44.81386221669492,29.490221429488553,-6.501469832743446,36.78239496859819,3,S02
8380,0.33378110520013443,0.11469420755673967,10.241952766814114,7.8718042412288005,-5.0221451490757,25.80465318234561,31.874600581415525,-4.519997140811425,39.020275046032154,3,S02
8400,0.8453809296527718,1.2523406103672563,11.386303826618,34.321883018873,59.24439691977116,16.42378092287803,33.169975931822194,-7.206157756613276,41.06657493019532,3,S02
8420,1.3810473003871158,2.3886630973137457,12.15592714229734,66.80961568049989,104.8460068506579,7.812967709847341,33.44563221032493,-7.520294392445127,41.455443114123476,3,S02
8440,1.2929400066310062,2.864783906496034,13.01122173047621,75.3317478449534,105.84169115804663,-13.563099384800422,34.24190393713592,-9.556937182460846,41.43264353582061,3,S02
8460,1.0504771476155657,2.371061411815852,13.18318560844362,58.070068214104,103.66664284616759,-24.686096241772066,35.428837668832614,-12.396485709329959,42.98294348315755,3,S02
8480,0.7145565176945031,1.7715893380227252,13.301028515898473,41.53426646770459,77.58384587932193,-34.83551817881151,36.47261095904571,-12.734162424124204,39.6210565160384,3,S02
8500,0.042750798919510676,0.7959547260280075,13.014589205005022,12.594821381956482,37.161344934479594,-43.07851313082903,36.0787656427591,-13.792072212569398,38.871555985330986,3,S02
8520,0.0030599815106669426,0.5632173571914487,12.30713739247291,1.473416446581477,20.53119443381617,-37.12187144060997,37.19612998071639,-15.038601920469617,38.440008795440555,3,S02
8540,0.25554480891917963,0.1980163481284351,11.738688057636072,0.7832558649862325,12.889439445065262,-38.68999498201518,34.82967612898174,-18.227545583884964,37.10046830729882,3,S02
8560,-0.12549481883024174,-0.3343945708842671,11.125994541798953,-10.133846062961094,-16.07284449494898,-16.642027520942555,35.93343957029704,-20.99527074404354,32.76352321796375,3,S02
8580,0.13942585860583645,-0.7011016746775081,10.389498291528168,-13.742797080000209,-33.31944794066274,2.0006089960290585,37.921506774226835,-22.284406033202,30.847836843694424,3,S02
8600,-0.4508920743949515,-1.647639408277247,9.942400313747443,-33.306126806647804,-67.20578253214843,11.052744285184891,35.28898388186815,-23.439904233305388,30.937988850283507,3,S02
8620,-0.9476132852706446,-2.5908053603752887,9.199945022189743,-48.77376595748543,-82.95723877357753,13.81005994369859,35.66371102986826,-24.237894181340877,29.07977898265773,3,S02
8640,-0.9899924332717281,-2.837962269507571,9.043528144274228,-73.17160419325873,-113.33403783576006,30.632623472682326,34.232751882908495,-27.109732149035484,32.35516460148729,3,S02
8660,-1.3381594911461057,-2.6888775815713917,9.27125682616392,-79.05926784554211,-114.39891290747302,40.719806211081895,33.35593027023468,-27.596296137251095,35.403412337381155,3,S02
8680,-0.9613480489918659,-2.2517245953547134,9.455308043054625,-60.0561945297139,-78.97082457942564,41.285010116673526,31.795102291384563,-25.71624761814792,36.753773329579055,3,S02
8700,-0.29056052235690766,-1.0820891656775744,9.516125666030426,-38.45659543515403,-47.389715039014156,40.10661683498571,32.23811336077394,-32.06957684023796,36.90904478396759,3,S02
8720,0.3177044064751632,0.22943981823435383,10.395039105753709,10.285518906937092,25.90181043892723,27.23225864075763,30.060396145165672,-29.491115958050237,39.01802276364221,3,S02
8740,1.0410173511232792,1.8169288196418807,11.659395052697882,43.2776584912664,74.53058131903798,24.260318377624962,27.123283179551493,-30.303377962896192,38.77531412329463,3,S02
8760,1.2967461439497936,2.75024626034851,12.32783831430113,66.46883745139293,103.34092883580387,2.9062008165521536,28.83945709955039,-30.55591517636976,41.932486330665476,3,S02
8780,1.517631889382732,2.5035898354910286,13.013770297738999,71.84726507775156,111.24852084078377,-3.260921706221722,27.35227564424282,-29.303060428143546,43.10705111410199,3,S02
8800,1.1138005910777875,2.343591468366096,13.158369700749832,49.47180909287191,97.51313524228817,-29.043386469688855,27.137723875748883,-27.663771717163847,44.00939637059584,3,S02
8820,0.8961144330479164,1.6045329962863328,13.276298365764056,18.59190026343492,67.03591769634473,-29.038530448763275,24.32888538036689,-28.341356416235648,41.67903943442456,3,S02
8840,0.3346493549093439,0.7935930432237586,13.076210700075924,22.002561266958235,32.910474534902654,-43.73511386281678,23.315304425060205,-26.300383918069116,39.68295784073421,3,S02
8860,0.47031824055907323,0.23444739516377744,12.384655088150826,0.9512171502320959,14.205717534022764,-37.905110341692236,27.365658636397345,-28.38318433851317,37.82185655454927,3,S02
8880,-0.014956125949088711,-0.04115970652010101,11.650627528065748,-13.50800772118448,-1.6723927396049618,-29.144278780696105,22.682517591273893,-25.350597790758606,33.73781394165816,3,S02
8900,-0.02348881028783853,-0.32913296541301873,10.959553463895244,-7.71790323417193,-15.703431163683433,-22.322944607115566,22.94813714098582,-24.361989956955483,32.88531346995214,3,S02
8920,0.09121353180547133,-0.9673922625424707,10.031064479611302,-24.307620991444658,-42.79995283602413,-14.882949615014295,21.609186640805873,-16.825102115656442,32.5842110008638,3,S02
8940,-0.4342108764791557,-1.4310082257124206,9.675464999044397,-39.66688623381298,-57.29402767205592,5.957555253045695,20.491819607570683,-20.639919314126395,31.22594812937721,3,S02
8960,-0.9039948232703662,-2.336635767186124,9.227523436498585,-61.668730764910336,-88.92780894443102,17.076460938276316,22.17466268595374,-16.521583400515393,31.46150692484299,3,S02
8980,-1.629692957589395,-2.8234934149648296,9.29405739150183,-77.34656445639469,-120.33106577581356,32.30846907899215,21.538199076051974,-13.106315665856567,34.35242031399187,3,S02
9000,-1.2783888975213407,-2.7948395610873935,9.250150268552275,-76.94628487778316,-107.73771743651734,40.97069281182586,21.991547048439386,-15.865353999068248,35.169831452749136,3,S02
9020,-0.7524904640014245,-1.9293619338863295,9.322863280087079,-58.23106222835359,-78.99880895764518,52.68264199515122,23.273214454677422,-9.935087288307116,37.550847500553466,3,S02
9040,-0.2790420007590212,-0.8833076492289691,9.90890675030911,-16.859432369593993,-27.809190194993104,25.579228719976467,23.562733227811613,-8.937262656973804,39.20245997813889,3,S02
9060,0.2883305234530757,0.8213975997220753,10.714744623758564,19.31737089189735,30.659083414356342,25.488427913988136,22.422129221970344,-7.83281486782269,38.91688247612877,3,S02
9080,1.0092779808108456,2.1675358034787235,11.644841013937521,57.50204369833061,83.82782095900998,11.895215772581558,23.071257811546147,-6.349981850982304,42.61658146512535,3,S02
9100,1.0849547484425286,2.5704148263644586,12.58509820114654,62.10099665449627,107.41303572752915,-6.41293330962331,24.79563240099518,-5.261674762041978,42.60586055210801,3,S02
9120,1.0247046149693069,2.8636956890009615,13.357720478384872,70.4146862762395,106.97815968053496,-17.11702351507231,24.945794372988885,-7.575772746234278,41.57953736170218,3,S02
9140,0.9034927533550852,2.2067829146989997,13.110743074909806,39.887134977632485,87.3933725566216,-24.98930570924072,26.24951874071384,-5.590350860135231,37.972834645073675,3,S02
9160,0.5820026653136711,1.07223795130357,13.164154267019553,25.23532564666391,66.05901730421557,-39.2900970054193,32.13120561740864,-3.1931628333715922,41.314976783007815,3,S02
9180,0.4003708103471443,0.6869048716565045,12.645183464313144,4.771141273523226,28.43970038471241,-43.16765025192084,26.316911074751797,-1.6522379386219166,38.56634561625494,3,S02
9200,0.031027723565360724,0.515996719662942,12.253950380295283,2.8588517265153675,9.677042469379614,-31.111933007191134,29.429969221304425,-5.456294639927677,37.377023777229624,3,S02
9220,0.09796464802511423,-0.16704594134440942,11.52376581921205,-3.4143585132021306,-3.970678396384727,-26.65726200536487,33.32091999833612,-4.095989333233333,35.515340422635866,3,S02
9240,0.14932415879509703,-0.8150397373576628,10.808381665850083,-6.839020671616472,-22.359564548179346,-20.929379659708605,32.30418261326416,-8.353778312455614,32.77443658845584,3,S02
9260,-0.30093306794057617,-0.9649794013734665,10.022834867352335,-25.324006180978067,-44.7788238431539,6.907718131999976,35.675754801372996,-6.506376707025691,32.299212057141254,3,S02
9280,-0.2055391421366138,-1.759895249804798,9.527376143842929,-44.18628069130814,-74.05697467663325,22.545160083374704,36.97425312694584,-10.933877717637024,32.53219310880017,3,S02
9300,-0.7892930845664835,-2.7076497633660823,9.347988315114227,-66.03349599152543,-97.23320851707471,33.44332969704093,35.61560468066636,-10.155247129153558,32.27162083342465,3,S02
9320,-0.9861732872844359,-2.7088865970840366,9.317040216992108,-79.69225154161848,-114.18148706374905,41.20899201328128,37.07584737784566,-14.106583169584187,34.13900685330252,3,S02
9340,-1.1195316422643051,-2.809021240885769,9.233195946468676,-77.78924013290076,-109.217943221296,45.444417142963026,37.19874076206396,-15.484289478010076,35.07676805248205,3,S02
9360,-0.8045810665335072,-1.7724814787775456,9.84028079180766,-44.45018724356677,-68.22684692347713,30.450452318841243,36.26935694376927,-16.876195938110506,38.11547076019924,3,S02
9380,0.07444398052857584,-0.30545121808093717,9.720997978998872,-10.187466601151366,-13.782264265011422,33.38193586696544,37.13854638676224,-19.48972093735769,41.11619386440017,3,S02
9400,0.8223027828765878,1.0889376331141656,10.950702932878405,28.526797558286884,47.96452571610425,15.534636417554006,36.072488937488046,-19.62332755553322,41.4487233238975,3,S02
9420,1.462052632746204,2.5504033301590923,11.622569316324647,52.88407052705003,87.55932290123339,-7.525438143559809,36.03323075285602,-22.704709220030082,40.72851500924549,3,S02
9440,1.404694902281609,2.574607686071017,12.813157097647018,69.19191975456455,107.42080541228331,-6.825210773004387,37.51159711761923,-24.60492763537173,43.32513527909733,3,S02
9460,1.674517716610205,2.6442302908243835,13.492322157436876,58.75737694301757,112.39754248544902,-21.419513300340178,37.81153800927395,-24.527525315889562,39.03961195288092,3,S02
9480,0.688254156539742,2.063387025821077,13.09379633634332,41.362784740832616,84.68049818850625,-28.00911973303994,35.09483028027367,-28.550212090940988,41.387166101224295,3,S02
9500,0.7937235488647133,1.219046825028736,13.22044024175242,24.18938796258055,52.0113610158235,-38.0878528425341,34.008370322531064,-25.395907509631122,39.3330818791913,3,S02
9520,0.3225862497933811,0.5724405054256454,12.819221914135847,6.4137503266884535,28.294936605410328,-37.39905469482098,30.676173466135104,-30.856068604015302,41.39510574215415,3,S02
9540,-0.1795382083775768,0.3100040557517763,11.951490574663897,0.4044449152291172,8.692817913101694,-32.30053107608368,31.320810532466204,-29.1413957518338,34.879423751642605,3,S02
9560,0.10702090585410536,-0.3924510641002374,11.397271037537307,-5.497589577486381,-2.0092053928260425,-24.585442827142305,32.161039203372034,-33.182985704427374,34.43616137662718,3,S02
9580,0.098742644853009,-0.338459241010638,10.623940820003893,-6.551282510810169,-28.52438893320703,-9.824778482409235,29.291538521863533,-30.845118581168798,33.02734109325028,3,S02
9600,-0.08875236052518137,-1.1696837184215396,9.994008512894274,-34.24241023087119,-47.86131910548099,0.7184753578056259,26.50166627851584,-30.637727456288516,34.86376785378015,3,S02
9620,-0.31532884063078737,-2.190664436496132,9.365296549106212,-55.84829376636977,-84.31858261299334,10.018916376019687,27.878235776227346,-28.480430404569496,30.642421183319225,3,S02
9640,-1.0173652242659417,-2.6849940417410827,9.006748617717117,-65.10910370478327,-111.4467857663775,29.215693523185415,24.134989782173285,-28.95665479735432,35.98266091670118,3,S02
9660,-1.1910183295456367,-2.9705778191541232,9.293507840973213,-95.3324307852967,-117.35745981284848,37.06451050646802,25.051069199649277,-30.592597005755614,36.00825914094781,3,S02
9680,-0.9281645603839838,-2.641987068652921,9.4040141197604,-69.18321031640373,-92.3927196094704,36.32983313988376,22.57823584904476,-25.93243452011235,34.34137570420383,3,S02
9700,-0.7234946585216949,-1.1628426755633114,9.86684665806612,-43.0950980660913,-66.2798568474477,30.79060713648927,25.145413110450107,-26.599675586972662,39.05117985183946,3,S02
9720,0.1452602040485308,0.3126092588812989,10.212930267282541,-4.63913120568262,1.040762595092479,27.201379071073276,23.319888473162067,-23.581480613938968,40.29260071307578,3,S02
9740,1.0095504536100726,1.5243223682897167,11.08803876111177,38.14469136779873,55.73854247962845,19.461579288471043,22.660736401375956,-22.038671941629865,41.41210994350455,3,S02
9760,1.5017751062526201,2.4511336504872463,12.227784795602483,59.31857402682667,96.75270279487862,-4.192493356140751,20.575964972820064,-20.380656406994312,44.19824794062914,3,S02
9780,1.3989490668674172,2.583152560247733,12.634915870368676,64.45884496727518,114.33991353325187,-7.4763777191047005,20.470357067452863,-17.09358469774388,41.02696703771541,3,S02
9800,1.0562399123476711,2.543632326340089,13.093534255592626,56.15756071111016,110.84123723341378,-17.387007817515215,20.532780422992055,-14.616083577791198,42.21484727142888,3,S02
9820,0.6978281768631669,1.9084896870466783,12.912151139172616,38.620254096765365,81.32263943065263,-33.8065005268767,20.512030623564385,-16.45265191334321,37.37562875920912,3,S02
9840,0.4097616554810609,1.034406116273476,12.966912789917602,22.87911847283524,38.121416793882844,-36.311990034144586,22.60280982072573,-12.053446955890166,36.3930547941835,3,S02
9860,0.11209828797607159,0.27598224876197913,12.550677574269319,-3.6120366900705196,10.153438371943437,-32.63865904214642,22.97487407896857,-9.833221885803825,36.67917586042084,3,S02
9880,-0.015134977536827549,0.10239331977345592,11.958780042214155,-1.8761525537983905,-0.47294233439792976,-31.292517574014333,23.801732283902822,-10.718887651598015,33.04151038804511,3,S02
9900,0.13606890562047103,-0.23862553613707463,11.245672355419227,-0.32259215317687673,-13.38489481029087,-26.84365234059409,23.341944877973127,-10.216624637928575,37.01568573093133,3,S02
9920,0.07850402507964362,-0.6594017340258673,10.511894766917171,-16.48264322582771,-38.516825136025105,-10.91056468420526,26.33357067593672,-7.358915310689236,33.54253135282729,3,S02
9940,-0.24143814903769364,-1.5023552631608053,9.684373264000406,-29.95860280565314,-56.671554611023105,5.658640300689934,26.7570924468604,-5.093307064789049,31.2446366129047,3,S02
9960,-0.6911016288127713,-2.305896661702899,8.96835842322103,-53.99261788992197,-85.27879087794025,17.296468023187316,25.530546563599756,-4.438262177839567,31.298128088980114,3,S02
9980,-0.9827655507599548,-2.79463443482578,9.21982945078913,-76.89500919336412,-110.71712974842325,34.76540430382015,27.004554974211846,-4.9427512773564075,33.18250052324908,3,S02
10000,-1.2550482946777395,-2.9637565951040594,8.92129562129594,-77.12442021004523,-105.75429940210503,31.42748594006735,27.55428453916338,-8.028491099647944,36.008903647554384,3,S02
10020,-1.040743036245996,-2.262368562797512,9.440399902226355,-66.00848294281828,-82.89259003134167,37.952672428222016,28.62270940521026,-5.35348162322663,34.20567891138163,3,S02
10040,-0.3075808325392331,-1.1473472725236384,9.774897917819876,-40.42833042707704,-50.22704692912347,40.93477345215794,30.21289732645739,-4.558706675163256,38.49392640728071,3,S02
10060,0.420144609873894,0.4598911459857186,10.26658120614651,8.050081739083247,18.988592470426084,27.324918595206334,31.732042744232995,-4.627051659313772,38.92955331063559,3,S02
10080,0.9475293750049227,1.6439213352840474,11.52491567788791,43.343960618060976,69.2689158767788,14.120671926544256,31.107791059905573,-7.400353324164422,40.38780914167783,3,S02
10100,1.638652403807355,2.71846522436932,12.09662352896977,72.71707990245358,104.69445214244816,6.136811477564742,35.98059527534444,-8.841566051166875,41.76322597041117,3,S02
10120,1.494706735117122,2.87061437182513,12.784513920448129,64.61906184333408,106.95275575238,-10.362392455079164,36.15780362758447,-9.348267615065856,38.92439864242246,3,S02
10140,1.0223773582330813,2.2081814221088147,13.464441914946287,58.150982221114106,91.38904573092681,-29.17596993223237,36.27336341871366,-16.4011539032538,42.09203503966752,3,S02
10160,0.5702342344547231,1.645567738967993,13.26651885994561,32.28155435657454,71.22099013880592,-41.394596178209866,36.21819974096301,-12.673486638155424,40.31279818768348,3,S02
10180,0.19334582733466193,1.129040840826867,13.112271948740423,15.752571465289929,41.24088698939681,-39.73873943891312,37.204251793358246,-14.549068068256823,38.228484210220834,3,S02
10200,0.0588051783102718,0.43680703575370555,12.538023909758074,-1.5517853531682912,17.002443532417338,-36.68158204898046,36.86740092792532,-16.585892747511405,36.3863199226369,3,S02
10220,-0.06310061236339487,-0.11210966968187876,11.849184780526,7.180576623970942,-7.421119812835636,-34.751358252785955,35.57243589338617,-17.277550610029916,35.43638615202522,3,S02
10240,-0.15794398285923392,-0.3562314782580092,11.167734878622866,-12.665392577944868,-7.476641558074653,-24.288698308619846,35.69014238144938,-19.446599534186248,33.6721675045261,3,S02
10260,-0.2218387276534656,-0.78204337126321,10.1719557001085,-16.576868598918985,-32.90951313487486,-3.630391794109945,37.950465657707284,-20.503020344220182,31.341787001176574,3,S02
10280,-0.4371438445511019,-1.5880591051681539,9.995919740936827,-36.044954964334806,-60.231673028647904,15.834028046569873,35.225574680918534,-24.249855064256923,35.07059323933127,3,S02
10300,-0.7469089866290054,-2.4631177120518113,9.166449560113962,-68.87224860370554,-98.74476190505061,13.184728744549206,35.235642128888045,-28.141627678532195,31.934430937816355,3,S02
10320,-0.9663309094732334,-3.0040018689311423,9.0990156770212,-74.1850793092539,-109.64860837506414,47.909413484226015,32.21301163316127,-29.194153776031968,33.75352863861401,3,S02
10340,-1.2458412688721276,-2.7006578953061493,9.414806888687858,-72.13092993499181,-110.19818500875243,37.01174380398571,32.77321023834881,-27.250021484587343,33.89111705335429,3,S02
10360,-0.8027587557272929,-1.965494773079042,9.407926962899648,-48.53254988293834,-74.72396448755782,35.66017425824429,32.51672015348117,-30.66974829319328,35.75385083695439,3,S02
10380,-0.14035033430808305,-0.6001272573507903,10.156670981980994,-13.913242216228607,-23.22395920909647,24.30690198878755,32.8926078282556,-28.670058195235153,39.6734128879064,3,S02
10400,0.24794153418762419,0.7413582056646282,10.943215522291455,15.267862254262045,28.94991573687224,31.780386721783636,30.025298060038505,-33.27175662610662,40.132075867909926,3,S02
10420,1.0278231683566,2.029389581518036,11.534515116810441,50.68147733911414,87.48655027776222,14.794694755958677,29.166216656744172,-32.42945723266371,42.303165222695014,3,S02
10440,1.3285071323629756,2.746631460098795,12.619730291113799,62.49942822893635,116.71540987440369,-0.16540906484066087,29.35450647802864,-31.03479226003409,42.11340164278933,3,S02
10460,1.4298377794521693,2.910188873419806,13.106435635110826,71.02588554987608,109.95771039386545,-23.872185196992973,28.114082022007086,-30.924615635334266,40.87056175726938,3,S02
10480,0.8551110806077277,2.3459076834210526,13.405528265276537,43.81876017470667,84.01813422145744,-27.880261791735638,23.67047136162527,-28.077018041680297,43.90255878252268,3,S02
10500,0.595679001215599,1.3213386051299143,13.418648649664966,37.96527215795929,66.71873396583268,-30.208879648918007,26.004914465808458,-29.288350985554843,40.87464433814089,3,S02
10520,-0.03598456079532311,0.856644596249881,12.699819046449333,1.783306637519111,25.846691099755713,-33.530917531151644,20.26779373354674,-27.459516894515254,38.02788053229753,3,S02
10540,0.38956719097365833,0.2888914006821323,12.356121300104565,-3.7678292202831183,7.9352551978813155,-36.4247123972747,22.050285558130454,-23.458306608157788,34.67325857319761,3,S02
10560,0.05497741005191696,-0.29536648086589956,11.81055021266996,-6.652082011900378,-9.441913578016562,-25.729548429344593,22.534665956793805,-23.07473234211724,34.82389797965792,3,S02
10580,-0.08189757603733758,-0.4793124436703991,10.717510188838876,-10.277901399329771,-22.241715792696333,-14.856680647221795,20.413441972679895,-18.797300152521828,33.61822720834917,3,S02
10600,-0.11690430906648416,-1.3100407674802599,9.925822339238472,-24.443196007312682,-31.566203599755188,-5.32109861977846,24.53883278380325,-19.47581608726707,33.328302324740726,3,S02
10620,-0.3896313129927065,-1.8025200098715568,9.437596359531419,-45.27788381553344,-68.05332748350952,11.99333869569159,21.452341799362017,-18.042663032032145,32.82539812985824,3,S02
10640,-0.7542865831439394,-2.468601500069396,9.396859894623555,-71.43701414994293,-103.73047206146192,26.833877908394502,22.538706962107227,-16.8867017245186,33.84775039502331,3,S02
10660,-0.998220607578327,-3.1026742064850903,9.02234613699792,-81.32927528264486,-119.55517823502485,34.15596804427581,23.269276958075316,-16.78375897989748,33.82790430937044,3,S02
10680,-1.0433944186112734,-2.618984502904409,9.342165191720769,-66.75399380161348,-107.53444046694891,36.621426890099606,23.052760043563126,-14.468378189303897,33.53576919329507,3,S02
10700,-0.7065213536733905,-1.5982738646988779,9.605484329399589,-45.082948501797624,-68.82684383212971,34.957638300965506,22.106270717337193,-13.036598189570025,39.043572511048424,3,S02
10720,0.2158167854401269,-0.38326829396486867,10.14105141931218,-9.020491376741571,-15.86273029275624,38.61808442443302,23.943753308495502,-12.271729946075414,38.217929373111296,3,S02
10740,0.7752720027248566,1.1018120393488868,11.011944371384287,19.601516178844356,46.34449826139206,15.623861664149834,22.47161129671434,-9.960375501331846,39.97555968479585,3,S02
10760,1.5005977147190328,2.3036231840057066,11.905567538498047,50.02328106600129,93.26074396590367,9.043859051342487,26.735848805041204,-6.079583771320352,42.64159879018158,3,S02
10780,1.3398713738659505,2.540857285951711,12.601783299371265,70.64548359628363,110.191045341284,-3.6414801246038304,26.384692672074173,-3.334748100857219,41.92657586184996,3,S02
10800,1.1228799545028905,2.393716032147159,13.305064414957759,65.16228804185636,110.87605602744016,-20.989072027919136,26.353676023127043,-4.372766347876908,40.84000068270544,3,S02
10820,0.7927953082977984,1.894437107466648,13.228178187110672,37.877823348207755,77.61308724270013,-31.79375482871854,29.350103334661025,-4.277381226132148,39.11914160478932,3,S02
10840,0.32220990771586594,1.0925687884352302,13.079477223326213,23.97856241069213,50.953215546439445,-30.350881300355823,28.668322907523613,-5.307482721622583,40.50338503816204,3,S02
10860,0.13787974560703703,0.5644239059484868,12.700847013158535,9.25660690390292,39.07047399791017,-41.67771869197177,28.666745400077346,-7.285321068098935,37.878527167762044,3,S02
10880,0.11391524485974071,0.011378212757885128,12.328468702344864,-3.6585070681699925,2.524554567962354,-36.862978442683996,30.351098259209287,-5.286066581126525,39.51051911473437,3,S02
10900,0.2908426750422961,-0.035022821472900326,11.23315989161765,-8.782090200152329,-10.820184818210029,-28.855298102544783,31.156100766057445,-4.536080510328103,33.34995271292169,3,S02
10920,-0.2995592788744742,-0.5852719909296775,10.495614406292656,-8.755286996580722,-37.914840981212414,-14.051904142768967,33.44584303431129,-8.110134901965283,34.096296705132175,3,S02
10940,0.14267149390517236,-1.572167343317167,9.818859112263747,-22.72840857080981,-50.98318698021117,12.16497373635603,33.6348040182352,-11.44993873261166,30.22931375851254,3,S02
10960,-0.723484402065501,-2.085537835216463,9.27274840846664,-48.67856649292765,-77.17703855784741,17.997600424982874,39.46901674456492,-13.248858838758718,34.02076732138367,3,S02
10980,-0.6630471054025573,-2.7875509946501715,9.131437902493465,-73.19282742657731,-98.27104878093228,26.082550720870653,35.66270654200318,-13.348643967521369,33.00817172001251,3,S02
11000,-1.3315212177301,-2.872526571347582,9.188198318328869,-79.82427512578595,-114.41992927840788,38.57893534481277,36.163091694205825,-12.309979230645894,34.60467704942888,3,S02
11020,-1.3581954626231771,-2.4324513689608183,9.315759849146286,-67.64821032763093,-91.07746395103577,41.75018999294907,38.38117074337211,-15.989447000602132,35.89301446178551,3,S02
11040,-0.6112607286627151,-1.4326159711707822,10.256147165008414,-36.460183396653,-60.54138144935533,47.850719513415285,36.67914992556236,-18.44896998894163,38.40547188136241,3,S02
11060,0.3781886823761317,-0.00896601244596526,10.126448247113473,-0.11401251951250391,4.796542070034658,23.33451998261698,33.30462517855342,-18.386345005560678,40.35067281231783,3,S02
11080,0.909851464953497,1.2572563606256546,11.194554608436631,33.45554118229494,60.987570404074724,15.587385761187575,34.95094670423907,-20.395024921986696,39.00824670386646,3,S02
11100,1.1742843752389476,2.4354797657631257,12.254147232106273,63.573362888816206,102.87500995724523,6.14571524180076,36.40682494942896,-22.71943997008492,39.875616148081775,3,S02
11120,1.3805275310936238,2.5787510286466238,12.769124799811742,72.9414202379649,117.5274794002824,-5.721404388297713,35.134210196221005,-24.949341225975584,42.323219371993964,3,S02
11140,1.2226560543170624,2.2983399048211846,13.246519267347118,54.71185665103944,97.6321217715887,-25.202949731999745,31.704220556971183,-24.498040111188484,42.97293996246433,3,S02
11160,0.7076117530988222,1.802986960937036,13.171863696549881,35.54277644676115,78.51396570826117,-37.9801552679991,30.810760987707518,-26.146467066191626,43.35023663897301,3,S02
11180,0.4108480370120017,0.9970527797222035,13.014511090858397,13.936941014542292,54.38730654588507,-38.725704780266284,31.644608312492313,-28.664469392874665,37.52858897520107,3,S02
11200,0.15952894582349192,0.5703011953496209,12.709062652025294,-3.2025660823912396,14.734686313320037,-47.83913017188124,32.8494777621249,-29.323425614922265,38.24312330011527,3,S02
11220,0.09707166198111475,0.07181041635183202,11.539027760652905,5.491814070489233,17.124879796770685,-34.76883455834686,31.407472635284915,-33.128161538864106,37.33336840168295,3,S02
11240,-0.029870427306004366,-0.44492728100738194,11.00592572988234,-4.363636809400015,-13.684781530764033,-26.46083796969063,30.785642415240094,-29.49970623137361,34.08447374558791,3,S02
11260,0.15822865125479477,-0.7823984882407624,10.464971391415812,-22.043113395320102,-30.412198333160514,-13.354956472092693,31.202311265155313,-30.95712649428552,30.410395445051694,3,S02
11280,-0.5180513624719576,-1.5179926183585466,9.694357284166829,-24.566128765862906,-54.13314223439482,1.5052404120841971,25.38563471202551,-30.382600821625733,30.883638967022495,3,S02
11300,-0.7625823995960623,-2.2520181159750434,9.461461501978789,-53.59785898913886,-83.87834035492187,21.783792908582647,26.705683484164233,-30.524182330664697,33.81815255827762,3,S02
11320,-1.2028129794439255,-2.685756445530882,9.170929536739997,-67.20766148962943,-113.24670693566662,27.79902465182878,23.513839298334688,-27.403252071886957,31.25082195867953,3,S02
11340,-0.9904537817661648,-2.6381946587781235,8.852610447966848,-80.19978045482299,-121.06474153969836,33.641032652013074,24.163074753248655,-29.46483077410146,35.99871737726802,3,S02
11360,-0.980956690802491,-2.405707838171057,9.591407656855779,-73.83420321178872,-93.87721788744314,44.819166489039205,24.581740883272495,-26.744502134264376,34.11345332590645,3,S02
11380,-0.3441884994756196,-1.3402548566840422,9.911594121905392,-34.90925964933224,-36.53658789487087,32.5071042148962,22.14186372355513,-27.34250415160031,36.69183027810975,3,S02
11400,0.530000256756719,0.3854282044362179,10.638772415104867,9.258889242833426,16.356745907352217,25.503916757482543,20.801027680841027,-23.250924484785564,36.52931482144899,3,S02
11420,1.083625357857373,1.7392577340110864,11.427545495831147,45.717994577526234,65.81858521029356,9.213192905659106,22.28192942226554,-20.15154940741619,40.139509617084414,3,S02
11440,1.5142376087217644,2.3230287750547935,12.463322203169405,64.10079537364577,100.86241645646463,3.4625096522894023,22.200806346248783,-19.66605842222561,43.1793204380519,3,S02
11460,1.192729941890483,2.9358270443909036,12.883416525246034,75.15722041242945,103.62632562655155,-12.863399981746207,17.744565421219814,-13.589567111983472,42.52729553038105,3,S02
11480,1.1241780402667205,2.4095341174994607,13.035508905320155,40.253125468356686,90.01840717882538,-17.624156266770477,23.267826100166047,-17.544361310112283,41.00431917140973,3,S02
11500,0.6287941359502599,1.6851793607028918,13.579248962888316,34.31957868863464,65.47493040312366,-37.21122080855266,21.350875048956013,-12.762381190855667,42.95128758322223,3,S02
11520,0.13693115358948899,0.8749892990918853,13.003900889035833,9.519561137481606,34.899379832637464,-43.44894312874021,20.15024682618308,-13.034036067452258,41.97298175621206,3,S02
11540,0.20355910695844953,0.03315073319109793,12.577215836791547,6.193136424601582,15.39038596512341,-42.26624565751158,18.96474935139397,-10.582340832517538,39.686765357271454,3,S02
11560,-0.0720543769682826,0.1979527795757513,11.424617545111223,-10.345145121899044,-2.9455210297631,-41.021731603853944,23.817658182427444,-9.092707811072945,35.93209584614341,3,S02
11580,0.04551521013952961,-0.5558461311567209,10.888349050114579,-3.608529801104133,-19.504154708304764,-22.951264789816225,22.566919699650214,-6.629642861693737,33.207190242423174,3,S02
11600,0.06260880421481502,-1.044797118719484,10.107618483498015,-22.470031235614307,-35.96817552425193,-10.506688107409788,23.9965312803995,-6.40798917412226,32.91241292684791,3,S02
11620,-0.29326329784463856,-1.663753433884856,9.836175078004912,-34.99069434558471,-62.031745800279154,12.413295685621547,26.735513136365462,-9.81418078645091,29.874375297245866,3,S02
11640,-0.8602200776157224,-2.1586434266919503,9.270900091256971,-62.125150504753,-95.915166455357,21.963073842522878,24.508158206230732,-5.107407371628454,34.20544862024995,3,S02
11660,-1.3057707139157797,-2.844159270083572,9.14317945498013,-75.93864274392568,-116.88897097352344,27.542901093020713,28.510766381055706,-5.202843216324637,32.93231921526047,3,S02
11680,-1.3052263027396058,-2.8779832244999706,8.994486434023726,-74.35920779373261,-104.03966034379292,31.86390832952959,30.265505446083324,-3.520722125142959,36.98959924123594,3,S02
11700,-1.1216849928512782,-1.6943424308782984,9.561786782793094,-53.41299737828882,-71.75674596027245,39.6751248535281,30.339711463620443,-3.7689246501747204,38.33680064943095,3,S02
11720,-0.1447482096488384,-0.8075392788573921,9.984492366056054,-16.554454829740294,-25.701161496174027,32.04523397676449,28.29781045081065,-7.390431709808979,38.893983757710075,3,S02
11740,0.6181250965092577,0.5210961365349622,10.519160547168035,17.1780106981586,27.936222443022512,21.92735782999175,32.17828041408025,-8.705990097039596,41.72379827626198,3,S02
11760,0.8723174757490368,2.298460706213132,11.691425423423262,55.09826026129894,73.97559325379261,9.085191580079178,33.584452354111704,-7.095751455737793,42.973694577831445,3,S02
11780,1.7892973559625387,2.6340100796762798,12.976500099194002,69.9010948896649,112.76849007698773,13.34141366822852,33.863362800674935,-8.68073997901572,40.51686671768657,3,S02
11800,1.1719712772255455,2.552209048018811,12.923653244464925,59.34328894029116,114.14353429936773,-26.40741856014722,35.331254756255504,-9.411816392043086,40.66073287508215,3,S02
11820,1.035989153108421,2.4047075217468135,13.509621224927741,50.24045876538539,94.71814631059563,-28.827861468797522,36.540948137242644,-9.660989371857243,43.63703843633013,3,S02
11840,0.2558668192785929,1.5382817370318767,13.365416482872874,20.55518020138361,60.288621135994546,-30.62709106141961,35.9780074175663,-12.831133694978321,39.86182423900013,3,S02
11860,0.15823960553074268,0.8362677908679435,12.825275869967056,12.271514478225189,32.2947261109416,-42.24436745663869,38.590627111817604,-13.833344288671192,37.128841641338994,3,S02
11880,0.16220536107125094,0.09893220759262308,12.371091165946659,-0.10040949244104613,12.054432658395417,-38.76561793301308,35.67445803166873,-16.882737230815188,35.799421175965676,3,S02
11900,0.1490440270950026,0.012878578583307515,11.617362891685442,-8.261977611603573,-14.47986476100065,-24.99343193995361,34.123792532054416,-20.643567838508417,33.97631107270642,3,S02
11920,0.15142787898224386,-0.4313934744109337,11.005618094421582,-13.70084727354266,-23.33299262171271,-14.955022251526648,35.16071288048538,-21.536017411620666,34.70505405305073,3,S02
11940,-0.25648022324623754,-1.0208301915201827,10.202855668055104,-19.12435096275323,-42.487624483064394,-0.7276875743115278,35.9176378226144,-25.112735100787205,33.33652572204727,3,S02
11960,-0.2772162454873509,-1.8642987100930917,9.543812406070494,-44.20167974770868,-64.09893347822135,8.10952126916633,36.14821517242622,-26.94402913854193,34.04069907439413,3,S02
11980,-0.6274715213719657,-2.647507785711122,9.327207203829834,-72.89381787022347,-94.87032278128125,22.327773903656656,34.43045170810833,-28.91752204733521,31.71859465581055,3,S02
12000,-1.1537688817524323,-2.830866801695547,8.912225456676397,-79.48796136924474,-112.91623260582654,39.498131381334716,35.01870262967903,-27.86012045321292,31.934240568491262,3,S02
12020,-1.0943933238093484,-2.687071450658853,9.455844995122154,-79.78902129717525,-99.67386545936297,43.17135671322536,34.599922455539435,-30.353901201716997,36.40109482739914,3,S02
12040,-0.6817549739951837,-1.247680301180451,9.430214917423031,-50.282270537896224,-68.36934386036283,39.620167686190676,31.961542346825997,-29.129877581620075,38.0137092631184,3,S02
12060,-0.33239922558582213,-0.5314812855486402,10.342782264831836,-12.406133410034414,-12.596828752710007,34.112959203716834,28.496948187578237,-26.75961339570229,37.32209681024488,3,S02
12080,0.4998440375831248,1.1655732577420566,10.95509552220393,26.090761657214276,50.74969501299363,15.89765960194326,26.817659880284133,-28.55523945486592,39.34362939973462,3,S02
12100,1.2434207669194575,2.0213752062296457,11.969690424744579,54.916210987983995,84.75438604425305,8.956283058754726,28.50074913868252,-27.42924244011568,41.85377114470279,3,S02
12120,1.535171536524176,2.8689117468927736,12.813122604753435,75.93980001909232,107.49787813987095,-8.335375372966803,25.730920594940294,-30.08201550282492,40.19581679547961,3,S02
12140,1.1842183162279933,2.501497637580103,12.786076369269457,55.88569227046425,108.9728804721181,-13.781943577125965,26.609611415297728,-28.761904716501153,40.864012165954776,3,S02
12160,0.9947967105189248,1.9321895846295727,13.215323157404526,38.930636971246216,81.96162304421131,-17.151806959413932,27.458249375401046,-31.853721772241865,41.992464314975315,3,S02
12180,0.5953951206522877,1.5019718613811504,13.148126561124807,19.975665254464655,58.18047447081931,-40.74754798900579,23.729703019721825,-28.178237467482024,39.122549459439945,3,S02
12200,0.08851655611384593,0.6518891820627359,13.024689024770636,4.793199904477462,25.93165028299839,-42.37291858595351,24.318883549308445,-28.5417755755549,34.333488542563344,3,S02
12220,0.024148369398978062,-0.027617176481302734,12.022375128347344,-1.0079602866068402,9.707599921286443,-39.078917367815535,24.59138632612452,-25.08038959981369,36.14037399762491,3,S02
12240,0.2203582569195589,-0.4728595041681316,11.657704028535026,-5.5919180031620055,-10.10855362297751,-25.541222366697667,19.963050402168058,-21.872327289353407,35.91945998895426,3,S02
12260,-0.057496852094888584,-0.7330474015564508,10.714675619508125,-15.133561593228833,-36.804465495333645,-19.08877085305106,22.390644827123445,-20.13194279795637,32.532033074010144,3,S02
12280,-0.18443420458929696,-1.3410587019894051,10.152432925340399,-20.037313296938834,-47.99630563171915,9.445192409590124,20.566495353836185,-17.518269580237313,31.186509344212844,3,S02
12300,-0.6979435212759476,-2.0617066572816767,9.4011598200774,-48.10347115328964,-70.28970189979167,11.461422745857055,23.03501189728219,-18.634508472317656,31.068880723530437,3,S02
12320,-0.8737181789249289,-2.666607776419984,9.133251350794453,-63.154270552265686,-104.25615121166801,30.853021373091163,19.826499439187508,-15.1724876475315,31.43222242434331,3,S02
12340,-1.3571855394256591,-3.0341514002856713,9.215103530731087,-85.80868467137671,-119.41283230577035,41.59775823097574,22.371126015994754,-16.924807230409765,31.3094775385103,3,S02
12360,-1.097265776005947,-2.4468853862030646,9.406940681918089,-79.10987172239557,-98.64204344393833,38.42797124525186,22.614608562511528,-9.679427479571986,38.30196145748644,3,S02
12380,-0.5644956129764369,-1.6838482224186324,9.615631195916835,-47.42090068521569,-54.49749138696096,39.60961090988978,20.901997722029357,-10.55674870672177,38.559378783481435,3,S02
12400,0.14232711892632702,-0.23639061274785325,10.199900517247475,-1.727297977590362,1.3475460952587481,26.594361724239057,22.18340451680313,-6.446586423438959,40.37556412597803,3,S02
12420,0.9396859799942898,1.5155515220299405,11.079671156200693,28.535049411367755,57.50172708447698,19.3624479120886,22.335729649619743,-5.824752104176687,39.710725541062764,3,S02
12440,1.220403515310074,2.4561657645569483,12.069698678307002,60.376272721992606,103.01538404711829,12.290862672560793,24.919072188800307,-5.239089251498998,44.397534963035646,3,S02
12460,1.4212195114029915,2.6455145616521385,12.765520365156497,71.72627407093138,116.65454716430742,-16.877879931348005,22.14246383774965,-4.284906880090335,43.87895573055696,3,S02
12480,1.2081476312773736,2.6158903718725734,13.340131009060308,61.36038877889678,107.06243480008807,-18.233255721265852,29.20242906496141,-6.862828225926421,41.479318234216684,3,S02
12500,0.5997416854304184,1.578309297427645,13.30792465080003,35.14930418921716,83.36144844025935,-32.36158819080108,28.805258460599795,-5.338472880203138,41.65457115688947,3,S02
12520,0.43502888062429135,0.7948750555968642,13.225245852156688,20.630000817089577,39.83426419855797,-30.665859489920315,27.864532437983264,-5.652051855946173,40.467140857575814,3,S02
12540,0.17900704105673126,0.5596893576105091,12.370558238187852,0.5155518513427859,21.130241983409974,-41.035425451986,30.213038124103445,-4.798370471773831,40.493781400236,3,S02
12560,0.11844676445637832,0.04499435524570651,11.879131437207919,-5.10081894512274,9.475160755550068,-35.88105354963461,29.587665338200534,-7.3943422555815745,36.9209854516982,3,S02
12580,-0.058057163915109705,-0.15773669791058792,11.148283936863985,-2.534981152800703,-13.48815093461149,-19.626553096175577,33.85050237721843,-8.164132671213586,32.32969840327769,3,S02
12600,0.0011953521559906477,-0.840779132876202,10.380281756379064,-17.08683591785674,-27.725957944137026,-0.613590560158794,32.107731178335115,-8.201119119346863,32.376388384325004,3,S02
12620,-0.37116520747036785,-1.3617765051376207,9.769958168884102,-31.342185291662535,-53.64697835294446,1.023436269112231,33.06333199485107,-8.316133803140154,32.032137401482366,3,S02
12640,-0.5737033135581745,-2.083483633783289,9.530858653539138,-53.99534327678914,-88.75610545227924,20.108404901250296,33.58756633316692,-10.714731492038505,32.27862760987936,3,S02
12660,-0.8011743669876485,-2.6992132520303245,9.061300300442193,-69.21621514701577,-103.0816864181882,32.82214048086276,36.7010993621227,-14.011054548039912,33.823843045694574,3,S02
12680,-1.2619228274973988,-2.971717468736899,8.862792103085267,-75.69026092986768,-110.10802375825045,39.798784173590306,37.61706823611587,-15.080716133664973,33.04773631999703,3,S02
12700,-0.9748451194513484,-2.4499796532937608,9.441846378094565,-63.56048802211815,-97.15808741795404,35.751879664493245,34.79307193716444,-19.012617517603033,34.483221199677544,3,S02
12720,-0.30768860975937473,-1.0516020648411963,9.771842109309627,-26.041183340756053,-54.45508914882714,33.259005340468384,38.955805164568474,-17.404505423791406,36.85897291722089,3,S02
12740,0.2650751407577301,0.4537728273372839,10.49398121799272,8.669854706267309,17.84084458671932,30.09781923440484,35.28437408929884,-18.409812959288047,40.9397252973181,3,S02
12760,1.160089753192524,1.6498350468350498,11.469359223051946,33.441119031499525,69.65387348936447,3.468472962137048,36.206274108021994,-19.8866994232105,41.75314315632037,3,S02
12780,1.3649786954355978,2.2716259156050045,12.148114770300085,60.84644549612101,101.54141464627311,-4.318722810102351,34.98718371829118,-25.497049845180562,42.418820770246725,3,S02
12800,1.237581466327962,2.500753253635737,12.64911745180111,74.86340476954848,108.11212700040727,-7.325400584390867,34.38419869633482,-25.890743570071344,41.80524554600106,3,S02
12820,0.9397450938936249,2.3106164314138606,13.113398043619688,51.82634699196155,95.20667391657629,-18.823049098795636,33.38428012788408,-27.075410565870104,43.83279728794993,3,S02
12840,0.8668271695072131,1.6824649836071255,12.991996776428534,30.57129451383354,69.63507176336677,-37.104721755091944,35.31080132435714,-27.35487502319954,39.79062759189744,3,S02
12860,0.33769928911927344,0.8675329122676343,12.89550446644643,15.789916427261005,38.19241171020616,-39.06873125112304,31.901671530731882,-26.010746249637666,38.65292972480055,3,S02
12880,0.031169109465730746,0.4209311925449086,12.658545211016756,3.4571885902687773,14.19712424643537,-30.712025718221355,33.88330475813811,-31.246975506423013,33.271006425273,3,S02
12900,0.08187959763102085,-0.1473056902567969,11.94895742092602,-5.200160287056459,4.654907155224326,-22.29458314306241,31.88980043783094,-30.833481657262908,33.52912983442867,3,S02
12920,0.13488563844899093,-0.2140005425515566,10.667771030208884,-12.979715463633884,-15.121233863850232,-17.411741767425152,29.939402502082007,-29.1211394219438,34.00698423491919,3,S02
12940,-0.21839092321244194,-1.0697855315147804,10.144369721971556,-24.28634887540779,-33.052375754594365,-3.2594818246796438,27.271848297942363,-29.46294092192512,38.07441432148003,3,S02
12960,-0.2557782409559589,-1.377988084609562,9.463578066032268,-38.59230792095927,-69.09728888588506,-1.9119785081666527,28.364910475272442,-28.402051486351134,34.4913997635288,3,S02
12980,-0.6500277014583238,-2.173470902444148,9.026083615496985,-54.89692193791398,-100.48125460096188,22.834445498957447,27.412038756215733,-31.89238943602976,31.621942737947883,3,S02
13000,-1.1629730719960576,-2.972103532413671,9.241076816888338,-78.72363977183008,-123.15139057671082,36.59688961673526,22.11497084497218,-26.789640234686306,34.48431438270321,3,S02
13020,-1.176037194045943,-2.68318319597216,9.351356421604246,-78.51802379308195,-104.53589477273006,42.042163237067705,25.841869737260872,-24.27754858020971,34.68846262717364,3,S02
13040,-0.8234036939754702,-2.0978441784616266,9.624471751140478,-56.21689470864501,-79.18094418809109,49.7812638335514,20.527544776768273,-24.665034782257816,36.31368564210781,3,S02
13060,-0.3210589883544005,-0.5182262080274471,9.742324208493468,-19.888583819394857,-34.00783261059143,40.43874609571943,22.92466067293691,-24.588298555575765,39.82466151022571,3,S02
13080,0.35045773686605386,0.6308559091596346,10.493248802700464,9.41031838375675,31.09956283303391,18.280677475166257,21.785563078691546,-24.280132253714903,40.57252662543664,3,S02
13100,1.2928174987214107,1.9910256264794917,11.762468126847386,44.619014770986276,80.04664937891121,9.22176039000502,22.362756056285555,-21.323133023681834,42.0418084228842,3,S02
13120,1.418707099551914,2.636030492170252,12.442924941116466,68.39529301925606,107.14518059758497,-0.6845613019325173,22.448494952295086,-15.868299289605018,40.09516326618072,3,S02
13140,1.0965744420640942,2.8545616094760424,12.888436391598756,66.88202810161827,108.57037189876017,-15.962718704632197,20.205544339009517,-17.29361569839819,41.1681051788495,3,S02
13160,0.9530939367394996,2.1354169204650253,13.374977801323107,44.581898803104615,94.30097445508008,-25.521921499208702,22.263571953281897,-12.886594372263888,39.597448897827526,3,S02
13180,0.70561612878074,1.638864365056658,13.082825678038134,22.45577978051344,62.943242257082986,-42.57975844600305,22.446180113445898,-11.84744175242521,40.52677228380786,3,S02
13200,0.5127750015467775,0.8500829122381113,12.853103438755808,4.10869795377076,31.8382782488945,-41.212075860036926,20.415897751186602,-12.440185851176167,39.66994129069522,3,S02
