timestamp,ax,ay,az,gx,gy,gz,mx,my,mz,label,subject_id
0,0.13164074129281145,1.3307264859577692,10.10447411189733,1.1807782857651192,-2.945608281467675,11.765089222804386,29.250023698254342,-13.52010651072382,39.97299509995243,4,S02
20,0.31183041465182937,1.7664632482965528,10.210702272325442,3.0400569172610483,13.93171764592211,19.453520731991723,31.41992261730875,-12.645888181096545,38.82575872667709,4,S02
40,0.7132812941420434,1.7483712666984876,10.466756490434232,12.320223762788167,29.43265082666082,10.11493352455605,31.546846046851368,-12.476382693319119,40.224342610319326,4,S02
60,0.7161400853269949,2.0345351639080573,10.778429077039679,16.291183595748265,37.444556855840986,10.742687309726909,31.798764247286073,-13.479343880310509,40.3440657013356,4,S02
80,0.6768538813511418,2.1133698531134746,10.886124414413326,25.20362723239681,42.49774803354973,7.489620866863563,30.61095628046611,-13.339055284771925,40.98005032823034,4,S02
100,0.5923064292457648,2.2730078211895526,11.456746275583964,24.510973626271596,51.135518173291324,6.614793103045212,31.044705209462535,-12.167143305171695,41.118419871519855,4,S02
120,0.6915231453949447,2.4387500489235925,11.323634493829713,26.70198008258638,52.44916646057075,5.787309492350511,30.646015100167343,-13.260009629343124,40.618632406157154,4,S02
140,0.6876862355492915,2.6490009843739384,11.53640122494261,21.76823189993067,41.89676768414527,-1.9213383704431108,31.681538313775363,-13.873408933695579,40.360840107317706,4,S02
160,0.6127248471020142,2.43219794624747,11.41871315263605,24.852635474518053,47.88809983326219,-2.252146000366543,31.262903607182192,-13.88378240808209,41.754808185499314,4,S02
180,0.4523563701757679,2.6914605079067067,11.450612128134816,19.339479589082192,32.087547187504,-4.154882853800379,31.724207395077265,-15.193232823820725,39.29915661687527,4,S02
200,0.4839008804793088,2.5055689975782878,11.44110763989256,15.221658939626899,27.42515522136902,-11.602598253126068,31.088880868843297,-14.08266681804443,40.174804114187545,4,S02
220,0.41607992856905407,2.4418213155532213,11.357387311121341,11.511894978187744,29.007992950778924,-15.183104026851323,32.146088598233,-14.761270570574013,39.731701278914834,4,S02
240,0.21603371684523803,2.291726212985385,11.45388647242503,5.183962636217317,19.653384586322122,-13.953462105670551,32.9958874247623,-14.761450881549179,40.55471129503517,4,S02
260,0.25875140942477026,2.0500570105253453,11.065249424284339,0.6309622655209113,12.4349321788001,-13.051772870549316,33.15678773733705,-13.760266130859144,37.528040434084744,4,S02
280,0.10879121396905618,1.8875640914369298,10.920805549173231,2.116459372725033,2.5553226504366675,-14.614951955398451,32.13999035189927,-16.108262013945073,37.69840324858925,4,S02
300,0.2344909018900996,1.7212128455749633,10.74687707313834,-9.034599288831878,0.6269205101386202,-12.6942741787377,32.535387275142895,-16.99736392173211,37.05401881519809,4,S02
320,-0.08544688423435726,1.5489625398669506,10.34318377889309,5.628202556753041,-0.819597043759402,-8.913287027239365,31.774757629348372,-14.862064461124529,36.670824274485675,4,S02
340,0.30610333981227794,1.2110377301160251,10.117390565239637,4.062300344906121,5.385226892163675,-3.019604392125778,32.983971675479545,-16.48709555743727,32.988903603841415,4,S02
360,-0.05243112617510076,0.9874104878101433,9.956703303396212,-1.0610600496550795,-6.5403190111512775,-8.113511715128832,31.488741462266496,-16.460858017782257,35.29237805863072,4,S02
380,-0.04918040360366416,0.7381871668760682,9.647086581242176,-3.4089872692116465,-11.394206617578035,-1.6763305363159078,32.2636039471744,-16.883695773749572,33.82030746858394,4,S02
400,-0.006920713865867914,0.6411827658786524,9.662536122852558,-12.377786900241183,-14.005390949174073,-2.1317386581645166,32.24517088649818,-16.708565814595936,33.70360498475822,4,S02
420,0.06829193641452624,0.43795668407248584,9.321265418385781,-19.01565826083723,-25.18855716800862,1.278842082055748,33.240559917400304,-17.853164279411544,34.00893488999135,4,S02
440,-0.18775793491689632,0.5072680304701251,9.169407791223161,-14.279717217355792,-34.02828596598279,-2.690903119602844,34.345801732728575,-18.250737507752355,34.34151524598713,4,S02
460,-0.2153065886220075,0.36308008980719564,8.85642176360658,-27.292301175914666,-39.62037222142251,2.594737784417796,31.95963429880702,-20.173908732299644,31.992463208486434,4,S02
480,-0.504113971465055,0.3636512625519969,9.014013425530843,-24.601940434267792,-42.50890942192279,3.7362019337065195,33.8965389570468,-20.49985292190311,34.4890117542534,4,S02
500,-0.3456151773703031,0.10850684259859442,9.044855496095083,-29.76402482593223,-51.64300696823808,9.184274367128406,33.08831114492454,-20.183136641479727,33.01246494317499,4,S02
520,-0.40314344859303364,0.5536345411801682,9.040015002714105,-29.943413190321383,-54.37970667805987,11.587098093386853,33.5193264945859,-20.53533271300305,34.41379252936443,4,S02
540,-0.4425406618389849,0.3854011627864465,9.067021709811872,-37.43431130594208,-52.5259410707348,10.272470338266627,31.108767915939275,-21.583481315118334,36.51559856011326,4,S02
560,-0.5108113889365726,0.584616660814945,9.071021814007318,-31.253969754741753,-57.23846152010225,14.136788383402138,32.84667695134517,-21.565433604841267,36.759818386154805,4,S02
580,-0.38436972913716627,0.6408439959974217,9.169239369960028,-27.56723605362566,-36.9691984896862,9.766580708846044,32.19311049281907,-20.821929304590956,36.342575760283935,4,S02
600,-0.360890210885638,0.8505268853492298,9.415725685745198,-20.31388568046187,-34.30684045024047,25.459197413144675,31.366297476018783,-21.45615071919901,36.567498714771915,4,S02
620,-0.22205762530208192,1.1353076892686462,9.65366384975687,-15.62475049712393,-19.419941325628326,14.306293525842689,29.964449867277917,-22.03350616899942,38.64978464909331,4,S02
640,-0.049440679351273664,1.3127486706510658,9.836858407035075,-7.038873848349599,-4.5116806538484955,6.978493354834503,30.773955650682346,-22.554846648182647,38.99930639187332,4,S02
660,0.2657754817532573,1.370844807996728,10.232721127967435,7.699970408759984,1.6270977715195791,18.39808406486369,31.14310345638838,-22.12631075014026,39.97703499207801,4,S02
680,0.47569829448040946,1.7463107272324268,10.455149697855102,3.137778555099656,19.575412843651414,11.021230832836014,29.418259084472524,-21.912132556594244,38.85445881916093,4,S02
700,0.653570820903585,2.1090595848399025,10.744191418349425,20.452459951147357,34.338107537049346,10.48655557637301,30.907628624721696,-23.061937487489573,41.08831521181179,4,S02
720,0.6439650091664108,1.8788603426257617,10.916951423967161,18.845957107397943,40.69194870011322,6.655435184768041,32.34375341126275,-22.73637561654833,41.622977566196404,4,S02
740,0.7751413529982176,2.305999291981476,11.19324056474488,26.678689080756538,49.65364167842563,2.1620774226388395,28.64880730512575,-22.82114755568371,40.68843535729688,4,S02
760,0.8762333960076372,2.3571928000264126,11.402069095224746,26.158461840435194,51.329094978423804,11.2740400198217,32.001164143480494,-23.475144318790193,40.620615949244204,4,S02
780,0.8958384830600052,2.5654278036716547,11.504037119820094,22.447151795954962,53.491766655856836,2.469053549228315,29.3574258192219,-23.636723097905772,42.072165171768404,4,S02
800,0.7102565722902182,2.5209618712579736,11.602858660235622,21.66762186229184,52.91000312792479,-1.0298460911487135,30.001914057482622,-24.337956023498542,42.003159756933265,4,S02
820,0.284449558783316,2.5248503517373395,11.649201132148182,14.825705035339169,41.4330599914841,-11.808790157559262,30.098791255846734,-22.57328301966001,39.36288065859805,4,S02
840,0.5344778331029508,2.3830919376950965,11.527362037592328,14.79551348255577,29.465348650964806,-12.111189342058017,29.629810945870474,-24.779388065454494,40.25713119493678,4,S02
860,0.4018817707078004,2.4859371006547355,11.409828497441067,13.181791727150095,29.441297457425076,-13.539648680199127,29.523152666446602,-25.425799303076886,38.42009919311883,4,S02
880,0.42772500315789685,2.240796115708191,11.396477406551222,8.476255598170479,18.69779324329517,-14.65356544236512,28.780572836061218,-24.440438140800936,38.776707755110415,4,S02
900,0.31134169241753623,2.09205870258414,11.096616169055464,-2.633408005606581,16.781461147101304,-11.507094245482127,29.593791459149536,-22.67002386954109,37.023483679480435,4,S02
920,0.19851099094227798,1.8933105233312935,10.90861707639281,-4.011130106189385,10.217718729785293,-10.666447517179112,28.26061307808762,-25.674210840317336,39.519693078089446,4,S02
940,0.07940458260549983,1.8200543728146061,10.625188101044628,-4.832115976337077,4.698152062242264,-11.220383622738225,28.24316933327736,-24.59044572430301,35.89448652144337,4,S02
960,0.13551129934546022,1.4265211488479577,10.619223442782697,-2.701178988968268,2.333499698644281,-10.88681506807995,28.662472257956757,-23.828704794668635,34.05339993340317,4,S02
980,-0.01688143489516092,1.2172035263029473,10.184057537980536,-5.346475849177425,-1.0331637747115165,-12.72177885747755,27.252383748921424,-24.690704332524266,34.808305656860206,4,S02
1000,-0.033899500033344854,1.0796189803588292,10.155436906980745,-1.0835130721692359,1.3364579971656163,-12.176546084942053,28.611557843551477,-23.083171121382996,34.72446161218231,4,S02
1020,0.048418483314967314,0.9919382928159146,9.615504443124026,-7.036831685023775,-16.295802455686605,-3.0701355291090686,26.90692192713948,-24.261771595640816,33.28603827841502,4,S02
1040,0.16209864390969858,0.6447930411535052,9.488494395135788,-14.025364832060113,-14.354298166538,-15.775067029508252,29.651525979567808,-24.134572831561815,33.23927132731943,4,S02
1060,0.013758716161858808,0.5144749686427597,9.139175994448655,-14.757604950600044,-22.421323173394914,-7.662807886007737,28.777449189487857,-22.35826831884755,33.00896377889529,4,S02
1080,-0.13228263485941968,0.33552426286678716,9.274367268642957,-22.54475760577055,-27.671070678748166,5.582874990220262,26.217473176474883,-22.83434528525876,36.75187060785573,4,S02
1100,-0.1354806368304608,0.2833310949191852,9.125499856097404,-18.63594793927067,-35.979505922050855,-1.4009445200847233,26.071325291228256,-23.192660388022738,33.99118735876053,4,S02
1120,-0.38146249675464394,0.27454569547489194,8.996924621387501,-28.45372182048409,-41.326362606752056,2.3137262127914027,27.920803162239494,-23.58217435656429,31.617764015542765,4,S02
1140,-0.3551580765393043,0.047608289271818885,8.828777504415697,-28.584053886098204,-47.75799612636694,9.852211022544976,25.74045003791651,-22.489265769443264,34.82621339655388,4,S02
1160,-0.3408620716193056,0.3749702775688755,8.979531217846198,-33.5033686492589,-55.197297638621855,4.303387539209126,27.44800537526144,-21.707118903733445,35.45153884254628,4,S02
1180,-0.5311775563014264,0.24708893001098542,8.991226452883256,-36.678096634560355,-56.34981679763232,15.722355670006626,27.09546388261605,-20.920717572144866,36.541955138790456,4,S02
1200,-0.43225435611694163,0.2796000936502545,9.025015311249643,-31.772776068004834,-48.06858785787746,13.94960833540686,26.263110305930084,-22.371194339042333,35.319848379558124,4,S02
1220,-0.5416173765916272,0.652608284998438,9.172859697007087,-26.976236872839216,-40.77534750028872,14.239621879479417,25.68510017872564,-20.64150206410041,36.85956937850896,4,S02
1240,-0.09302267786327034,0.8262597789606705,9.457337419408868,-28.427745697797405,-37.42155575629307,18.79873028796938,26.56369080256734,-21.726403633774567,37.95418836600921,4,S02
1260,-0.27800593781924066,1.0423392628867856,9.790354846552276,-21.741850828718245,-21.900695499589805,20.063799956287724,27.930334283757738,-19.860793971344037,38.45736368301852,4,S02
1280,0.17833842859496613,1.2473417526098707,9.68825583561366,-8.611526050882262,-7.550380132999079,8.22861576866434,24.544169924634858,-18.484779269757084,37.92647918853329,4,S02
1300,0.23468424332234428,1.4584948634698705,10.034090828232722,0.09136416773714995,5.403662677376893,14.877286963117596,28.393379476710155,-20.483385544351414,38.26723727462799,4,S02
1320,0.2597954625050371,1.828093364537822,10.352818072008638,11.175232052823599,25.35379693640293,11.319147558815777,25.098812636164233,-20.66485152237116,38.81170386611887,4,S02
1340,0.6121406736298908,1.8690959224289239,10.677842164972427,16.11476806602923,34.82130461605895,11.939159476768792,24.69135478689593,-18.90544551708951,40.776692446670445,4,S02
1360,0.5637250623535803,2.1640674967049818,10.785789131840744,15.83180617855685,36.16900571628959,5.408284300460313,25.55272948312443,-18.90662068668864,41.471278279790425,4,S02
1380,0.6742272760134388,2.166995284024809,10.976383947250683,20.83700355716131,45.47301152521802,10.908040324274888,26.394718175209018,-20.031995583109943,41.51181255453661,4,S02
1400,0.7242327092557045,2.560406634254175,11.219825027109882,29.425408645510036,48.88735793020842,-2.601724014463302,25.458349387457176,-16.508319060883963,38.65397729137995,4,S02
1420,0.6706553193125557,2.5702821912077116,11.369357466896913,24.187959485954583,48.046025969662224,-0.3388987318564606,23.905350001794208,-17.907296434240255,41.49950828337168,4,S02
1440,0.47165603280048485,2.61408711169312,11.405797046709603,21.11011284404849,53.540138169831216,-3.7280328865292494,26.206668391874512,-16.613669569144,41.854292030017774,4,S02
1460,0.6856253096092028,2.505268983986499,11.408663289213836,18.38068292165136,36.70022740950929,-6.228162986112067,24.790377565001265,-17.69681096688496,41.55810164475824,4,S02
1480,0.5809791751761377,2.486999068323767,11.617582161775186,21.938837786435386,37.8191311990099,-9.417236273028069,25.938315370006272,-16.939415396143012,39.17899656756493,4,S02
1500,0.4951224685671486,2.5341026878879505,11.471730430264062,6.782066839183712,30.153469849055853,-14.094582087264364,24.136865893792518,-16.778082871923047,39.032084033456,4,S02
1520,0.23895114068055326,2.3906644264366816,11.486548418498966,5.639064246402055,21.664607881707568,-10.871141758400986,23.79226246986584,-16.686087694792512,38.51637759209217,4,S02
1540,0.2785783257121422,2.1031044233197567,11.15330860698693,7.974663955193265,14.103634117077835,-14.371872021486732,25.34605174928759,-14.437430589770475,39.89512346905569,4,S02
1560,0.24873746387832293,1.8759117966832466,10.972710237284927,2.357386362019226,16.116140815799117,-17.819642414650588,24.215659621294904,-15.87627479497273,36.17367871109032,4,S02
1580,0.08054563441022387,1.8092215661613102,10.792263494741897,0.06962416445749131,10.089875154749283,-13.394768123168376,27.23825850348372,-16.328040915435267,37.59530649207324,4,S02
1600,0.12872682162074783,1.7234931232558623,10.636516569665918,-2.2217784185517497,-4.531688649989794,-20.783903511826853,24.868125486618776,-15.506014817125305,36.43188942995569,4,S02
1620,0.18580502502905022,1.2715437038186657,10.227331593769659,-4.405191848873405,0.2636053197019683,-13.037874583557748,26.213890192161887,-15.371682637243824,36.35765194619034,4,S02
1640,0.12073734128389953,1.1916590337173931,10.140834393718233,-11.742775220056798,-9.48934072819513,-4.129975565086726,25.763807477968495,-15.34378546728916,35.20635329290746,4,S02
1660,0.07614184070344959,0.8863436887318652,9.883286862957002,-0.37867348055897754,-12.53496976099115,-14.58419100885011,25.465815364108753,-15.601869011335522,34.835729009048634,4,S02
1680,0.07067895705946306,0.735663959725388,9.741300508388166,-4.997930134187652,-5.492046652092287,-8.668816067508757,27.92570940252508,-12.099198470679175,33.69045489966639,4,S02
1700,0.0060933166157518676,0.38963984270189955,9.334065880149925,-8.440207042945687,-20.975982230086913,-5.844012813873029,26.571555892230148,-14.471506791604174,34.09615093483401,4,S02
1720,-0.12034982663227717,0.4313666498799776,9.10027163627071,-20.236579896864125,-28.05224963628538,-2.819310811725502,26.21303592527443,-11.532092771005903,32.4341312212321,4,S02
1740,-0.21913585530098814,0.2493866683663294,9.086436954238295,-15.086411566925065,-36.18291591792026,-3.615010610611295,26.54303864760523,-13.108016808244098,32.819934572501126,4,S02
1760,-0.31036504435978296,0.2476711276366173,9.081071307851042,-31.937925935122617,-39.486111528779254,-1.8141603419288361,25.38449696562303,-13.501447418934632,33.1329397360185,4,S02
1780,-0.4410359007462167,0.17297821083190398,9.0578907450935,-33.31040460609515,-47.59975247305175,0.8580773144488004,26.545016261204523,-10.85518499069854,32.74100597565993,4,S02
1800,-0.5126140486711075,0.1265255310842338,8.941026356488504,-31.25926935682613,-46.8329533723276,11.477405882305066,27.923958401084278,-10.24925325766951,34.682664773901195,4,S02
1820,-0.4284880076523855,0.4020879053041141,9.118521592896396,-35.564418957398715,-52.41609298441459,13.841587705457341,26.00442991732184,-11.720318313980766,34.49504673082171,4,S02
1840,-0.5169062620775117,0.47696977885344477,9.016156977364215,-38.19856136004504,-55.013638332807076,17.63570178394794,25.777907526399677,-11.367286968080965,37.075526988607955,4,S02
1860,-0.5148903748380856,0.6476098523302853,9.149797649572639,-36.03708144397054,-51.86424685123865,15.96417327106739,27.70261607412985,-11.643214012204552,36.69409842289455,4,S02
1880,-0.24381671467135504,0.6894405913233324,9.400349071963491,-22.438681813354542,-34.046952504040235,16.388151186325064,28.238899566810385,-10.023338487467822,37.55903678937795,4,S02
1900,-0.19287342262297583,0.9319739323768204,9.58389814998543,-20.787078321312578,-29.95716370913672,15.488017973941655,28.24148199335045,-10.737400317608737,38.406539214775144,4,S02
1920,-0.13398900230194277,1.214089855755072,9.615914301479025,-14.232287675895652,-15.754901232679828,15.01635018318672,26.81343447237424,-11.012635656042537,37.66227431908128,4,S02
1940,0.08211479110696396,1.403212852590583,10.150995711742132,-10.372117872532492,-1.5691669280258995,10.082558635799101,26.534959176464763,-9.982778164534533,39.32032199473214,4,S02
1960,0.22816939119541763,1.5896415925373817,10.256392944176314,6.532350256132825,15.789525651339684,17.7066585070478,27.473195529801266,-11.670597858594318,38.192214846828854,4,S02
1980,0.4035104647801311,1.7350349983097662,10.443391014720774,11.046378188720215,29.914445550866354,10.780555029042326,27.893004172293804,-11.035899070265504,41.49819715431131,4,S02
2000,0.46476991844823334,2.1631524110932574,10.826057094079845,15.836590646739893,38.944841842533165,2.5832979097127775,29.519147755891574,-11.18802564733221,40.25369225710766,4,S02
2020,0.5940744330191574,2.364321328944437,11.064588346296981,22.812457900568933,47.83392080892729,9.836278559560883,30.867825664006823,-12.553376819402729,39.5510281382827,4,S02
2040,0.6040258595337527,2.44474291221884,11.167736238703787,25.373717839291018,53.13492642080223,0.1190724782720064,27.299325852169215,-10.294888104025517,39.769799746201,4,S02
2060,0.6545412240738048,2.5024654168079943,11.334946884765673,32.739760591468226,56.3335521611869,2.593256946091021,30.015289240634743,-12.434539514611188,41.070503108480416,4,S02
2080,0.6943260990954557,2.546172477011792,11.45704322793028,26.504520058883163,47.8482282476171,2.0411539686621047,30.32614788464386,-11.688695697724503,42.02647720260166,4,S02
2100,0.7231251091611924,2.624977112414147,11.545819613702344,25.80844125484026,38.36972721016709,-2.895366494048653,28.5152610986031,-11.944678578062328,39.861910482414025,4,S02
2120,0.5429452475110225,2.448298328568772,11.595368304130782,23.63834855233069,37.25457982189484,-9.698278171727848,29.869454270444738,-11.685795660442402,39.74142466666635,4,S02
2140,0.4169895491918152,2.443130624230244,11.636421998267654,12.603039089574875,27.095911356017332,-12.989562778216886,30.025639015701937,-13.406447909735588,39.67870884657731,4,S02
2160,0.20372822817153163,2.4253006481907486,11.47432883116773,11.116550586101617,18.475741849418494,-8.92037887411684,29.975365307919812,-12.257657145167059,39.32888377001275,4,S02
2180,0.3302326565551017,2.1922162625624453,11.34739793218383,2.2514817819720117,12.318010750869721,-14.977152037394525,31.94491626587961,-13.164811168102457,37.99056780554371,4,S02
2200,0.3352371338111726,2.016262938416037,11.12099603474293,-2.3223700766010573,10.018858056517423,-8.004763950734118,31.236243500220773,-12.037004574490044,37.638255260834335,4,S02
2220,0.10852628145594487,1.7391189426407045,10.983877832308151,3.539587576812111,3.5398377556930276,-14.200885518014958,30.112688398042636,-13.590478209682507,36.88814545029701,4,S02
2240,0.22183088915531085,1.6822682531062783,10.656771421879892,-0.8308055156880094,-0.6236831623558239,-15.770622697825276,31.516329396885887,-11.307683834442784,36.30122967448198,4,S02
2260,0.09928632548525025,1.3899453384576,10.423676283240544,-7.438777545637319,-5.988458255012771,-7.326074992102455,31.703080254848665,-13.796943117569782,34.374395328058775,4,S02
2280,0.10643688470562687,1.0851803914632865,10.086378089657327,-2.141150738745462,-6.23072915170355,-8.146429809664317,32.57449156849741,-14.376521866384463,35.529207016009536,4,S02
2300,0.005882011358812167,0.9853968083345883,10.044028376829996,-1.037438291712439,-5.845479882023281,-2.0065366181200956,33.26555536572586,-13.74786803798985,33.080989882630874,4,S02
2320,-0.06668525495269081,0.9357628482796116,9.685330050923442,-8.155964023528442,-10.836549924922815,-7.3068794934410075,31.19934089695256,-14.292409941438299,33.852631876305566,4,S02
2340,0.020500647259113686,0.606931294089293,9.489192841206128,-17.255795918399286,-14.32062597438956,-6.663055360055977,32.55818270117101,-16.132224398842432,32.642761083866816,4,S02
2360,0.003957094279400289,0.23626900355392888,9.166304682771104,-15.501382162928024,-23.573885003499548,-4.4250330472418185,31.62034376906602,-14.52662127917797,34.06787066890564,4,S02
2380,-0.26257595261214217,0.12844764678589518,9.106154036355802,-20.2813616952897,-41.74624677236234,9.434588424904288,31.670183325625562,-13.703915375596875,33.25529413132708,4,S02
2400,-0.1948332975262648,0.08976366364831279,8.902303131005208,-20.641310016430516,-42.5131923365535,0.31930642859050173,32.86326367819877,-13.343636904863468,34.12263952111297,4,S02
2420,-0.46342965929448454,0.4010664759931563,9.0060523111735,-20.93149107810496,-44.9644566571879,8.651407187662654,31.86759022309449,-16.073414341819024,34.587091161361215,4,S02
2440,-0.406983772849399,0.28927902871672817,8.886816428012045,-23.70746129236073,-53.24441202485138,6.950561324354499,30.59502510133607,-15.254595463676276,34.83548071211896,4,S02
2460,-0.642777727476365,0.26292901377788475,8.840667118996318,-40.29986445232776,-53.91467115858436,7.476854046488898,32.650872168017344,-16.00990443536137,33.11419101253287,4,S02
2480,-0.5285834467624191,0.28171340710302584,9.074717376798443,-30.934559237524173,-50.90847554362381,11.792426790305914,34.02138352627038,-17.239095378007235,33.42675210343508,4,S02
2500,-0.5642422874652112,0.4859349931409283,9.348761895274208,-38.51227042991505,-50.758206920589096,17.07731154061244,33.20220286866482,-16.95466413328308,36.55710530268385,4,S02
2520,-0.39893425661209414,0.7035451607703733,9.3744769936617,-31.446906660771457,-42.672470066685335,11.264118898524147,32.433241508232726,-17.232025758245484,35.64307697557351,4,S02
2540,-0.4651549598741368,0.905093160171043,9.606592865950901,-20.816071671077655,-32.92040174259782,18.100495346648525,32.77340273810667,-18.081250560866074,37.89264132282484,4,S02
2560,0.029850297533374995,1.1657182597172178,9.579955087590394,-13.755763663817785,-16.877832844536655,15.807251845460907,32.365761255558326,-19.208302517228773,37.66604399882358,4,S02
2580,0.06280486636759153,1.3563166803482556,9.781348934776021,-10.24472344142967,-9.571082500716441,14.214301489034368,31.17296868637094,-18.966736374639346,40.1297361337797,4,S02
2600,0.2553632014157702,1.6401276030904677,10.15831803406734,1.139092827372342,7.158719590020625,14.487215318310959,33.85121722827209,-18.24149288220375,38.69082784211558,4,S02
2620,0.3172774624018183,1.959450435001813,10.191109646211421,12.419670615263446,25.381477772269765,9.869722945983629,32.75331193805443,-20.145321946427785,39.827796015805056,4,S02
2640,0.5406855084825081,1.9846193653311974,10.699740074092084,17.155119779104794,29.960871221999998,9.508222188576152,33.62638357857797,-19.54878699418206,40.23237378741283,4,S02
2660,0.6048906179276754,2.1813746747542906,10.99400743861054,15.7904144715678,34.77437787225643,5.355528207830957,33.05949099488714,-19.41125890622935,40.26245475675818,4,S02
2680,0.7363998525909097,2.5386385370420785,11.094818268943893,19.598202334507004,42.07662515934685,3.5082706773429284,32.46304880601865,-20.737931988312745,40.88503627364308,4,S02
2700,0.7018218350272493,2.6029295132604973,11.238085091829529,25.598687747458282,46.88282679134909,4.192986836763043,33.77160655250152,-21.490238484743465,40.882494634062326,4,S02
2720,0.7480128849136956,2.402576505392446,11.506542437014057,24.41865648907051,47.5806188982901,-5.748064614275339,31.967911288332733,-20.69412084166408,41.46295028448905,4,S02
2740,0.5866468132548771,2.6783689203120224,11.466822472168497,29.655407850244433,41.03403564853827,-3.4871857487409597,31.90604308592359,-21.131258817935574,40.97983251157208,4,S02
2760,0.5563886849711059,2.5641772282129565,11.608701686319328,16.270474410958748,33.96532201159237,-8.777315956310153,31.454087951576888,-22.715077741087278,40.63706063289077,4,S02
2780,0.5005591400689291,2.5182862549843175,11.573926061719593,14.233311412672702,39.573249065826786,-5.357203787111163,33.08794355990819,-22.111243249981147,40.14911603326087,4,S02
2800,0.3945908388849788,2.63530778086543,11.321559286837877,7.483013050152734,26.871708079624064,-7.346756724716366,31.72181109875474,-21.603360038277774,36.91388004731795,4,S02
2820,0.37510973422604943,2.4068689726904227,11.296261800853646,4.752755487758853,20.320316263553607,-6.056803912673175,32.162841547624495,-24.094545529721334,38.91867247499261,4,S02
2840,0.17753798970852802,2.051340207656486,11.114796714400034,2.5260628299441352,18.408972958658936,-20.996572543667202,30.809593757996595,-23.79842818893426,37.40207209044496,4,S02
2860,0.3112213143580725,1.8979885040532327,10.774720851343597,0.28970972945589235,8.233084147285464,-15.124098407520673,31.676599663392384,-21.353421507795723,37.981163627158956,4,S02
2880,0.2286769067559065,1.6793293427469416,10.779890193943668,-2.678998383221802,0.27016579826053255,-9.360785364063632,31.53980677948277,-22.65746372132219,36.812951442901436,4,S02
2900,0.13690324428879005,1.794924593325562,10.714366778437062,-8.027952249136078,-0.7362891766516664,-12.772020686344426,30.375438534152487,-22.067147852551685,37.63667681996238,4,S02
2920,0.039244589288596414,1.3510025295551047,10.125919155700911,-14.160603929646559,-1.2411190148825861,-11.738337597688552,30.646537417450297,-24.99252554644447,34.05869196637181,4,S02
2940,0.039202078325187205,1.0100083872530836,9.944114751372581,-5.705318314301807,-12.539945214674898,-12.889555352344223,30.957142580516106,-22.736376487290386,35.6576824991956,4,S02
2960,0.06166710748326445,0.6947487095455691,9.741321118372687,-8.16222327581373,-9.141876469962101,-8.908151570581902,29.760839517166925,-25.1066413282779,34.563439054169294,4,S02
2980,-0.1159940610252716,0.5134657225680108,9.438951632591651,-12.147041511480225,-15.881503126811248,-8.537032922023707,30.08207305265209,-22.516282027591327,34.534835835354855,4,S02
3000,-0.02389724317595364,0.48478144969843645,9.28843781049923,-6.959194027176307,-20.46399656990818,-7.54830622010674,30.60819639771973,-24.51933910470403,33.510457786632294,4,S02
3020,-0.30295691578717365,0.13785722028387926,9.1020235617789,-18.107173472714262,-28.008154544197577,1.889485284697086,29.369455740782715,-23.493826351624215,33.66868329841972,4,S02
3040,-0.25231138695247957,0.13985315946822507,8.99883296042437,-20.17313045629937,-35.2168991036152,-1.4934220331434473,28.95443900855352,-23.196463797104492,32.038276665939904,4,S02
3060,-0.3260118873877793,-0.06155406001334662,9.011636814046476,-28.41901555285686,-47.19235900334739,7.095069089709989,30.129209558107895,-22.998788798533482,34.5008360441764,4,S02
3080,-0.5728786868337262,0.23600532114654077,9.011535116153976,-30.72381936092498,-46.130174429158274,2.157830485829607,28.7312282540602,-24.10871734648722,34.79875226487066,4,S02
3100,-0.5450029165245434,0.1545560683502356,8.84333102334403,-29.265337584488147,-51.48055841600264,8.62325288732084,27.14893493501279,-23.4211712094509,33.62112370036786,4,S02
3120,-0.6168071582924289,0.18462327033814296,9.153290859516375,-32.49069299292576,-52.954170588225026,15.110742061385496,27.770080064993177,-23.33895915398011,34.267428788280796,4,S02
3140,-0.5744585312496886,0.5233752755013263,9.296836003442113,-37.470927889954254,-50.35510582967515,14.196339274494882,29.85497575181701,-23.407667145148185,35.22588639747186,4,S02
3160,-0.3947289843529662,0.6205166057249856,9.274488929737636,-29.47976440953215,-47.57899321763237,22.230541414837713,27.859900032334494,-22.332989566999473,36.651597559458686,4,S02
3180,-0.3753330641746909,0.8792907813003839,9.368127452628775,-22.48682224759523,-42.58915669585089,12.876575432383378,29.09095327085802,-22.183939450910255,38.6133759540523,4,S02
3200,-0.29045787398963996,1.0065260714030926,9.373595941971427,-20.48542119867002,-22.192004172145268,18.623311753641467,27.535286674972525,-24.54168319688958,38.59896768341732,4,S02
3220,0.034827204674706666,1.3026834711760957,9.973310961751876,-8.51223605470451,-8.82798106022473,13.916665777331696,26.04535718953085,-24.18351924745681,38.20103375423806,4,S02
3240,0.20053983845826223,1.5478173483426492,9.984270315289892,-0.38087865349392835,-1.4075399440040683,16.32703488525807,27.7506066401356,-24.008453576636708,37.97297182569506,4,S02
3260,0.4382785276629333,1.680957299817757,10.482307473262514,9.462176985616154,20.174171042475628,8.246233974841948,25.763906788186297,-22.66730492712728,37.89132989621543,4,S02
3280,0.6123019584205416,1.9784449032780234,10.521732517837304,15.759422964861333,27.470867706536634,10.014914165126394,27.732466732699685,-20.28773385920276,39.94899870948991,4,S02
3300,0.7606318401141076,2.199972586482045,10.794712556669394,18.94240899129556,34.88316370171141,6.846527668157604,26.47692422061576,-21.760347041241197,41.71682664994269,4,S02
3320,0.7536921663642757,2.445672962132986,11.046006508618982,25.02632400161048,49.13564605654883,-0.5200277367851435,25.64135865373081,-24.902642402428217,41.20889676945868,4,S02
3340,0.6468046139452066,2.3815706828469683,11.270897686577719,22.644647553506122,52.96006210393831,3.6555863156834634,28.564889662161267,-20.3684643916354,41.158014049817375,4,S02
3360,0.5321614890496786,2.517109190859135,11.540923445194343,22.9746205283857,48.53526874992656,0.11246058145649596,26.72770146267835,-21.31038610512978,40.606668645581124,4,S02
3380,0.6215199928759753,2.6691318557360653,11.605403984115174,24.120677101818735,50.17099295205599,-1.9675181140281421,25.52126231135737,-21.475687488855318,39.95376209675476,4,S02
3400,0.4687860348928755,2.5348439250421673,11.522438417461023,17.469037903189186,46.38976725545852,-3.7768073493242507,25.669457798896758,-21.14056590136361,40.732393446758465,4,S02
3420,0.5266626812389659,2.3452912234987315,11.538891563340522,16.29665373042977,27.971430374508788,-7.724238876368039,23.84593359482561,-20.874589610188018,39.3358912729895,4,S02
3440,0.35503067712028225,2.457080858604696,11.258364566108847,11.838936668655233,28.491094053421854,-12.916673142323441,24.11607547474015,-19.96865923674985,40.201406855968955,4,S02
3460,0.30962215863187137,2.4620017710078663,11.202921028742248,8.86782493754854,23.732094035503916,-8.620076419835078,27.97545855233362,-19.84790398555162,40.36079160051478,4,S02
3480,0.32831021036840036,2.180385008628104,11.215912019136447,-2.814853697959876,16.881435844362517,-14.752168969516896,26.431517059587254,-20.82240942743981,39.28703152570033,4,S02
3500,0.025267236933520787,1.9368308438855386,10.889172626840477,4.798218678879395,14.145117801580941,-11.063290253189829,26.375539119823976,-19.981180396868062,38.84033467130988,4,S02
3520,0.15045605618554045,1.8303537810056314,10.887167926548178,4.314878799316626,5.069920714669131,-12.417212775514074,24.974859488684068,-20.120173850731526,36.97597170502759,4,S02
3540,-0.03430079182188875,1.4718537434957646,10.470866931743714,2.291954604259841,2.0604798704650804,-12.694513251028999,24.27442617691791,-19.60116689663879,38.46195960540067,4,S02
3560,-0.0018244303902563291,1.3811415105851452,10.32475820919904,-10.854980539699813,-4.611861390689048,-12.988941063772645,24.68644513658969,-17.95186843734693,35.42811325170173,4,S02
3580,0.06273822899131137,1.159451594358605,10.194107025497512,-4.41803618015277,-6.424845644986631,-13.465942680507062,25.22235550662824,-18.497496011907423,34.18345165726706,4,S02
3600,0.12069758139258394,0.88889559732763,9.810247802901076,-7.847679332749116,-13.78507861574277,-6.6178231769843245,24.414064460121143,-17.416225326258484,34.2255862055511,4,S02
3620,-0.08147508728881839,0.5983340126399799,9.480398717343192,-10.091474743679665,-16.18893908255584,-8.484089305787458,24.3478348869876,-16.15065753507354,33.11047306930733,4,S02
3640,-0.06476992025788239,0.4687887432142292,9.375458927133606,-13.083460818907177,-15.733593614793136,-4.497220139911136,23.99990566381812,-15.765052345777988,33.32669622805296,4,S02
3660,-0.08334903788352085,0.3438293845382595,9.043908419409075,-17.103539178625123,-26.223730162408398,-8.213035220937092,26.365958593209875,-18.285275156396818,34.06366987545584,4,S02
3680,-0.14126059395043394,0.31413763537774747,9.10398387279535,-19.2924704273526,-32.77224270892443,-1.178992701395,25.552982009669748,-15.401108057624109,32.8303480325998,4,S02
3700,-0.30458840285140054,0.2530284936004993,9.040598710739985,-21.188594502390796,-36.33089578459246,10.786878854686192,24.85176222847756,-16.207169144621417,32.39927172229274,4,S02
3720,-0.43777785784557643,0.08801030375066932,8.845423657330217,-33.91632427361058,-43.01655962498143,2.995135108671247,25.109335496594305,-15.416520852974786,33.64430001585211,4,S02
3740,-0.5202381579847827,0.3524315664629631,8.883568679177587,-36.639202734885075,-48.6178316660137,10.944774736828682,25.65656014628935,-15.833402331014847,32.30013623651418,4,S02
3760,-0.5820607479913957,0.1945833820700802,8.985705912031259,-27.893946883289065,-55.09290981192883,13.15865118341175,24.40292118978894,-12.455438224871742,36.907367608635646,4,S02
3780,-0.529324915882908,0.4057617485705976,8.98385452281476,-33.855846111357465,-54.1810486103371,9.440141834083118,26.225456685822945,-11.857006666506084,35.25461117086587,4,S02
3800,-0.5023616368134116,0.5624347014716922,9.144618230239214,-39.14677251997657,-50.07081055234868,18.83353322398834,24.278364828809785,-14.780811125590684,35.833576220900106,4,S02
3820,-0.2479549878046847,0.7939899760324538,9.399239533802348,-32.03938926170177,-37.13740160508613,11.97884429317439,25.406238240539636,-13.857364765362536,37.28609508748449,4,S02
3840,-0.20425586209889893,1.0281845759563566,9.699904427469159,-18.607411436776907,-24.67337032993072,16.85231288610924,25.191303566824892,-14.33106643653955,38.2964366725305,4,S02
3860,-0.12258048144566847,1.2037376319351454,9.71856335352164,-14.42776939828525,-14.121534089413103,13.468121766938134,26.102502921421124,-15.289293095385162,39.30048409494378,4,S02
3880,0.15507738983624933,1.4852016651758069,9.863502607831695,-4.231480296624011,-0.06263117127288198,9.305571402285755,25.580596159119715,-13.456888284413012,37.66693145423029,4,S02
3900,0.24060781037465312,1.7253024846742062,10.171181766097368,12.201671089279888,18.43688326374576,15.255696865048376,25.20569675293021,-11.862827450666188,42.27349229010402,4,S02
3920,0.3883053665171248,1.8032490852357022,10.68528267956867,11.597109951997542,33.63967298323024,9.028800344464718,26.738354436416596,-13.343848931318345,41.14995852313175,4,S02
3940,0.5937775883437226,2.1077089848380477,10.679938688961533,14.698812068380892,39.7266712502106,16.111028987490176,28.99243964912522,-13.920602381907393,40.03079537708514,4,S02
3960,0.5525677309015139,2.0802825262074753,11.01820747756303,27.389354837272318,45.965372447068056,7.646457129515728,26.24261155709607,-11.430986899148095,42.67601928359417,4,S02
3980,0.6608550099815849,2.454930917508655,11.225387514183376,26.853198659936446,46.97370070938642,-2.319289763865222,27.39772600391996,-12.523463951008704,42.64609381504853,4,S02
4000,0.5804747504455501,2.3670573837120408,11.275016715793528,26.09631351024989,44.246229895404106,6.125052325771852,25.77401840220426,-10.925225765547824,41.32379260873504,4,S02
4020,0.610854076991489,2.5500136599527705,11.406346548375865,19.333345889406,51.08465595273471,0.2362837631288358,28.388415047746093,-11.565574362419408,40.432995100363655,4,S02
4040,0.6219601450424858,2.4934667014542264,11.452001874015167,21.323737978281766,47.650095789246166,-8.121006887261714,26.949027972326,-10.663961055781714,40.34908861343027,4,S02
4060,0.46961059171983255,2.5674617394709385,11.478239544949679,17.518984956753105,40.080026363974845,-4.151033338532369,28.630853606860747,-12.649987379028152,41.74318680454624,4,S02
4080,0.4128378738516004,2.4244599117683423,11.510127723215174,11.660123915174204,27.685360245703738,-9.578241222241118,28.338288033459502,-10.628677561453458,39.23300331945229,4,S02
4100,0.542413742102336,2.2384254549140166,11.357887443359044,8.364559557097131,22.665570265341955,-10.054640219814056,26.699504149677573,-10.169173480518895,39.261881548676016,4,S02
4120,0.3065766462417783,2.3014939909890013,11.373355870605241,2.0750764847122696,13.73622189611557,-16.502683701017972,28.45523791024148,-11.690921932821237,39.38489493243549,4,S02
4140,0.2981743961508878,1.8743884604442411,10.903888172398757,-5.474670182390319,8.612085521114771,-14.491990672396494,27.843423081339225,-10.10208331845888,36.84500210405932,4,S02
4160,0.23070478872222813,1.7393802690120175,10.96399779124546,1.5212968194595193,4.8704295344529305,-18.878840391173185,27.634845930588433,-10.122367154934524,36.9386440305394,4,S02
4180,0.05799117778620067,1.6968049690044087,10.611044564704095,-5.747389032777148,4.318686955163405,-18.40511479969885,28.089364253542072,-9.80181256451521,34.197182400144484,4,S02
4200,0.19171734608851376,1.4083593295879666,10.267902865426807,-3.901447972814235,4.485604792072191,-12.64439706131726,27.669818507250998,-10.761468607573502,34.71255874055154,4,S02
4220,0.04259698587141341,1.2196614329825064,10.226752298447893,0.04681317650476746,-5.625814874218411,-9.55324963471403,28.888406040504915,-12.214781291141378,33.146183437901826,4,S02
4240,0.07488411828447196,1.0732183779084854,9.871246621002408,-1.4004924606133464,-2.3200063213006716,-12.563545505848575,28.811530761379498,-11.468683292044812,35.40591267400744,4,S02
4260,0.03746100841466306,0.6314428022481167,9.680250833949241,-3.311559768830323,-17.52304062184449,-8.736509475006892,28.784187548319043,-13.56252454168296,34.47424031319743,4,S02
4280,-0.10596717913465434,0.5847663373043799,9.39441964040412,-7.182061065663443,-16.883195467753957,-0.36762625853042474,30.792817039898544,-11.372316667587121,33.911478702661825,4,S02
4300,-0.13594077151006215,0.5168275815610315,9.23339990474448,-20.04201315180085,-23.529486545375132,-0.496075298728604,30.685950170848688,-12.12659768253694,34.323136388293136,4,S02
4320,-0.15766253591139326,0.41533088964473985,9.132713927422005,-19.91450658726385,-31.76884639516471,2.385986534505407,29.624836888379473,-13.146075418386076,33.102754054694316,4,S02
4340,-0.5439347353736634,0.3185729974452121,9.055451430031159,-24.468414240180067,-36.845359855868864,2.3085328586967337,29.596960176928395,-11.562946796169072,32.36601784798597,4,S02
4360,-0.36998212304303657,0.2913290463079305,8.933292166331405,-28.208447163392464,-41.56965234343613,8.405580054436859,30.022431523080773,-11.858405381281784,33.31538044273505,4,S02
4380,-0.4541651143889479,0.1669611884761437,8.672972501390143,-29.192750417898996,-52.99512146628037,3.158625368580178,31.350738410223858,-10.954665564933466,34.68498098845055,4,S02
4400,-0.33022024307910713,0.2731543439612795,8.859631538148495,-26.260406059052883,-50.26492275093683,13.250942357670635,32.36947243161449,-12.612613057031314,34.262087143296725,4,S02
4420,-0.580234303104948,0.3913454679593866,9.11337868606189,-38.98770667768861,-52.458128345223436,15.73511968341048,30.503260558291768,-14.117955628282687,36.33595046648302,4,S02
4440,-0.454544215903657,0.46002665595043307,9.080275045187818,-28.324164138828994,-49.374336354360295,19.46085671029151,32.90408383492672,-13.36041717314639,35.57092966214071,4,S02
4460,-0.27717833720455376,0.655066304703164,9.386558070699442,-28.036979011109537,-46.38823883540855,16.234183855877735,31.583246024372777,-12.05101162692376,37.7262368807144,4,S02
4480,-0.24641871824686287,0.9336488872268573,9.452519773873421,-22.319018685961765,-23.682633616334048,15.739270387732805,31.723889706887835,-14.24509063971363,36.9940576955434,4,S02
4500,-0.20100961616079996,1.0091884919400909,9.594286603154215,-21.017847136932,-18.624507933054392,22.990013022824417,33.27991976948228,-13.246525081873083,37.182643110312725,4,S02
4520,-0.06666611876599257,1.3380554805813973,9.830299374365167,-4.77399853227011,-6.937510777297082,19.305645106688992,31.066449965467655,-14.229337426793581,38.41641646922132,4,S02
4540,0.36088389966091194,1.5830985300097542,10.242638689248414,7.302204227724029,9.843121685742325,15.403954593919586,32.550677506278326,-14.313127934556725,40.39630624459977,4,S02
4560,0.35377750429778876,1.636294466064031,10.30958905401318,10.39937887669511,25.095433327713042,9.645395197159857,32.42291640351772,-15.580292442393096,39.96751199273692,4,S02
4580,0.6168316949013355,2.0851866285640104,10.889005618159755,22.935285676425348,36.83112920439483,16.145775539231106,30.03789284677001,-13.725408428039724,40.97393344029066,4,S02
4600,0.8241105848967386,2.257306734996223,10.994445761518914,23.434500558284867,40.16091674592385,9.334436170844414,32.53144822605703,-15.646441200527224,38.610100586877806,4,S02
4620,0.646921009324583,2.381245552659211,11.021468924490955,27.376948149940112,51.582883143269804,5.095707340013549,33.66586385542331,-14.880906332691602,41.87630269462358,4,S02
4640,0.7311683666914287,2.616107589953009,11.26787709210919,25.334590568069974,49.982123536236536,2.3058739464300446,33.42034826372431,-16.545251871550683,42.53727503595475,4,S02
4660,0.7519573239048741,2.583186536259611,11.486165799014147,23.206775360834534,48.60247091947364,0.9878883322782283,32.7765909902723,-17.08758537024,41.62730924788198,4,S02
4680,0.7411032197811069,2.710185668160734,11.605058924105801,20.406982520453486,44.917771827973226,-8.721979528136155,33.06689476369297,-17.099084769045938,41.30595463312675,4,S02
4700,0.49588056981396267,2.4546537454301394,11.635782188295964,23.443560060266254,40.91211446796365,-7.249825300433508,31.818871611857578,-15.811114840772836,42.74956481390164,4,S02
4720,0.31751717171770044,2.5872333083894814,11.675352789347247,21.28203244067699,32.9616712194224,-11.637984462844491,32.99104871624003,-18.679456597783393,39.39230750515814,4,S02
4740,0.2395242294022039,2.4459188634131537,11.292830428924471,8.253660554517825,26.21497725327007,-10.735208884233217,33.338201872150165,-19.02234941895504,40.58601017111693,4,S02
4760,0.23688363960553424,2.250144342369217,11.361357488090906,8.692461058633004,10.84886078139742,-16.155761790296886,31.90619730044174,-18.511475690921298,39.12016726453424,4,S02
4780,0.18459247642010596,2.1694143047251075,11.064181401237207,7.044531528296681,12.610325793223565,-20.559140429542094,32.57662285255236,-18.482919829708074,37.27856507919293,4,S02
4800,0.1665849008644184,1.8562669587002505,11.02912523033338,3.5471036143495445,6.915611047251422,-19.304269434900803,31.86692698702511,-18.881672478363612,36.98628851310598,4,S02
4820,0.02083589943925568,1.5422834371500134,10.39939820160091,-8.298634800255652,3.7948277477994177,-11.795221308794046,32.604541594179665,-18.630925461016346,35.748823243208236,4,S02
4840,0.18254112337293915,1.5608885870381353,10.668434401374471,1.0515167449723934,4.577536733039562,-16.64802507071419,33.58444660474174,-19.822813643981583,34.80361738324744,4,S02
4860,0.05261379255321577,1.235169394680442,10.228904972439016,-9.48721544624064,-3.197842258015263,-6.712691263016114,32.7551479864378,-22.050791085599762,34.80724118258865,4,S02
4880,0.019083231726615052,1.030636862552499,9.927675051650972,-6.101326000007241,-10.584981543457282,-13.229576091641604,32.13035080372793,-21.069692829592768,35.98655285451138,4,S02
4900,0.04933005211507625,0.9101362755637941,9.668354647649291,-10.554131091770255,-15.905171979653103,-7.86659523107806,30.8125742840428,-20.47275746199172,31.386539481033857,4,S02
4920,-0.058203614968881656,0.577099526913132,9.574666286820566,-15.90937799139574,-14.109315453489385,-1.7087508112995615,31.670484867562756,-23.442840244767787,34.47948972156357,4,S02
4940,-0.12807189030751268,0.4642050792590841,9.506480909457611,-16.527234680393214,-17.582727421976905,-3.791769703925192,32.94255081144053,-21.29578606745576,32.00576643787166,4,S02
4960,-0.27346044725069196,0.3083562435231907,9.194454336099156,-18.32632945201466,-27.266551007896854,-5.854487978729724,32.00143361320424,-22.051551949518597,32.40156771742624,4,S02
4980,-0.22688278423122007,0.37997695670994946,9.027366521798164,-28.223300405274465,-37.73936572471045,0.8598433074024711,30.919664804803148,-22.668174271027187,29.407764850570246,4,S02
5000,-0.4332875900848959,0.1959482382868259,8.86441276859771,-33.32681816199986,-41.794141156104665,3.4192540285179733,32.63364584720431,-23.83313128141781,32.59162298403615,4,S02
5020,-0.5392351875309414,0.23330143309082046,8.83678067128696,-37.54053276539108,-49.11001862494683,6.945702910164192,31.848623753233646,-22.949897809458797,35.495756507316614,4,S02
5040,-0.5281298945327283,0.3458491722229875,8.808094820968261,-29.32412707743296,-51.47508522775161,8.105611637487742,31.29812017410374,-24.203146462333805,35.76406064074388,4,S02
5060,-0.35632677084189635,0.3935238871146603,8.935709779885764,-33.10935615771157,-48.85346415596175,10.510482299384549,29.968858086589396,-23.41420673705834,34.865530694840814,4,S02
5080,-0.46563616680067654,0.5643175241545584,8.98436944464757,-30.793744430993474,-44.80713609249871,12.212853511472176,30.86131593847794,-22.64370364079616,35.13000075916531,4,S02
5100,-0.43774790070908043,0.6185666013430378,9.269612060839387,-39.69287205106694,-42.15220991325811,14.829217652204509,31.351209233287438,-23.675338489014454,35.41956207155914,4,S02
5120,-0.3608341300150385,0.8938285517301652,9.321802759325616,-26.693373245538236,-36.99899183009299,14.944099890023509,32.54866215695812,-23.903615235339647,37.31007720793637,4,S02
5140,-0.03826591600909554,0.9552429292213236,9.606205954856483,-9.395967861202358,-25.22697299710817,19.846667309447717,30.135738092192877,-24.375816472742237,37.452020889223355,4,S02
5160,0.03652289638354614,1.3973443996947432,9.805872563069054,-10.0635910948237,-10.922173192843495,25.643050148268046,30.328324372495413,-22.394239449480015,38.963853555227004,4,S02
5180,0.22335301136833108,1.5259642934672437,9.86520128485424,3.5087176658007406,7.927816799636751,13.884768288900844,28.26135098318549,-22.44552606603338,39.22959365564369,4,S02
5200,0.4295671400208414,1.7027188547464631,10.242718524687254,6.3675320606387045,21.883383230851422,14.323718287690387,29.61740641772468,-24.241423374287827,38.264751953108586,4,S02
5220,0.589409381118673,1.8841936959230383,10.698180772113416,13.061738596877763,32.765196912238146,11.148485499390867,30.992399328899914,-24.07786769781418,40.05023252628009,4,S02
5240,0.7097740800214077,2.081186136980589,10.733601469833468,15.42546318402469,38.89822909596512,4.161762623846822,28.154461610534835,-23.179125105311403,39.884649284164354,4,S02
5260,0.6291933545665521,2.2877239454442364,11.009228625286653,26.066619454186586,49.22048404422177,1.418624057176014,28.10484075152283,-25.092932380939416,41.95462937682188,4,S02
5280,0.6366940254713469,2.594234823372561,11.279174836813732,23.865602005812022,48.21644256416409,5.627623647765736,27.431296114521075,-23.545531993635898,40.42908011224864,4,S02
5300,0.7084113090468326,2.454351261982222,11.326108808403465,26.687054916104252,45.958094146665466,0.16941536588423156,27.618787237251393,-22.17500524557031,41.05821576663566,4,S02
5320,0.5124789902229735,2.7051787112980232,11.525613834906023,24.033918026023624,53.438701851435006,-1.8015863645427035,27.52425639351894,-25.003257971476714,42.233006234364865,4,S02
5340,0.5313602428774531,2.777221336194883,11.564520811148727,24.4613121041963,40.054570742820765,-3.789923274253965,28.244166043284658,-23.949085720850093,41.462814825276695,4,S02
5360,0.5485411305433971,2.433285338386768,11.434028471408162,11.437997005076735,32.778536316713826,-8.507957625982904,25.85463191766759,-22.505484218111533,39.31021072499814,4,S02
5380,0.31812171742744844,2.451621927504217,11.343121839141977,6.250952098550925,33.23618771712556,-10.32805095102779,27.104942528859457,-21.95942221500497,38.22163418480349,4,S02
5400,0.29381226594670573,2.2242024375618197,11.181347616528116,7.798252707262066,13.248403896512926,-16.280029482222393,27.049847860295394,-23.259393944470506,38.449377258482784,4,S02
5420,0.13238703648533906,2.0931328436326777,11.120748264546295,10.496394652858893,23.611485139996237,-10.636434400767627,26.99048907458561,-25.08346340831186,38.42108851519196,4,S02
5440,0.3092169263520088,1.8865091826743814,11.06146521106183,-5.291490049766859,10.023208184425995,-13.125756453908334,26.887197243830588,-21.86974358399746,37.73909680460886,4,S02
5460,0.1110843337500694,1.8428820379348225,10.912314563741502,0.26800129924647553,4.59304769601994,-12.476820878403517,24.829920165642243,-22.195065020070356,37.602027771634226,4,S02
5480,0.2155583007388006,1.4944911536738057,10.53341475745832,0.8003960613781222,0.8490912508731949,-15.376806979462927,26.892124131998568,-23.856770343121436,36.505643001117356,4,S02
5500,0.06569628180171849,1.213213444466604,10.159685347900316,-0.6894808181752925,-5.311456809447357,-17.193998782147617,24.77077356885829,-20.400554721878237,36.1172644990781,4,S02
5520,0.1817880548270579,1.2565407831738307,9.97350195001924,-3.0182132869423355,-1.285978797725375,-15.91700221174189,24.989203791426924,-21.682422509248802,35.6274211384474,4,S02
5540,0.047344104005924294,0.7905603663440168,9.751625509560984,-10.308370871098258,-14.292866402697175,-11.946496209278502,27.496378321785887,-20.280809594419132,33.70001843500647,4,S02
5560,-0.013826709911775509,0.6720646494639795,9.574759401164092,-12.515565684658128,-19.73103382285961,-8.235992851471922,24.52621335404404,-21.82098892803655,33.44906783118224,4,S02
5580,-0.04850548829178067,0.4446811721885347,9.340827970847718,-14.35711193626042,-23.333474960597705,-3.9872366346575316,25.845062365746188,-18.546266554939372,32.994224285894674,4,S02
5600,-0.07064712501951584,0.4809570667940252,9.171026002072542,-15.0591180974227,-18.672174643601462,-4.491027876991149,25.56570217388408,-19.98646627538725,32.77344825092496,4,S02
5620,-0.2172287662041311,0.16920693998451158,8.894137521912311,-19.584110441793808,-37.70041282372454,4.047075047486321,25.048339079307905,-20.230922001045478,33.75598343924928,4,S02
5640,-0.17828279906747377,0.33067330576701026,8.99945726842318,-25.460138504873203,-45.42459081059127,12.785950359950077,26.47361402292204,-20.958301789645557,33.38489049586543,4,S02
5660,-0.29316809170814817,0.07331576017098518,8.970764322970805,-28.734047341496833,-43.46725459242289,8.911609588760674,24.886520596823097,-20.20124183013185,32.67889910765953,4,S02
5680,-0.46320556833308724,0.1885872463659523,8.885168411967188,-29.45121462762235,-55.577028705082384,2.3444745435073755,25.76951293027059,-16.231236686113974,35.39824360638147,4,S02
5700,-0.37427701126129254,0.4538777120136062,8.943411158371156,-34.92680332243558,-53.17875480743708,11.672769812964038,26.16511881875178,-17.628283570087675,36.31912991432761,4,S02
5720,-0.3602937501237605,0.4477161833866839,9.119279328916454,-37.158079091459406,-52.52642799991576,14.21497496699008,25.09180184530553,-18.026093706914992,33.85182847383453,4,S02
5740,-0.4325651698562677,0.555486312805008,9.25951448525159,-31.924234543053352,-46.25049498301505,11.482103623876554,25.244067252704546,-19.51591763734534,35.580893388685425,4,S02
5760,-0.33300638608552025,0.6959695551434968,9.277074044184289,-28.03566789244856,-36.1647931046167,14.441554817989376,24.13372084578461,-18.445010479644594,35.22510291176799,4,S02
5780,-0.19322298387898293,0.916983442177912,9.250893522149234,-26.313103340971715,-29.104581611533856,14.682844309192307,23.876742925237455,-17.333892718738998,38.441574498441874,4,S02
5800,0.06538549060974061,1.186654254521518,9.609372006060969,-7.806657610771098,-21.419251598416924,14.046398639104497,25.200808747351083,-16.852399002237874,38.64936290942647,4,S02
5820,0.26777194762665274,1.4190434643052854,9.971937119795086,-0.6672772673750247,-2.41020816806854,13.016380881283016,25.269731679245176,-17.818132008905643,38.3649440252002,4,S02
5840,0.4208897288807272,1.6532855854279467,10.146391443679867,6.366844437830793,15.988228259121442,12.340480998257844,24.2666502526405,-16.356671423405594,41.17753206466715,4,S02
5860,0.45465753040233836,1.6952396089474875,10.593671188534078,13.213568769590445,25.896854878231824,15.028820595336839,24.209525743067665,-15.738225551073235,40.39950971835408,4,S02
5880,0.5442202662813769,2.180866943853715,11.036199047910497,19.491509096982035,39.64805632343805,8.863821032179787,25.000429845758294,-15.00814312291822,41.11647794106281,4,S02
5900,0.5370715351384774,2.2161775834880872,11.151152787982335,25.694228794336976,50.43377494832094,2.8968655949883044,25.946157181424738,-16.018363787497933,39.73692325218319,4,S02
5920,0.7367460332059084,2.3378293653634263,11.120114176829873,26.909726269458947,43.657629141957955,-4.2205779742017295,27.114381787319186,-16.283277879183657,40.521746858292325,4,S02
5940,0.6570660673364344,2.4468040786720153,11.480112228819463,21.97227984271584,56.82378204644862,1.3754188484069947,25.2337360935242,-13.16806389797432,41.44616544060478,4,S02
5960,0.7348417896378902,2.558684310687351,11.518062110803504,27.952239035777,45.87600977570026,-1.83194180603408,26.006532132251518,-13.419734726739735,42.28806880504982,4,S02
5980,0.5769227536073944,2.664465741286953,11.462175400879481,15.174316898635357,40.22908347390842,-7.440684781368871,27.024582101547377,-13.323499672011128,39.94867193387038,4,S02
6000,0.5024356903769119,2.479009580195154,11.628952878419094,16.740106035835993,33.30678115674211,-11.957335942174637,24.81793351015094,-12.769572196371069,39.061806645872586,4,S02
6020,0.3705852845762525,2.548841396220212,11.56565750347495,14.059091873699238,31.05833823502329,-6.8454993895674585,25.157863516890252,-11.679771382234566,40.072642202837464,4,S02
6040,0.21787714876930975,2.3733311681850626,11.425930580587599,5.762538457207518,27.170399623105265,-7.00608235384773,25.660893121164033,-12.69259421029304,38.33232137376389,4,S02
6060,0.22232749338322824,2.252814655855447,11.193274711208472,-0.1482585496596025,14.964015541957984,-10.60573192937878,25.315124793744808,-12.550014709033622,38.763217845741714,4,S02
6080,0.2884474000766447,2.1194715237487047,11.114290010611457,6.043702787606917,14.031418123202439,-11.000159474266836,28.132707580721334,-12.101093314910266,37.8915402359466,4,S02
6100,0.2189024671749353,1.6999535161579413,10.86078935903092,1.522245310446202,9.308124358100422,-10.964860026871412,26.5974235245744,-11.661017083898962,38.016229098825534,4,S02
6120,0.08995056031794893,1.6673790051970259,10.581962414150393,-1.5415563937635834,-0.6354358007403056,-19.761808977492315,27.516533606064534,-8.59616897599335,35.62260941321028,4,S02
6140,-0.041024158021722296,1.4292564122209852,10.487553214612584,-4.209344155170694,-2.257948092485244,-15.062192979000036,27.38211238013978,-11.291182788462816,35.35067602973484,4,S02
6160,0.1983845229585977,1.0163944503752473,10.057398886351935,-4.029128700578525,-10.115439129924864,-10.388557985285026,26.011445339944707,-11.86677710223027,35.02863312439911,4,S02
6180,0.24791459919048311,0.9430568223747571,10.03758297016658,-2.224902576503627,-4.616299135494062,-10.339699467650442,25.238402186874062,-11.975557030319099,33.58841578260737,4,S02
6200,0.10177209219202644,0.6065729148298387,9.509620006278073,-4.219542558494167,-15.1043388438576,-5.877443350475574,29.21492683400919,-12.757475227013853,35.042383129571206,4,S02
6220,0.0020082850219834414,0.7867663029487537,9.47035402977384,-10.854076046244757,-8.796578454484958,-6.919769809365956,26.966947563311198,-11.037597777177265,33.7158729866647,4,S02
6240,-0.09576509172301492,0.31523320166708396,9.126966513534354,-12.037047093312406,-25.647093719637304,-2.7292870941504987,28.016569159838824,-9.017580783109612,34.04065811998883,4,S02
6260,-0.15407173785523445,0.37084540946769784,8.882459987455366,-20.741646051532616,-32.143770902729514,-0.5350419294842131,28.194164317494657,-12.08692246701239,34.45896888675773,4,S02
6280,-0.16284160144625429,0.187366600760549,8.985890386110665,-27.95403585110466,-38.553510299382324,5.793514695772696,28.211569518111055,-10.341520116777584,33.81836899843536,4,S02
6300,-0.4641131010273345,0.32493809559408343,8.850889955341426,-19.79290961331152,-44.67033361610877,3.106194975503424,29.205112581333694,-10.90726197358564,33.63368601827838,4,S02
6320,-0.45444551691660484,0.2894909545713303,9.028721891716813,-28.534577769582377,-52.802034120887086,8.46960361008927,29.43360154498561,-11.903830986298459,34.3727346254062,4,S02
6340,-0.4059109890495338,0.5083738068253092,8.989489000365586,-34.956941450112716,-55.298937659866304,12.843006355491546,29.218013753110554,-11.304313286939335,35.821198516701955,4,S02
6360,-0.6356614409333607,0.3204114541728293,8.96057602118812,-30.83528632972233,-50.11792580227446,16.085380422636547,28.553915646307843,-11.003192543268522,34.236819507060176,4,S02
6380,-0.5048117006964439,0.48216358643793483,8.96194380328757,-35.356995647947464,-47.400998184496856,12.302428076595488,30.566788001397132,-11.674183311983185,36.075511310648295,4,S02
6400,-0.4047634663413424,0.8550025797923506,9.412779303853533,-31.521720423301698,-42.035772848237414,15.133808429650278,29.092435936512913,-12.247322528641,38.74058419041725,4,S02
6420,-0.4759335019317553,0.9833040409947187,9.4171733922631,-16.872417666661214,-30.062659073509142,13.944210943066679,29.016648447850553,-12.495550197361721,38.19130043843656,4,S02
6440,-0.22330718486385245,1.3237236139662547,9.797018627584315,-16.903384850279327,-16.193471047508563,20.63289202675545,31.917249542470763,-10.57127510133239,37.83569145135033,4,S02
6460,0.08224360350548438,1.2640241164311656,9.938238646753902,-10.284859990684758,-6.058325068182835,18.32606598968712,30.019211523797694,-12.805061230625352,38.05998030187944,4,S02
6480,0.17609110100096215,1.8034284987281661,10.164734112258454,8.733986044131537,6.840566249006577,16.629677078081126,31.529495647373444,-12.508920192056035,39.097359301933835,4,S02
6500,0.39043982347734585,1.8974662040490802,10.493367025376111,16.30252882831813,18.13429273942246,14.823750316834193,30.989557208524346,-11.325526191033022,40.8325719933412,4,S02
6520,0.5917344555109433,2.0152374983143364,10.646783657358569,11.605107179748764,39.645334013860996,6.158787110365946,29.446694724930797,-12.454137880821866,38.97636816729733,4,S02
6540,0.6100970041725732,2.1538263040959054,11.091375503820897,15.320740313456898,45.75764224212032,4.50519833873178,31.246450252164294,-11.623768327111382,40.80456680139386,4,S02
6560,0.8531749511404966,2.240156788351824,11.334877980733587,26.01200406384495,44.88237012785118,3.7493348104241138,32.07059919514031,-13.039298187629818,41.70557651312516,4,S02
6580,0.7193595401009528,2.3614247642095614,11.498827361689143,22.61246713554983,58.79307317086067,2.058467820069493,30.464687616278425,-15.249865802483972,40.38734806558134,4,S02
6600,0.5618578806653309,2.464916627060829,11.517455798497062,25.42007021688423,54.31422790539096,-3.030629299384193,30.419298243221395,-15.75846871769577,41.28666213166079,4,S02
6620,0.3155316073458384,2.558634035153807,11.453189676932533,25.88643424938104,44.71202799254728,-0.07949814886863005,32.873231179909396,-13.501476533536385,41.119825061036245,4,S02
6640,0.4687258311534481,2.6590449285972957,11.544926846776443,15.672352757626545,39.7205975095146,-3.575141465231057,32.288042128723106,-16.639916581871592,40.730243951350225,4,S02
6660,0.506305875572129,2.47432593869709,11.560250538273177,14.269529338254667,33.92231124821909,-11.644431020120695,33.450201645656634,-14.001085393023676,38.53085121583917,4,S02
6680,0.19014327271855294,2.519753047548504,11.45972048895002,5.413572247505702,24.404229400242624,-9.302171330921857,31.715035578243825,-11.86664141013578,40.48614169273289,4,S02
6700,0.3648052250733451,2.337769128070315,11.357620473633602,4.59227032955008,20.279558657777997,-11.27486370916929,29.325705703084857,-13.648626500885861,39.50853611014278,4,S02
6720,0.20601828437856612,2.031990348655751,11.153015039114765,7.899309562824448,14.635396832417976,-12.131428492637372,31.404105105467636,-17.153055921892737,37.2077763387516,4,S02
6740,0.011400018106127785,1.7035537133477787,10.71678376691527,-2.004041275951472,5.563309537573346,-18.23570439477962,33.879825483860714,-15.957969375258806,37.103398841172194,4,S02
6760,0.19586787232460504,1.7625796312610809,10.72060310113952,-7.589296869971611,5.573704048242344,-8.29399465827955,33.841411563147204,-15.893325060955407,36.57880904596421,4,S02
6780,0.348395711862334,1.5374997218272373,10.608943159761974,5.255843497029763,1.0988319830623985,-10.972647218517357,32.82369058809851,-16.548818255503942,35.400520485491874,4,S02
6800,0.005832018852029552,1.2932588508734162,10.21240476838457,-1.2336052990659816,-0.27968941939760383,-13.866321849101533,34.08837506607337,-15.481699132230485,34.924028429756234,4,S02
6820,0.16110418824618009,1.0601430041826352,9.879706820082882,-11.2357364401464,-3.321966590963613,-17.515014478154686,34.11081766527304,-17.58700268749547,32.81718507717402,4,S02
6840,0.03698315811550591,0.9003030106276928,9.786416830716437,-8.392698723213698,-12.719354495347948,-10.60471997551984,31.25375672794644,-17.12551944198669,34.10531775360471,4,S02
6860,0.0001648101068154606,0.6364110785963757,9.453903265937601,-15.311161719198122,-19.98181409328326,-4.914422170070908,32.26266554249861,-19.5023331057831,33.116317065491465,4,S02
6880,-0.1625794511958776,0.31177642730714294,9.2696722310133,-7.212547245735113,-13.874541489591238,-7.8694510664811315,32.85629269331018,-18.99163626078488,32.084200686695766,4,S02
6900,-0.21910875804577426,0.12602015426287033,9.04731600485708,-13.784770741337013,-29.706983169987804,-0.7727838630885518,31.97679545892103,-20.568764846574965,33.75797473352599,4,S02
6920,-0.21103094478870535,0.31114934181888476,8.9445850227323,-23.31208251296248,-30.649843964377563,8.423294848876827,31.863725567972693,-19.558681850045694,32.89242709644935,4,S02
6940,-0.4141872644076554,0.30330350908037057,8.903219088306034,-30.222007489316855,-38.75935365105974,8.620999300294514,30.746334830371346,-17.544573444233123,34.01176140461309,4,S02
6960,-0.3469760590451757,0.18615882275083634,9.08073556627035,-26.084759890110202,-40.56026678067269,9.412054630587233,33.402599415412155,-21.167766785857083,34.4861345925657,4,S02
6980,-0.46974840309466814,0.1606080851299479,9.031602208923786,-35.441548646935885,-52.938457510942655,8.683820281111531,32.67860566783991,-19.689201135972212,34.06126775270103,4,S02
7000,-0.4401904131802855,0.4039331988517147,8.955457987431489,-38.36859757926341,-52.57537422803077,11.341526863430039,32.71770067860605,-21.361874642526715,34.37946194889456,4,S02
7020,-0.3954588668962059,0.4852583475643077,9.112954546409545,-34.49836627845356,-47.606787833151195,15.379890725783243,32.1041037903331,-21.831331504790146,34.614601120825114,4,S02
7040,-0.46638562970079067,0.5053373330299984,9.2317774357329,-28.243832388555848,-42.639497828224066,14.5451683661574,31.703034180719374,-20.15994434365092,36.74848338798299,4,S02
7060,-0.3130580146545293,0.8728507640249283,9.395841085171718,-21.154428907109487,-33.05386571535263,16.242648664926776,32.04845415358949,-20.057627600436376,38.70400630315316,4,S02
7080,-0.378602357926362,1.2137640768975602,9.64907796578553,-19.71224659069777,-16.99718558628089,9.320406368155426,31.78206066518394,-22.043483841001386,35.927796392239486,4,S02
7100,0.03620692034420188,1.2670746688019137,9.963121350274422,-4.382801417304651,-9.15519964610922,12.292601551780129,30.709011524937615,-20.25960673933442,39.51838436676998,4,S02
7120,0.23104360295923893,1.5884843708314056,9.99821302544489,3.782398838243436,7.407655462152333,9.924670087226389,30.763625879703948,-23.076824832287357,38.894954512820185,4,S02
7140,0.35034866288517796,1.901879792064125,10.35574428542593,14.090829273809877,16.46798438548208,12.084782448669792,32.40649060701574,-21.49740455706922,41.84831711701699,4,S02
7160,0.6335063428497791,1.9623864543388254,10.966480536711375,16.493939909242766,33.965054793550706,10.722945517056061,31.042028024859974,-21.189997655605982,40.89656475699252,4,S02
7180,0.581783378755054,2.3000730560382276,10.704017593872342,23.792147349872764,43.21443849693904,0.5469911414250562,29.376905287458104,-23.01733308611162,40.91410459860626,4,S02
7200,0.7928229625860002,2.3141617860915584,11.234553041258447,16.868341874640866,41.431901552175304,7.8506731592467265,31.24013269790191,-24.23699717442189,39.11515728147751,4,S02
7220,0.5234092145927439,2.2013505729558447,11.31674194509164,20.505921144708534,52.80287550142259,3.576973292431459,30.586103007558645,-24.000055985932548,41.777329042634484,4,S02
7240,0.695101541160835,2.4863906139030068,11.487329850471715,24.306695139972796,44.43065476311913,6.840906173782694,30.925235814299786,-24.20287246759078,40.92277997173053,4,S02
7260,0.7010082165880293,2.619809804601539,11.549919882705982,19.667891054678268,44.83015447161428,-4.000503141004551,31.095888309592894,-24.576707579404165,39.6839731987152,4,S02
7280,0.5327068227957313,2.5596480477271717,11.586722021805613,21.507032895794023,46.041717856361316,-2.5034826587759302,30.029845873994905,-25.98498175789253,40.69270182234011,4,S02
7300,0.5836253219925728,2.3488085232140095,11.50319653769936,16.50878457630624,41.87904309025687,-9.198998245650593,29.60322698864149,-24.913248487788632,38.205313453862175,4,S02
7320,0.3543374952462326,2.513539658174938,11.474877628123167,5.830858801900173,27.25079198494138,-4.65648714516465,29.460902618372764,-23.77543713937959,40.365248603704494,4,S02
7340,0.2004042862027403,2.3901543690706486,11.486445297837957,6.522108685990035,22.49159286931144,-9.840560007361029,29.953222086480856,-23.5642730552605,39.41693735133062,4,S02
7360,0.21498690150756986,2.093325927533569,11.223166061760566,1.6274046546413494,14.374139384383971,-16.497026167403234,30.308036917649435,-23.169060897556246,36.76143449278959,4,S02
7380,0.2554783526307511,1.9445247868194604,11.035885558133744,-0.33477753102746055,10.285166192460164,-11.263523373368365,28.907615024317373,-21.163467566246414,37.62563221320848,4,S02
7400,0.13423965262523757,1.6228542565843125,10.712103542301149,-5.724203410804669,3.425813409905051,-17.530609904551188,28.19001549304352,-24.841238728099082,36.33068259843801,4,S02
7420,-0.14467906825372995,1.5896220667679422,10.426179634690625,2.405994006487197,-0.9580945141723396,-12.903754366454027,28.368553314141764,-23.627228545662366,37.249063024108736,4,S02
7440,0.1742504071627874,1.4278612575406715,10.177909192407359,-3.835984669177673,-3.339246391710325,-14.464255346599726,27.786762335147387,-23.392222347133256,36.56348742438127,4,S02
7460,0.07469255041803441,1.0298349287394362,10.12052296102328,-5.666797711706774,-2.8342993152540865,-16.97640135672118,28.20135432815562,-21.455941484910124,34.98085153820689,4,S02
7480,0.0009563808459371465,0.9184941164527398,9.85426173292633,-11.827898841887556,-16.51093591013763,-8.456842695620956,28.874281934930767,-22.682116312931484,33.282589968746784,4,S02
7500,-0.12401521838498411,0.6625846879667934,9.422293413169491,-4.661017236669861,-17.464519363009295,-5.483370059071107,28.84881001718468,-21.411202552846774,34.27902663637724,4,S02
7520,0.06373139167616684,0.5050253649029175,9.419420830214518,-12.019637392200487,-25.609947842487966,-9.079637213056234,27.236762205399305,-23.82824836478155,33.87575639751125,4,S02
7540,-0.1195825664641281,0.4206031693130164,9.194027222586168,-12.540435616630258,-33.62091933298774,1.0519062923125806,27.648221279524886,-22.60766180691298,34.74683341053098,4,S02
7560,-0.3069596554555055,0.37006915619419467,9.013869924161515,-14.927327534982954,-33.97064964796238,-7.427209991941812,29.26109813624956,-23.512001772556136,32.07576816388183,4,S02
7580,-0.30360987934219463,0.2785536751179736,8.802300223098252,-21.889097876949098,-39.59815721497458,9.194024580077672,26.72667244650852,-22.737968464243572,33.47013085047253,4,S02
7600,-0.441507362464047,0.30555536343745504,9.10124803806365,-30.96665980347093,-45.60472650469784,6.797234082595455,26.98955949057399,-22.813144638643962,33.16050350225379,4,S02
7620,-0.42516641437378666,0.3518406504227362,8.96573140865434,-32.0182897225901,-53.49707990978204,9.566089912847415,27.80463691674698,-22.23045678913589,35.53182740508415,4,S02
7640,-0.5318601887310587,0.3129135394143889,8.84752921106499,-32.80453474000261,-58.30139015820454,21.26817129391931,26.073383189907638,-22.255471767436244,33.585659880015655,4,S02
7660,-0.570765870941747,0.3990930734188266,9.079008571432043,-32.80748205191572,-54.20693175693781,13.826624859616643,27.842784487278976,-22.25652691181393,35.58416907772419,4,S02
7680,-0.4014227824457719,0.5489870423453029,9.113271971451537,-33.79170363089524,-43.83921768431114,14.400606586085607,27.02650558155063,-20.82511433185863,35.588929486333676,4,S02
7700,-0.4093410335427158,0.7915244715396157,9.249019814525317,-23.45427763539672,-39.47819322566613,18.406168052131587,25.662564711780423,-22.987395846089022,37.17991683055961,4,S02
7720,-0.19787918459328155,0.7491870210600102,9.448988322710273,-13.91391353173988,-24.07643633823873,17.81246554237911,25.384901952301487,-22.50672854218658,37.48439463728943,4,S02
7740,-0.013981615611191683,1.1376729354120196,9.698901589766091,-10.09309234246849,-10.870315771353566,17.281576323106528,23.105943032414476,-20.820478396842223,37.78770348660928,4,S02
7760,0.2036394200760332,1.461918708744211,9.89671675205911,-0.005576692903771274,-0.22981743200210847,15.478000410579275,25.830862585291488,-18.401076370255623,40.795024015212725,4,S02
7780,0.15477337951384612,1.6437251749920028,10.233708645401899,11.520931493167584,13.508562863608358,8.3791957989406,25.59938455565897,-18.207604025557096,42.656006276326714,4,S02
7800,0.4198551322002815,2.0287522162448943,10.329618778833538,11.334869790210757,27.44525520117724,15.015277770133013,26.644770694680336,-17.075929859407665,38.52924406131485,4,S02
7820,0.3657468033482476,2.295942045051553,10.905009695126044,19.2183378869526,40.36040902207537,13.274049776084265,27.266456164096642,-21.01845873744717,42.68538468375322,4,S02
7840,0.5985986262932407,2.0553977475245557,10.852527228045648,30.24800511496382,53.08227476648275,2.3174035588862667,25.0053148936108,-18.62108115764829,40.45812949060267,4,S02
7860,0.7276036225744963,2.4752500199784775,11.261217667495101,22.435690824775115,47.851772805565524,5.02957923681916,26.608477715420648,-19.74747030045324,41.15476401175868,4,S02
7880,0.7535365543122122,2.541636775730978,11.552647864112673,27.034248962034283,47.09263746543175,-2.915138620442506,25.198632515167155,-20.14619990005977,41.51667607238668,4,S02
7900,0.7094039662735593,2.298158558620215,11.365533604942254,26.32150654523618,43.017636250356375,-6.794452272028735,24.160809980788763,-14.919588350965991,41.68814651742304,4,S02
7920,0.589196526934034,2.549143257984021,11.565040148982561,18.03055111684254,44.38524043455898,-9.107363817242652,23.466491017958493,-16.668581860613276,40.87560040345189,4,S02
7940,0.667426959774554,2.420245450729961,11.62990845998914,14.227075163411012,32.34660138248417,-10.823563888627449,26.268393154151557,-17.39658535810638,41.2925615256394,4,S02
7960,0.324409398712599,2.5502603953535092,11.290105664168383,12.096910055823823,27.273967176521634,-11.727216863082896,26.047824179275274,-17.388976861337433,40.35177108347978,4,S02
7980,0.3633246345729846,2.3423957249824205,11.543000314804859,10.712829388077214,17.569461608780177,-11.867506909505867,25.067278719124754,-15.880391139701775,39.84464314609243,4,S02
8000,0.2544733929589844,2.114054087087869,11.236644909092348,5.8015514436323565,16.52468527480947,-18.542365944141245,25.942995574786025,-16.117926594197964,39.6637163619429,4,S02
8020,0.19918952659429667,1.9518807682334407,11.013312262759857,7.028650602609484,13.66117675672591,-13.452483968026678,24.37349471385884,-16.18139378400405,39.39068387453969,4,S02
8040,-0.02639283446205906,1.9401567016757448,10.96988660687187,0.9332720062134454,9.120767394078674,-16.459635801371064,25.011405947826056,-15.036799171205246,36.48314572172735,4,S02
8060,0.18755161234516315,1.554014271179398,10.535290333909323,-5.425056497328032,-0.9641460909690529,-20.658178681079747,24.337309100123495,-15.499514433584679,34.70514989931368,4,S02
8080,0.10171145188890056,1.4656410051861088,10.078485821730638,-6.462990884186717,-4.197871629286341,-4.643781529200133,25.52986589154178,-14.188724530453953,36.20206699704989,4,S02
8100,0.07549685060653735,1.2321269573812046,9.940755161480341,-3.3382138061833526,-2.4807193523168563,-10.841812198287075,26.689322240378065,-13.544337451381201,34.016793527509876,4,S02
8120,0.13044321552953755,0.7873854138049683,9.798786805131398,-9.286634205711792,-2.9933784984124,-12.201334889191536,24.471086803354723,-12.026716081259814,34.690519649637714,4,S02
8140,0.15261188913273468,0.9560436391168903,9.605652975064553,-7.9308978356727335,-15.513788218270092,-2.111944325784323,25.338892934559283,-15.405925851817948,33.15599943163802,4,S02
8160,0.005293719071791242,0.5363500141208801,9.407016740493294,-12.949120063788506,-17.416844559365718,-5.61744477642664,25.185188585344324,-14.69319980777273,34.03163105056629,4,S02
8180,-0.2139364444665254,0.3624314004609393,9.166268510813603,-15.739024339012978,-27.242108214822274,-0.07669651436186886,26.021655103000302,-15.095821506062133,34.73920291978045,4,S02
8200,-0.2684268898940706,0.3064767093994742,9.221726329343683,-18.795688888749613,-37.24634868801135,-1.1486583431353514,26.644357218836667,-14.427739343856853,33.36758545922196,4,S02
8220,-0.42429468265068804,0.21621542727391346,8.927988268210184,-26.697999651104443,-36.01018417659034,5.639435576120032,25.922685669946286,-12.008621281662473,33.81617481355892,4,S02
8240,-0.3693165334818088,0.22933857508324146,8.960249098769165,-25.835041453610497,-49.55632606198017,10.032263439136267,25.961066525515918,-12.71238957228141,34.2513787014056,4,S02
8260,-0.5084977859997736,0.03536189367093362,8.798876788931832,-31.163006459967878,-46.99994428927251,10.63224874840465,27.37446899606148,-13.532426758935532,33.60067645557985,4,S02
8280,-0.5690112858394536,0.320085459287879,9.148829098051898,-37.27896627107616,-43.20934266451337,15.559739734679548,27.158145826416945,-12.49872466048674,36.24611502476831,4,S02
8300,-0.5528842714358344,0.39686730059793257,9.076211852127692,-25.728659048243085,-45.80245983506474,13.354660505895243,26.542852441855615,-11.682142698001833,36.34219724420186,4,S02
8320,-0.5329285150248794,0.5378019036563182,9.171468974657662,-23.405706729000485,-50.91715651758532,13.376776765284315,26.708038554147727,-11.727619905587211,34.59818232208636,4,S02
8340,-0.36545370358349005,0.6663701910266744,9.35806676554282,-27.721090559780926,-46.48851463495106,14.380434560343769,28.806956445258006,-9.611278921807354,36.18343429408862,4,S02
8360,-0.39919947771638586,1.0700065379224657,9.538882734208908,-24.77325333593952,-32.72742420650067,10.819854052569662,27.97912917195112,-13.641623969066128,37.35852458765745,4,S02
8380,-0.09339508658702794,1.1223377477787804,9.737884106758642,-15.51252033090843,-21.327390260575168,18.373726842647578,28.312455419102573,-12.21198599098378,38.96787706884263,4,S02
8400,0.14269072451138937,1.3571213844745798,9.864044799219593,-7.880531950304801,-3.5245067116602637,15.123205624560125,26.931532607496347,-9.716366699346619,37.75305720697428,4,S02
8420,0.27308780191045473,1.7212066439272977,10.26738122661906,0.020738363389871672,3.2065612348618373,14.51778766704213,28.952682212919967,-10.511491589872389,41.70482303488708,4,S02
8440,0.2926139013175258,1.8011745970594923,10.372571851935483,9.171149959491547,25.454307413541816,17.88011763931568,28.32132345490863,-11.469533692625593,41.63654052358021,4,S02
8460,0.5506296320780416,2.0420170828020217,10.884038052771013,16.408444489437514,32.584044501027925,12.873853069496857,28.53078182760923,-11.762373644583562,41.79826376142181,4,S02
8480,0.7327611498284818,2.207581674721044,10.881778657363999,25.31468064488385,40.406661023737975,7.903252484519636,29.31373866810358,-11.639725139464161,41.02494315412248,4,S02
8500,0.6623165790458326,2.4108369625190624,11.192608063348342,27.572082520539702,42.54691020400027,-0.8066262146499362,30.183831483424722,-11.223835960211945,39.19323667139207,4,S02
8520,0.8442293504765387,2.478331713845496,11.43861761796058,25.681935769678475,50.131367445193064,-0.8890361728028796,29.678474069311143,-9.647029697870519,40.74288107868321,4,S02
8540,0.6280985403000366,2.563979665790226,11.407949770157343,20.50117811947803,49.55478316953701,-0.7736756708671538,29.041712688102525,-12.310885867135022,39.482372937763,4,S02
8560,0.4774226721926864,2.4512123487687996,11.582801473989907,23.383530823829933,43.56257918913822,-4.216926851023585,29.04034412188349,-10.33561757308764,39.803644981681124,4,S02
8580,0.43986074540240616,2.6318264811434133,11.584232922283164,11.834651137852756,34.098000723637774,-6.1685522945919455,30.43388242913916,-11.913407642301024,42.42789076423827,4,S02
8600,0.49552306519262,2.5071898740761136,11.446044300651494,16.305921321389835,24.629015188429346,-8.50632607320859,28.71495332415563,-11.050456852376765,39.68454540497035,4,S02
8620,0.43191044007635326,2.371766403561708,11.214589701163089,10.017871325002965,17.73596909912648,-11.214341127954219,32.96866115457195,-13.537270566409937,38.47640159223574,4,S02
8640,0.30724370131939044,2.2707689388351304,11.285775826917776,10.274243149363365,19.204910914885005,-10.59588670339134,30.609830103733984,-13.561386446458098,38.454054363593606,4,S02
8660,0.3079658275401451,2.1571443122450447,11.079177010951678,-3.0562313365134237,7.940514490611453,-17.99855413749939,27.621259508477532,-12.217629347756727,37.529092876444274,4,S02
8680,0.10418599318113038,1.8668101007893063,10.824995739988282,1.9544004529862207,3.4847988412700657,-16.25008738446585,31.47090321369323,-13.968454976777537,36.56608000527832,4,S02
8700,0.09081552173762425,1.609733260248812,10.654477189487581,-5.3223558444916685,3.3623595847241594,-14.689233728868562,29.25879503846642,-12.263715242274163,34.88925269788372,4,S02
8720,0.12979007499445008,1.3288236890267713,10.48238171145403,-13.98360464438306,-1.721312059611322,-11.00485923208339,32.74462698504125,-14.115703195201405,35.84123442194873,4,S02
8740,-0.0810672882255038,1.3380745731720478,10.240693648428659,-7.594403182809309,-4.833445152333079,-18.805987233177884,31.4988760564371,-10.80358881243888,35.70956176868499,4,S02
8760,0.015236926010698496,1.091216659789524,9.876033927919533,-5.066564886839151,-2.8117382039447927,-12.211980979750363,30.911825385824642,-14.173916035640602,34.20760990855178,4,S02
8780,0.08065567795421728,0.8469674417668867,9.403648233956963,-6.15915550606021,-13.514819834440708,-5.142529021636154,30.573857270695854,-12.75999230444965,33.4300021409788,4,S02
8800,-0.09599526293994781,0.6146859709300325,9.38545415830143,-10.020762592762878,-22.65277552480939,-1.432993023371266,32.53910381299252,-14.452804502384536,33.952355127096446,4,S02
8820,-0.02426841733783991,0.04280650292578585,9.182144863611041,-14.881568726124137,-20.384639773984148,-7.589028716028141,32.61069052949147,-13.13207533904024,33.58639454392896,4,S02
8840,-0.009419236149989282,0.3568079046845332,9.328510281665316,-14.527677726746319,-32.88079463589548,-1.7841994857705834,34.63594911541314,-13.078110460494544,33.1608595961268,4,S02
8860,-0.25795012958535923,0.1637001680474694,8.905721567686326,-22.27615473168859,-35.10668795158474,2.0055963218934174,31.947160096520864,-13.702619045489875,34.19837424210611,4,S02
8880,-0.23149021401758366,0.2200688031387084,9.068190056765074,-24.564915677193405,-44.624185499288984,10.245610359072868,32.81420742451359,-15.058928551490773,33.83652827933197,4,S02
8900,-0.4414335182900425,0.1557787656973703,8.90247601515709,-31.69578735045754,-45.382856701736834,9.193451289857181,30.873174159001696,-16.56418025756419,34.18438098931998,4,S02
8920,-0.48997941889131813,0.25890961349373826,8.925463581105701,-30.050713105590848,-60.41533113338363,10.445365761990173,31.78128075310367,-15.753121365969026,35.14314110443905,4,S02
8940,-0.5198100743552414,0.5333502547156057,8.92409240979556,-35.41103676079945,-52.42064521377617,11.17669587225711,32.689160468473645,-17.212112532457738,34.4779504653243,4,S02
8960,-0.46743980425700926,0.4709270102708823,8.968764952759681,-38.69776184243532,-41.68324860809757,7.581303857495406,32.46495200288943,-16.728683582502825,36.147197154166065,4,S02
8980,-0.464084065807588,0.6852385340053977,9.371444450604319,-26.618693944918327,-43.36050652351057,17.637308376897973,33.5974566395967,-16.31010310011885,37.034004092712344,4,S02
9000,-0.4324243831204079,0.8510426875920774,9.30040228416592,-25.924749452968474,-32.215859150249486,15.13703340829879,32.430653344060815,-17.666374197915886,36.25465164916329,4,S02
9020,-0.034826556670146225,0.9643656516466903,9.685132093258984,-21.685731009394072,-25.0824404652115,13.385726682716513,32.82225007802261,-18.931848382943823,37.10075623248961,4,S02
9040,-0.07201302813092833,1.3803085122046777,9.966859487006587,-12.885496506421745,-6.640700108947313,11.336309537234103,31.0066176418348,-17.87736981545769,37.73144286339004,4,S02
9060,0.07045419395662839,1.6242013674903675,10.163809600939077,-2.891916366545651,7.7889799839079314,12.00371367917783,31.30578699554391,-19.185321304351387,39.52802763145945,4,S02
9080,0.28143204733516236,1.605763119375474,10.429619132118855,8.4925804488199,23.72509634082495,20.263618312799828,32.20984451190667,-18.30297338004855,39.69963735694434,4,S02
9100,0.5988673767979907,1.8094704317072092,10.831887344557368,20.6376711286243,28.289106339307686,10.82713520137794,32.12260476186768,-20.080450888604545,40.29094378794545,4,S02
9120,0.6308799586646511,2.044236564905378,10.95532396155355,15.585341917887359,41.0788015081113,10.753337628967799,32.26610203759024,-20.422314858101057,38.92752713258163,4,S02
9140,0.6809911109943797,2.204240503835022,11.100809995598764,24.387163326052672,43.85701053669344,2.463022622327442,32.49942586756791,-21.174213757145328,41.10389644190734,4,S02
9160,0.48304985124999467,2.4788198553971115,11.312143517623385,24.442927286450313,52.50318301536283,4.823369404407377,31.784392861318796,-21.10235941697785,42.3838049020718,4,S02
9180,0.5864823635855142,2.639280843614503,11.510482547359063,28.14620250643266,60.554429160407054,5.681204787159725,31.830517188097264,-20.72273499931487,42.134349688961,4,S02
9200,0.7094779060994089,2.57428016521809,11.575991990794595,33.187635949128705,45.691836948592055,-4.078466187952551,31.281395057280985,-23.31814525152533,39.94559810408253,4,S02
9220,0.5096631440284901,2.6262415773611183,11.594127345875242,19.947977518307578,39.52260105917491,-4.256367708475006,31.21335903577727,-20.10830079527338,41.210196124477996,4,S02
9240,0.6162140123095899,2.7022958829132744,11.344269955799613,15.359695078599536,28.737489285784825,-10.186657309610384,32.21537139608501,-22.05943830574637,41.61736696127757,4,S02
9260,0.245701696921956,2.4371606558486114,11.450642803727344,9.198804005000312,31.413257791327094,-9.268250699055931,31.760624763821298,-22.87482635852178,39.34744220225929,4,S02
9280,0.2609639972441147,2.189239871731469,11.240771316879616,-2.301624520548912,13.069056488604263,-12.60602579937611,31.923974658959192,-22.01569589510416,39.821674291175526,4,S02
9300,0.1838781284889232,2.1246473777301063,11.284077098532487,2.7987640159164613,15.819569905293836,-13.643178798046641,30.402159080337242,-22.69204585560231,37.65785210167992,4,S02
9320,0.1979673167439242,2.0138094239500517,10.993326370215247,0.6231276571979976,4.908309591589418,-11.075789465907988,31.500841424515915,-23.316148777712762,37.29883076269809,4,S02
9340,0.08442933875877125,1.7322067889211406,10.745989409809374,-3.6737399374502386,4.534855878335106,-14.402043471839512,31.901290296058463,-21.876637920281574,37.491981933146164,4,S02
9360,0.1918504035834398,1.5758965535130836,10.502896511862074,-7.117477711021047,1.451115418472616,-12.288966545109961,32.32574357759114,-23.552303262888188,33.6401319240557,4,S02
9380,0.17312001594511578,1.3306167277887098,10.33281424526879,-7.556134685342738,-10.572759123953563,-11.211781323581953,28.809211778574713,-22.480904427140782,34.79780288278232,4,S02
9400,0.15287576218551002,1.0710044156233725,10.038463203015839,-3.515477657467603,-1.2583784893655163,-14.129231867977984,30.468548570472105,-24.931910104580382,34.19359636236054,4,S02
9420,0.029406716652384035,0.8392743744986706,9.799680955597436,-4.034652498493694,-0.0315239468145172,-7.212084635807935,29.056779215333044,-23.687834642135858,32.58443973420408,4,S02
9440,0.009406658418587094,0.7917477491527021,9.56569073355612,-9.232413912550987,-15.166408383752092,-0.4846740481239099,29.579009808011545,-21.442342523162274,32.891120329826364,4,S02
9460,0.11013230287900866,0.5208798910789771,9.510721839937897,-9.824252037809199,-23.241851741594072,-3.9219915989500387,29.689983906408283,-26.850978141709888,32.41662612967009,4,S02
9480,-0.15595522912211188,0.3373130285215282,9.079622326541417,-15.532500548256678,-28.233546699641597,-5.558948973461197,29.58853918848895,-24.95993527838347,33.08958758769472,4,S02
9500,-0.20241754181896496,0.18727648461794566,9.126072968656413,-22.49184795704797,-34.095322337421074,3.1584727250199527,29.177740335655148,-23.22976434490191,33.1106067408146,4,S02
9520,-0.34987655022319497,0.25913170837634925,8.830005779950058,-25.810738929811336,-41.598238528685464,7.046469867529309,28.404862122310867,-24.03355033431466,32.90742253072699,4,S02
9540,-0.42019461540820635,0.17171147805223078,9.067796823557599,-26.969176867811324,-48.881634307510616,10.922591586072961,27.99349380993957,-22.50883662552262,34.318224007654315,4,S02
9560,-0.43685477561662267,0.41469285008615864,8.838455878059975,-32.816323556979164,-54.39691969641668,9.10581324870231,28.402176793077405,-24.9241789510318,34.630768315089604,4,S02
9580,-0.39630337606435806,0.1625244209566142,8.962855696166969,-34.10647894098776,-52.945529987817174,10.267241546202976,28.589731128058915,-23.353337255530743,35.62844270028907,4,S02
9600,-0.5852513453179725,0.3640084842198324,9.097320570046799,-26.067984475667668,-54.524275627127,2.4566828658087645,28.48239980323108,-24.648934938167272,36.463784316444105,4,S02
9620,-0.3962701513556922,0.5212948777746955,9.336145680482977,-30.887450355733804,-43.47955429796441,18.23554216853107,27.815663963912865,-22.66483387377745,37.6695264257247,4,S02
9640,-0.279670791171708,0.7218392228953481,9.126120729398345,-25.947101603509743,-40.03733766559528,14.784960029503138,27.172713738172874,-24.289759408450514,36.80233720585397,4,S02
9660,-0.06041611967977173,1.1125406315773332,9.597857712145442,-20.180768603056418,-32.24443591803789,12.260888716193447,29.480817726874644,-22.7990887026467,39.24017636124672,4,S02
9680,0.05786877497905852,1.2315200046809638,9.678016257469027,-8.24418723401784,-11.179245843480178,19.690265739429943,28.00901773836884,-20.69192433651841,39.362263476291226,4,S02
9700,0.19911647219950512,1.4112422827123965,10.22336157915939,-0.04142411665171242,0.9811662525906926,16.570233826269913,27.728991541351913,-22.675058783056635,39.48536301966934,4,S02
9720,0.37661888299585444,1.6828976154678403,10.377698690969279,3.7242148985838783,15.819533930236712,13.678843328045927,26.776892706561416,-21.714334467313527,41.682158970149054,4,S02
9740,0.2738468501940573,1.7626007898595961,10.569449841996759,10.334408032248781,26.792439703454576,13.407074300653782,26.019332496562185,-22.38181988386298,40.10332831431926,4,S02
9760,0.5181123694357265,2.0610151120805793,10.688293792599694,16.53658121258969,43.01103373150507,10.183406460010273,27.81403733050912,-22.054119881949983,40.623214863404606,4,S02
9780,0.664370832977396,2.2206333155385938,11.086412629092138,26.7725420002997,44.83724687491393,3.544201531498475,26.317952261967566,-22.255914378760256,40.58157717909182,4,S02
9800,0.7038466756128713,2.3883135373241537,11.301759641207399,25.439198654425592,49.509345714055385,8.733832797776687,27.485551244285066,-22.38231783973234,40.78791847264354,4,S02
9820,0.7340352964416702,2.4995471726792187,11.346921746787682,21.31270718981868,49.89631695312033,0.6509436269727389,25.647428914416864,-20.6764110465689,41.60587453358856,4,S02
9840,0.659337311390031,2.638596002905493,11.555843333938498,26.889750215812086,49.60274153543569,-9.624480720701287,24.081344331290772,-21.993569423160622,39.98846973853798,4,S02
9860,0.536357703060591,2.689950883794138,11.395147071979464,17.406146728226258,46.98452938262872,-9.536387989769878,25.73279408516881,-23.376868878906105,40.29637910533779,4,S02
9880,0.5399914752754069,2.5914922350718017,11.501472551725536,12.558049196577699,37.02794791333314,-6.896758719919265,26.84060030475145,-21.136103871796678,39.27484696501846,4,S02
9900,0.5475381411098853,2.403391647155059,11.553927552173086,10.112829946459886,29.63821546647945,-8.10214914291968,24.99624201602264,-19.78935190507755,38.55968806438774,4,S02
9920,0.3623520499641476,2.5155105283067485,11.274716392039181,1.5449753841241538,20.232352797922484,-11.610957011139545,25.341166209542095,-19.44835315765504,36.46403072452813,4,S02
9940,0.5619031838898805,2.2374727314813163,11.33331979512844,6.555520663013943,10.345026744999485,-13.534630535439595,24.439193268601258,-20.077063055868315,37.43172115987097,4,S02
9960,0.280218634974437,1.913292677110139,10.917296422140568,6.837156367972306,14.52475591285204,-19.13336569480746,24.0823369689465,-19.920085897796135,37.76965742545299,4,S02
9980,0.056668156580253454,1.9024494691733973,10.799996416562191,-5.202120629738961,4.839938288654753,-16.2815671369554,25.063244604077532,-17.784298699134617,37.981673647251924,4,S02
10000,0.020535593221215565,1.6650453526693867,10.57406617306647,-7.18985976456171,-2.2383665423868058,-9.983479991978774,26.992782117398527,-18.392562768244197,35.14658747122188,4,S02
10020,0.1614323921581469,1.5305968458062813,10.40338574430134,-5.0537248725594885,0.3650663684465245,-17.560090723855886,23.900484082975954,-17.830362321657503,33.98044503027526,4,S02
10040,0.17918791067075118,1.1079124089260506,10.0860283378015,-3.871691009825231,-5.7249004691562195,-7.134167797137872,25.701580557690498,-17.862206150082223,35.72044787842779,4,S02
10060,0.1012398149186036,0.8560328419496539,9.741783623158385,0.758155488307592,-7.38829753262513,-11.813971398135608,25.18268206760878,-17.227676649426247,34.76130851991767,4,S02
10080,0.03864581659174842,0.7945916803283322,9.628580632445368,-9.028270016384742,-16.405583353043596,-5.111780880953389,25.014938047574592,-17.275824020515415,34.23646385617006,4,S02
10100,-0.08398552991048491,0.4925633997950442,9.539318037090524,-13.268557073837194,-22.989715775196817,-1.3628045038679097,23.521089930927538,-18.34116087142813,33.768464591649824,4,S02
10120,-0.22903460804663514,0.41135360715924163,9.276846915179956,-15.29703090408334,-27.18399487677237,-11.003309772145897,24.39992218876084,-16.310289059595288,34.866480207159796,4,S02
10140,-0.24596012310058782,0.2968362520109283,8.990595098847507,-11.816655694186618,-30.33268567114948,2.9877923931064374,25.46971083052808,-14.973960987532346,33.70494943360273,4,S02
10160,-0.26129228115016634,0.18616777449303962,9.039578056928178,-21.67994670502699,-38.77863560507256,0.732459321090745,24.2713772992497,-15.247495497012995,33.79771189777761,4,S02
10180,-0.4978812263803739,0.2665136751122853,8.779493048536812,-33.21732353170461,-37.60613305344915,10.979149535895049,25.360882367860423,-15.027896130256142,32.73816883075388,4,S02
10200,-0.3758164649604381,0.20976105314705762,8.94478609404244,-30.609845258998515,-46.3165212772208,5.375513799245239,24.782856235105157,-15.23562858320664,35.899559445716065,4,S02
10220,-0.4600241893596174,0.23011164397804945,8.969946155025683,-35.3967052619326,-48.20653276515488,5.690606135115925,25.801037800668283,-15.234196009431212,36.015238447324904,4,S02
10240,-0.6937412839078975,0.4891979102033785,9.04530302162104,-33.95797772498328,-50.68656766917482,7.360262254937088,26.132490768026464,-15.920330080931192,36.679678963260216,4,S02
10260,-0.35768464105238496,0.602669933141124,9.024785610308488,-33.177088227992364,-49.84388885565944,13.974056713805803,26.504167648099386,-13.129137651456526,34.59463924478476,4,S02
10280,-0.25606659515007424,0.7428854765084936,9.180856527512148,-16.90618474319556,-40.03434446461582,13.020919213038486,25.090762141071874,-14.339173669685689,36.34815382976197,4,S02
10300,-0.2917872122414189,0.904523511829449,9.385988646360294,-25.037154769108756,-27.498538001835353,16.20199865713999,27.324132232652378,-12.55665475864183,37.404628811928376,4,S02
10320,-0.1250169143605254,1.1294384502586168,9.685498915149886,-10.190669641873605,-12.54066630835344,13.110015432273073,26.03297379323016,-13.635438451085308,38.87327346586926,4,S02
10340,0.07599829006748197,1.3569046537276197,10.006911474489998,-10.796535910347327,-3.9892237620265316,13.118611268438922,26.217831246056207,-11.799984791835946,39.966464256594435,4,S02
10360,0.22335309059386682,1.5952345582134333,10.275948960519338,7.760768670895724,9.121491146957709,8.741001971874644,26.569284307544827,-12.172295236454037,39.31161567010947,4,S02
10380,0.5733793419460285,1.7752451568501737,10.411185350258537,10.935615130378512,21.994631386862117,14.798589211896424,27.291740339698492,-12.883565029890846,40.08600145538378,4,S02
10400,0.5314725735156124,1.8845027667033714,10.79886551787824,13.474370285618658,38.570257209505186,7.979225735879606,26.871120990673557,-11.543844758935181,41.647244743149635,4,S02
10420,0.5986321332742458,2.2394666485358843,10.981156882773345,24.174904891106817,42.49842294014253,2.1294429483219752,25.818685229469107,-12.77200112972313,40.19895688546916,4,S02
10440,0.5539493327009488,2.294908058407291,11.17645669831941,25.178615755181227,50.40112661164233,6.750447127025478,27.013362924982292,-13.182457753039618,41.48728463737428,4,S02
10460,0.6750952998162923,2.6705741575922572,11.360123984227872,28.674952291929213,44.315705008922315,1.1248070616150434,26.179487965385963,-11.377683176066027,40.4389619614638,4,S02
10480,0.796733856583122,2.6430116322309867,11.403114780427828,21.944392970455105,47.73816830633094,-3.737794337703756,25.484941652479723,-10.74297090789281,43.64015861558451,4,S02
10500,0.7217635886190477,2.655320879149671,11.431517266231873,15.034929455126221,43.84254975590324,-7.559913121181291,27.370546123605024,-10.745059550600292,41.531335457739615,4,S02
10520,0.4723417487276026,2.6864013330886727,11.566703039854508,12.340604480864705,35.333814283179386,-9.682829216790248,25.530257265332665,-11.579731177457104,42.01619608908059,4,S02
10540,0.4498711556957503,2.5545171736389256,11.789084896762848,13.811266077211005,33.05944694668412,-12.774163158320304,26.813302491758865,-9.606997695734535,40.00330974202898,4,S02
10560,0.47424594855219593,2.4579858468567597,11.534475475596219,8.134929396456421,32.10487210241541,-12.4959760675249,28.323035724241425,-12.963657498393646,40.67273868613872,4,S02
10580,0.22077999750987679,2.2634579842612386,11.25596743054984,2.1235421873413154,17.68389333885581,-8.293398804763038,27.677115933743075,-12.318182352538049,39.75123769913718,4,S02
10600,0.1487307561826972,2.220669615008528,11.117599491076593,-3.0148964995179286,12.484305984124404,-10.349297550855402,29.203989883522578,-11.765892993934745,38.44659706691549,4,S02
10620,0.005880235243581694,1.9233298994155512,10.932032389395529,-2.6112232062116196,10.491836967692798,-17.212287774015714,28.723947671079166,-10.795435466650646,38.12195954774412,4,S02
10640,0.29516804546200553,1.8687337717521464,10.550981449536616,3.2265325017341473,3.9347368099885935,-20.709292843331582,28.16196408559555,-12.313742467815887,36.11462338898593,4,S02
10660,-0.0530060533225892,1.3401376962542724,10.627017489820444,-5.189866522013661,4.136779771995084,-16.40461243144484,29.21943550357697,-11.379908565303044,36.038166746816984,4,S02
10680,-0.0025438743607568703,1.2893340168232041,10.07059108228995,-6.294531803964497,-8.467543363538308,-15.52415974957963,29.1296821436065,-13.366355362402809,35.964443036890245,4,S02
10700,0.27397873790919636,1.0404365269452258,9.974045469354696,-3.262466369186287,-10.351261440338813,-9.283734396194783,31.17399228854144,-11.593067176978597,34.246252916188155,4,S02
10720,0.03450167450940132,0.8249716106698879,9.592686834647278,-10.481717116936338,-7.91600651274278,-6.446704960482268,30.370272788368084,-12.998790059156596,34.1049957743722,4,S02
10740,0.03498636638347884,0.6402702663481614,9.5946392866416,-17.55810894287983,-14.96173016315421,-6.473399196314553,29.471207072883708,-11.810755643079183,35.111414726183185,4,S02
10760,0.12405757757584503,0.5175545449724539,9.252094875758317,-20.93442744221203,-26.05939094615174,3.42858789206643,30.9724638280847,-12.603794356519444,34.434516331492205,4,S02
10780,-0.28865469997105486,0.132357921834796,8.948070937090755,-10.09608360451756,-33.6308837219609,1.1961136815828193,30.59836031541317,-13.086486028562648,34.434849302926594,4,S02
10800,-0.3444612517498128,0.38392756667107464,9.119238882670718,-30.220871883849213,-31.649980604516383,1.5896507968192144,30.509783214573794,-11.544793487675417,34.388003294279244,4,S02
10820,-0.3901684683189981,0.2310804281244217,8.883202334897717,-25.64419955802563,-32.02302160173498,8.264091476804612,30.170982487969162,-14.395105127927838,32.820261141114976,4,S02
10840,-0.5119016181963316,0.19729218832633166,8.914839940401375,-30.943299518687486,-47.98245398863244,13.359278069009429,31.117751271597918,-14.58265184148749,34.33774255400402,4,S02
10860,-0.5025924011874943,0.4171361066627058,8.917733256873575,-33.256846060483454,-51.679403399687914,11.844124576969632,31.109074073893936,-12.970686151090309,34.151974657463306,4,S02
10880,-0.2961857783765901,0.45313499404646845,8.85822612195651,-33.25135586120407,-56.07754584285736,9.281470297566306,32.01466225753563,-13.872597959571998,34.26568622116457,4,S02
10900,-0.3304330839687558,0.4538102732332568,9.257438709471717,-39.059447869030535,-47.47502309197279,15.22702544652782,30.77828059801882,-11.249910569723202,36.99261607412617,4,S02
10920,-0.46406882363288626,0.7597394303994007,9.172572445202032,-32.362417633482465,-45.042405587212045,13.278708953011433,31.46349344090272,-15.653913473493207,35.59392126596997,4,S02
10940,-0.23539622214612518,0.9268513899061168,9.44856774397274,-18.757696299475267,-32.27596068894996,19.37103421646743,32.641867887938226,-13.081826691572147,36.96952608465831,4,S02
10960,-0.08061986495456183,1.0208236195840212,9.592002099957964,-17.134473067839256,-21.390043461642986,13.616383876120581,32.52990555156627,-14.732249087828025,38.66714193970665,4,S02
10980,0.00943604113707043,1.2373905420074554,9.756252160993768,-10.922354272147516,-13.92259358544937,10.90667300088952,30.23802790407958,-13.098873733654152,38.801476345645234,4,S02
11000,0.08888394768384472,1.6390765388611692,10.199075518780147,5.120946440698645,8.618541068900262,12.95537714126985,32.38650608464995,-16.21119333134419,39.689905198035135,4,S02
11020,0.2766098149433872,1.8774169777714556,10.403421267551881,8.28420297549123,14.205566248006228,5.496888010185403,31.52488213659134,-15.936664010977243,40.2971936433831,4,S02
11040,0.4991746068513614,1.9912936104605314,10.640770949494053,19.353894657312154,32.48746997336806,3.8077563986732055,32.80854762482731,-16.676176116645543,39.07695971454384,4,S02
11060,0.6374470850786903,2.1620450052102167,10.84260846668167,14.77236265135576,43.84133751805738,2.058995113165326,31.452303648479976,-17.147723565952383,40.413898723568806,4,S02
11080,0.8502978526019721,2.2490850012941386,11.12520080524821,31.472566039208797,48.820586333775275,10.282185622813023,32.40736120340716,-17.359353397602487,41.621646265296505,4,S02
11100,0.8326736410076431,2.4737338068465644,11.356339026772037,24.11675299230083,49.774082479780354,1.3994690749601668,32.2652877856063,-15.802199865306042,40.31462702946558,4,S02
11120,0.735371903398813,2.545895098094745,11.49787753046296,28.312109473833853,49.65280768704453,-2.459910519188409,31.922008670427253,-20.40814195147273,40.75335966974323,4,S02
11140,0.5991345964939556,2.714628597100378,11.4109011875908,21.550804142990877,47.21818891737436,2.746525694192558,33.267864213450764,-18.250194829549535,40.8663227559814,4,S02
11160,0.5180138971099085,2.5144438395084343,11.581208651257608,16.654669323430735,41.32696568858536,-7.5092223320999825,31.82057532221966,-20.792085076587718,41.375099280064454,4,S02
11180,0.3698113280983526,2.4800178491040614,11.689638347126124,8.847483821626302,28.537088115824357,-9.000429221139163,32.84121515419298,-18.063388731068045,40.54051327165731,4,S02
11200,0.49523981233515757,2.4813082020864905,11.443560220362093,6.615624025988274,30.17607283596846,-6.506443552645842,30.96464280404073,-17.40254316622387,40.07329821973679,4,S02
11220,0.2626942090861431,2.3122776536079677,11.126784279891535,7.460057675884992,15.930657740798871,-6.558289238370805,32.758288561046754,-20.85279273640802,38.243090621237165,4,S02
11240,0.1585750299711217,2.186423072623587,11.365156882521807,3.994440938864922,14.110729718298185,-19.191458868111837,33.30154027954203,-17.708899901020267,39.07594021802866,4,S02
11260,0.06970038754320848,1.9374099582854492,11.082830548894167,0.42647438514900937,10.459025301593776,-11.948424464432186,32.78269463384521,-21.487419287296632,37.91848290455335,4,S02
11280,0.14805239081503618,1.8485088001702683,10.811325263844212,-1.229985413835189,6.743928181675291,-15.37160306207776,33.57077991475029,-18.86002258563294,36.82379320113054,4,S02
11300,0.08718688050377721,1.4850826014954122,10.329855442949125,-5.982952495995418,3.8220112917280735,-13.285575570319127,32.38603074133641,-19.173836711646892,35.508371663936806,4,S02
11320,-0.03566249336716995,1.2684973181033694,10.080625905629468,-5.391591868627059,-1.8764756244798093,-14.303192468942317,31.717517253799492,-20.820114806167027,34.69268395773972,4,S02
11340,0.11548695545364725,1.1560586093704208,9.996389044965806,-11.247254144672414,3.0211197132321175,-14.892094242087865,31.705528906117003,-21.485609244805726,33.91563237854072,4,S02
11360,0.12121758368549601,0.9481274428021731,9.716235680233325,-10.038784670538039,-9.547048321685212,-14.503568501740249,32.67517871537286,-20.609061593871644,35.27687542343507,4,S02
11380,-0.11775789604346001,0.6252405934795044,9.603058800090412,-7.632814766489381,-9.97886248583621,-10.561611179574367,31.17441300200106,-20.86282241994083,34.58089941910218,4,S02
11400,-0.14703981978927694,0.5397673309734758,9.48381335099098,-10.976231750903828,-19.753505422421643,-4.816677334522536,31.436734996323068,-23.141008667895175,32.64684287344243,4,S02
11420,-0.18771389745402314,0.23696044914852432,9.303805670697729,-21.318300423837282,-25.812145625256427,0.9976968924492674,31.73348916874369,-22.62337616099702,33.963908212520806,4,S02
11440,-0.10686080699704609,0.18617455086814005,9.012612614299947,-20.39670948830017,-34.40720685736139,2.384673395112372,29.50394769725132,-23.66223661221725,33.1632632089155,4,S02
11460,-0.4209286997709233,0.20974633085560113,8.899678923639934,-24.04556364246412,-45.792631341495174,4.644020674904945,31.171638520109482,-21.933882742415758,34.39183408949218,4,S02
11480,-0.3061148311565248,0.2801315567818639,8.909615402368816,-33.19056511166031,-44.30047132348891,4.471244887622169,32.658438126829594,-22.204291399228648,31.598984223367392,4,S02
11500,-0.48913925392268365,0.3106858335737613,9.118225615198165,-23.078233066282234,-51.70625392903463,12.60137908926809,31.094256933183726,-23.159285173919134,32.250018649432626,4,S02
11520,-0.5127787673840103,0.3058652998585103,9.03121616559757,-38.08736577664582,-57.89545060011764,15.14702421690427,30.072344519921835,-21.935198732389708,34.04488983101915,4,S02
11540,-0.4607482627560947,0.2230842755000657,9.084529090920704,-32.2525060678324,-53.47707603340626,12.65634710624524,31.140168510604013,-23.612686503490277,36.7296722402079,4,S02
11560,-0.590410738875818,0.5952214124125497,9.311397564065862,-31.241236149646838,-48.74420406588798,17.596523207472682,29.751744085049992,-25.197890606349247,36.208326075299,4,S02
11580,-0.344132685045074,0.7885591688223679,9.440194651233782,-27.054930211013275,-36.95097186374615,18.77727005743833,29.70296177706908,-22.990469871756357,37.83274166809438,4,S02
11600,-0.1530930631152931,0.8255239573271664,9.590322765452179,-19.2743446397016,-25.27924294804762,17.849920029178435,29.9640952511479,-21.08131434118379,38.36014657316534,4,S02
11620,0.013751067003561365,1.1720801182877925,9.752521081198951,-7.445935607170118,-12.427063647901976,13.623403521694078,30.883574760957437,-24.33740390824544,38.82094597140256,4,S02
11640,0.36506174880483744,1.3098260124776149,10.038707876162864,-3.031011270009762,1.803621649030544,15.247779284794818,30.50857455145741,-24.523891124712023,38.39693031419614,4,S02
11660,0.37944734848569006,1.8092104634336708,10.26288227332434,5.77990159510941,16.124400349314012,12.407603950942404,30.395036225591262,-23.664651882276846,40.11281319325449,4,S02
11680,0.5388984595754663,1.9509588884434976,10.689270099353223,13.10025538911978,29.59780425627623,12.708993238942192,29.256050976449764,-22.27566732632853,38.41826587560743,4,S02
11700,0.6736672681792105,2.0965394575885288,10.764959261165256,18.501775763129753,29.93511236233604,6.083278722696249,29.736400257804753,-24.484483950954278,40.61863078753847,4,S02
11720,0.6553774859571785,2.3068558045098686,10.896899721965037,22.748483977156674,46.79999639446282,4.867708691785803,28.440454278414478,-23.647183579020897,40.001981091673905,4,S02
11740,0.5796940652149384,2.220270333115754,11.16464003694135,19.648508173906514,48.323674168026635,7.487575395069221,28.883062230363773,-24.22274501533242,41.626110386109765,4,S02
11760,0.8092064812056314,2.571971582948727,11.332355393601999,30.452065535823632,52.59022678624769,5.732600778663412,27.891652031407673,-24.88544554987083,40.319451013756705,4,S02
11780,0.6215149740002793,2.6999172657875423,11.497447754754614,14.357273313345772,44.909755064321295,-0.4800028964297197,27.723718697702473,-23.653947235290037,39.29444678499766,4,S02
11800,0.6806490566110273,2.496058862381082,11.39747719336057,21.26723140748229,46.461021663895885,-2.4911297041124025,27.684126991296264,-22.573169936488537,40.65943808070773,4,S02
11820,0.4107672120653417,2.5920600328915344,11.583941773052713,14.962982633618001,32.75626915460798,-6.7775885961624915,26.641864180974515,-23.005719601292792,40.67023071020776,4,S02
11840,0.36800707956894463,2.335921582590139,11.611314187766416,14.779303581602829,29.574430000787334,-8.31755557809248,28.03465615534465,-23.72495978480466,40.87170883947623,4,S02
11860,0.37111898624143147,2.5363420972139417,11.521710285720102,5.073251116923937,24.788678175248936,-11.255624670767494,28.494433273424335,-26.28971466118202,38.616649163398044,4,S02
11880,0.1798442373994322,2.3463507645990425,11.370375718854191,0.18321985543804775,18.23037775648769,-11.289817695655554,27.16784998776702,-21.263898414087347,38.2684618635031,4,S02
11900,0.10858098483356415,2.053667430545794,11.12362192663994,1.9247990077154773,10.359416738098316,-18.586007326576556,27.46261213807322,-20.21691298352156,38.869779925351196,4,S02
11920,0.3189548502144668,2.0796580005677363,10.744723999248386,-2.6486384520730293,1.0704137854430018,-9.926076345981604,25.54785415506266,-21.332641741777902,35.92287184508836,4,S02
11940,0.14272312265387885,1.5985133945335137,10.579108905960915,-2.62464173892337,0.8271452652387075,-15.728564870901321,25.867773153385933,-23.53344707214606,34.22519570961474,4,S02
11960,0.0006488895352604884,1.3701166096082587,10.253143474514888,0.31098863876157523,0.3444491647592167,-9.019322278686973,26.833232985359384,-22.66788191885184,36.72709137893183,4,S02
11980,0.05913733452667072,1.2246124102297549,9.98625302124126,-8.499041749790543,-5.278125219110448,-9.441155863449533,26.315467714097274,-22.279001306281632,34.26555935283544,4,S02
12000,0.11538154426665678,0.9968508991662779,9.599133298063395,-2.297252640529295,-4.975514494939284,-11.009812983017465,25.12317892843305,-22.278383380604616,34.48570904913908,4,S02
12020,0.06411140177654984,0.8039130502860334,9.339050245354594,-6.194361471761016,-15.626678139779298,-9.781493756844199,26.926249913916028,-21.730230483426098,34.47803513659939,4,S02
12040,-0.2743145756841783,0.7275738123846429,9.314248520326736,-18.12360833278965,-19.308605248445627,-6.942519876376233,25.963774417104435,-21.44099113406185,34.97275032228052,4,S02
12060,-0.2661893938592931,0.1668707250468816,9.19239118239098,-17.550671906466704,-20.596072338689346,6.202804962077236,25.254386448336433,-21.771613638587183,33.27345511433012,4,S02
12080,-0.11705621579122494,0.4393687008810509,9.238985551806351,-20.425936754739826,-29.831519512076348,-6.401567037524229,25.40619901200965,-21.640801192233628,33.280488347690046,4,S02
12100,-0.35063457532323306,0.3057969511497399,8.905867369849362,-27.1396085230907,-42.57687632596226,-2.328029090428102,24.968574816759713,-19.48762128389651,32.86318828619357,4,S02
12120,-0.3427885504509772,0.019976551183671462,8.965024907166189,-26.960220349284537,-42.00412543699679,2.810120948034408,25.498309008713967,-19.195557287737266,33.641517986275844,4,S02
12140,-0.4140537469394785,0.13273911939263225,8.949451667997357,-30.365609187604417,-46.99213607635268,13.692930751944948,25.154028990523408,-17.514098636968455,35.49876014616221,4,S02
12160,-0.5561307013375083,0.26179619211750094,8.990277402820514,-34.76192350978847,-53.16099601789092,15.501968568553115,24.370679983734515,-19.752007034502746,35.62563282080389,4,S02
12180,-0.6897169345353491,0.48516575232849285,9.077889770635004,-32.956430728640285,-53.483937556799425,7.750116614190821,25.12956623722527,-17.28768632844434,34.061276381333606,4,S02
12200,-0.2640927508484896,0.4817696208800147,8.971201267474719,-33.23567292007529,-47.13098086241662,17.80702241399834,23.490710063842528,-18.065498056402436,34.74204215480353,4,S02
12220,-0.37699522755115444,0.8645541418521454,9.44115984759188,-33.3407638685324,-40.809586525683564,9.587449006867542,23.44922910258443,-19.17986167918019,36.38950709106815,4,S02
12240,-0.2294037814409212,0.8896462187452232,9.596578378719848,-26.275004829216396,-39.828520142447104,17.730284760435797,24.104318282911468,-16.946872385154073,38.17798943715601,4,S02
12260,-0.14864766667429694,0.9763341222114186,9.686447630653625,-15.028218235558608,-17.53022908100438,11.930674909749882,24.29859857932174,-18.142482950342554,38.0151773905961,4,S02
12280,0.0990217520931811,1.4968211595473575,9.89000226637745,-4.86401191642461,3.1232708112913903,13.403396411707853,26.492718323124688,-16.62342267315109,38.74364373936318,4,S02
12300,0.11280773416464247,1.4182333250513577,10.170496443158775,2.464211938511161,3.806450622029339,7.467083438803583,24.206712815572892,-16.326739621751422,39.4434260191973,4,S02
12320,0.5428790771646568,1.831438433466632,10.492487895737545,8.529141712653281,20.646455488112757,15.650470476854457,25.266723563103632,-13.73975111910049,40.22747739628564,4,S02
12340,0.4198019441634623,1.9433368793621846,10.720563710151152,15.581830463134654,38.088898840377794,7.0145152419436725,24.216136310267046,-14.821478745336929,41.362077431425874,4,S02
12360,0.6247220401336098,2.183884475835911,11.184574604687747,29.162832922336346,49.625594489783154,5.963099796449059,27.132297652877043,-15.324636800857812,39.48570543313247,4,S02
12380,0.5485617976477718,2.3934972435386235,11.197990005314795,22.269242135324536,51.23283499256527,1.4809427926571437,25.465095801208,-14.618085315278844,40.702822703419244,4,S02
12400,0.5387463076972782,2.4540612857531445,11.35078208138817,28.190578935968137,50.64921575360502,2.5525106069998467,25.287591295262295,-12.003714875701082,41.23918463486052,4,S02
12420,0.5733463493343267,2.558409296616224,11.506155020021293,23.044475198468085,49.8437713457199,3.4007327198637465,23.815757269669252,-12.827390083693988,41.574845756152946,4,S02
12440,0.6954698628524619,2.375710908835098,11.44287942220568,25.30489385656385,38.556401576434425,-8.41941340230086,27.48577193381409,-14.651797892257433,39.57118722111451,4,S02
12460,0.6298056020799216,2.628045651364987,11.648452664780278,18.797251184304578,35.863188997498526,-10.313438098230334,25.698403706683592,-14.183193653163393,41.54531591240611,4,S02
12480,0.6658284719689933,2.605290854350511,11.388308409783681,16.080553499165426,31.881012361210185,-8.29053389784593,26.286805295568133,-12.890397855114536,39.65428594607572,4,S02
12500,0.28967372497149546,2.6120790969543015,11.503865679491529,7.45303420072601,24.06545678945642,-12.66169108323456,25.45465793090608,-13.593808573833304,41.21188638663297,4,S02
12520,0.24242266245477145,2.282588537009495,11.367099028238531,9.745857227298767,23.963820738338338,-13.648128047566525,28.08180407809237,-13.070848927647873,37.64688997512675,4,S02
12540,0.386326577236232,2.0320764277199683,11.017669156418155,0.5486142887811427,13.578334011749128,-12.383216626334713,27.37790124224251,-13.062746380753165,38.45934028207387,4,S02
12560,0.1190232701741646,1.8690271603294846,10.965537305547347,-2.9612033019881707,8.296229282212522,-16.03247916135335,25.94773847033534,-12.452303534858933,37.682189744967836,4,S02
12580,0.1125015299776632,1.63520647011002,10.7877990288254,-0.3269782093365894,2.143048195652555,-14.38895211126064,26.342249165977364,-11.034003807248027,35.439604590413204,4,S02
12600,0.10627328100017064,1.2536385281451752,10.304978209611232,-3.6843351393192942,-7.160924679735578,-11.288513000096463,27.423257445092947,-11.333907518882025,34.651645024352135,4,S02
12620,0.1721841398534122,1.151504389356171,10.232567413795318,-0.08287607651797568,1.0868436667529882,-13.639197046138747,26.12808268543226,-12.159558153810384,35.18828787951358,4,S02
12640,0.02560181871885006,0.9727498170468583,9.829621297393027,-1.349812471912414,-5.918496530437626,-7.806923720056632,27.315927413446932,-10.73741680633992,35.36187653795133,4,S02
12660,0.07144186307970843,0.9270653025254731,9.805595509433662,-11.622071517126159,-15.341226343855638,-4.24344152907934,27.698808446007014,-10.786048704329087,33.385082326958766,4,S02
12680,-0.13977471794312682,0.6238742813491693,9.506985545976718,-11.75921391276438,-11.570650169666733,-9.591510479342475,28.25443018830819,-13.415981440778722,34.22173779745753,4,S02
12700,-0.16732113403555707,0.6317331847910681,9.07178030566887,-15.980517900677661,-21.435912148174133,-1.8852523366572904,29.265461460653867,-10.58901008286128,33.9744229525447,4,S02
12720,-0.2742021678888358,0.48836704249752766,9.01756682303601,-15.53078150983783,-34.01928975559963,-0.9541491302476627,27.539859134815295,-10.167627717181212,34.081516658117394,4,S02
12740,-0.25848278016394766,0.10406196481969526,9.001735278905969,-24.841864841556973,-36.84124015411102,1.8347388162447706,28.135417420392674,-9.986019979682732,34.55545325974009,4,S02
12760,-0.3704289692558992,0.08425184923585341,8.989719449843461,-26.99025143290839,-39.75088827270397,4.44087007085559,27.643629099291054,-10.29775926352327,33.966706047506165,4,S02
12780,-0.3066838909934728,0.30971320214725867,8.908071411274197,-32.312294864396755,-46.4678826711778,9.618488738961704,28.979010496783328,-12.683353206451784,32.45953546607925,4,S02
12800,-0.5088493363049837,0.3674144918439251,8.9660593419718,-36.62300033349499,-46.313288716971385,9.123234718774219,28.033362872763078,-12.183193352180183,35.18338329877115,4,S02
12820,-0.6506354164536896,0.3003072046380831,9.08152784447983,-35.41903511695302,-48.101908400912315,7.703465990831769,28.282417899256227,-10.295841490303724,35.175756979554706,4,S02
12840,-0.40726029069645675,0.4358230236314052,9.240415756820537,-35.9951988986548,-50.03018532202355,13.975974402901118,30.44023226461144,-11.634157723393468,36.95114455206629,4,S02
12860,-0.5489277734750696,0.5407640484329352,9.345860764310363,-30.91699604515272,-44.603055738874076,15.485305957880168,29.36972296870615,-11.879944033503168,36.094284726658344,4,S02
12880,-0.2593222929278861,1.0418815438101592,9.400607889653967,-18.794995814136115,-34.28475501577742,14.103339198791147,29.946116822258805,-11.323469506711152,36.87203624836525,4,S02
12900,-0.15044568908750164,1.0743173332032538,9.87737532626735,-20.563414048383724,-29.61323555216728,17.19982708261911,30.809724451308465,-12.58849482170332,37.59824952738873,4,S02
12920,-0.0601871362512689,1.1420985396186099,9.92788986575274,-9.877403193385131,-15.320921568671867,16.6350893250922,30.723278122566,-13.002747697261126,38.283621909147826,4,S02
12940,0.18715842508491282,1.6625849685043266,10.064742818577843,-1.6413925707105426,5.401114950559742,16.148973346072523,31.775183879122178,-10.614838997565748,39.69560222528346,4,S02
12960,0.33181616020199955,1.864007150469578,10.487694133376172,6.34066382923769,19.83245818881821,14.528896566313454,30.48896683334228,-11.348086181669299,39.799490726617925,4,S02
12980,0.42841840080606275,1.8211971983292936,10.667414715735639,14.1763014221778,36.84658054453208,10.168940946312842,30.47031615555046,-11.190776877131206,40.32359995585232,4,S02
13000,0.5744924472955922,2.387067719169337,10.999279139800377,20.4475377549856,44.124694613598784,12.906288595176342,30.82895355826985,-14.640075759632634,40.8312039531223,4,S02
13020,0.8145050340272774,2.4177084679489265,11.065500355873585,19.386462683940824,46.48101561292063,5.165523957320199,31.231749285308833,-11.659914948449728,40.041428171947636,4,S02
13040,0.6696983287417146,2.3944080502562364,11.24370202517148,28.14326145389457,55.26892462469771,-2.316742460575134,31.026763563922994,-12.702658936119068,42.44004331240908,4,S02
13060,0.3900720527014314,2.534675333054757,11.400892431716029,28.4192316970431,55.522077386839534,-1.6266978499792049,31.69610100386951,-12.879190973180508,41.48418488567763,4,S02
13080,0.6230354630821642,2.544563603607393,11.45431711645781,22.727710537111143,40.7276674105492,-4.565690330246988,30.783308706808217,-13.055103370171723,40.41150953234267,4,S02
13100,0.5477841171812861,2.5442116660674383,11.51302431889111,12.182621426054084,45.99654129572231,-7.593590477051226,31.114733900077667,-13.906888379712022,41.77607127627867,4,S02
13120,0.528016733857757,2.3618663858922555,11.737013649605439,20.039070523544037,30.498119241624497,-7.0151254180503075,31.745172508240586,-14.542032739568157,40.53202250542257,4,S02
13140,0.3036359971842601,2.3420871392203257,11.509242917200629,14.651513144469575,28.40630979798284,-16.67854162079996,32.3507517283089,-15.1877413934533,39.01276237075229,4,S02
13160,0.2790743588554577,2.246855181413718,11.460627425876853,6.654639037004784,15.781327974079357,-9.558863889862435,33.27977598449539,-14.093604996501089,37.247042190099286,4,S02
13180,0.3329905559275441,2.066361942785254,11.177499082399928,0.6674156442117667,11.647424609635125,-17.273618323109055,32.24494943167545,-14.349114865424967,36.316010828874546,4,S02
