timestamp,ax,ay,az,gx,gy,gz,mx,my,mz,label,subject_id
0,0.14682904547094802,-0.0443142385056773,10.140956038451845,-3.7318804406384625,-0.7711863379610455,-0.030681792597308855,29.279909265085596,-16.425531753619822,38.23075763015246,1,S02
20,0.13280824981884473,-0.03852934005242116,10.142137289143324,-4.057093368939042,-1.4030442283963087,0.4680827766954401,30.32494612086023,-16.576308401999086,38.253874673076034,1,S02
40,0.1313770059747038,-0.046511735998008605,10.142550124930231,-4.235758675161494,-0.9898191683316954,1.061629982355651,29.278368828202545,-16.44908670540004,38.271980276953606,1,S02
60,0.13079392549949195,-0.03729315222261817,10.152783677225987,-3.404940492853144,-1.7595988020713769,0.9142293271982727,29.949133200878105,-17.073198708569663,38.543205716021085,1,S02
80,0.14599866499212433,-0.016074612638627063,10.148519155216608,-3.9018552610406316,-0.05815243821078342,0.6771422421751387,29.13349104595866,-16.250594550088003,38.02912393113106,1,S02
100,0.1490978052440053,-0.035538066020636395,10.142586021470038,-4.28247866051089,-0.5081246476480461,0.9072531641595412,29.604430368442696,-17.063126828742618,38.62765699010367,1,S02
120,0.17135078559788308,-0.02119725215228742,10.124283270085439,-4.613132266440403,-1.1330189776088797,-0.03085549061755266,29.96565086690723,-16.045318155098894,37.81152121483192,1,S02
140,0.15617438618705193,-0.034320827704040206,10.132829382666,-3.9832430238285985,-0.848657642593205,1.6600202492073022,30.255024755153556,-16.607748305379786,37.648698394581295,1,S02
160,0.16516208595357096,-0.021605717932547848,10.164236788344574,-3.6175323627622595,-0.732645221359674,0.2515326086657169,30.223723709315827,-16.259764384840068,37.771293444258774,1,S02
180,0.1665990374297155,-0.01758332617229791,10.13440671447107,-3.640611590630116,-0.5733153626793877,0.8978634271996397,29.730390102683437,-16.78016329662404,37.978663412049315,1,S02
200,0.18967242515275345,-0.004790526917901591,10.139836403147646,-4.062524224771509,-0.8288520575015276,0.8788101274566276,29.656341408991917,-17.014449530371117,38.24438119378973,1,S02
220,0.16020259941036208,-0.016554815311535367,10.133923408427743,-3.8847974361044653,-0.3795155405142552,1.6196849823064272,29.562212945232485,-17.21731646622774,38.25998718165045,1,S02
240,0.16565540089959863,-0.02452747585977718,10.1357699199988,-4.514731075084451,-1.231810083318051,1.1166745496849613,29.539551488917276,-16.6544865370584,38.26486768302319,1,S02
260,0.16945152861056095,-0.03860325325131446,10.13335118592198,-3.2228951601501876,0.1629047512947166,0.636001452274187,29.819077441277194,-17.309473628065216,38.147471413926326,1,S02
280,0.16043084768819818,-0.023547598780822306,10.13894113655634,-3.5272291575610213,-1.5305256234103024,1.2415943305205124,30.10783334501222,-15.870983613457717,39.03653150092288,1,S02
300,0.181588286896745,-0.010921595490729644,10.13866884081148,-2.8884377526008,-0.6753495361738895,1.002719772911792,29.599170343533295,-16.808340561994665,38.14336291363776,1,S02
320,0.1809540792053625,-0.025608322930951243,10.147743897481764,-3.9416743135640457,-0.2947354906918571,0.40044016184516545,30.006267426255697,-16.399214828466572,37.987884167284136,1,S02
340,0.16798630730720435,-0.009855923050116261,10.166691933262193,-4.171228803839831,-0.9586682877332782,1.6347134009075805,30.047640714586176,-16.553479167790737,38.76187119386576,1,S02
360,0.1899448508229888,-0.015413181217273808,10.14724354880183,-4.251021698223626,-0.5353311420229627,1.0912718201060425,29.883276159117028,-17.249717734508565,38.38069992229999,1,S02
380,0.1735483937297022,-0.019428786475476495,10.161050476882545,-4.07931846943983,-0.20702776326783534,0.776534446019141,30.077020367931233,-16.425245884562692,39.01222782679943,1,S02
400,0.1721331975578002,-0.024891103419787314,10.143769157778586,-3.775548594085486,-1.551668975069748,0.3654602715563499,29.76106751074473,-17.209343538940885,38.07080759634849,1,S02
420,0.1718403871539908,-0.026135469541039624,10.13813021626302,-4.198997855616798,-1.2020785877097073,1.1739157740524189,29.78629198547141,-16.578793321052277,38.581691546572955,1,S02
440,0.19250092534069513,-0.0400778907617714,10.152330518434912,-2.9464495835944104,-1.3437454588262638,0.501333042299402,30.023759925984503,-17.11807762975041,37.746074350129305,1,S02
460,0.15124002012175491,-0.054261635899644306,10.11770074246661,-3.7649892976817316,-0.45707942702125204,0.6544629309405021,30.237138183428033,-16.785248508837434,38.410319307482204,1,S02
480,0.1805612619703118,-0.04895126885279146,10.143671399807271,-4.142933656704113,-1.1088027587615588,0.6789847062478649,29.76341584000994,-16.071750144624907,38.65344126295648,1,S02
500,0.18102124150947843,-0.042721669247843735,10.147915551163731,-3.8846048567113285,-0.7251571763481773,0.6521164532752415,29.961944967817793,-16.632462388269452,38.19011817174073,1,S02
520,0.1841880210084265,-0.04863232208779263,10.142460023232418,-4.774985805465895,-1.6262255792150246,0.8370483298433818,30.146031790921704,-16.39338249419881,38.06340543440094,1,S02
540,0.1730734193361143,-0.03870359568451214,10.142832449756346,-4.786717945966873,-0.6484367305057103,1.094179666851381,29.66380797903714,-16.745319155487373,38.736209208131754,1,S02
560,0.15726695288406956,-0.06949882169661001,10.156793708636028,-4.998426563272841,-1.4211987304577387,0.5914718966619368,30.206840774304823,-16.01005534012377,38.430678656429286,1,S02
580,0.15480654917123013,-0.06657924171267597,10.166781829398547,-4.512035796377545,-0.6433348106771661,0.40082022452908406,29.24989091924701,-16.339240045925568,37.78038474216348,1,S02
600,0.16545096746739976,-0.06273179067368961,10.1460846019215,-4.748778593691513,-0.5622344573964616,0.39999298504352765,29.713013942410072,-16.742094449492146,37.99744832139339,1,S02
620,0.1849598539114791,-0.07145127417452027,10.137575733832984,-4.046919282915237,-0.6843634062002855,0.7561141485376014,30.23616042874268,-17.027445423505043,38.18636260959708,1,S02
640,0.15065048746514026,-0.07459825795096338,10.123063920230901,-4.184507921944167,-1.3153328242151998,0.7470089606208029,30.184189522916085,-16.40174334449202,38.94820455368436,1,S02
660,0.15119874838093172,-0.07685823678500163,10.136857139339766,-3.600683581660575,-1.69853444197545,0.27870218643346467,30.1126629936543,-16.473946874364596,37.89606754390387,1,S02
680,0.16407657696735456,-0.09162391864228671,10.157346197525724,-4.119989041927065,-0.7282837238032478,0.04619290047313873,29.90672870000558,-16.514570801678783,38.36400091747268,1,S02
700,0.15075049150296266,-0.08149345072448046,10.140492073409272,-3.2554965582815827,-0.92182660197947,-0.15471445561084662,29.42378493542571,-16.395079472840816,37.99986894966006,1,S02
720,0.14189569837158467,-0.09525522015177385,10.13279796273899,-4.124084837848585,-0.6916864242804476,1.0354981825035239,31.040054403501006,-16.70024678956682,38.05950489435953,1,S02
740,0.12549012720094024,-0.09546810719594793,10.139659753240489,-4.3047302825693405,-0.6263283276601486,1.1875891471504252,29.32910062642926,-16.80864392721606,38.31468444519488,1,S02
760,0.13379087735246772,-0.08521844337700701,10.151979162454724,-3.984715687151565,-1.5968045129654778,0.23975033733937573,28.72745814277797,-16.94680422545758,38.472992816145336,1,S02
780,0.11672842750206165,-0.10474010533285363,10.13890998723837,-4.414037679711197,-1.3369796172026502,1.1257839898007225,30.08058854961766,-16.514395723226762,38.172141773337785,1,S02
800,0.11783803459744109,-0.10605510724479104,10.160755695596933,-4.800914868222073,-1.3985922135185453,0.11352582235352654,29.592109664965584,-17.13048591583642,37.732163859330434,1,S02
820,0.11382628646570936,-0.11524695045122135,10.119953958433607,-4.408643397687207,-1.0516061944807955,0.3864478909277622,29.416050852475855,-16.056397181438275,38.1329959246198,1,S02
840,0.12448649036020366,-0.10319543785696011,10.14057448497889,-4.530697792354708,-1.466002316986379,0.5348305850400104,29.853054520939338,-15.622826655300914,37.660282236103946,1,S02
860,0.10680482357727081,-0.13289286917418824,10.141369351057582,-3.9743126233379935,-0.6145036387297685,0.9034821165627197,29.919194682199823,-16.878317414742575,38.383341602317515,1,S02
880,0.10222968073091192,-0.10876933634585674,10.138209004568601,-3.353162593932758,-0.4782894256607121,0.13185573771819775,29.948157355639598,-15.904360895658723,37.648997342394395,1,S02
900,0.09035746805694564,-0.12023435802327656,10.129380532466746,-4.8263257239464075,-0.6348601508740219,-0.18879780380968136,30.376649281624513,-17.19321114872121,38.013259915865994,1,S02
920,0.09525537187629483,-0.12592287703625804,10.133534529227397,-3.8507548983164415,-0.3476560641356592,0.6712626767868501,29.5123216782062,-16.83300918460837,37.889222743666636,1,S02
940,0.09072060883821083,-0.12871064887636025,10.157910935462901,-3.6815334157961055,-0.16945762834548095,0.21440815270810554,29.479108944892403,-16.451642281974824,38.34758449423244,1,S02
960,0.07947674374964088,-0.12152056456907426,10.148545612197212,-4.642109112682637,-0.5942016792702829,0.8369334678652036,29.715866627248307,-16.73731379623174,38.71110101642509,1,S02
980,0.09177341346452772,-0.12091240275971918,10.149870844812892,-4.22903396995973,-1.3942325284630588,0.6413103232493506,28.622622347012967,-16.718739729845936,37.89453280553,1,S02
1000,0.08328722368526972,-0.1231196382517713,10.170687786992975,-4.904765126999162,-0.8141726082574522,0.7293126030669794,29.90783257690778,-15.772430819417504,38.632522563030896,1,S02
1020,0.05196595485482161,-0.10858317946465544,10.146965682227304,-4.113451848802921,-1.0234947375801708,0.9235821536149532,29.49885633481278,-16.725035418934624,37.75714271631057,1,S02
1040,0.05417521904192658,-0.11452261878752182,10.150270321676444,-4.9507367220859315,-2.1935995865369686,-0.15954143534238485,29.92440609526532,-16.575408034284337,37.49885089784338,1,S02
1060,0.056969679340363566,-0.11181047735872696,10.151351147908485,-4.72183835546249,-1.0734850405508027,-0.5449309948422577,29.87093734091022,-16.746235041654632,38.087019130717046,1,S02
1080,0.05107453971503883,-0.10169789578115576,10.14223854733115,-4.923853231857587,-1.309269509225792,0.9172291858782131,29.474063524435138,-15.397630561396252,38.183334706607496,1,S02
1100,0.050726440008815696,-0.10672232247544641,10.131431628091235,-3.868273070291941,-1.406022351555964,0.6941806530919877,29.42426475892463,-16.475216048558156,38.593693975831954,1,S02
1120,0.056994987273531576,-0.10295910529982288,10.144683315571903,-4.880415022071342,-2.1501701837415297,0.8474773759567107,29.425492781391608,-16.71277391882588,38.141799863374224,1,S02
1140,0.060248645281979867,-0.108633925605116,10.156866986585232,-3.7039370927232853,-1.54015619799939,0.010564001761910635,29.103405227093265,-17.23957005704939,38.440287030506546,1,S02
1160,0.03887410747139863,-0.10774880945227083,10.140730231787796,-3.926033896896115,-0.9475389631335633,-0.2805721596034306,29.614995243131983,-17.17430932968987,38.04091722594311,1,S02
1180,0.026328742636343244,-0.09586244374980504,10.142960756448417,-4.536693167567992,-2.004399045525429,-0.15225365763587473,29.48532108429124,-16.634278909535315,38.51921221256903,1,S02
1200,0.017557502445161216,-0.10200580016830935,10.154194103552268,-5.007690624095675,-1.3087745265146729,0.6638189832657976,30.212638084979087,-17.415187090047795,38.034750092539205,1,S02
1220,0.023393639850793027,-0.0946440589901591,10.149902289052955,-5.113991676223057,-1.5079444858077091,-0.5203728659915731,29.329673145574745,-17.37801134565369,37.534834283023216,1,S02
1240,0.02049472516113514,-0.08767247739686451,10.13901415803222,-4.96495526915932,-1.3792795575404444,0.13505392079214174,30.280007019956333,-16.3339404596015,38.13994910492344,1,S02
1260,0.001253164640214452,-0.07851620234628646,10.14201261201319,-4.585770725054739,-1.6910918021399566,-0.5002572648537943,29.406564529367294,-16.76879363231528,38.41842297522891,1,S02
1280,0.04129347126931189,-0.07545550758405709,10.180884135676237,-4.389051426540934,-1.998984699286269,0.9163392681497994,30.269093862342523,-17.00181217548584,38.59117282545687,1,S02
1300,0.03791295965554834,-0.061593356736142496,10.139062893704292,-3.7588602818112413,-1.4994144564315983,0.4561625952796023,29.40002310552518,-16.315074493652276,38.50467376337835,1,S02
1320,0.037293573313235975,-0.07691167820809472,10.154592616170213,-4.724663963243431,-1.59699813204809,0.3699343231119946,29.588232002801742,-16.61088785917353,38.413726678643705,1,S02
1340,0.030990425870871335,-0.07719513847819967,10.167519916304846,-4.282283909400889,-1.0201936217979655,0.2677725219824013,29.667435250775547,-17.27931031791961,38.38389797705378,1,S02
1360,0.012014258062814476,-0.05568220892271225,10.133223605008183,-5.264061566173214,-2.2594094502224964,0.8570455653407549,29.78239765081032,-16.84493444444447,38.801730618025445,1,S02
1380,0.037397666777821414,-0.04368614395500024,10.146340191723812,-5.007079861250421,-1.8363739404637955,1.716789228581363,29.105707980283434,-16.371616443561575,38.03530793698408,1,S02
1400,0.023729499365002252,-0.03263477038846223,10.140029841393453,-5.305665185504019,-1.2765774516382986,0.584839114986705,29.71817270218313,-16.83925036566984,37.57468392885852,1,S02
1420,0.016237353194331117,-0.0305922869465148,10.145313917856857,-4.598254720675034,-0.666237445809273,0.0043836897079087,30.014577564113875,-16.338865771378725,38.12728408183714,1,S02
1440,0.014870959931379157,-0.051972786313970926,10.138468360670363,-4.951216011510842,-1.1873427911839907,0.47986184509113317,29.4002056191269,-16.511894864618377,37.77626868461447,1,S02
1460,0.02164208674458004,-0.05251484515774974,10.164187724338065,-4.350887503431723,-1.5846577255055916,-0.01816532322110742,30.142035682534978,-16.633273207150104,37.79659463113285,1,S02
1480,0.025136332018066726,-0.036668044692401376,10.157379818260317,-4.505071089629659,-1.1904524442719928,-0.030179467552701733,30.01196590399173,-16.162884360308567,37.703164304821314,1,S02
1500,0.026808388391394627,-0.0330388255974693,10.155141694287328,-4.888926450229401,-1.4108918679118219,1.0178310773653756,29.70472823490823,-16.49791504211894,38.14226494333774,1,S02
1520,0.028981369615192154,-0.0260727395274895,10.148206458802356,-4.747595090718657,-0.9655355527393814,1.0958306791934973,29.90563381323905,-16.510642740538295,38.4505881373122,1,S02
1540,0.025376637953549844,-0.029395734105766076,10.122104574717405,-4.505319262090231,-1.2500787477065225,1.2466536857374857,29.96550991085209,-16.294284917012057,37.479034341552556,1,S02
1560,0.03579149013851701,-0.03201647595145432,10.148945364395674,-3.9481266058529196,-1.6122685983640426,0.5110230767734126,29.80327233424024,-16.300488589280473,38.40958586092898,1,S02
1580,0.01753226392885754,-0.008943381182360953,10.145447156861163,-4.6823222788566685,-0.5011740153082915,0.42350330181784335,29.88071593052081,-16.26431803934575,38.19059330329716,1,S02
1600,0.04478109881855279,-0.02345668621275286,10.137583160397849,-4.625553177086193,-0.5847521714146875,0.7554479744174206,29.438902416962442,-17.05732567793052,38.119984950373485,1,S02
1620,0.050202797870623025,-0.027039521877790205,10.144823809958972,-4.7168345940409395,-1.447288477756756,1.1197122881219008,29.95426838733513,-17.18153422375702,38.250027518857735,1,S02
1640,0.04138794430758732,-0.01353930745185903,10.148588164564421,-4.457713785095194,-1.7066406339933184,1.5736119533550044,29.288905256221142,-15.674646322058942,38.30800250161451,1,S02
1660,0.044514238400920766,-0.01225186802836388,10.137964044826353,-4.076304854293818,-1.623353710523006,0.34942522344667626,30.456377863071374,-16.122934972398404,38.4341917121661,1,S02
1680,0.056528090499877844,-0.020791522115541188,10.14698874061604,-4.266483511956975,-1.4929205009211977,0.4052682883075447,29.560500591948493,-16.995319400484785,38.085497354474484,1,S02
1700,0.06390841061686872,-0.032126917242273,10.148752093300388,-4.755920072693488,-1.9718427111473031,0.3336394893519621,29.29324378090243,-16.19654192603297,38.722821908780666,1,S02
1720,0.07197328763959376,-0.01833390936215317,10.13542942432687,-3.9749379484159597,-1.711075296441802,0.9281673976227651,30.07661899350411,-16.29100681006114,38.625809374620744,1,S02
1740,0.06917447616262713,-0.04112503729448862,10.148540621904374,-4.142554358662218,-0.48021549770696204,0.252312427182143,30.119168157835748,-15.743201928607244,38.31530392094339,1,S02
1760,0.08028413164076842,-0.03819146924766796,10.133536172168963,-4.604107720593976,-1.1706515117228058,0.22585733420643278,29.441055404125848,-16.826698641207926,37.88657250440445,1,S02
1780,0.06403812927523697,-0.028112224872012676,10.138991292051628,-4.177941469158698,-0.5961305161081761,0.39182166764835147,30.0326526050053,-16.17005135055546,38.57058840235243,1,S02
1800,0.1010537547168094,-0.050311779214124,10.152649115676331,-4.254222361523832,-0.7118029042014217,0.7902581085863121,29.25324306779028,-17.056756375388048,38.13914758911299,1,S02
1820,0.0790689270353914,-0.03043424179833465,10.151727193195516,-3.540975936943304,-0.5539490513316345,-0.3547784068420361,29.591607766213187,-16.65169820343272,38.80567551191389,1,S02
1840,0.09461591059203214,-0.0251146601241602,10.140744822035673,-4.4368321355401115,-1.894712677140113,0.3729673487210084,29.646716984689295,-16.27659664243351,37.814184176155834,1,S02
1860,0.08846169002535392,-0.04136386840944557,10.134042247785782,-3.479424993143232,-1.5986263767145419,0.958316961439096,29.79298146346212,-16.4038270438337,37.84561055757798,1,S02
1880,0.08787789909574575,-0.0383511348479048,10.147048141170256,-5.0833959268770466,-1.345812440091486,0.7278583402008758,30.24489959429105,-17.112158076282444,38.051024597911365,1,S02
1900,0.09596839313266686,-0.05983922854687608,10.143933943939789,-5.0382156630453245,-0.8712684932364463,0.454161039011003,29.291200991833023,-16.439851944866927,38.01057671255642,1,S02
1920,0.10660884609369238,-0.05538524781190287,10.146449427890508,-4.647991515253145,-1.131338371083545,0.6977841231415691,29.44789174682972,-16.722050170376164,38.80391971690827,1,S02
1940,0.1264786888340607,-0.05087562276860788,10.126731627662569,-3.526141756129987,-1.318965148253054,1.0112066568544806,29.30240735334153,-16.69955722377825,38.586060274577754,1,S02
1960,0.10113480370155171,-0.047662117711476874,10.141062094123205,-3.892837776044,-1.0270479299652018,0.9332772240018115,29.672820948698604,-16.683984557498633,37.75605280768022,1,S02
1980,0.13274310147642046,-0.06289613412372305,10.155088478245197,-4.644064192258503,-1.6062515458832136,0.7356887383557308,29.265040387579997,-16.682054990109037,38.237977758412136,1,S02
2000,0.12361923110924827,-0.05494303286216144,10.145556882038647,-3.8348094205695493,-0.6284007084060933,0.9576616648749696,29.074314683810417,-15.942256643918444,38.496131156999525,1,S02
2020,0.13475225114229178,-0.0746344907511368,10.162734116903728,-3.8708858854604786,-1.304426729722852,-0.3261881954683311,29.666124673344445,-15.895198692866801,38.37725415166213,1,S02
2040,0.13633397500930577,-0.07888728581962422,10.138321505727586,-3.8959399248053406,-0.8733618459817385,0.8273927615322403,29.821965977651804,-16.23672555456307,37.971787119683405,1,S02
2060,0.16722086706411882,-0.0737639845098261,10.135473201635238,-3.8395367950399697,-1.4837857211799292,2.066208479209761,29.992060412064117,-16.658397448345518,38.50382604319537,1,S02
2080,0.14295430211424986,-0.07374172168116327,10.159123853608,-3.3039366860335364,-1.2753725453057807,0.3984197177593818,29.582132874468986,-17.10086917736989,38.047317432547786,1,S02
2100,0.1360613614813889,-0.07238803977393227,10.154076314840395,-3.6831180424354852,-0.14864028116472916,0.9491171194481121,29.591806736400695,-16.927648211505403,38.32824501985541,1,S02
2120,0.161443805352098,-0.07630376585741955,10.139582596188298,-4.261640317552192,-0.8282020216674632,0.36967218163894644,29.725131234376963,-17.29793375095585,38.16451889781711,1,S02
2140,0.16789937299181,-0.09926633827474901,10.14323589281419,-4.283778453014646,-1.0158239058649223,0.4847565554464215,30.127063718677224,-15.89425506115997,37.89251059476454,1,S02
2160,0.16083613055540488,-0.08620877121634872,10.140440851678019,-3.94653192788315,-1.4013131833275252,0.5438219966943103,29.655391056063593,-17.48918341068031,37.987341348171825,1,S02
2180,0.16916189070598608,-0.08584527635656541,10.1496254866652,-4.330647268003398,-1.0484207300100332,1.2993396770977523,30.394172436471123,-16.769482723945146,38.42407727753104,1,S02
2200,0.1639824838553421,-0.11351090795966381,10.135496089397776,-3.500531317020235,-1.3206390626337439,1.6169845414408797,29.975178869024788,-16.340349689977735,38.35679099154884,1,S02
2220,0.17293922329428574,-0.09306541250236361,10.143147566319067,-3.4990849647736804,-1.0813213241009658,0.23162496364938395,29.92986084107228,-16.935780448263213,37.72173095325011,1,S02
2240,0.1643357190746014,-0.11958338759210257,10.144417303186694,-3.694384658922865,0.009045059760226293,0.3924484124351734,29.26645011092379,-16.460942872078512,38.079590713599735,1,S02
2260,0.17077910879923078,-0.1342788324079121,10.150101959577638,-3.590773754798101,-1.4362556017025818,1.2129403884888363,29.550514052853934,-16.61367485247784,38.66155600680447,1,S02
2280,0.1744945313084714,-0.1289116001765955,10.148538570935203,-3.8543095131268603,-1.473819560558911,0.8638236724801489,30.32189891524865,-17.39381023893639,38.50004427554819,1,S02
2300,0.17057834893735785,-0.1244540973448299,10.143315699932886,-3.6878810033236116,-0.30015709681391567,0.31086245607067686,29.87265512786861,-16.04169518126515,38.144497110462986,1,S02
2320,0.18193078586443323,-0.12150931556122527,10.142221428674304,-3.6119888602499577,-0.9101516283388171,0.7307842810406445,29.90328722412737,-16.872361452616843,37.956845051771424,1,S02
2340,0.15953383878677832,-0.12403819762696336,10.157514971251103,-3.0776420292355557,-0.9830541468210803,1.0381539408975033,29.127828938347648,-16.219216292354744,38.499922940203064,1,S02
2360,0.18373834924339266,-0.11833775779215336,10.134648281210678,-3.6161868440431815,-0.632326085062342,-0.005489891513806522,30.117088192918644,-15.966825537908608,37.67678183408267,1,S02
2380,0.17416069276070228,-0.13030616945966284,10.141483347135459,-3.608689978164768,-1.4307328223826152,0.5290722963997241,29.37158419086207,-16.33477516616953,38.37580919938555,1,S02
2400,0.1706779071190368,-0.12721374155875018,10.150408491658883,-3.0467277017716894,-0.6328019134971586,0.4345030396023649,28.95624913286968,-16.93636026034391,38.07807020072602,1,S02
2420,0.1732205741312473,-0.12069430100525254,10.140724529231445,-4.312606905893691,-1.3512520433910247,1.3236031520931122,29.472113185028743,-16.335397409186644,37.91412709562932,1,S02
2440,0.17500323815835908,-0.11578281883382104,10.147380103899538,-4.567806617317252,-0.44834169583127237,0.7246872587397508,30.703088203486164,-17.21985919997649,37.662648625446394,1,S02
2460,0.17680575155394446,-0.1143865332037674,10.154500770156188,-4.321797866766308,-0.7694798699368661,0.6136199395989612,29.68286353093671,-16.71553961484957,38.165218297815535,1,S02
2480,0.1708342794290706,-0.10860588139353777,10.139297809309209,-4.269682645816047,0.14431931909481066,0.5257307600690635,29.947651442821044,-16.74973052563907,38.655538336395715,1,S02
2500,0.18391402666234413,-0.1171597329053034,10.161593330931051,-4.278394070349019,-0.8286215939734274,1.3118129396278957,29.414043448208606,-16.962310155347126,38.965950907421224,1,S02
2520,0.1762807838004492,-0.11058992698320627,10.160048696553401,-4.467692491570389,-0.5472709032589058,1.3284835308506504,29.455159786519452,-16.783391474830374,37.92337298457474,1,S02
2540,0.17176462037772922,-0.11705659715905609,10.124130051222318,-3.4330213179142017,-0.553030777089037,0.5999806400960446,30.63504853109017,-16.436797438778115,37.503989711732544,1,S02
2560,0.15532667885351753,-0.10726653323434135,10.15285110778674,-3.3098336137655417,-1.9062966359728022,0.9604252247704514,29.74127352705841,-16.818929521676232,37.343098490611006,1,S02
2580,0.16110368668863118,-0.11450399726187188,10.142417897359769,-4.116347434152861,-0.03681667289110768,0.7027201929708908,28.86924183317326,-15.507550271927535,38.677716305292165,1,S02
2600,0.15517779757780054,-0.10232899942603962,10.144802627583504,-4.302305208954162,-1.0368152519643024,0.7938443488063047,29.469908552760767,-16.62683596038191,38.44473922240447,1,S02
2620,0.16188610686069976,-0.10047327842117479,10.14658410515779,-3.8759736440464847,-1.3429659800547746,1.787071023744013,29.756832009946162,-16.512808914456954,37.66794251263254,1,S02
2640,0.15783111682209905,-0.08105154158127612,10.160163952903114,-3.8308210853849216,-0.42440920872880983,1.1914593246242915,29.305862756041282,-16.962751610723373,37.49285659221102,1,S02
2660,0.15757439216825248,-0.07965523358580588,10.159534446710095,-4.533416273978078,-1.7165014237331635,0.29154235315942595,29.005971599115707,-16.58502535854847,38.77678937016127,1,S02
2680,0.13827678031546756,-0.10423095055079629,10.160326906989644,-4.269280727893092,-0.8310519246757297,1.060838733453779,29.358551652317807,-15.941768483900525,38.07647731809648,1,S02
2700,0.1396855070258386,-0.06957898133827983,10.142534943473581,-3.994139723550194,-1.313364766919955,0.6885887981479213,29.617774650621705,-16.462591568968055,38.03118388592958,1,S02
2720,0.16048227537395565,-0.0915997362956988,10.154287554912466,-4.507365116939887,-0.4864675168179724,0.7297468462959641,29.426280896963057,-16.430514804042218,38.57044215890159,1,S02
2740,0.13122331343388854,-0.07024018156390348,10.147527185633383,-5.096117751827338,-1.9735403571841217,0.9526459304934832,29.884604784113662,-16.596021398717085,38.61461849271047,1,S02
2760,0.1395276080205882,-0.060338363343839116,10.129399583701286,-4.330838710298312,-1.424513543711667,0.6184774386522409,29.972880936886337,-16.906940161557113,38.012657610177456,1,S02
2780,0.10951710964217251,-0.0672334719902197,10.144295269919095,-3.616738144994153,-0.6058640041963995,1.032527191156297,29.72239130810211,-16.532525633326873,38.15349174703448,1,S02
2800,0.12014097654531111,-0.06515558622926046,10.154024578170153,-4.15217089677932,-1.2484017589179603,1.5501637625039772,28.770056170263942,-16.86731484202099,38.20616601512849,1,S02
2820,0.09858036260883617,-0.05432691220245173,10.146809158947821,-4.356905358905233,-1.5323021998548916,0.7873345289705113,29.684322495113417,-16.77117192438256,38.26062298242593,1,S02
2840,0.11268590006908072,-0.04909560148725223,10.157550845468933,-3.8903587939783173,-1.9473353673071645,1.41486940329696,29.849744010899233,-17.33819994293296,38.131228493076414,1,S02
2860,0.09371526894850565,-0.06472510005854892,10.157677131483737,-4.531733711979149,-2.0006886437886773,0.034790538549890115,29.87535694043393,-16.79065207119944,38.92826033436495,1,S02
2880,0.11127278177216865,-0.03376398459786918,10.137065393930646,-5.065645266996359,-1.2834913143839752,1.4589014737488497,29.885188715557476,-16.463123207706204,38.60847424969459,1,S02
2900,0.10364982512070264,-0.04079068291764307,10.14066889659632,-3.3968092823083977,-0.6020556987912896,0.6657609955128289,29.39710686915244,-16.118286372568505,39.10992685133816,1,S02
2920,0.08384846884786808,-0.03938925952829311,10.138442014966571,-4.486185929636703,-1.326029427965972,0.976263060312071,29.924523841930583,-17.158419979518975,37.69851465462884,1,S02
2940,0.08557372647453787,-0.0319173773084584,10.154142305857375,-4.495971323613032,-1.6031825846667256,0.8070773146853126,29.683225107294124,-16.53918235335349,38.27872779572588,1,S02
2960,0.08118671224801231,-0.030976516043869237,10.157104865686689,-4.787264949627849,-1.2405715821534429,0.13522600326803053,29.374440321317877,-17.07862969925408,37.408893716311596,1,S02
2980,0.08681911754095854,-0.035508869049439624,10.158590787797609,-4.84314497508749,-1.602867774485811,-0.059461129710094984,30.31517564812813,-16.648324352967652,38.14824981233077,1,S02
3000,0.10299228996685485,-0.02968490688529936,10.13429610019184,-4.168692123227864,-1.7762636283706197,0.4370152452521099,29.649650121764722,-16.380877006688713,37.721405041628515,1,S02
3020,0.07956067175469352,-0.03723879102085534,10.143602872709474,-4.591641203927793,-1.0589944275784156,1.086803576192875,30.142235980322067,-17.423167359902322,37.41333423129934,1,S02
3040,0.06432417343587399,-0.012620187740117077,10.143349656814943,-4.224580593274221,-0.6173704790617561,0.23848446766405595,30.10986278797046,-17.598586238109448,38.56886722112414,1,S02
3060,0.057400728443444037,-0.029456791222783205,10.139722017873906,-3.792661075829806,-1.4180926364909836,0.03241733523005852,29.85208886406874,-17.136224469247885,37.17305302453184,1,S02
3080,0.06188141980839888,-0.017886167950656118,10.159298902201307,-3.8423339027505987,-1.3945069200129279,0.7381340228552193,29.46940685397949,-16.58362685580505,38.20180575432494,1,S02
3100,0.05125748316436219,-0.024840533698565627,10.142574687828688,-4.414950104329785,-1.4719855365488912,0.38311086666916006,29.82837617967738,-16.889516614602158,38.024009072799586,1,S02
3120,0.039328227797294155,-0.030358798409111903,10.133931320220887,-4.945106080955272,-1.1136661062561217,1.0887298266137844,29.530274246994388,-16.207801463019095,38.63402593910263,1,S02
3140,0.032002695631272365,-0.007227734069526245,10.136929018493301,-4.604690939727216,-1.5098459430479878,-0.08365698338826244,30.116639134340986,-16.717339468696345,38.11280019143208,1,S02
3160,0.047970064001771555,-0.013097400877039797,10.14390314776604,-5.166482303123027,-1.249908880641362,1.0648145164612894,29.238429468103323,-16.626020319026132,38.65980876203403,1,S02
3180,0.04996311821106971,-0.024377050669037843,10.128113081645477,-4.7281826563656955,-1.1747550603632457,-0.6832294368950383,29.708659776302998,-16.47234109154967,38.49611489492978,1,S02
3200,0.025460780821021448,-0.05170043000500262,10.15989199508868,-4.570000998904576,-1.260432356785537,0.06034941458840726,30.082711544339606,-16.47402820258379,37.73839302713646,1,S02
3220,0.04051015402329909,-0.0196502813111593,10.150867487695248,-3.719418256535554,-1.6978107803548963,1.1013974558816257,29.709877105757638,-16.508991511482442,37.91508212174604,1,S02
3240,0.014064701685164369,-0.03389866815508528,10.139918610832776,-4.883387909392633,-1.2794388076152676,-0.4707313602993356,29.408909043564485,-17.08877035965925,38.84850223679523,1,S02
3260,0.019101066849502746,-0.02437177573362901,10.145681851335306,-3.7773657813275165,-1.4561026459759767,-0.03431522751664773,29.905140503128834,-15.862477849061202,38.761416581035334,1,S02
3280,0.03121365766965853,-0.04743579574652894,10.143017518426484,-4.994616321867119,-1.6611326590811641,0.3252175594063378,29.77727376985113,-17.41420007028206,38.87412002613898,1,S02
3300,0.012642329397591731,-0.021479331245859226,10.154346432115211,-4.588220635349723,-1.385630061855266,0.27882462729791885,29.749121191022752,-17.178555568777092,38.62497641014547,1,S02
3320,0.00824296266983697,-0.025914078274663112,10.146410400777063,-4.3590084788982955,-0.7054374327104436,0.46690626871402025,30.163864495822107,-16.573993581389743,38.928890230259455,1,S02
3340,0.030626145351215578,-0.05755387778840646,10.14802521549797,-4.451656761864023,-1.5721572129646166,0.32123740117241534,30.30489609182497,-17.479640945526683,38.52539950937418,1,S02
3360,0.007807635039887351,-0.06218094477672216,10.160315634217701,-4.127294541865672,-1.656470976203355,0.580721005487282,29.604288190298565,-16.54985233498651,37.95652347073978,1,S02
3380,0.011779154832657207,-0.03922499850385022,10.146061800739151,-5.3408589965562605,-2.018226074912313,0.7455380036222023,29.598830390741206,-16.591202423503752,37.98096292988335,1,S02
3400,0.02384050045375126,-0.05231162526978343,10.16032342488139,-4.533609837917033,-1.3432326387432745,0.2840138863854345,29.644133270508657,-16.581171339070274,37.910080989823946,1,S02
3420,0.029850442438755148,-0.06333338633218533,10.14328850114092,-4.706868654423522,-1.8458554120005561,0.7424252216434233,29.381781840510286,-16.370125435764727,37.956806676303934,1,S02
3440,0.01488890544051516,-0.07451680831691206,10.14791034815199,-4.899071361809519,-1.5243484064198944,0.19793579111643078,30.087266392280963,-17.47380569829702,38.57790471429498,1,S02
3460,0.007458916410343366,-0.06445763669738819,10.148870165971658,-4.0444834638042755,-1.6390857500736131,0.526095775495174,29.855380758740296,-16.371909488352536,37.793384380223195,1,S02
3480,0.027841548121824364,-0.07570740117322336,10.147957784106834,-4.042569127430952,-1.599784972961904,0.601121467030421,29.442888361600257,-16.659098121649244,38.33572023559658,1,S02
3500,0.04595496004482819,-0.05446922309255885,10.150533438387642,-4.4048640647404715,-1.324023892483388,1.1868214587728998,29.454980221080124,-16.5958694447971,38.19873939676935,1,S02
3520,0.03729099999296405,-0.08099425307309763,10.141343264980035,-4.512167030833082,-0.8241122760026868,0.531932899110254,29.76344743187575,-16.76326219576826,38.04858506425722,1,S02
3540,0.012618962851543777,-0.08405572744243771,10.147388561636763,-4.706446881635081,-0.9185593782281256,-0.4851208281468308,30.305235543968113,-16.868055618276976,38.216469968774135,1,S02
3560,0.028355419379661365,-0.09395674971275488,10.14620065701734,-4.682345292141298,-1.0122637894297648,0.0759899036007663,28.764614962426187,-16.687643549106532,38.69228729636929,1,S02
3580,0.038602484990525106,-0.09897153023341346,10.161439096672717,-4.404171082740767,-2.3714234632423015,0.019412849835525825,29.727618546827507,-15.840116226820957,37.99491363381326,1,S02
3600,0.04003112390133124,-0.1141241170148787,10.132448263162107,-4.136226113847556,-2.2847323354420475,0.6641270434461668,29.80105026782449,-16.580666773286474,37.99813399694827,1,S02
3620,0.028938066316343172,-0.09165957994105327,10.140261806763151,-5.363559408202116,-0.35026254581189287,0.4897324525881343,29.674080210023536,-17.02963604622861,38.089528503503104,1,S02
3640,0.055945469093288236,-0.10501239660817754,10.152043674911566,-4.671919262288992,-1.112581582253545,0.2249047264211088,29.645778950552746,-17.04966872312744,38.58551038464959,1,S02
3660,0.06897560875821607,-0.11013224500505564,10.153044851173215,-3.7276982203904296,-1.5944290412249245,0.13059471548863,30.085181297502466,-15.543339787462429,38.42708656254954,1,S02
3680,0.05776146142099223,-0.1234449884841041,10.147738391611316,-3.942179724764997,-1.2004025042406796,1.355913261476024,29.57928957989661,-16.26464329018305,38.418523895373006,1,S02
3700,0.05472277104660917,-0.10965146979037577,10.14499530075928,-4.079346398389176,-1.1498914009080659,0.112152103913911,29.205339640303695,-16.942436849693244,38.22729319183424,1,S02
3720,0.04868727068720836,-0.10873397695453021,10.133580313830862,-4.142969568460999,-1.8012386500297897,0.9738957115663733,29.337928098375908,-16.627546620772748,38.09761467792402,1,S02
3740,0.08277541518824777,-0.10272977085959756,10.1433045937684,-4.664630780958286,-1.9675297901879247,0.975586433551686,29.817865971168843,-17.12874087751876,37.86007761248803,1,S02
3760,0.07396806243587029,-0.12514028272616706,10.126746859469389,-4.3649427563737175,-1.2821831501786776,0.45536541999127683,29.14900236671278,-16.363848707521885,38.09219816434205,1,S02
3780,0.07571267990379027,-0.12961843594674605,10.149719663705623,-4.277830963581535,-0.9686611225158417,0.31438716782015375,29.682966061139325,-16.88861358471661,38.719963324949596,1,S02
3800,0.09026825115019137,-0.11243497360208826,10.136836679507628,-4.132034914980039,-1.7320386395632954,1.2107718746317855,29.550200536870015,-16.365260818792105,37.898553961582884,1,S02
3820,0.08380471798142468,-0.11557379566820608,10.144536773445086,-4.792759844387264,-1.18762904897236,1.0829514243471072,29.69147806181751,-16.70525334596686,38.70298859381981,1,S02
3840,0.08766337931577256,-0.11271472397075627,10.14267446640346,-4.657805567421556,-0.7957603324069571,0.626554674239494,29.445292438757036,-16.618586854752436,37.92731479389464,1,S02
3860,0.08831734256402282,-0.12445085049013721,10.130376613991865,-4.245169017141104,-1.5245284015113987,0.8684778506395785,29.76405705522097,-16.825672544075033,38.39022876266505,1,S02
3880,0.09990296657647109,-0.13109428628591646,10.133581585344553,-3.736274279917722,-0.6307648291731917,0.3490741691834781,29.400393655254724,-16.222793913778354,38.212052482351226,1,S02
3900,0.09939470076331308,-0.12757088491240365,10.141319477312722,-3.7932078024393006,-1.1732730881183033,0.2708213585970324,28.959754329812178,-16.49241656243255,38.402552702133626,1,S02
3920,0.09424528616010966,-0.12338007156675324,10.13116199332799,-3.8141282707201727,-0.9261234392562308,0.19563989437850304,29.99241107278369,-16.27060314686549,38.56888812363393,1,S02
3940,0.11458849898953834,-0.11198040270615238,10.162131242976935,-3.917518343021229,-0.8844356077917909,0.5827483181744074,29.6620278113518,-16.71657796877392,38.43704023556695,1,S02
3960,0.12323435892568924,-0.1119043879689284,10.16502972061965,-3.857292343672293,-0.9092076256368716,0.4587257931257913,30.05190278348046,-17.047205515832786,37.695344072026344,1,S02
3980,0.1351595880652448,-0.11221543366012275,10.136154546896877,-3.9030408686784095,-1.560055363922031,0.09724317942755911,29.520565571052842,-16.704845989149796,38.15857521580959,1,S02
4000,0.1428013751684239,-0.08134289926160565,10.146590009042244,-3.8667339963791485,-0.7164672139210384,0.32644173216399347,29.414462221123124,-16.582127475533575,38.83104060878492,1,S02
4020,0.13237035868826394,-0.0967118668148243,10.138537758139135,-3.7966288441093545,-0.132881547259192,1.5627523960072667,29.32151782615957,-16.635274634165466,37.91568851592512,1,S02
4040,0.13167648230542173,-0.08120874633240859,10.142238116253159,-3.9060689069172954,-1.6895201898413599,1.0984943335798178,30.48727917755098,-16.42511792167224,38.060700674051546,1,S02
4060,0.1382997980429824,-0.09295721967493412,10.136028027930339,-4.269904218724884,-1.160298462139248,0.7073695111867189,30.048819064915072,-16.454160334169465,38.98085731096321,1,S02
4080,0.13841197280484613,-0.11267856509549079,10.145251201536809,-3.340652232166417,-0.03586879174183455,0.4872563718329913,30.0616401330385,-16.583071335411965,38.052311331345926,1,S02
4100,0.13226005092668894,-0.09640779091020671,10.14994963061695,-4.134587452721334,-2.6618052220439807,1.8606504834457827,30.517249742171057,-16.506714654033896,38.58950133236164,1,S02
4120,0.14627862183511786,-0.10077790815907926,10.139641487385155,-3.8038428595583387,-1.1187809560137247,1.4994206321825874,30.145879855257785,-16.28642166513012,37.8281465339328,1,S02
4140,0.17088328297501362,-0.08239185834602214,10.168608029054562,-4.064775436922528,-0.8340256723791515,-0.14488854246475802,29.977018181743446,-16.045684796325467,38.22957702522275,1,S02
4160,0.17415321030999226,-0.0755409611755873,10.158754138252009,-3.551329127908697,-0.9001969504919188,1.100290226337599,29.81131487012776,-16.545629993443445,38.43820581595521,1,S02
4180,0.1613859738786484,-0.07623274323797635,10.136972101000609,-3.6540480707865846,-0.22028289861897044,0.9985496324121981,30.036322775307642,-16.294552781762757,38.47267504178604,1,S02
4200,0.15455148990237266,-0.057753922629301,10.137660812736028,-4.728142660620948,-0.9788512003156101,1.0962298554289842,29.572842581024037,-16.417955511898075,37.76083132172792,1,S02
4220,0.1801919480076345,-0.061053236799277,10.150390768698134,-3.6528523607553423,-1.5839580223128022,1.5322330344442765,30.124933049092295,-17.3125061361723,38.078856680402076,1,S02
4240,0.16644872433860075,-0.08096310953866867,10.143543492264774,-4.684869624184557,-1.5311140585425422,1.4010892115894449,29.95480892455633,-15.929940955471494,38.26175885201803,1,S02
4260,0.17418514630591136,-0.0555251244358925,10.118770152137412,-3.689145233252872,-0.5724735947795757,1.1797732314919531,29.925138147364624,-16.85896157571222,38.66618541967949,1,S02
4280,0.19459196089892744,-0.056214869634301626,10.124210549594174,-3.99761890661244,-0.3973752003716604,1.0172430428495371,29.638978059516567,-16.657980937373353,38.807892634630434,1,S02
4300,0.16733748637571766,-0.04878064284314783,10.165530349247085,-4.014068239280646,-2.023084818298899,0.916226497342753,29.81390369671971,-16.129276068498726,39.22199866367828,1,S02
4320,0.17110244866455082,-0.05601862134618964,10.135709976765929,-4.562170510806549,-1.1707188233346446,0.601455319940876,29.595426748693388,-16.871274787592263,38.86598271641317,1,S02
4340,0.17186942406330025,-0.044959162885288735,10.146265068181865,-4.077421064011364,-1.3615058038827652,0.8962846682459791,29.26575675155858,-15.877548379175835,38.87461549343926,1,S02
4360,0.1989560821978307,-0.03871307082990232,10.141990121020692,-4.269468757794507,-0.9044792341638003,1.2937964922766403,29.439549867835197,-15.753810180136737,38.209853639829866,1,S02
4380,0.18571964860377937,-0.03907838623741262,10.133922809792479,-3.7934154732530687,-0.4478805901321594,0.37038688991125235,29.748137421570693,-16.835697829181765,38.41454170309753,1,S02
4400,0.17778256711405693,-0.024562541760504077,10.151389925026862,-4.081351785742744,-1.5058301405487091,1.0938201080418426,30.264661618159288,-16.697534593659462,38.120804652817235,1,S02
4420,0.19722499610846628,-0.028674289708032742,10.169269820326363,-4.252966179431302,-1.08783876006432,0.32868676511339995,29.780356508040533,-16.618770547301846,38.538136635609554,1,S02
4440,0.17511056204368874,-0.030255223311454665,10.152461887869363,-3.056035505810678,-0.9112976484238096,0.8712240277883878,29.332072574834573,-16.767219131001738,38.241607893142174,1,S02
4460,0.1821981102878092,-0.015490286017124474,10.152294331089811,-2.9907001088581313,-0.2183306568596406,0.772441979833637,29.71382905618773,-16.493285376812317,37.829758975101434,1,S02
4480,0.17999792594593617,-0.011232884757728843,10.153511209876077,-4.411673208652612,-1.406060392140522,0.836072673731354,29.744234557464303,-16.516791202671634,38.085101540163954,1,S02
4500,0.17243541951876934,-0.014045462354010385,10.124570045623221,-4.15294271623109,-0.6895245071643794,1.0562073799682659,30.06858520520577,-16.93999852179727,38.12457422654511,1,S02
4520,0.16293936043689433,-0.029807400487360802,10.145393257790346,-2.8414924484782618,-1.5366112267797092,0.11643191457476082,29.650975751221385,-17.059030432996202,39.05956167456556,1,S02
4540,0.1905847577137213,-0.01779657662509236,10.158244503411234,-5.324161913296783,-1.8114085325541867,0.49844918807260846,29.326382976154825,-16.391149239146788,38.60326282443427,1,S02
4560,0.16123808246092203,-0.020121794537636815,10.158096886378079,-3.942318490664578,-0.6562097822081329,0.692022601675653,30.06779890944423,-16.448664299598924,38.251300438874004,1,S02
4580,0.1758885067495047,-0.035162372242231094,10.148214188065388,-4.073003202842093,-0.6630665573554984,2.0318952537672152,29.198099867604295,-16.00824570979472,38.13831447073392,1,S02
4600,0.1840417842505731,-0.007679038628020135,10.147288191543614,-3.1763913142958318,-0.45310414453874315,1.0016800012379472,29.638064294678173,-16.036706969348458,38.84298321257754,1,S02
4620,0.13653020429059726,-0.02011926995091462,10.136690136894634,-3.9437786993921162,-0.9011356587960242,-0.18003278339036688,30.314080689148362,-16.974786028819004,38.294797538316836,1,S02
4640,0.15612859968573906,-0.026281825419694732,10.145170753385246,-3.217491655123874,-1.0736406701841241,0.45822642939954333,29.696515308280475,-16.63554322084026,38.82655242357942,1,S02
4660,0.1516477944730585,-0.03174630973176601,10.149143137149231,-3.340168963122584,-1.3292140421169218,0.4714550664607645,29.483010512204018,-17.150822712151097,38.85560051219795,1,S02
4680,0.1419768415060672,-0.022862189579943626,10.14995819954875,-4.8161334376685225,-0.7285836854397055,0.8623435976283966,29.188023308151628,-16.192893064237165,38.397150158503386,1,S02
4700,0.1335916213815705,-0.03921842465430425,10.150553778860287,-2.7528903572405894,-1.1094981040938428,0.30046473606620194,30.47935955941528,-16.931745335029234,38.47242906580619,1,S02
4720,0.13448799645761458,-0.026075579384792547,10.134215689312384,-4.165747057411424,-0.9822299234789282,0.3133670528282798,29.34812586437033,-16.11912501159571,38.492764176482126,1,S02
4740,0.13267423798238975,-0.031671963156147356,10.140026269353802,-4.027894870829003,-0.7710244411665713,1.335855054565621,29.823959156648957,-16.961212003720725,37.63630504837268,1,S02
4760,0.13179870114855094,-0.046836547192260394,10.138754540937832,-3.986897029626891,-0.5554870211929877,-0.12705296969820867,29.73866712649245,-16.236059039232728,39.23738748511203,1,S02
4780,0.12762736455697496,-0.0494660031030578,10.150304331785602,-4.383841042406057,-2.171308950687761,0.8173130073669455,29.10353176341513,-16.5488602270999,38.138541695390806,1,S02
4800,0.1121904402084259,-0.05097534883712117,10.146401266519407,-3.541514038223951,-1.1211043184836311,0.6899394143951624,29.958199172661963,-17.187079652901108,37.95144133205144,1,S02
4820,0.10055664191830595,-0.047059433543833934,10.155175060109308,-3.49355922262534,-0.5984877418878835,1.1917996059700986,29.44792243815155,-16.652005199416536,38.802508450799216,1,S02
4840,0.10043873479123624,-0.0612859421551718,10.150959315531606,-4.427065416555852,-1.6186073666385412,-0.03562181430640177,29.80998618121333,-16.63833466468303,38.08798595268063,1,S02
4860,0.10800201062265397,-0.06378951411638807,10.156821214442845,-3.7129460951063327,-1.1215540659483507,0.5126486745718962,29.213092594923232,-17.087956709879514,37.9080749432733,1,S02
4880,0.10802786612876092,-0.07079486325969762,10.139161044549722,-4.082627778790048,-1.2988679203963913,0.8263912389835704,29.992674038015704,-16.541056590044832,37.70007045529468,1,S02
4900,0.07988039590768137,-0.06756159154662016,10.143224288176631,-3.0456399914382652,-0.9866919630428208,1.375380484317016,29.85595002153182,-17.42753468608914,38.43148476902911,1,S02
4920,0.08603132560898642,-0.08196933088538999,10.1559666329898,-4.857613798823455,-1.7246155652829716,0.47724952870181436,29.743866528319895,-17.07086722560053,38.19298859797832,1,S02
4940,0.07970148918133085,-0.070377626133071,10.146715668346516,-3.6430958923476306,-1.2823991870439302,0.6483051759878156,30.013024930197037,-17.597425212791734,38.326063851812386,1,S02
4960,0.07455857456805991,-0.06337460042349213,10.156913376397348,-4.361512488829247,-0.8467365371659893,-0.5159926843301573,29.837721846504163,-16.899026393454104,37.71247663792384,1,S02
4980,0.07153100282946667,-0.09952607711469076,10.13844781904556,-4.083970111058414,-1.1259930963339753,1.013742482606808,29.263535586081154,-16.920797787958428,37.491843319767355,1,S02
5000,0.1030769362421797,-0.10697952390516653,10.154373004195538,-4.255465530827776,-0.8445085825187593,-0.7636827673016465,30.04688365044341,-16.808744003455327,38.51408109033532,1,S02
5020,0.06475953790364689,-0.10303485866094277,10.13589154127101,-3.919054589688325,-1.589881176680203,0.06417917637181592,29.794878757219667,-17.05830335369525,37.58897806741512,1,S02
5040,0.05070327848709628,-0.08847417401034956,10.1490891492884,-4.967363892424948,-1.3532555409332754,-0.11194222971553491,30.08085703754017,-17.42926579341973,37.93082675443553,1,S02
5060,0.05806078388776969,-0.11611212406349714,10.149293030700564,-4.103579978624735,-1.786927214670375,0.14673726454432034,29.954210199152126,-16.200731860867215,38.25149614975406,1,S02
5080,0.07886272773757166,-0.09905279004489845,10.154293937518712,-4.400524533850266,-1.0130491314273904,0.2921152068897036,29.587995142431286,-16.45338933600295,38.81485019379455,1,S02
5100,0.0434974972466065,-0.11149048002222484,10.140947341824065,-4.582914623089697,-1.2907284765290905,0.4013623338148978,29.842758713093414,-16.327493447230744,38.716755222510635,1,S02
5120,0.04498959947559728,-0.11345335966696724,10.140678417937574,-5.841134222600345,-1.2977855603672304,-0.16592684960070325,29.351745850109836,-17.46647816381015,38.281521114170374,1,S02
5140,0.04029487672935142,-0.10290541510610564,10.128422770941196,-3.92934514619973,-0.8139267258114211,-0.04565844958937404,29.295884062204383,-16.553763195340032,38.65991236611113,1,S02
5160,0.026654946769522916,-0.12491520219720004,10.153319428890942,-3.6655868524167134,-2.3900137205947365,0.15516002491197078,30.628306939043945,-17.083450133976022,37.90341870444206,1,S02
5180,0.0479300243364708,-0.11029834978785708,10.13603031042856,-4.754628649683456,-0.798276837885479,0.39016723582744095,29.681426967880842,-16.65236459054702,37.7267101554176,1,S02
5200,0.02708423615295194,-0.11437127125518168,10.138649315520933,-3.7344918830226974,-1.383190339989783,-0.26701634780753125,30.23416651544877,-17.30764851579088,38.673837003937024,1,S02
5220,0.03639714617231432,-0.10966087374775324,10.144392466400454,-4.146110730869453,-1.7151255136105408,0.36544082858459837,29.709967969214834,-16.456113774906946,38.477120746123056,1,S02
5240,0.028755113348268718,-0.11785549706714107,10.134154843910325,-4.691674676190883,-1.6432349362188075,0.4982070550532205,30.306391863873376,-16.24722885786855,38.51852161336503,1,S02
5260,0.027628429112403693,-0.12336697022873708,10.142058854817742,-4.5364961301730755,-1.9076756283933554,0.8547160653293193,30.376692314903263,-16.36371663819799,37.69791638724027,1,S02
5280,0.025447177123496922,-0.1174400904576261,10.14332901794327,-4.679052554982637,-1.3285581024612574,1.0155196746807655,29.6873120905954,-16.942040950088057,37.30234335795409,1,S02
5300,0.01819764230239626,-0.11560577927851756,10.142082373191494,-4.311740307243707,-2.2577975255026326,0.15076070842442502,29.494638589488122,-16.41589588774133,38.60026185874646,1,S02
5320,0.02131035357460341,-0.1261971333926002,10.139958824403505,-5.07828576196537,-1.6338591889910035,-0.5585196848902078,29.2244690329951,-17.34446378770846,38.11178147548859,1,S02
5340,0.020498229439667892,-0.12099402907846413,10.14538627826581,-4.697879242298106,-1.0616536418800093,0.8927157097647781,29.689269999707616,-16.548504414798057,38.65642820713741,1,S02
5360,0.018987452816638398,-0.13464668114502593,10.139141711826737,-5.242486383563732,-1.2241779701592779,-0.712137259321003,29.25825266898719,-16.087753721045576,38.29535404292631,1,S02
5380,0.015423662606233332,-0.11184453531165017,10.145948052038182,-4.301855287093013,-1.6361221970390565,0.1847240914660333,29.008843892607516,-16.58322173675092,38.084667312161706,1,S02
5400,0.017226450033432927,-0.1120551512232014,10.157035044783438,-4.3493892528951,-1.7141619327563065,0.06886929047375367,29.423918418950148,-16.553775546608044,37.96699124430752,1,S02
5420,0.014147625514295742,-0.09230936135558468,10.145876654520245,-4.335217456321267,-2.246420537958711,-0.16077250488192674,29.87928536618686,-16.62065961188297,37.92093438559739,1,S02
5440,0.026631829563758105,-0.12076304702791288,10.133405742315562,-3.8726633437855185,-0.43188272387531246,-0.11638178702529844,29.611078043914517,-16.578428650530903,38.489381780279636,1,S02
5460,0.025845336565214164,-0.08627143518822335,10.16085753598259,-4.34752119792426,-0.208216817612199,0.3712644236404459,29.380828081748675,-16.095976310759077,38.49537438808748,1,S02
5480,0.01883131024071935,-0.09631047797554586,10.132309441754499,-4.20421884131458,-2.559983707832526,0.16107422509274716,29.183665872571193,-16.49922575375666,38.511333965673835,1,S02
5500,0.01275906336175947,-0.0757279150474341,10.136753684264534,-4.17192762879315,-2.0779427280623586,1.1141593052917413,29.2374085533913,-16.981621930257937,38.57591903673315,1,S02
5520,0.02181928487479555,-0.09585309423365719,10.15243973719423,-4.033118055678084,-0.33821176673664066,0.01595259982053887,29.166227926579474,-16.237882002755395,38.61289115284163,1,S02
5540,0.029081321257457063,-0.09714745734955854,10.142082109725203,-4.613976041986088,-1.3625130912908787,0.2387768839831791,30.03796685710331,-16.592262049510236,38.070924481898906,1,S02
5560,0.03142306885078085,-0.09736228319844087,10.137531498550862,-4.140197619150237,-0.9860080462824153,0.6712072118970296,29.04705813674639,-16.51763292846564,38.367810622435954,1,S02
5580,0.04288704927046111,-0.07179789918606382,10.150163768161962,-4.647720350768052,-1.037363845513865,0.2765153104885762,29.530799007314034,-17.424638456598167,39.39682848005076,1,S02
5600,0.03458613534174161,-0.08247121870988952,10.139270159201148,-4.5428840165203335,-1.8067800792745976,0.4826690232671154,30.376870822090666,-16.286361120838066,38.449275728874476,1,S02
5620,0.04578439127428229,-0.061460366751174514,10.15062377371066,-4.3690744614087755,-1.5179671532438723,0.6461521253658672,29.369608710073063,-16.946544480521734,38.412548266187414,1,S02
5640,0.03961207639061106,-0.04766707236125459,10.164053773688078,-4.481667268968785,-0.9388340871404751,0.9642579176211444,28.994873788785807,-16.95755315460624,38.26459671018761,1,S02
5660,0.04279207281860172,-0.05325540674928291,10.148912402344543,-4.225077479732834,-0.8784196336740984,0.665746097392447,29.30773506003014,-16.266634453926454,39.141620866903345,1,S02
5680,0.060395450015767106,-0.051259274099582544,10.139974355214749,-3.984355168127537,-1.7406567337565177,0.7873168765848938,30.133700179581414,-17.097861604745773,38.235143414250345,1,S02
5700,0.04260238801713564,-0.04643262231357151,10.140437360638835,-4.60691033156459,-0.5951188591642228,0.8995046320916663,30.144013235124987,-15.374436496575727,37.74767973386605,1,S02
5720,0.0648181860478826,-0.06387242638487542,10.146885374985414,-4.5290781915570895,-1.222867317542455,0.14702684201761018,29.728498396213066,-16.940188544107002,37.937928064068835,1,S02
5740,0.07935776465779737,-0.03406865176918027,10.143487313929135,-4.090018659314445,-0.6951825307451549,-0.04601658341744563,29.746282133332777,-16.384112517156606,38.21073252124787,1,S02
5760,0.07977957492702276,-0.05278099694901797,10.13693858844193,-3.9680001072136504,-2.180113061150186,0.7555653030451952,30.142811488408487,-16.53154057046032,38.35380276059605,1,S02
5780,0.06378756772391592,-0.03712071135408362,10.152901424686407,-3.989348327787652,-2.2118443829273513,1.4072837212865243,29.540085537887304,-15.908749875081451,38.31709676392682,1,S02
5800,0.08488568799498489,-0.0339129066875666,10.14692124139155,-4.086968311157042,-1.4491153775136199,0.7420978640258764,30.1861941388499,-15.515723993819972,38.133817656706995,1,S02
5820,0.08068681289196764,-0.025548115420867004,10.155997978383914,-4.224228956215567,-0.6981677509072325,1.3940169215271965,29.313386786290867,-17.13822842113207,38.207786312870496,1,S02
5840,0.07652985804990421,-0.037985578491583676,10.148357344221324,-4.31888595823856,-0.7453379747317586,0.7148635451602836,30.03794332172245,-16.771858158489582,38.13084769570175,1,S02
5860,0.10517170881233645,-0.010604458682622282,10.12768697385966,-3.736206057707278,-1.1108574033174168,-0.1464765808909787,30.015614210146357,-15.817658679848904,37.83287195413602,1,S02
5880,0.08768069454578849,-0.015168617533188045,10.153781393007359,-4.523748181022208,-1.5911651699644906,0.781371366576444,29.939706514546543,-16.49916201615818,38.582524743275854,1,S02
5900,0.08201522186370841,-0.020409903938503927,10.15597608433153,-3.530215364927337,-1.1038049206731784,-0.0023811809180774857,29.431628583545205,-17.37018195863927,38.599954939873236,1,S02
5920,0.10741490695465274,-0.008592713776820388,10.137005150128571,-4.656941866345011,-0.9203094659839137,0.10471293393534781,29.18680120544771,-16.554986600044238,38.605282273198775,1,S02
5940,0.1126819027232501,-0.011069674332625255,10.154483712056097,-3.959924098607244,-0.8875652776540266,0.3661098112050529,29.423496556822617,-16.466401830939283,38.1554900976134,1,S02
5960,0.12581702854603727,-0.010135028502373827,10.141896718705421,-3.607172764149972,-1.7401683670291117,0.62112258424181,29.28236528016178,-16.590224201482975,38.19222767729891,1,S02
5980,0.12413593326335558,-0.016873879826179897,10.130612924459411,-4.354785988289273,-0.84160152975549,0.7558537926763744,29.125507442215376,-16.283719117368964,38.57059169067321,1,S02
6000,0.11362617916819334,-0.035327626775458844,10.151217499234866,-4.278488233801587,-1.3575208888244186,0.7370622681624899,29.7334390424735,-17.35709837530762,38.58849717739601,1,S02
6020,0.1333609796448655,-0.02049527234105452,10.15264457183127,-4.053170605035543,-1.1570011650051835,0.7007966587180257,29.58073295221584,-16.202957303510864,37.94934901669196,1,S02
6040,0.1558931413900679,-0.018662119481685842,10.143482066066367,-3.4254714534858,-1.9601473565620133,0.5842641480763846,28.8259009639821,-17.050606154250325,38.863367710303166,1,S02
6060,0.13274738992837468,-0.02337184633363558,10.124842915008374,-4.915208262820147,-0.5847348347869323,0.5961820610593118,29.41698449754332,-16.49322604954632,37.755718226461966,1,S02
6080,0.14374458088959963,-0.03136980799760448,10.138404582397616,-5.085062761089218,-0.6726332130759112,-0.09083980596023833,29.50003558971385,-16.36290916849037,38.31089194138202,1,S02
6100,0.1531435758637003,-0.02513521230460075,10.156530087872229,-3.9845991590842313,-0.7046132118482908,0.6071806672232156,29.690519979519223,-16.986568493749537,37.8324615390302,1,S02
6120,0.15368058397071405,-0.027387426951094175,10.134090000469373,-4.203868647844169,-1.1309057015883812,0.8895356210551706,29.95572422357491,-16.361060504360484,37.985509657377506,1,S02
6140,0.1621974279128771,-0.027192070179849433,10.157753338507192,-4.504859267101244,-1.494136478292912,1.1729833301630006,30.361772397803918,-16.446124487076865,39.03057716354283,1,S02
6160,0.18219968059944855,-0.03880360002399057,10.139739556359208,-3.487363273672812,-0.915242402985061,1.169009416903449,29.239569502839537,-16.397141427543282,37.7640948642976,1,S02
6180,0.17565282013089173,-0.03375602401873532,10.153382331172145,-3.4650479069200673,-0.28935532726764746,0.8618964909768088,30.561488415987093,-16.44474951508061,37.95610397225805,1,S02
6200,0.1621933944707201,-0.04347862525498737,10.14190397587429,-3.735055177606171,-1.1628417802472402,0.9538433750568627,29.507197818771857,-16.718878851483677,37.89394511785912,1,S02
6220,0.17403389824682475,-0.0425691898051275,10.154812294325673,-3.4631605366160234,-0.16437232684163328,1.212059129454961,29.364485366707427,-16.1576148821545,38.52691171413889,1,S02
6240,0.16732043344509895,-0.04145402558856431,10.124070807321838,-4.440828728477773,-1.1384814536329175,0.5870660259349301,28.738248331009522,-16.018827561909937,38.72388378590094,1,S02
6260,0.17576301466197364,-0.06842518688386323,10.137844788890106,-2.4761700663912487,-1.242345170259462,0.016065619403121123,29.854465184102462,-16.059181853418103,37.46956234076347,1,S02
6280,0.18572583041305224,-0.06447158012532546,10.145621348432837,-3.805375454273112,-1.5361238230825651,1.0640409608012134,29.78080471158619,-17.573664931174694,37.634646303465665,1,S02
6300,0.17015655555337275,-0.06527998425515386,10.146743185093042,-4.677560911131728,-1.0967661232632933,0.19329983357829594,30.113565393144736,-17.534151047448802,38.39256539062398,1,S02
6320,0.18985950357004777,-0.09054241232343738,10.154356145053537,-3.8487815290115854,-0.883011422953754,1.4388022903243698,30.25183480605651,-15.864102849559579,38.19510459654093,1,S02
6340,0.1806174587433159,-0.08236777350992092,10.13912123163134,-3.5372190961123504,0.05314178418973925,0.44165665408085664,29.98823649328096,-16.17702073443277,38.24023144513215,1,S02
6360,0.193155341421259,-0.07598841990472552,10.139306563317453,-3.1346602037177513,-0.9048197134638111,0.3945622018945654,29.68128091241231,-16.868036559180794,37.84631544058161,1,S02
6380,0.18495990455006628,-0.0814720555946655,10.141881849159667,-4.85124931249821,-0.6799199066163942,1.2871057254043436,29.207253876308734,-16.244378229560162,37.55409228551028,1,S02
6400,0.17417450184289018,-0.10580303684311744,10.166019891195864,-4.067703267026344,-0.9121405179521378,1.718916555960289,29.577138580698257,-16.754733324816776,37.957014772045454,1,S02
6420,0.1686851623333257,-0.09469830761235261,10.149840470080088,-3.772983527032457,-1.8422098176779702,1.1852061043951023,29.196850675086733,-17.009960987234514,37.961251702388715,1,S02
6440,0.1845794435404218,-0.09337823587312205,10.137745791873474,-3.950274472108889,-0.6932327358106181,0.11333143806034801,29.716120710921796,-16.842684038892077,37.602425859986795,1,S02
6460,0.18681733405097847,-0.08742615791682944,10.147180942426234,-3.5220333370834327,-0.3272202872460923,1.0255359645434847,29.960249309212962,-16.64809204374783,37.656067145680325,1,S02
6480,0.1773872176816124,-0.11754098268788177,10.149412541254307,-3.9242018187308068,0.14274710475204544,1.1511300162548515,29.591591105611265,-16.714767152542137,37.80511889456206,1,S02
6500,0.1823055460527001,-0.1034894803073996,10.147747221143245,-3.735787659457358,-1.2788453364444705,0.7729696221545997,29.78264436912289,-16.896298222757522,37.99318272597481,1,S02
6520,0.1686535817187631,-0.11406199514311537,10.147871558437835,-3.4566572105555853,-1.390774322671159,0.06281568125187176,29.93438976671498,-16.951095295714943,38.56815191035078,1,S02
6540,0.16749178626313116,-0.10816412114657015,10.148006179330737,-3.4572864151635034,-1.6217991923057125,1.3224637939010937,29.568779972020376,-16.343458001166603,38.87483916334971,1,S02
6560,0.15941774728904107,-0.11881203596640327,10.126768566571007,-4.377953616119843,-1.1280348585398736,0.4663452188618665,29.36578746160251,-15.843258753535094,37.76671688266635,1,S02
6580,0.16464135570353514,-0.11825935463781587,10.135008157245542,-4.266190534528991,-0.5239069861856093,1.1610409097931522,29.964995122558374,-15.157049144588768,37.91733411621675,1,S02
6600,0.1677328005684603,-0.11509354947661854,10.162121711163527,-4.695474037333125,-1.3781013889743525,-0.016700041714312608,30.386176771816338,-16.661592202836985,38.499515865489315,1,S02
6620,0.1584933121689328,-0.11186836674772385,10.146979302987544,-4.362946170377683,-1.8413426685908723,0.6336304218834421,29.33493990141885,-16.587070105502036,38.60964874908256,1,S02
6640,0.14902742185286671,-0.11040032913125689,10.138915096020876,-3.494343500545379,-0.5144307313006871,1.3629394487191981,29.72017335507196,-16.0157785798873,38.83108077206475,1,S02
6660,0.15192758234840442,-0.12705267436925025,10.157519791923143,-3.5952387063318474,-1.5904018130900974,0.36401790077495416,29.84459365620167,-16.27330584458869,38.33006105691008,1,S02
6680,0.13666526100298154,-0.12260188483929438,10.15428205290365,-4.595680745410245,-0.7401704081050376,0.8901116505018862,30.458108066307737,-16.36775197472107,37.708972755949794,1,S02
6700,0.14533282962693242,-0.11309358981454884,10.160413086825717,-3.326159971550788,-1.633335783899459,0.34378001673280284,30.20710846239184,-16.260969275052553,37.901014931492064,1,S02
6720,0.1503701696173062,-0.10510974230575504,10.162835281715587,-3.107586515434357,-1.2299094979413638,0.2070238746343087,29.309889937675795,-16.771121634306954,37.59150706011089,1,S02
6740,0.15653430044050176,-0.10998706130133681,10.148220229351843,-3.749434581790879,-0.2277923581967456,0.7303627455512827,29.95632896731993,-16.5456313412946,38.071407221404705,1,S02
6760,0.13361341579913055,-0.11501102006508993,10.15591707007895,-4.464068582515409,-0.10536263592143635,0.94050241605329,29.79837689216179,-16.880074956820913,38.16006613612345,1,S02
6780,0.11585624968412692,-0.1010372106879747,10.149912001673124,-5.159388221157442,-1.1886955044995529,0.25603161136577923,29.983153672606957,-16.824218061343352,38.67312861553649,1,S02
6800,0.12428118463602833,-0.12372673180931701,10.150532331358125,-4.056102725965388,-0.36401647427448935,1.229438815699699,29.102305468665453,-16.937957113072745,37.62879572854627,1,S02
6820,0.1017337056848517,-0.11169494326893234,10.146983757610919,-4.382653573691219,-1.638226589323748,1.147549438999123,29.395134274873445,-16.183242892331748,38.5525047790387,1,S02
6840,0.11584782606038975,-0.10325468793082158,10.143035208040734,-4.203726415339851,-0.9403136026647751,0.6826544505740395,29.16202439888345,-15.872686055369849,38.29938849143244,1,S02
6860,0.10544912975052485,-0.10489207313700433,10.152645602371184,-4.524836859535429,-0.4485936068816212,0.6216382210366739,29.93230383297229,-16.71345749607363,38.48362614970169,1,S02
6880,0.10599297668592349,-0.07911528356868931,10.132657725855422,-3.7784434980718267,-1.844841196481103,1.300742793318022,29.65491452937772,-16.750781770731773,38.34820572930451,1,S02
6900,0.10746221944026495,-0.11020156594556876,10.14192714499416,-4.801924549195887,-1.577811431978938,-0.10977113350512668,30.36725887610095,-16.04381304959404,38.41836948683766,1,S02
6920,0.06699076162000248,-0.0923685272948064,10.165595009698386,-4.88759003996155,-1.839775621024306,0.801282665617379,29.461300216381698,-16.02157157494066,38.17760261295556,1,S02
6940,0.07895319931742512,-0.0924041798054446,10.125274844303565,-4.348965088763751,-1.2484829558987838,0.47494551992110445,29.39351823564913,-16.30623515226725,37.95547140869432,1,S02
6960,0.07198639006004043,-0.08086398642001089,10.155860526808349,-4.264179463095756,-1.3733383427804804,0.25592537570049,29.68041595630735,-15.90480518216894,38.221735057093404,1,S02
6980,0.09393461521305754,-0.061405719954055554,10.13199777324972,-4.538730680014746,-2.408740942498681,1.3629839627297407,29.259990313462723,-16.617843938529298,38.330368636984886,1,S02
7000,0.08800302310396174,-0.06197792327347386,10.152931000599306,-4.781597158902347,-1.220105737168847,0.5961884292127153,29.990742820370915,-17.040301908004526,38.52628245960246,1,S02
7020,0.08059007457588271,-0.06819148566225457,10.127943508319703,-4.602854136656584,-1.2378679485468367,-0.16302706542578238,30.151923058629418,-16.53326420940193,37.68750452972648,1,S02
7040,0.06930131955918997,-0.06786811604560578,10.137007172863559,-4.160811581868354,-1.2988925858547082,-0.2510918515718329,30.3894880570322,-16.834653126044337,38.14634590724901,1,S02
7060,0.05735391831619701,-0.061171799325971304,10.151048576989032,-4.587113566660042,-0.8514624311926249,-0.22541585690937826,29.56934960772648,-16.630681847256188,38.54824287168434,1,S02
7080,0.05880578014592697,-0.06535209085216717,10.14430543145795,-4.291249057501404,-0.6354014865926494,-0.6748136886306068,30.51742862649753,-17.087060079722292,38.57227358486797,1,S02
7100,0.05484334475349023,-0.057134290714005054,10.137880162205695,-5.170888658799727,-1.8719669140930018,0.49539163977408684,29.135038342338763,-16.365250803513447,38.48284456729322,1,S02
7120,0.061459453499725564,-0.0352604907642984,10.158468788715949,-4.4734446020224885,-0.7243853378179117,0.39143569737091555,30.094368815754017,-16.575708154166097,38.15448044852331,1,S02
7140,0.061631033290400254,-0.04871389606919266,10.146612089968965,-4.991272944301668,-0.9032604758009934,0.5250695285785307,29.990755244395345,-16.33371078166023,38.0976303285613,1,S02
7160,0.038748554489690924,-0.0549939405261932,10.141419760739142,-3.719030466127883,-1.763255273432502,-0.02204524506845873,29.725936445291442,-16.54155867780822,38.84182887657837,1,S02
7180,0.04516005123634685,-0.03635467279404246,10.14961689739957,-5.055294947155833,-2.0875250442404845,0.6460333445590358,29.789508919206572,-16.7098342391378,37.81594872050573,1,S02
7200,0.03450222110345766,-0.04622856386875041,10.151433479309034,-5.8125882826682425,-1.466061012483264,1.01844055726305,30.223641760303938,-16.431765095425845,37.40309654150249,1,S02
7220,0.006619202317473621,-0.03785099622819145,10.148045801642413,-4.852144389977904,-1.7456320431402519,-0.38605530383832876,29.922595098423802,-17.03197661928246,39.04303734456544,1,S02
7240,0.04003283074548644,-0.019631655825189172,10.161569346701217,-4.708673302880062,-2.2597406234918544,0.29937863819191696,30.18832905349129,-15.494189798045019,38.034023734231596,1,S02
7260,0.011825724169315668,-0.016912399543134442,10.14497639198353,-3.8066714957784082,-1.9457842748394487,0.028134218891961882,29.662071224591696,-16.836462589794717,38.423791561163135,1,S02
7280,0.02190532133533865,-0.04920987742270281,10.142544193933029,-4.617536562869869,-1.7851055919214502,0.05064803702492793,28.90737194393202,-16.776607518907657,38.70039427215706,1,S02
7300,0.021656335473406466,-0.03605349515492705,10.163077157570443,-5.027886054954898,-1.1586366862143647,0.8844233054627196,30.428154410696628,-16.701551146975742,38.304423112298394,1,S02
7320,0.01861076114627193,-0.02647639941139661,10.158211982417587,-4.330783229247073,-1.0637081018957524,0.04403831159243077,29.696199256156614,-16.0692563706242,38.12935417202876,1,S02
7340,0.01818918499249128,-0.011238485202976642,10.133903670575174,-3.940384607465704,-1.8081249821053347,0.3067462481768005,29.565218126995006,-16.40364138030085,38.22023321334789,1,S02
7360,0.020957806804658974,-0.030696187380913766,10.156915308914181,-5.064103164548073,-2.0126600788990308,0.9581357018753862,29.15117186620899,-16.75621929624593,38.31995874851483,1,S02
7380,0.025558773168018453,-0.03436181153080226,10.126727258249456,-5.196235050289624,-1.0794650503811527,0.3171961116684473,29.733751062837,-16.256792501912642,38.29625809775004,1,S02
7400,0.02417021432447912,-0.034748067494059905,10.138225729108655,-3.5122578238829933,-0.48955433941274684,0.3767416602270397,30.46069890812389,-16.185862517589896,38.55812263891562,1,S02
7420,0.02448754856515807,-0.016798727376601978,10.162483921601122,-4.364547340389029,-0.6791828102612159,0.24541181819298763,29.76252289442965,-16.524177705131546,38.42495666519104,1,S02
7440,0.01652305082394598,-0.03168072231059763,10.127096242155138,-4.473710797487383,-0.7183856975391214,-0.40373450911933817,29.806337930347276,-16.605151196713262,38.31101245638727,1,S02
7460,0.03375138991321401,-0.021608462054859834,10.130815836684363,-4.420412814436425,-1.897409820664092,0.5049708202238399,29.13099667232229,-16.915294493719905,38.52141714548009,1,S02
7480,0.02432453729231919,-0.013750132484435094,10.150863784088926,-4.079185225246829,-1.4001973210260186,-0.29290169630269636,29.41123064505842,-16.802356635683854,38.25920605994458,1,S02
7500,0.023078108695889887,-0.036783768567735596,10.145019574193984,-4.025233452894141,-1.2428486821930311,1.139018875734093,29.51522416933904,-16.8468522221065,39.20815041764662,1,S02
7520,0.035646309426633674,-0.024681366133509006,10.146617897965875,-3.2831560485081552,-0.768696972449614,0.9210055322307915,29.668328291096465,-16.136098486055722,38.82370054539253,1,S02
7540,0.017464560667552045,-0.03269888848752724,10.13955942673588,-4.749400825636611,-1.8879667597264915,1.0378216871338686,30.124061113608377,-16.612155531042422,38.06433092854033,1,S02
7560,0.036757620570966515,-0.03298871747159703,10.157036759769653,-4.767028459536709,-1.65954656072999,-0.34539753412360796,29.700364062751838,-16.53404303785457,38.24061908354584,1,S02
7580,0.02047328745785157,-0.028176099785144924,10.132955775209242,-4.757846168270268,-1.9754592528437218,-0.3782072376407831,29.24651914323967,-16.43924471897168,38.136675818379445,1,S02
7600,0.04137941629022817,-0.03062934135269802,10.161600530998108,-4.073341309233223,-1.32423272385955,0.8492943540943332,30.56312754967057,-16.40034207629715,37.64296855044586,1,S02
7620,0.03215005208346859,-0.05073674340613589,10.139324662030477,-5.131955242219564,-1.1310532002033529,1.2623918341191271,29.735167387727525,-16.84178311801693,38.684219915962544,1,S02
7640,0.058609139805217696,-0.04559305822030306,10.135199660773784,-4.012278475424112,-1.6310424698927712,-0.25309221210123234,29.510706060628085,-16.957498108332025,37.89630542998649,1,S02
7660,0.04822997794878552,-0.05166396244985047,10.144682376891708,-4.132516136247225,-1.125820781641061,1.0631958836738418,29.687795038173284,-16.604889312579225,37.5501822699509,1,S02
7680,0.034443597718107594,-0.049844786362442654,10.159239832351323,-5.343572117585726,-1.0480788893384865,0.699615580923082,29.38644588528563,-15.800284262004693,38.37044525223331,1,S02
7700,0.06353242791838132,-0.053020217923729254,10.155698487339953,-4.481746621157332,0.02276429260167734,0.1950341804487935,29.589178540305063,-17.46019475562915,37.75356806894044,1,S02
7720,0.056687204741342916,-0.045334873268094183,10.161495227740856,-3.5623504891714326,-1.6808884845508372,0.34951943805958874,29.478404504192483,-16.606718432435006,37.87439040041233,1,S02
7740,0.07563303175140598,-0.07241988226859648,10.160006496808405,-3.772866828156969,-1.970605500910094,0.45456464013708664,28.935589280287612,-16.395808926267524,37.99722863534709,1,S02
7760,0.06306355637798253,-0.07403583446145547,10.157771620956067,-4.899367375942502,-1.0681884729436832,-0.01448969722451865,30.1697905988394,-16.709546325146064,38.16616196854807,1,S02
7780,0.06592782885197465,-0.05088645261332894,10.142651147266474,-4.337317810081916,-1.6986561669362747,0.9607909140273263,29.64896062366381,-16.462901374652276,37.351595649446864,1,S02
7800,0.0601542642095694,-0.07670379829984218,10.151698033591947,-3.929074498772266,-1.0440321997069764,0.9802993265531642,29.464984213245895,-16.739290875605334,38.92976432049677,1,S02
7820,0.08699427769383514,-0.09185856053923766,10.16732658892808,-4.3803550492380054,-0.9025816222721564,0.6503169179605278,29.627680906089978,-16.524278605650913,38.379226948930416,1,S02
7840,0.09292434618191325,-0.10010107879578192,10.138554698284134,-3.7179926894075965,-1.845910011471167,1.1147587106493386,29.78248531334825,-16.48377478875004,38.34402645707938,1,S02
7860,0.09020397748841191,-0.1154131598733826,10.164224800290883,-4.056895101113791,-0.46180104111677234,0.6566542850478592,29.80848758070036,-17.486745269882064,37.91831298250555,1,S02
7880,0.11321149823793458,-0.08681581573206738,10.138021074912245,-4.246565097997319,-1.1826827596702147,0.17748025613183016,29.584817206295384,-16.48513040924766,38.87798480812979,1,S02
7900,0.093734043364673,-0.09140634095154289,10.14687819027359,-4.622282459498848,-1.5713131485576528,0.20233179379968025,29.53078848910464,-16.50178288018695,38.060398141100315,1,S02
7920,0.11470303556944514,-0.10877668313360936,10.149090012718498,-4.083764325943188,-0.5977768959549447,1.6349471843085723,30.208266410486246,-15.977177420519418,38.47295016044843,1,S02
7940,0.10183559122491197,-0.11722113637408998,10.167920932789668,-5.027512615060438,-0.7255450570934099,0.8694196395784313,29.541057971085507,-16.37969843942053,38.15394166254498,1,S02
7960,0.1059379324578244,-0.11557904808309157,10.141866786001303,-4.795065831180672,-0.9076386426182231,0.035771533091020546,30.645745185806778,-16.006225156331908,37.988299805871996,1,S02
7980,0.13095634317043992,-0.1103913731334461,10.118664366959532,-4.6913110902280835,-0.4320722428054333,0.8695319938584783,29.70281355628823,-16.405349800396213,37.170486349038434,1,S02
8000,0.13327720761333026,-0.1262718210133808,10.147236442033861,-5.008685052159877,-0.80840520887342,-0.21792645423656587,30.149506738016683,-16.08844965819741,38.12924783649036,1,S02
8020,0.14557119111532296,-0.09866495899382582,10.13562208777703,-3.7082470488890475,-1.435501379557889,0.5496640055877289,30.179710451025112,-17.324837181365613,38.73083952335001,1,S02
8040,0.13530616984104527,-0.13172018480899092,10.15746351348714,-3.441493790692327,-1.107030349911155,0.7286223377398073,29.97617851879832,-17.19612482714579,38.3156984932412,1,S02
8060,0.14950606739974207,-0.12442762611371819,10.155730707466006,-4.149551639278187,-0.657072406527683,0.28416074106242595,29.693565511057493,-16.686426075761457,38.42681109002922,1,S02
8080,0.14048855701768437,-0.10933112056852792,10.161929893508901,-4.3461238015169625,-0.3692667533436791,0.9592763688284225,29.917422224792816,-16.151479683725277,38.32828038135208,1,S02
8100,0.14097822629300688,-0.13533965855228644,10.146440170166175,-4.537794454075567,-0.8622774301651378,0.8490833477089363,30.345735033750458,-17.1966368968847,37.98623674634412,1,S02
8120,0.15912581241655482,-0.11238819797755327,10.138137929121745,-2.8243227341616794,-0.7130321709121438,1.752197023203653,29.11309777217577,-16.396015172209644,37.88338201222033,1,S02
8140,0.17357487220775403,-0.11007673984736935,10.138006810481407,-4.196208614687988,-1.190519158828613,0.604764940029033,30.195127379618594,-16.801505350763556,38.55138296225802,1,S02
8160,0.1626288971416852,-0.12685912677025274,10.147907135211236,-3.363910264011759,-0.8214800299753092,1.2853682848290617,30.267291361039607,-16.44097422307936,38.13533525793768,1,S02
8180,0.15365085205516052,-0.11035480011814591,10.144842355273205,-4.127107788779734,-0.9317156487691176,0.3250694698363127,29.440698621442777,-16.69587707196301,37.547263846919805,1,S02
8200,0.1729722244163097,-0.11104175811347886,10.147585514621062,-4.030897301559582,-0.7008950655295856,1.056492364290339,29.603601380101146,-16.944687596573907,37.94463739554701,1,S02
8220,0.1524640351715135,-0.11384247182920829,10.148064100566172,-3.4760588371665717,-0.3802524408596075,0.7473631495810337,29.6769275413141,-15.824479535689205,38.37160998492362,1,S02
8240,0.15661709764064993,-0.12248240508690644,10.149812049005055,-4.3450338365735455,-1.1418018023311003,0.7407082783547326,30.134921062757197,-16.594765007898637,38.17042544340685,1,S02
8260,0.17307255115251907,-0.1197087764638386,10.151020645621912,-4.396526235500006,-0.8837837094325348,0.5378722820879214,29.73106875142404,-16.722768263105927,38.29260515789939,1,S02
8280,0.17021419367291124,-0.10758864075909857,10.133728213466707,-3.7661173718013012,-1.2321398989939847,0.7089296637862648,30.010269845241734,-16.469993618208363,37.800453272647374,1,S02
8300,0.167890152540131,-0.10784870825016606,10.137302881069786,-4.562499814776761,-1.3983239236499911,1.2539664244481463,30.061270579619396,-17.027582177437232,37.81444423687648,1,S02
8320,0.16709527674139715,-0.09371717960630402,10.143592294496274,-3.845226269466795,-0.43009502955896517,1.1489503707143185,30.294751996293108,-16.759324180381537,37.90832904168844,1,S02
8340,0.17529921311906682,-0.09745423813539479,10.137610748181674,-3.4927321800925526,-0.6155568430350743,0.9938619448082314,29.910246067813382,-17.323310270859658,38.08890689922493,1,S02
8360,0.16892695194616025,-0.10153897877767701,10.152627159130583,-3.7398601854590385,-1.2297215228436755,0.8937551753338995,29.457760541069682,-15.517888344308592,37.51910119388628,1,S02
8380,0.17560911509906235,-0.08611040673285346,10.158800999839956,-3.740327430195807,-0.4875576839263984,0.7432962120591136,29.369865168560953,-16.581323693192537,38.58596286788947,1,S02
8400,0.17669007104951112,-0.10342956915101267,10.16135590287894,-3.5876428111678234,-0.8798912459609796,1.2422442317896976,29.572149780989207,-17.013948920962513,37.69407496423792,1,S02
8420,0.18252665511436522,-0.073562280649179,10.151168927299892,-3.4358113064449998,-1.0765970700462753,0.8706572454591806,29.349670203727502,-17.47670407216032,39.02119046055258,1,S02
8440,0.17252856223656768,-0.09080129150979385,10.149129098891422,-4.278780907551694,-0.967088512353615,0.8266011053754971,28.963625081302123,-17.569593546564924,38.17723160618403,1,S02
8460,0.18009821872932094,-0.07141599450802341,10.14867151525583,-4.039490664066416,-0.6577891403885217,0.5802351018067232,29.407341130360034,-17.002863016005122,38.304510827450464,1,S02
8480,0.17684939106542671,-0.07819398888799185,10.149083440209798,-3.2215945557667824,-1.2704003687454866,0.5005726898271841,29.49631563473227,-16.310743148640274,37.76972946181084,1,S02
8500,0.1819763215145381,-0.07511658033710193,10.171650301085466,-3.9772867379953487,-0.10303215729563586,1.4083133980191498,29.394490665067966,-16.747694127468257,38.61768251146143,1,S02
8520,0.15659805833310256,-0.06050162598046229,10.154058930817834,-3.912635630217368,-0.7053120751918402,1.078946267930974,29.803856632457304,-16.58862831167006,38.83403146453702,1,S02
8540,0.16653114706043617,-0.049258449766477086,10.161504527694769,-3.47002392045551,-0.838650747934077,-0.4837419263093591,30.009490705623517,-16.59931583582405,38.54897386880509,1,S02
8560,0.18238829800885092,-0.05833023809170973,10.152418981396892,-4.067119136857891,-1.044665082421027,-0.1448443706247714,30.08618259274381,-15.468449755276875,38.632121427463524,1,S02
8580,0.14148199527364658,-0.05533335549700525,10.144645617737714,-3.7074685629904973,-1.1726967681921872,0.851155299231432,29.145910336911882,-16.28473319609958,37.93753881958593,1,S02
8600,0.1656506367865086,-0.04701667138005956,10.14930219688582,-2.990011126590588,-0.6011770292174277,1.0985383788107932,29.300794475729315,-16.102972695197195,37.20104562341725,1,S02
8620,0.17056842028624802,-0.04508886289866632,10.138920318360618,-3.7313677019419984,-0.50372870623403,0.8459361087963264,29.705858689355605,-15.984589832970928,38.180570442301004,1,S02
8640,0.15436013330272388,-0.05164269985550855,10.143746531281378,-4.472248086141576,-0.6587386888647461,0.832511979264644,29.63731938908566,-16.823919023643427,37.823077767234,1,S02
8660,0.13781625095775002,-0.05560284455324735,10.141124058199237,-4.430272946583515,-1.8150079988449015,0.581067444349719,29.340427490736865,-16.50088205255657,38.248576434057625,1,S02
8680,0.13445512184234407,-0.023618334243962195,10.136251075619716,-4.06561516279672,-1.6573448976673548,0.381362967209405,29.88286553087545,-16.782224769090448,38.14191374057573,1,S02
8700,0.14436192519804295,-0.020963028836048253,10.144393785940569,-4.489430958418846,-0.7861441389080219,0.002104614858774112,29.94998512125422,-16.425125766051742,38.130104823264496,1,S02
8720,0.14229183690231922,-0.017036980297940915,10.144486308608144,-3.948228565543488,0.20219746267428973,0.3245847964301096,29.804773500666325,-15.79514095110088,38.53121525157346,1,S02
8740,0.1380024526497008,-0.037561139036385034,10.147639371592568,-4.038322418990556,-0.31384992651500565,0.3750054025239564,29.700849425103225,-16.59644396327183,36.935251346797095,1,S02
8760,0.13292117623209282,-0.03908734575437951,10.129744767941526,-3.7137841803307836,-1.2123338121916192,-0.2789217758061193,29.874312208569563,-16.71283714826568,37.95637243419181,1,S02
8780,0.10468537993451701,-0.00841627106673331,10.175049003664867,-3.554607774705276,-1.307480681160554,0.6933719585750221,30.602517452621314,-15.91439746839446,37.98177027845719,1,S02
8800,0.12359437230175414,-0.015491210741244328,10.138873583967905,-4.136100981313917,-0.613949384330336,0.1998365667034992,29.421378522489885,-16.392103899965726,38.49781495104973,1,S02
8820,0.11920516936146856,-0.017071938795445225,10.153365629378948,-3.2505534852671767,-1.4200840183508412,0.6549010916469229,29.93324453198804,-16.876299612019736,38.18256898756665,1,S02
8840,0.1167090767349947,-0.03272441413355111,10.144417585854562,-3.283282689888524,-1.0882022799781026,0.45428971408215374,29.747591423352937,-17.689517998530135,38.067702254886136,1,S02
8860,0.11505978251191493,-0.01676408008328742,10.131962227106571,-5.010491032743532,-0.6307693732068868,0.48604256066639306,29.663872985355724,-16.06806083074469,37.94540883463183,1,S02
8880,0.10095953409198428,-0.03706346067786197,10.133993149496062,-4.626789765188923,-0.9007522194697845,0.9528232780951179,29.86791573385454,-16.231520348441325,38.10373846769715,1,S02
8900,0.10278327174212308,-0.02426544691399464,10.152358591566205,-4.667186795309015,-0.5572922044011135,0.6301622803265262,30.206783370899586,-16.36546579444932,38.13944236437672,1,S02
8920,0.09862162764367742,-0.026464443896257246,10.142057383700356,-4.7154343995478065,-2.1696402543462066,0.6837938487425217,29.70337492156206,-16.614183858923713,37.89748498552898,1,S02
8940,0.08488632138550131,-0.029111047705130857,10.154923206293018,-4.223237247805318,-0.7525250960352139,-0.09640634293495542,29.42404297812689,-16.20258839117875,38.24542428666036,1,S02
8960,0.08242543603018139,-0.026579326310107308,10.155314315572049,-4.18013232432279,-1.1612809582354595,1.0275237597398164,29.30456407477142,-16.591729745887967,38.49688913591632,1,S02
8980,0.08104401757366958,-0.02842099390283069,10.145121653467733,-4.140837784710596,-1.5213165643040762,-0.5606412083638944,29.78569746168529,-16.295163130942235,38.57261518634567,1,S02
9000,0.06020326340171107,-0.033543521655686914,10.142532734750548,-4.4535821395660395,-1.1991672938148707,1.732864005713172,29.15524167180114,-16.116115732601443,37.9981693347739,1,S02
9020,0.07172801386353772,-0.036153871924899286,10.14896425620052,-4.819379250703167,-0.4901766973021333,1.3738477202139672,29.45276324883598,-16.92552898714349,38.88464255312271,1,S02
9040,0.05094715845324096,-0.03651612273860832,10.1265282006585,-3.6787518549874756,-1.0605341365763978,1.4142189012157318,30.041582354509327,-16.701210596189558,38.2166208058374,1,S02
9060,0.0564547029222375,-0.04772202452917988,10.14970198010587,-4.293693637045336,-2.118900456815238,1.1722187914087256,29.108558926754785,-16.63128105328967,38.55025959669797,1,S02
9080,0.046184850129592794,-0.05517042944700119,10.147418559214936,-4.004051942191266,-1.6332913977689083,0.6214444180478302,29.85880759562128,-16.078505504970913,37.89291531322665,1,S02
9100,0.04232674725401816,-0.061298393754357625,10.133410854773727,-3.737776808772659,-1.1718492162943654,0.7197886383119899,29.02390418293037,-16.870302319179224,38.02345635594524,1,S02
9120,0.04568405594211647,-0.05132440779369688,10.158765165813705,-4.177430760523432,-0.9930004730744836,1.1789064729653473,29.366245039349383,-15.789686318532311,38.702785036976415,1,S02
9140,0.05435586475704105,-0.07309854308384989,10.154923135011567,-4.628944194114243,-1.8975814316988995,0.2314912459112955,29.937119124185642,-15.874058571866811,37.815423173143174,1,S02
9160,0.04401223614781509,-0.06633815193831161,10.135037656754362,-4.204832736928082,-0.9616264755545393,0.3823440849348684,29.61218359841746,-16.373054206920727,38.95581053149928,1,S02
9180,0.025705864927816457,-0.07445318034568861,10.136901100493159,-4.150308549241091,-0.7967892681614915,0.585490859051286,29.68424691169723,-16.892802337844316,38.13587996068721,1,S02
9200,0.02887880102768932,-0.08036459100649918,10.155395825792933,-4.228769752548952,-1.0226012507503306,0.20694175289649697,29.444331942704867,-16.89072956502109,38.275975593132486,1,S02
9220,0.04006026860502406,-0.07422659731198845,10.137173642013451,-4.049831755411423,-1.7680824904315502,1.0055135592927895,29.868843056255105,-16.63885104326843,38.297475598532024,1,S02
9240,0.032812974453363924,-0.08648983073628845,10.128356989611989,-5.090247362398766,-2.4131002906176873,-0.2951728412507717,30.00389705641694,-17.219516368377427,37.536652999031524,1,S02
9260,0.02238065637318684,-0.0900917561446479,10.133270399443074,-4.319700960858769,-0.4656652021795795,-1.085838341994751,29.131399308780036,-16.95085720493586,38.33004022974528,1,S02
9280,0.039999485394444236,-0.09089033556896159,10.163068944954595,-4.574410463121229,-1.4506650962234675,0.1318360777375026,29.551453586030416,-16.3571930402765,38.115694802501736,1,S02
9300,0.03196690127878732,-0.09587896560238994,10.136140918848346,-3.9300791093219893,-0.9342227144805078,-0.33495621021454614,29.959546733609354,-17.059609026410836,37.71732110117615,1,S02
9320,0.03455555746012029,-0.10327547268447371,10.14309973389702,-4.267221445504899,-1.5444339884263272,0.7903974974518493,29.11724130347014,-17.28570081916404,38.18575762121928,1,S02
9340,0.02520104706301264,-0.0911977491681761,10.160858316457597,-4.049255945209618,-2.11460198589523,-0.28730328963089946,30.513615197486125,-16.609770058251097,38.68987214202018,1,S02
9360,0.026042260744517,-0.09430320613111418,10.153512993750878,-4.148606205397994,-1.5140821435101528,-0.30630095512753164,29.969059822293232,-16.567429727755872,37.8679923785331,1,S02
9380,0.029163667009458702,-0.1073477440960474,10.15092594661163,-5.195169814310546,-1.8679150685883879,0.11209974231244135,29.105250443288167,-15.837070696471002,37.91478597595744,1,S02
9400,0.010634265541369162,-0.10761182216762993,10.14218047311746,-4.1930509458700636,-1.1564553102525912,0.1276745451449453,29.147154190516694,-16.376726623769564,38.22134474855475,1,S02
9420,0.021529286540388534,-0.11192069727937091,10.139665561266186,-5.15910018902316,-0.8744140593306177,0.5128870750064165,29.134062232546825,-16.682767776345806,37.860542918043286,1,S02
9440,0.019957384304662207,-0.11563935860133565,10.137758511202062,-5.187879104357609,-1.7917685407849082,0.463108059322832,29.641530173131965,-16.684693300988943,37.87965158959668,1,S02
9460,0.02256862876166192,-0.09765581438805945,10.15248154735891,-4.869140189660041,-0.7757941285674685,0.4166649336558891,29.57894050018777,-16.43865770678499,38.74503274905846,1,S02
9480,0.02728600365989199,-0.10178616521727932,10.141599467855459,-4.556980632251413,-2.107938699175751,0.11796573767887486,29.546166023496387,-17.00830187284194,37.69462097555919,1,S02
9500,0.027031614087124026,-0.10735686408689074,10.146994969861375,-4.223311653437979,-0.973011521048802,0.7293180057170955,29.33112152129872,-16.746688907848167,38.651555440485744,1,S02
9520,0.021045801211734813,-0.09996219521822154,10.144262962764452,-5.445343804689789,-1.187452769706542,0.49549555676245916,30.141834694669356,-16.715293786414236,38.28289282324133,1,S02
9540,0.033741991973934196,-0.12458824494643127,10.133081325386703,-4.941848137912693,-2.1328313513435524,1.5399655313339848,29.656892237658145,-17.107179252842613,38.24491127531187,1,S02
9560,0.033289236713004475,-0.10907155303827604,10.142908191500657,-3.6457004448829355,-1.567728904171817,1.0925907927118303,30.129381265381326,-17.25864039705633,38.73484415108171,1,S02
9580,0.04384693092882695,-0.13122784470300825,10.146513371777226,-4.156336807788727,-0.8099300130314582,0.6827495946296798,29.432296562105794,-16.804384633968077,37.91425614570332,1,S02
9600,0.03349884580202424,-0.11083100309301433,10.146547446878419,-4.13106404169785,-1.4633591615404415,0.8837594951673754,28.831574956245888,-16.639745521781798,38.205912881597364,1,S02
9620,0.025098040134178004,-0.12945663426780235,10.153858210086879,-4.1408067593404905,-1.3264875248185837,0.3775200862913479,29.657335091601666,-16.654603975934773,37.63544931550261,1,S02
9640,0.05580368027299617,-0.113651104334829,10.143070512720666,-4.659226038789127,-1.9125741523946094,-0.3738731557725997,28.940912714197843,-15.693723936809818,38.19509973679462,1,S02
9660,0.06400309927524059,-0.08970472406711825,10.152454786570049,-4.035908973726277,-2.314852490441896,0.919494411638448,29.858403940312552,-16.659286043034246,37.38826950612532,1,S02
9680,0.052057606193052254,-0.10634865510139516,10.135871788419847,-4.206677942391874,-1.558637794215561,0.6995327221901165,29.780150012783693,-17.101021935235828,37.508861742246125,1,S02
9700,0.05418459648547429,-0.10158337781687618,10.159679909448464,-3.7607494910846633,-1.611663220121005,-0.21479048843361304,29.6469476040423,-17.306232895672558,38.51156439174733,1,S02
9720,0.08061705703024614,-0.09751342460759913,10.169732338926654,-5.578902203290755,-0.9263328999270904,0.34851339638446244,29.33962357007801,-16.179215577235748,38.288824464905524,1,S02
9740,0.062094091142900716,-0.11182711406507077,10.143091078536832,-4.777638075740917,-0.9480462742145505,0.5003892325469435,29.91221554769386,-16.50757834436149,37.52840177192449,1,S02
9760,0.06378802506497222,-0.10262734629454447,10.147763733586277,-6.002436308008,-1.0553690270893905,-0.15610617836517493,29.65935876293246,-16.619429791041618,38.69438565955001,1,S02
9780,0.0762618156395122,-0.07285394211077909,10.141272845086021,-4.094535027443008,-1.09882737875806,-0.013894377755640952,29.291410909989125,-16.690177421618188,38.12251384439488,1,S02
9800,0.08912978661320924,-0.08632951982388927,10.146513670130357,-4.95653043270111,-0.5941094296944197,0.5555697495065793,30.23801479636657,-17.162804928248086,37.669510886808105,1,S02
9820,0.0805321105252023,-0.09549430730536691,10.136391184227891,-4.710072555720796,-0.9134954611356214,-0.1317323395782991,29.499380491656815,-15.986397681553637,38.462232058049764,1,S02
9840,0.07079195131459687,-0.07395001203268663,10.154506810561047,-4.663686457959154,-0.9468915916568864,0.5303631043730702,29.84190432803046,-15.802094114543863,38.4334000944795,1,S02
9860,0.08886666616331836,-0.06333136123070596,10.129926612824363,-4.451347652833354,-1.2188991151184696,-0.12795247838757362,29.960191992978313,-16.945370434786206,38.604539626354715,1,S02
9880,0.09784419626203289,-0.07782006397512894,10.140462190137214,-4.1663344096302515,-1.0268690746207298,0.408677375703655,30.079790102764562,-16.651491411008184,38.15729203854916,1,S02
9900,0.10670005952248016,-0.0767582701381101,10.127431244881683,-4.410457730457408,-0.3264476231196882,1.2534827545976466,29.87398493523216,-16.89357168399433,38.18937464258958,1,S02
9920,0.09423941029601543,-0.08539045915974668,10.125634713048619,-4.283058968257224,-0.7895188841172454,0.49219752252557025,28.840165205361597,-16.267745663290683,37.64857816786009,1,S02
9940,0.12233645788642068,-0.057872295645904376,10.136552597049917,-4.577249564802112,-2.8889028980711036,0.4480317098900573,30.325581672091683,-16.05667209427333,38.06818847819302,1,S02
9960,0.14425922802703922,-0.0469613085151791,10.137136199963967,-4.316000999161211,-0.9739878970852993,0.24503240915309682,29.198360697935854,-16.37275281450252,38.633177104270686,1,S02
9980,0.13781299938907318,-0.049066759331578225,10.142211524113625,-3.9937990491109296,-1.3355788230153587,0.1564988724231492,29.5545747500866,-16.885559988150785,37.53281696298025,1,S02
10000,0.12807275099950197,-0.052736469564380856,10.154106260291332,-3.870942620224275,-0.8637625570578739,0.9882617946287813,29.945616739662192,-16.628002842131345,38.22814466839767,1,S02
10020,0.14653577316240604,-0.039717554877394715,10.152894741339894,-3.9601897639039514,-1.248361127686956,0.2087945982930699,29.43380339118717,-16.913303852611477,38.72776253786258,1,S02
10040,0.13634869135265199,-0.03252261327432645,10.164419010370386,-4.719823751302946,-0.313534498347276,1.2163637832539276,29.666231020114505,-16.853924895509266,38.878884387378505,1,S02
10060,0.1306370062234523,-0.04134786625371121,10.152304471923896,-2.7382244867148553,-0.29988095732755604,1.4404089729921687,29.91774090843932,-17.268464677727323,37.4805521646665,1,S02
10080,0.13270532199534102,-0.04058333388319333,10.14952128867818,-4.012448878378507,-0.23549237567159953,0.8223464122618711,29.830539667376836,-17.03451682185033,38.02060332199042,1,S02
10100,0.14539495050542361,-0.014742604804595744,10.152829518466898,-3.497849121093112,-1.1662841357611355,0.40601386935871275,29.59369897013912,-16.182356223672315,38.48975546548769,1,S02
10120,0.1420047197269367,-0.030774603875382417,10.165928081638945,-3.418536984208865,-1.110927213522139,1.645103270841684,29.811120026942167,-16.899537227935742,38.22860834369008,1,S02
10140,0.1677382018174357,-0.028115809582518872,10.139158714208206,-2.573484768210271,-0.5310053408542026,0.7297088750965892,30.28507051081009,-17.074937295309418,37.96791331856509,1,S02
10160,0.16175610455246203,-0.01736244422264608,10.154210821103238,-4.582021062850634,-1.2614020529081307,0.5277775021347192,29.467310081433354,-16.674278700487626,38.34856642883069,1,S02
10180,0.1695087558842827,-0.023094287861078838,10.140810832094186,-4.204012698646228,-1.047492667248733,0.6752265919756781,30.306473646775164,-16.770569832759467,37.62592685927113,1,S02
10200,0.17862824179683662,-0.01986776497366463,10.149308232478564,-3.0796343683190606,-1.256710057831823,1.1800142338378876,29.824070695161257,-17.154049156317754,38.353159016389654,1,S02
10220,0.1717646580078017,-0.02337638151834951,10.138717837869626,-3.6498200362186277,-1.3466588853539778,1.1328848897753452,29.042114802447166,-15.680277018748601,39.04444618412459,1,S02
10240,0.16476881263004528,-0.03667683533473342,10.137713721453496,-4.631184264006577,-0.6687179371469768,0.9082824163655434,29.451213209037476,-17.257670825106285,38.15201890801293,1,S02
10260,0.17150153656061096,-0.012880088412425494,10.133930348453855,-3.3289140762887195,-1.327260063226007,1.1313553850276852,29.930122472521667,-17.065265123430144,37.11248832186782,1,S02
10280,0.1845569009438229,-0.01535439848121408,10.150804008071912,-3.02425374679441,0.009320500672921561,1.0394580485956766,29.601809329074342,-16.76269214888275,38.362934950757875,1,S02
10300,0.17771013171536515,-0.021965970925007704,10.140597071279911,-4.305254038250842,-1.7913211917194087,0.45579445388264533,30.016166860282723,-16.026917637753108,38.385157276884826,1,S02
10320,0.18739645354049667,-0.005138403566361194,10.137004221722862,-3.403979320965706,-1.416725368403014,1.120667137692128,29.785469497029506,-16.109359732935502,39.07559170623161,1,S02
10340,0.16163706746262188,-0.02835445134911562,10.155031622282593,-3.647380763734775,-0.8041653955661534,0.6241825397000736,29.8331073935049,-15.725189632220447,38.64282869061586,1,S02
10360,0.16895429254752067,-0.030044621351371502,10.140704963533967,-3.64646212864032,-0.5054986575034015,1.0927466945267028,29.08053065659017,-16.58805306755726,38.346670150174056,1,S02
10380,0.1784584668033957,-0.025283252032092467,10.142773794707566,-4.1224967786687134,-0.44973286961296033,1.0274400983640204,29.552363083296814,-16.03494839333704,37.74034764030974,1,S02
10400,0.16804012081144082,-0.01679770655886794,10.151330655224276,-3.2875676111700516,-0.41188389908088574,1.2939263694242955,30.093877754524282,-17.47263865235458,37.91675410995137,1,S02
10420,0.1793071403334774,-0.038231388275354654,10.160986547604756,-3.845996592943975,-1.219447023055986,0.517056508665086,29.5550214000806,-16.60743625198201,37.86983349855845,1,S02
10440,0.1929986110484589,-0.02747065411580412,10.1614261643194,-3.1482760178414955,-0.3921733694887575,0.03549523587067538,29.48485495042349,-16.529598498780167,38.064831466095235,1,S02
10460,0.1878715016513155,-0.033230693327449996,10.129177801212643,-3.984564954971823,-1.0986044473559786,0.8153278824929435,29.36178963023098,-16.705438386942667,38.00141526532578,1,S02
10480,0.15198770786122867,-0.046447341651413274,10.15089951894211,-5.032837388558192,-1.2834795917863842,1.0894855612673124,29.547569712315838,-16.40970082854448,37.630144761860905,1,S02
10500,0.18144865300660434,-0.05289701025140757,10.138013376369438,-4.142879629837699,-0.5941820498816384,1.1196915174025106,29.147027459797766,-16.52531065107035,38.56114773870075,1,S02
10520,0.1567636235126149,-0.04953436130570312,10.13180461826084,-3.217151292343156,-0.6838293929275872,1.8409582174246282,29.93050741266331,-16.63487777995013,37.48765004068268,1,S02
10540,0.1648774039194817,-0.062941674163814,10.138886440396725,-4.214024877915377,-1.1275905315547408,1.3010210487529965,29.628932736455496,-16.181491487215816,38.458245012966145,1,S02
10560,0.15983900485946612,-0.06446362458896117,10.150970925508672,-3.6245990800557673,-1.8589199461959396,0.5385785348402352,29.630393854342326,-16.289138464705722,37.568351715861354,1,S02
10580,0.16730802796684152,-0.059623520508029486,10.142419971180221,-4.4590280617299305,-1.060722877110012,2.243656802898334,29.52715955008961,-15.963124950614123,37.65387334249976,1,S02
10600,0.15358920050795982,-0.06010793776885987,10.141149493868575,-3.4878741180038633,-1.6124812460961193,0.24076259211599105,29.557600084584948,-16.82267907117248,38.48800570224764,1,S02
10620,0.16314914545112547,-0.09263779569121067,10.142592459286295,-3.7636072653663266,-1.3079294553210807,1.1499698489895591,29.039999699106133,-16.930232600494065,38.01041886116006,1,S02
10640,0.15683831748924762,-0.07990895265556514,10.141138515559202,-4.287676779240222,-0.9436673785675879,1.032915769714236,29.977807108219757,-17.202045891305175,38.48879025269965,1,S02
10660,0.16062468117392886,-0.07115420310589772,10.147093667959199,-4.0433238041501625,-0.7420501920272987,-0.2850468175749563,29.613516571124272,-16.269304394621813,37.79992695246906,1,S02
10680,0.15324848107110187,-0.09737934466930322,10.154900076442326,-3.9872072313783504,-1.326147330089966,0.5444322391023717,29.54052034714931,-16.962832848629663,38.263899117322545,1,S02
10700,0.14572015814496306,-0.08060480686449568,10.149738600967499,-3.7558005854104386,-1.8942063379968306,0.7570256911783277,29.945535112327015,-16.716973965947453,38.39889073555304,1,S02
10720,0.14877426310340938,-0.09652273561087141,10.140389682154487,-3.846379906844711,-0.23165272384108215,0.4867412414954804,29.348546254011133,-16.361803067955393,38.123829470095174,1,S02
10740,0.15034929592658683,-0.08240658660023897,10.146170220552877,-4.482138028008294,-0.7370419387581388,0.9742097241829705,29.977000224885458,-15.925012652094932,37.68681935604666,1,S02
10760,0.12992121867789197,-0.09932734158134376,10.151486875755582,-4.421974816896451,-1.263409297511205,1.1643815630011902,29.555653038302026,-16.813679787961938,37.849003019145606,1,S02
10780,0.12844306504379416,-0.07628501466834167,10.165569256549828,-3.885642696776929,-1.6367463455610731,0.5118743288232595,29.858361625168165,-16.4205239189092,38.611314205347995,1,S02
10800,0.10497247491590846,-0.11389557104409397,10.130930831055776,-4.056861782062944,-0.7251910800444369,0.69397103311173,30.032416527078777,-16.93611019717845,38.881000147495875,1,S02
10820,0.11641423374884982,-0.10994553680298061,10.163709520026305,-4.398651742415393,-0.8917009414945496,0.3480779947664314,29.826593903254505,-16.540519104788856,37.904120871498556,1,S02
10840,0.1108701646058409,-0.12144397854465896,10.138140094864974,-4.155028271741883,0.12862309609957912,1.239780444854183,29.743339949401665,-16.900474339768003,37.785120378453364,1,S02
10860,0.11611617239574114,-0.1195113796267249,10.156484639836382,-3.6760598447940196,-1.5202353358796978,-0.3269093781223976,29.629505467910562,-16.47047134511314,39.110617529401146,1,S02
10880,0.11077562835966666,-0.11264109244750681,10.13789625310441,-3.885032634952983,-1.305592402154216,1.1999543617550383,29.570502621183316,-16.78850452760871,38.58835888476312,1,S02
10900,0.11004757876868126,-0.12040137851306146,10.136129856890905,-3.935131673306363,-0.20047845318178825,0.942911616766005,29.432516974418707,-16.252826618059913,38.71471201548264,1,S02
10920,0.10522506720642592,-0.1236428691806607,10.130891078708359,-4.4554426025237905,-1.3965582938957555,0.04636950426933695,29.482486057150957,-15.906272531924174,38.12703211749964,1,S02
10940,0.07393542561572754,-0.1268435828944121,10.139362673157322,-4.7925431855265295,-0.3934529587044272,0.9153105961957995,30.480598566193066,-17.07684170015457,37.55454654301234,1,S02
10960,0.0681830162306335,-0.11670918937331207,10.140313867227697,-4.395367818067979,-1.2072059495082401,0.861037657009823,29.935744647795218,-16.62724390585,38.816855023817794,1,S02
10980,0.06739423466573118,-0.11944479601696611,10.158028062549535,-4.573201584912338,-0.8607582338358817,0.4073857107398291,28.87507293333939,-16.784013828008895,38.280914177139096,1,S02
11000,0.08722498210867391,-0.13345318778404036,10.13210505827681,-3.548463441756796,-1.2177719019054598,0.6166280254953536,29.45338007317172,-17.039091031539286,38.051202304285034,1,S02
11020,0.06730171254405168,-0.11525919101023432,10.161759246630677,-3.9346604376437133,-1.7839331501612996,0.2942122705663345,29.66958973888034,-16.224235813271427,37.941454309836175,1,S02
11040,0.08005019099681823,-0.10395017683806826,10.149132133801372,-3.733281803129662,-2.1261190332300997,0.20540800170473084,29.86538806606228,-16.187629529434794,38.20696198599627,1,S02
11060,0.06497360369581476,-0.13705289185172395,10.131712827378307,-4.264982365443303,-1.613585408939324,-0.44234929076127305,29.1614552980255,-16.766088810768938,37.41273637791945,1,S02
11080,0.06319113578726826,-0.11825513698205446,10.148097729636085,-4.176688631425869,-2.131939582586077,0.6493002776435646,29.610938413580687,-16.483709686037763,38.10669855840374,1,S02
11100,0.06382380012834418,-0.1054247789756878,10.166040813647877,-3.94465410900328,-0.5469617202126695,0.48489672887242663,29.818539882314962,-16.57174817793362,38.00261619934848,1,S02
11120,0.06382595311890843,-0.12480695364280817,10.145851896567185,-4.934828093897204,-0.7234775737672343,0.17815582277102515,30.654303589375946,-16.65101697834928,38.16399166735155,1,S02
11140,0.04158010774113023,-0.10658381420220074,10.157208024239388,-4.481193858354381,-0.7060193026725121,0.8513889480037876,29.589494870993466,-17.17301464003937,38.214785029963224,1,S02
11160,0.036649556093473284,-0.09157952210702955,10.145337496663508,-4.517280729163618,-2.152800044325862,0.3465448389482919,29.43562285292554,-15.869744937285013,38.0212292581963,1,S02
11180,0.04025074375818176,-0.09103748694126965,10.151378363172912,-4.296911330710482,-0.41256696926518655,1.0514697026903124,29.90688398052515,-17.288686870956624,38.09779769981467,1,S02
11200,0.016603583566349195,-0.09189912260920165,10.132854546477844,-4.888317259636069,-1.0107035055894988,0.23161589621142487,29.303499266802575,-15.955220314600775,38.487489881447836,1,S02
11220,0.03347093552980962,-0.08893168874335489,10.141136452519577,-3.7219533594164655,-2.7804453824164,0.4552073305581522,29.400921850945664,-16.66874272154439,38.204651698532935,1,S02
11240,0.040815783544478366,-0.0728040479828039,10.13529415404854,-4.7871814252300355,-1.3939152133286308,-0.31625826372000065,29.70908339428676,-16.792252120012755,37.90804376461972,1,S02
11260,0.02555147309755426,-0.10401681924575962,10.150239674760668,-4.399985417558817,-1.553618410912424,0.7606410115388208,29.51255840396623,-16.73551841389056,38.24554270705054,1,S02
11280,0.016952828758301133,-0.07617137373259943,10.139007924356124,-5.143146856894763,-1.6557369037638145,0.4413500752686502,29.95729056258465,-16.609085588601168,38.06886922160067,1,S02
11300,0.018761580401592495,-0.06974046802207517,10.136985229857256,-4.071597288981122,-1.6599441139563853,0.25559005339390317,29.60989970623857,-15.97205252587158,38.70984413368666,1,S02
11320,0.030357464070262005,-0.06117370590019631,10.137807885013519,-4.8999131950585255,-1.8040572628051628,0.28763645865090426,29.348656110716732,-17.037134324686427,38.01300597621193,1,S02
11340,0.017176066307159413,-0.07219755190863866,10.125298138316525,-4.997574256992728,-2.3077519219681895,0.13076021368195345,30.059643119389218,-17.136472500608193,38.98207754830355,1,S02
11360,0.011353404471631495,-0.06432571954843602,10.135376682245328,-4.9298951564621865,-2.0051528602908437,-0.9237181923330867,29.32218517628725,-16.040591062476594,38.099232808527674,1,S02
11380,0.026990409809813667,-0.056290221203851895,10.14179549375508,-5.144132349505108,-2.0656650968532224,0.9791457026314981,29.66365078635111,-16.581192719805024,38.65934569301093,1,S02
11400,0.025940982951654812,-0.0640520338833153,10.148387506403736,-4.753444572193754,-0.9811738152041369,0.6365287096947304,29.760041993998627,-16.186212729122154,37.709616721094996,1,S02
11420,0.029302244510555783,-0.04410874968183933,10.140994452238166,-4.763350995979377,-1.4462359750372586,0.3688251133767989,29.767097465505017,-17.45820774095719,38.07753169623732,1,S02
11440,0.0281932953387838,-0.044569975227354425,10.142882617715864,-4.394048143811672,-1.5740304464798611,0.22871314770701268,30.248717134676447,-16.82296933995427,38.7495896812844,1,S02
11460,0.040742177964880735,-0.040689503822234525,10.157063340869424,-4.096239371310991,-1.3536883944387323,0.7557632475233156,29.65720757324299,-16.85181517598259,37.726635853122545,1,S02
11480,0.02678079421728448,-0.03185547721221733,10.136121312365328,-5.036213380075559,-1.4249970369377551,-0.1552742425371808,29.85889865683271,-16.48749896598553,38.323352585205996,1,S02
11500,0.03774491819322557,-0.03390124472511134,10.15653697196636,-4.711695502939971,-1.8053215478340472,-0.021255156481278514,29.172347705312188,-15.843585169810911,37.521763753886255,1,S02
11520,0.03499942260005762,-0.024541554991224603,10.133940438530354,-4.244175272746921,-1.1434271104796887,0.4014728472241228,30.190910001372835,-16.92970605854766,37.8321128539928,1,S02
11540,0.025699117124410406,-0.03744734887525706,10.155065685826322,-4.55325784621794,-1.6521744968264866,0.7851387200221951,30.130118503925434,-16.7821247517223,37.74861220894755,1,S02
11560,0.03188265168626721,-0.030323713728698937,10.140315981342955,-4.720341185945736,-1.8625880018567278,0.6454610314136875,29.59964492533151,-17.252400289398693,38.20519555276414,1,S02
11580,0.024077484998648452,-0.01862103966857291,10.149321763106244,-4.6445195777233,-1.1806404652065272,0.3936912526747602,29.531085536834592,-16.58851366082305,38.358829726323584,1,S02
11600,0.04135583868379638,-0.014295688963399188,10.159320841538683,-5.214766380248562,-1.697917792506717,1.2148472239380252,29.622389222954027,-16.139141285911,37.864793025650236,1,S02
11620,0.019887739920431177,-0.01734812691710265,10.156209138348341,-5.3154774100765465,-1.2285233107820688,0.49044782639495604,29.684047677062377,-16.077711466549044,38.635959220894726,1,S02
11640,0.040458557775429047,-0.031115699626979805,10.141778616758039,-4.051231493002425,-0.7937937762164364,-0.2425312288166792,29.867619622741472,-16.476091071271888,38.08605514307204,1,S02
11660,0.043094274408391135,-0.036759025349967486,10.147202267062747,-5.02812331057209,-1.2574183698412018,0.33130093819790574,30.06098570539008,-16.30407061754154,38.03696291404094,1,S02
11680,0.04311179659317978,-0.047279723504787666,10.14608333684145,-5.12578627757624,-1.392965145972548,2.096536811651993,29.542257860819873,-16.396988513499405,38.57977063676581,1,S02
11700,0.049062035926135485,-0.014055149262500025,10.140386182296758,-3.7085131665455666,-2.097170973542699,1.0962246721020819,29.43071383272143,-16.40797158646638,38.475749671211126,1,S02
11720,0.057778987954266656,-0.02318894148597802,10.15015731435783,-4.246248112604909,-0.9105713652460643,0.8283980714279695,30.189409946112196,-17.03335903184805,38.35514846703029,1,S02
11740,0.046914771058369824,-0.04128315048220414,10.136246618899705,-4.308322539932005,-1.1336083670197454,0.058399259042491325,29.740319345051958,-17.11920036367033,38.16448537123333,1,S02
11760,0.056483976374072625,-0.020532577001698915,10.139498627180108,-3.762559034293006,-0.9784499248283474,1.2174999871120864,30.543367523492908,-15.916790130356507,38.121268358517476,1,S02
11780,0.07458738314955705,-0.028513536544197235,10.154526773217047,-3.862092972406181,-0.7198355221345155,-0.23857547623794095,29.66433346291672,-16.35203527268266,38.13766510703886,1,S02
11800,0.10033396895954093,-0.02662910659870961,10.144698044979394,-4.546475619809606,-1.2595161113437348,0.7950387544202926,30.027436893750412,-16.17699571418004,37.648846941611644,1,S02
11820,0.08127682871239211,-0.033796150528138384,10.152521298676872,-4.310766534428409,-1.912200128466774,1.244370499089518,29.347146256390186,-16.616680705964413,38.42913117243718,1,S02
11840,0.09650772167165965,-0.026062121263575697,10.156635231869334,-3.831564820561703,-0.9294028002949255,0.22205082643026863,29.493615591373114,-17.127630957074167,38.20209564462557,1,S02
11860,0.08728260393462323,-0.014813557301290865,10.135808681106232,-4.25949106282088,-1.9121240871358856,0.8342251001597236,29.659221086308165,-16.409203840769845,38.79899614657564,1,S02
11880,0.10247960847194236,-0.03688703216017972,10.141990321274688,-4.67892794748228,-1.4591391670810419,1.8393589137056887,29.80418669852079,-17.508775005209813,37.87593251821421,1,S02
11900,0.09851131704393196,-0.04174897698154594,10.147249776478617,-3.8839192609171187,-0.9980167530079577,0.4469440773647774,29.948406708273204,-16.6291019517583,37.81006940636646,1,S02
11920,0.10028177279977402,-0.045321288586561106,10.147516732552956,-4.200415212637142,-1.4386168476162535,0.8620038750882231,29.784668744628753,-16.965493808575726,38.38555789470832,1,S02
11940,0.11232127226818196,-0.04299649241156651,10.155807183314407,-4.4602854397787,-1.1179573653396653,0.6191286524198196,29.035859831131802,-16.819541556967383,37.68639236364855,1,S02
11960,0.10833395711641179,-0.055213262609760214,10.141452906771617,-4.518130774876864,-0.605930209860841,1.1580077624853828,29.288596141151125,-16.597466503459522,37.275033910792544,1,S02
11980,0.10655674184082763,-0.05870404305303681,10.149961090007599,-3.928895429840306,-1.379618527331055,0.7296196640985941,29.44340361179593,-16.626142601263055,37.91282112798556,1,S02
12000,0.10912534613863253,-0.05240397541696884,10.14403113023426,-4.101620063664357,-1.2693628489742736,1.5448622596025339,29.239479084239047,-16.603228511000662,38.09459684193551,1,S02
12020,0.14139412166364212,-0.06451821191935433,10.12259683217766,-4.402138794704455,-0.8498177724028437,0.555253993090788,29.755514693397288,-16.198552100725962,38.57839532940704,1,S02
12040,0.1403839188755892,-0.056536003899461035,10.141545804953136,-3.7681701679043083,-0.7153637960139811,0.8772916434269429,30.232479976081713,-16.359011780985185,38.81722060783279,1,S02
12060,0.16392220432864701,-0.07430266456090441,10.135939826686252,-4.597072198923424,-1.4220696481177093,1.323390224969355,29.824563202705804,-16.902682780087595,38.160542017897406,1,S02
12080,0.16506452325281057,-0.08435557167468122,10.135322405958124,-3.2403663879102806,-0.4784307684493909,0.19464982805182962,29.74461131747265,-16.503860055841038,38.507512250523234,1,S02
12100,0.1442093322706497,-0.08844165418738965,10.139366250475588,-3.5634190339125107,-1.2929539744916851,0.9476108143685439,29.1732891112572,-16.96440138918971,37.60202208886698,1,S02
12120,0.16013649687120984,-0.08845115643189744,10.150494207066485,-4.630857927004189,-1.3686859914799796,1.6451071865595464,29.805856634207668,-17.004324181535182,38.09853197832791,1,S02
12140,0.18005305517800457,-0.09141434580774763,10.156765732647374,-3.9519962025505593,-1.0653469033883176,2.141030284125541,29.79312453000566,-16.30583597698962,38.02985094714734,1,S02
12160,0.16160036249932247,-0.08281810558232709,10.151525780358533,-4.628979512196805,-2.227558605408695,1.069109972421354,30.102625091070916,-16.670955964858127,37.7469309006483,1,S02
12180,0.1661547481024595,-0.09354805486549861,10.142691408268048,-4.253624905008846,-1.0487589747925388,0.9199998330557542,30.01624992997295,-16.19577167043769,38.71087419351835,1,S02
12200,0.1918459505300604,-0.10418368129045323,10.1415414668091,-4.616070005696447,-0.32514604603942887,0.665425794593969,29.56999565958974,-15.594002613628497,38.49840314429949,1,S02
12220,0.16925572909487396,-0.12248336973861096,10.150473334061488,-3.1786376695061147,-0.9158965249645872,1.6163125429145153,29.50602756389093,-16.405212904443644,37.914015304829555,1,S02
12240,0.16369312363093735,-0.1015310923797438,10.150359922752232,-3.045344904103777,-1.194858506678447,1.0549813861510366,29.618098867908845,-16.373823618573866,38.7110959598288,1,S02
12260,0.17149487770256533,-0.11237616243534931,10.138219567761789,-4.024231894800067,-1.3313141957404506,0.10461919128675867,30.186951970732792,-16.260091239133295,38.00470798314764,1,S02
12280,0.1679646383470485,-0.12219041805417236,10.149976457183088,-3.746149043687732,0.11261857896970784,0.31748856338042536,29.691188410149064,-16.51867686684554,37.78695016328026,1,S02
12300,0.1765080888664054,-0.11838982656254149,10.133834007584916,-3.937268722373841,-0.8973056629193599,0.6642224596937178,30.01680515935255,-16.49951869338298,38.72648409001972,1,S02
12320,0.18977994675529708,-0.13547014973561033,10.154734337346719,-4.784231839508258,-0.40438880417605194,1.256295492280372,29.681380004248997,-17.325142896347334,37.930078971991215,1,S02
12340,0.18380833392305296,-0.11151373727816663,10.13986506465237,-3.5854382244826706,-1.1691393480934584,0.9152667226861411,29.824099170006626,-17.61581512726505,38.14025035409046,1,S02
12360,0.1868778706714795,-0.10789646251099495,10.148027126184019,-3.725848387612075,-1.2022257169932693,0.6000575001228977,29.255033751445843,-16.20607893676194,38.69658272779931,1,S02
12380,0.18182298433503083,-0.12140461645679768,10.148900102049978,-4.201312811437947,-0.7534519226512836,1.503030697951241,30.0164927869999,-17.30952942262919,38.40301870314999,1,S02
12400,0.19030192700804133,-0.11940765207912729,10.145046829921448,-4.496605592905126,-0.8810025236244036,0.7437561012958342,30.156074129773355,-17.0451339171721,38.55206525601037,1,S02
12420,0.19090308531079403,-0.11204855343229837,10.153129148993274,-4.132987294167992,-1.1231705141819779,1.1970645161363738,29.67125275865316,-16.7072389046153,38.234830604163896,1,S02
12440,0.17244930248638476,-0.11942997648701573,10.146152237173878,-4.688462271334554,-0.36533776387399763,0.3360297636453748,29.706879271425883,-16.422479532336737,37.948518563340876,1,S02
12460,0.1818979335561644,-0.11094880835143986,10.144070488569712,-3.5274795121058933,-0.025562596443780672,-0.13022358757058494,28.907941672280614,-16.520335596848295,38.46102608620432,1,S02
12480,0.16467966476521984,-0.11309427404780169,10.144743549160383,-4.700783286704256,-0.40421260179409646,0.9096175824733367,29.86745282352378,-16.817103012903353,38.05875026283077,1,S02
12500,0.16957081645601974,-0.12921932706001618,10.130580065954353,-4.710160449844773,-0.7658400678138158,0.408883951263895,29.340060157018502,-16.742847756943284,38.84959033158344,1,S02
12520,0.16481694811103936,-0.1177643484740625,10.138219727832393,-3.7987867837303755,-0.4422265455392327,0.7288781279251854,28.880825135064466,-16.749429030846645,38.396893009503444,1,S02
12540,0.1590603135592553,-0.10001493836548528,10.13329329358689,-4.875965330444308,-1.2969290671510025,0.8560050757834146,30.07265637268687,-16.38974507149495,37.76686058102729,1,S02
12560,0.16075895516109565,-0.1003002779211202,10.141945014745353,-3.546788684992201,-0.8986578185392577,0.911446301331799,30.287438051060967,-16.701829556160003,38.40513608942799,1,S02
12580,0.15297135771698744,-0.11004986368221197,10.153713199051928,-3.8428874011100023,-1.0609025469535411,0.4030686733985922,29.63231189870166,-16.43615144150563,38.20434502971749,1,S02
12600,0.15847057390018277,-0.09361788790999423,10.132722997449996,-3.7793661654401998,-1.155307670088031,0.6474052252565756,29.55542776304687,-16.43399602495534,37.69767517318251,1,S02
12620,0.16604883845740473,-0.10140399946165231,10.15282560893137,-3.84882532390671,-1.6641058125633639,1.0555224924970685,29.6502205014768,-16.500880536934105,38.05927201387054,1,S02
12640,0.13371667113172558,-0.08447882102824744,10.13314887355768,-3.419419693023906,-1.319010823105898,1.7380071769216658,29.801002044152998,-16.627306555256098,38.87762038551189,1,S02
12660,0.15188180277534946,-0.10029528792514746,10.147576902879047,-3.824172144656182,-1.583138986320393,0.30870392364194305,29.147266022970374,-15.998487329411727,38.63887037004466,1,S02
12680,0.14437023882031447,-0.08889919718428523,10.144827827714948,-3.3283350494313555,-0.691351939664703,1.4700127383713095,29.415746210545624,-16.898978387886324,38.67955087327316,1,S02
12700,0.1539786490266709,-0.09488402743577824,10.139076412625473,-3.606000017881443,-0.37260328061760517,0.62718804062738,29.505706643027487,-15.583805865484683,37.883696960180465,1,S02
12720,0.15621005339567862,-0.07331222616698599,10.143348987144773,-4.439322432825742,-2.05767922990399,1.307882849225448,29.909352199787353,-16.314596865313092,38.086915736234324,1,S02
12740,0.1293644883080401,-0.08936441381727936,10.134277875321937,-4.252226817544416,-0.7631045203488197,1.4447918554916264,30.151566241287014,-17.30443529883913,38.198554124200236,1,S02
12760,0.1441074612785324,-0.06091477659392125,10.15101132465205,-3.834785213048843,-0.8996279593176056,1.2843304183086333,29.95970678677389,-16.504542190158297,38.15661240407253,1,S02
12780,0.12210946020338856,-0.06818510932352877,10.146043294575769,-3.899411745953262,-1.1976974370455966,1.3570432687860494,29.230472503289466,-16.832309234780674,37.811941324194734,1,S02
12800,0.12240475127606418,-0.0701586593473414,10.159827567556526,-4.065608983991578,-1.3811007382443772,0.055738004248529927,29.050808220974645,-16.092519485419857,38.25941970642815,1,S02
12820,0.10834660831518811,-0.060240889889984425,10.156316245066952,-4.205762068424152,-1.8644745156548526,0.1849600159900618,29.5149787435202,-16.269324221689285,38.07320875754985,1,S02
12840,0.11417545083017286,-0.06512551217340838,10.154991536129453,-3.754571433795348,-1.7760638373391135,0.5375739660590311,30.148962475167245,-16.92373238381119,37.60274715308507,1,S02
12860,0.10700109454729456,-0.0640299280548976,10.15279076720124,-4.20475606451129,-0.09172560789776796,0.016897168329653267,29.14186740289098,-16.080404501826767,38.174701967218525,1,S02
12880,0.09489472318093177,-0.045342152098523936,10.157097875083206,-4.07360036153937,-1.0972902498509194,0.14980445458806235,28.647318573198586,-16.10841019276298,38.375673894746704,1,S02
