timestamp,ax,ay,az,gx,gy,gz,mx,my,mz,label,subject_id
0,0.1,-0.07,10.145759109311742,-4.2,-1.2,0.6,29.925058235745716,-15.93915129323929,39.11663734928778,6,S02
20,0.1,-0.07,10.145759109311742,-4.2,-1.2,0.6,28.64626732878135,-16.81586455782364,37.87932653018137,6,S02
40,0.1,-0.07,10.145759109311742,-4.2,-1.2,0.6,30.532630163897377,-17.206909839671404,38.92105527443681,6,S02
60,0.1,-0.07,10.145759109311742,-4.2,-1.2,0.6,30.47661010908673,-16.627014527856094,38.97841063430928,6,S02
80,0.1,-0.07,10.145759109311742,-4.2,-1.2,0.6,29.866324056408082,-16.458889156557525,38.426617888602124,6,S02
100,0.1,-0.07,10.145759109311742,-4.2,-1.2,0.6,29.507834838455903,-16.53397650443253,37.827594552706806,6,S02
120,0.1,-0.07,10.145759109311742,-4.2,-1.2,0.6,28.39122736163718,-16.9739250450395,38.11161891971053,6,S02
140,0.1,-0.07,10.145759109311742,-4.2,-1.2,0.6,29.23692730255886,-17.155843316583628,38.96190032644974,6,S02
160,0.1,-0.07,10.145759109311742,-4.2,-1.2,0.6,29.689715561950667,-16.78758439481399,38.14572032939561,6,S02
180,0.1,-0.07,10.145759109311742,-4.2,-1.2,0.6,30.138076041276754,-16.561813164036057,39.20405520009769,6,S02
200,0.1,-0.07,10.145759109311742,-4.2,-1.2,0.6,29.882382640248938,-17.217813557527865,39.07322796343964,6,S02
220,0.1,-0.07,10.145759109311742,-4.2,-1.2,0.6,30.766338889355293,-17.780062338663527,37.27346686431458,6,S02
240,0.1,-0.07,10.145759109311742,-4.2,-1.2,0.6,29.353135289005316,-15.648040622847464,38.633656819655386,6,S02
260,0.1,-0.07,10.145759109311742,-4.2,-1.2,0.6,30.310683495644685,-16.685605561553096,38.15547403866125,6,S02
280,0.1,-0.07,10.145759109311742,-4.2,-1.2,0.6,29.506350872756386,-16.006991606096747,38.395012691386185,6,S02
300,0.1,-0.07,10.145759109311742,-4.2,-1.2,0.6,29.75195753326866,-16.52811605538743,38.15578619240021,6,S02
320,0.1,-0.07,10.145759109311742,-4.2,-1.2,0.6,29.864898528288798,-15.819722055092537,37.76773896499412,6,S02
340,0.1,-0.07,10.145759109311742,-4.2,-1.2,0.6,30.69873046800358,-15.116415653523026,38.52021264827685,6,S02
360,0.1,-0.07,10.145759109311742,-4.2,-1.2,0.6,30.027629119846214,-16.81511679158084,38.24523141897502,6,S02
380,0.1,-0.07,10.145759109311742,-4.2,-1.2,0.6,29.607718938517284,-16.438615653965464,38.87201007266302,6,S02
400,0.1,-0.07,10.145759109311742,-4.2,-1.2,0.6,29.59667093641761,-15.212825086992101,38.05491123024105,6,S02
420,0.1,-0.07,10.145759109311742,-4.2,-1.2,0.6,29.584621809878065,-16.897260002838618,38.78220879760901,6,S02
440,0.1,-0.07,10.145759109311742,-4.2,-1.2,0.6,29.16721086682455,-16.857975750896948,38.73366148419559,6,S02
460,0.1,-0.07,10.145759109311742,-4.2,-1.2,0.6,30.066701703225974,-17.037940613316202,38.03392648590958,6,S02
480,0.1,-0.07,10.145759109311742,-4.2,-1.2,0.6,29.744738287615995,-16.108392420506522,38.44517880161221,6,S02
500,0.1,-0.07,10.145759109311742,-4.2,-1.2,0.6,29.56479165947569,-17.275877359855535,38.239151957985726,6,S02
520,0.1,-0.07,10.145759109311742,-4.2,-1.2,0.6,29.91474960901069,-16.156539966595087,38.84368218937191,6,S02
540,0.1,-0.07,10.145759109311742,-4.2,-1.2,0.6,29.608720085008258,-16.764146871994196,38.428558865263774,6,S02
560,0.1,-0.07,10.145759109311742,-4.2,-1.2,0.6,30.11904213954526,-17.080531025948183,38.574363420762566,6,S02
580,0.1,-0.07,10.145759109311742,-4.2,-1.2,0.6,29.07289400932285,-15.7751005871016,38.30006299550731,6,S02
600,0.1,-0.07,10.145759109311742,-4.2,-1.2,0.6,30.047798581393426,-16.212684445295515,38.48858514331529,6,S02
620,0.1,-0.07,10.145759109311742,-4.2,-1.2,0.6,30.405719256597273,-16.178341161437068,37.9934431145741,6,S02
640,0.1,-0.07,10.145759109311742,-4.2,-1.2,0.6,29.102386001069117,-17.304532790151324,37.87182896291725,6,S02
660,0.1,-0.07,10.145759109311742,-4.2,-1.2,0.6,29.734471319048254,-16.50709321383544,38.076771772081464,6,S02
680,0.1,-0.07,10.145759109311742,-4.2,-1.2,0.6,29.676640449539036,-16.444485521199276,38.032258947733354,6,S02
700,0.1,-0.07,10.145759109311742,-4.2,-1.2,0.6,29.02144438868352,-15.710606918370706,38.97238644804191,6,S02
720,0.1,-0.07,10.145759109311742,-4.2,-1.2,0.6,30.107431151881514,-16.51210124933918,38.40542785653429,6,S02
740,0.1,-0.07,10.145759109311742,-4.2,-1.2,0.6,29.708813723720983,-16.87424571619149,38.38902027430672,6,S02
760,0.1,-0.07,10.145759109311742,-4.2,-1.2,0.6,29.685817241137407,-16.170711939716867,37.89651058953275,6,S02
780,0.1,-0.07,10.145759109311742,-4.2,-1.2,0.6,29.748366902077898,-17.120787347678316,38.27902289605813,6,S02
800,0.1,-0.07,10.145759109311742,-4.2,-1.2,0.6,30.434290629332025,-17.475309576035514,38.86134748897349,6,S02
820,0.1,-0.07,10.145759109311742,-4.2,-1.2,0.6,29.825805976800268,-16.814721461446222,37.144608792860176,6,S02
840,0.1,-0.07,10.145759109311742,-4.2,-1.2,0.6,29.918128435199385,-16.87570450671499,37.94154675568444,6,S02
860,0.1,-0.07,10.145759109311742,-4.2,-1.2,0.6,29.418928366132572,-16.675607242160012,38.25186579471186,6,S02
880,0.1,-0.07,10.145759109311742,-4.2,-1.2,0.6,29.747223269196567,-16.386957097480224,38.308675280300314,6,S02
900,0.1,-0.07,10.145759109311742,-4.2,-1.2,0.6,29.95845203152798,-17.504308022182403,37.869118408542576,6,S02
920,0.1,-0.07,10.145759109311742,-4.2,-1.2,0.6,30.079256930741003,-15.99877351335659,39.33110413129987,6,S02
940,0.1,-0.07,10.145759109311742,-4.2,-1.2,0.6,30.104370604537436,-17.27768182939485,37.88893782648716,6,S02
960,0.1,-0.07,10.145759109311742,-4.2,-1.2,0.6,30.46931218818645,-16.0329129983299,37.49029366134835,6,S02
980,0.1,-0.07,10.145759109311742,-4.2,-1.2,0.6,30.12468465467614,-17.039733019735948,38.00929012791139,6,S02
1000,0.1,-0.07,10.145759109311742,-4.2,-1.2,0.6,29.95729853760196,-17.130715359177614,38.00006464439788,6,S02
1020,0.1,-0.07,10.145759109311742,-4.2,-1.2,0.6,30.863513720889095,-17.35278475414823,38.35055784313605,6,S02
1040,0.1,-0.07,10.145759109311742,-4.2,-1.2,0.6,29.428701909387595,-16.27380584180633,37.76197026565004,6,S02
1060,0.1,-0.07,10.145759109311742,-4.2,-1.2,0.6,28.766433685774818,-17.230181445083538,37.521361703859036,6,S02
1080,0.1,-0.07,10.145759109311742,-4.2,-1.2,0.6,30.06325961558278,-15.733554127337841,38.683555148929955,6,S02
1100,0.1,-0.07,10.145759109311742,-4.2,-1.2,0.6,29.49159228977014,-15.754351033148748,38.85353567497466,6,S02
1120,0.1,-0.07,10.145759109311742,-4.2,-1.2,0.6,29.5131674347163,-16.432304918732676,38.97241316864591,6,S02
1140,0.1,-0.07,10.145759109311742,-4.2,-1.2,0.6,30.138053105979193,-15.835531630300439,38.48124121126953,6,S02
1160,0.1,-0.07,10.145759109311742,-4.2,-1.2,0.6,30.050866675901336,-16.929046432666446,38.92185657225516,6,S02
1180,0.1,-0.07,10.145759109311742,-4.2,-1.2,0.6,29.868029722451837,-16.858022545788778,38.81600064516741,6,S02
1200,0.1,-0.07,10.145759109311742,-4.2,-1.2,0.6,29.755343609244676,-16.98087265163643,38.33637953619039,6,S02
1220,0.1,-0.07,10.145759109311742,-4.2,-1.2,0.6,29.022791911994627,-16.882235273802884,38.39377376996702,6,S02
1240,0.1,-0.07,10.145759109311742,-4.2,-1.2,0.6,29.856157374947145,-16.35934158889556,38.06496755389452,6,S02
1260,0.1,-0.07,10.145759109311742,-4.2,-1.2,0.6,30.50149374479122,-16.063236485542348,38.95275325248298,6,S02
1280,0.1,-0.07,10.145759109311742,-4.2,-1.2,0.6,29.078658644423765,-17.109101350030958,38.62331714091872,6,S02
1300,0.1,-0.07,10.145759109311742,-4.2,-1.2,0.6,29.720864819144794,-16.978643614893976,38.2921406518657,6,S02
1320,0.1,-0.07,10.145759109311742,-4.2,-1.2,0.6,29.752898218958542,-16.432548991074157,38.38425239695456,6,S02
1340,0.1,-0.07,10.145759109311742,-4.2,-1.2,0.6,30.397024129816185,-16.549028976197892,38.5655321708418,6,S02
1360,0.1,-0.07,10.145759109311742,-4.2,-1.2,0.6,29.722815681846953,-17.37318234692495,38.18137537886187,6,S02
1380,0.1,-0.07,10.145759109311742,-4.2,-1.2,0.6,30.00180809235131,-17.08134568166306,38.49225078774683,6,S02
1400,0.1,-0.07,10.145759109311742,-4.2,-1.2,0.6,29.948708148751514,-15.972924905732409,38.29239437979114,6,S02
1420,0.1,-0.07,10.145759109311742,-4.2,-1.2,0.6,30.118078092634736,-16.406818676569767,38.35698594624026,6,S02
1440,0.1,-0.07,10.145759109311742,-4.2,-1.2,0.6,29.799747846738857,-16.130554263166133,38.17120029495369,6,S02
1460,0.1,-0.07,10.145759109311742,-4.2,-1.2,0.6,30.18647984398884,-17.140647647482794,38.68639680480816,6,S02
1480,0.1,-0.07,10.145759109311742,-4.2,-1.2,0.6,30.271724644998486,-15.788109700838632,38.782669233436536,6,S02
1500,0.1,-0.07,10.145759109311742,-4.2,-1.2,0.6,29.2432697767659,-17.439821637706217,38.835186227944796,6,S02
1520,0.1,-0.07,10.145759109311742,-4.2,-1.2,0.6,30.220988014236134,-16.346868659748928,38.68854330039348,6,S02
1540,0.1,-0.07,10.145759109311742,-4.2,-1.2,0.6,29.738333823003043,-16.28694091491058,38.61504027030698,6,S02
1560,0.1,-0.07,10.145759109311742,-4.2,-1.2,0.6,30.17110147552447,-16.652726610003263,38.19546302530597,6,S02
1580,0.1,-0.07,10.145759109311742,-4.2,-1.2,0.6,29.88781182200941,-17.8175496224924,38.59056370960461,6,S02
1600,0.1,-0.07,10.145759109311742,-4.2,-1.2,0.6,30.524874488419336,-17.01685488956013,38.22437200276376,6,S02
1620,0.1,-0.07,10.145759109311742,-4.2,-1.2,0.6,28.382057669698252,-17.450835600696635,38.54958356400468,6,S02
1640,0.1,-0.07,10.145759109311742,-4.2,-1.2,0.6,29.6021035117123,-15.549590652983618,38.838205654930206,6,S02
1660,0.1,-0.07,10.145759109311742,-4.2,-1.2,0.6,29.390441218577855,-15.666873833073131,38.62036687728184,6,S02
1680,0.1,-0.07,10.145759109311742,-4.2,-1.2,0.6,29.723015214125066,-15.529141236626899,39.143215968170345,6,S02
1700,0.1,-0.07,10.145759109311742,-4.2,-1.2,0.6,29.084203635258913,-16.740005547608696,38.382734100162985,6,S02
1720,0.1,-0.07,10.145759109311742,-4.2,-1.2,0.6,29.45088558555483,-17.08321935541408,38.22051796940468,6,S02
1740,0.1,-0.07,10.145759109311742,-4.2,-1.2,0.6,29.741499898867236,-16.35469675919117,38.12573725825483,6,S02
1760,0.1,-0.07,10.145759109311742,-4.2,-1.2,0.6,29.945264419059555,-16.643380520704582,38.51961432278522,6,S02
1780,0.1,-0.07,10.145759109311742,-4.2,-1.2,0.6,29.867551168852728,-17.000635657092893,38.399280550344976,6,S02
1800,0.1,-0.07,10.145759109311742,-4.2,-1.2,0.6,29.359867662939845,-18.10735114382097,37.7687130783831,6,S02
1820,0.1,-0.07,10.145759109311742,-4.2,-1.2,0.6,29.586303864571736,-17.500140875524906,37.90176776069746,6,S02
1840,0.1,-0.07,10.145759109311742,-4.2,-1.2,0.6,29.72765316712276,-16.650883631190556,38.59917410292978,6,S02
1860,0.1,-0.07,10.145759109311742,-4.2,-1.2,0.6,30.311684500024924,-16.389455373164154,38.38238943667644,6,S02
1880,0.1,-0.07,10.145759109311742,-4.2,-1.2,0.6,30.153587845909495,-16.628365158476107,38.92388040738941,6,S02
1900,0.1,-0.07,10.145759109311742,-4.2,-1.2,0.6,29.710671068517044,-16.16095613835635,37.67922042181092,6,S02
1920,0.1,-0.07,10.145759109311742,-4.2,-1.2,0.6,30.437536537835452,-16.899568621711765,38.63425451364482,6,S02
1940,0.1,-0.07,10.145759109311742,-4.2,-1.2,0.6,30.09783662208863,-17.32396665018006,38.208004788577384,6,S02
1960,0.1,-0.07,10.145759109311742,-4.2,-1.2,0.6,29.556744404252903,-16.261304123229934,38.42298542986076,6,S02
1980,0.1,-0.07,10.145759109311742,-4.2,-1.2,0.6,29.058155826974644,-16.160121337557488,38.5788259797622,6,S02
2000,0.1,-0.07,10.145759109311742,-4.2,-1.2,0.6,29.89137838841828,-17.063880953214465,38.12169908738929,6,S02
2020,0.1,-0.07,10.145759109311742,-4.2,-1.2,0.6,29.83145738910445,-17.10438372191007,38.36563470383297,6,S02
2040,0.1,-0.07,10.145759109311742,-4.2,-1.2,0.6,30.128341100812463,-16.518672316216325,38.556232932110625,6,S02
2060,0.1,-0.07,10.145759109311742,-4.2,-1.2,0.6,29.795381341620015,-16.24073640351483,38.639661920640705,6,S02
2080,0.1,-0.07,10.145759109311742,-4.2,-1.2,0.6,29.839919545445014,-16.823453551384745,39.11673863905135,6,S02
2100,0.1,-0.07,10.145759109311742,-4.2,-1.2,0.6,30.224977353167944,-15.924898836806669,38.833224636645724,6,S02
2120,0.1,-0.07,10.145759109311742,-4.2,-1.2,0.6,29.620980968042918,-15.230386026873093,38.138882542733796,6,S02
2140,0.1,-0.07,10.145759109311742,-4.2,-1.2,0.6,30.543756397870574,-16.271721552865323,38.2123762110927,6,S02
2160,0.1,-0.07,10.145759109311742,-4.2,-1.2,0.6,29.556909193602195,-16.127833811109234,37.59864489576834,6,S02
2180,0.1,-0.07,10.145759109311742,-4.2,-1.2,0.6,29.552917979523375,-16.05913490345435,38.17725584254429,6,S02
2200,0.1,-0.07,10.145759109311742,-4.2,-1.2,0.6,29.64089209524659,-17.00117200662897,38.59075536243399,6,S02
2220,0.1,-0.07,10.145759109311742,-4.2,-1.2,0.6,29.90473140750882,-18.336256365428795,37.97759483118219,6,S02
2240,0.1,-0.07,10.145759109311742,-4.2,-1.2,0.6,30.60378852129167,-17.003952382269503,38.28618006672738,6,S02
2260,0.1,-0.07,10.145759109311742,-4.2,-1.2,0.6,29.709427367311097,-16.922512222308,37.95150985809983,6,S02
2280,0.1,-0.07,10.145759109311742,-4.2,-1.2,0.6,29.582439007936227,-16.936898298823987,38.010919228613986,6,S02
2300,0.1,-0.07,10.145759109311742,-4.2,-1.2,0.6,29.589936446419234,-17.149367701880543,38.811891255084355,6,S02
2320,0.1,-0.07,10.145759109311742,-4.2,-1.2,0.6,29.250334468263155,-15.740584195086752,38.48371174744807,6,S02
2340,0.1,-0.07,10.145759109311742,-4.2,-1.2,0.6,29.50886413416732,-16.806062358498338,38.58269990654108,6,S02
2360,0.1,-0.07,10.145759109311742,-4.2,-1.2,0.6,29.90755283884684,-16.84613398491268,38.171832730832236,6,S02
2380,0.1,-0.07,10.145759109311742,-4.2,-1.2,0.6,29.283159060487442,-16.36307209117102,38.54457240098055,6,S02
2400,0.1,-0.07,10.145759109311742,-4.2,-1.2,0.6,29.47676833615774,-16.8846282914596,38.42902443099675,6,S02
2420,0.1,-0.07,10.145759109311742,-4.2,-1.2,0.6,29.434000718177845,-16.884509689722698,38.617336002375346,6,S02
2440,0.1,-0.07,10.145759109311742,-4.2,-1.2,0.6,29.409470209716343,-17.106547336238382,38.154077809210946,6,S02
2460,0.1,-0.07,10.145759109311742,-4.2,-1.2,0.6,30.28920840634147,-17.449562521936947,38.99105241677152,6,S02
2480,0.1,-0.07,10.145759109311742,-4.2,-1.2,0.6,29.844885332624102,-16.268736785031702,37.96444245504387,6,S02
2500,0.1,-0.07,10.145759109311742,-4.2,-1.2,0.6,30.199099258473893,-17.226173166175556,38.53895324403728,6,S02
2520,0.1,-0.07,10.145759109311742,-4.2,-1.2,0.6,30.146330085528465,-16.794543324796074,38.234300065558855,6,S02
2540,0.1,-0.07,10.145759109311742,-4.2,-1.2,0.6,29.516331405375734,-16.228735176078757,38.495858501605376,6,S02
2560,0.1,-0.07,10.145759109311742,-4.2,-1.2,0.6,29.951666062386813,-16.505615762757444,38.41243158195125,6,S02
2580,0.1,-0.07,10.145759109311742,-4.2,-1.2,0.6,30.071742189347187,-17.71634911534339,38.044295028595336,6,S02
2600,0.1,-0.07,10.145759109311742,-4.2,-1.2,0.6,29.304560205042133,-17.1268590101348,38.82224397192181,6,S02
2620,0.1,-0.07,10.145759109311742,-4.2,-1.2,0.6,29.380747306496843,-16.935992397641108,38.17221582821249,6,S02
2640,0.1,-0.07,10.145759109311742,-4.2,-1.2,0.6,29.81540245555347,-17.038938044746317,38.82967266072398,6,S02
2660,0.1,-0.07,10.145759109311742,-4.2,-1.2,0.6,30.19628502761602,-16.54176870260359,37.968067438607086,6,S02
2680,0.1,-0.07,10.145759109311742,-4.2,-1.2,0.6,29.3477418874672,-16.82350084166206,37.81798942911286,6,S02
2700,0.1,-0.07,10.145759109311742,-4.2,-1.2,0.6,30.159301127405666,-16.78830859229783,38.81823644253292,6,S02
2720,0.1,-0.07,10.145759109311742,-4.2,-1.2,0.6,29.774890548802134,-17.01255244085715,37.95719667887748,6,S02
2740,0.1,-0.07,10.145759109311742,-4.2,-1.2,0.6,30.490302596922184,-16.283075295155996,38.606652474465236,6,S02
2760,0.1,-0.07,10.145759109311742,-4.2,-1.2,0.6,29.61838003214089,-16.46530218651548,38.011018236031404,6,S02
2780,0.1,-0.07,10.145759109311742,-4.2,-1.2,0.6,29.926785097030635,-15.638655389371252,37.84430619282346,6,S02
2800,0.1,-0.07,10.145759109311742,-4.2,-1.2,0.6,30.569162836792636,-16.809320141447998,38.03368393879359,6,S02
2820,0.1,-0.07,10.145759109311742,-4.2,-1.2,0.6,30.29609648631072,-16.266552980439176,37.574400116157314,6,S02
2840,0.1,-0.07,10.145759109311742,-4.2,-1.2,0.6,29.04369147390876,-16.682590945017843,38.24092068316587,6,S02
2860,0.1,-0.07,10.145759109311742,-4.2,-1.2,0.6,29.597500092633226,-16.95670165931047,39.10260940049399,6,S02
2880,0.1,-0.07,10.145759109311742,-4.2,-1.2,0.6,28.993713193439532,-16.11470133827723,37.66016447284097,6,S02
2900,0.1,-0.07,10.145759109311742,-4.2,-1.2,0.6,29.91618088459992,-16.64735745843504,38.73462769423794,6,S02
2920,0.1,-0.07,10.145759109311742,-4.2,-1.2,0.6,29.777246615938434,-16.85939802387469,38.04233259392427,6,S02
2940,0.1,-0.07,10.145759109311742,-4.2,-1.2,0.6,30.394934101363933,-16.785315923592236,38.90733342280631,6,S02
2960,0.1,-0.07,10.145759109311742,-4.2,-1.2,0.6,29.90650989201154,-16.77198579105984,39.25417126631554,6,S02
2980,0.1,-0.07,10.145759109311742,-4.2,-1.2,0.6,29.74025665180989,-17.109120634237122,38.223278458592496,6,S02
3000,2.112072434607646,3.8982539682539685,8.62754048582996,145.8,78.8,0.6,29.76020351627858,-16.45465465645573,38.41229846721008,6,S02
3020,2.0139425040255814,3.7426565045727114,8.7159546554895,137.06468003763732,74.89835396005712,0.6,29.82977908137289,-16.93210601996871,38.09022820556675,6,S02
3040,1.9205984266317093,3.5931601047088724,8.799219984741159,128.83806550757365,71.18699344287676,0.6,29.61126719998017,-17.34023564476744,38.68019941135407,6,S02
3060,1.8318067936117863,3.449525542528403,8.877636318707584,121.0905317116908,67.65663811400462,0.6,29.98032858952194,-17.598418201183055,38.75432026961193,6,S02
3080,1.7473455796337662,3.3115229720881403,8.95148604089086,113.79417915998302,64.29846024623855,0.6,29.94207446160068,-16.100258100889,38.320812703691196,6,S02
3100,1.6670035876688227,3.1789315598332615,9.02103509005812,106.92273310225768,61.10406264571239,0.6,29.15188798457375,-15.746243734722707,37.977349201658015,6,S02
3120,1.5905799208887685,3.051539131216482,9.086533917908353,100.45144891065465,58.065457654537425,0.6,30.26404009079714,-16.606196221775065,38.1889742266618,6,S02
3140,1.517883480319343,2.929141831173514,9.148218390969044,94.3570229722585,55.17504717749707,0.6,29.64180316128651,-16.097007086801938,38.78014475798638,6,S02
3160,1.448732486993238,2.811543797911472,9.206310639970434,88.61750877092112,52.42560368285115,0.6,29.46882249912633,-16.8889056325279,38.72272105136139,6,S02
3180,1.3829540274079948,2.6985568494882184,9.261019859756088,83.21223785609844,49.81025212974186,0.6,29.82502694634999,-16.587968149903716,38.843463394575124,6,S02
3200,1.32038362115218,2.5900001826811088,9.312543062610285,78.12174541410397,47.32245277701067,0.6,29.45041434461454,-17.229981094477644,38.47649590832307,6,S02
3220,1.2608648096186854,2.48570008366326,9.361065787715033,73.32770017375488,44.95598483043893,0.6,29.836980422773536,-16.54641630010966,38.17217340512807,6,S02
3240,1.2042487647767133,2.3854896500243687,9.406762769291541,68.81283839399575,42.70493088752212,0.6,30.131160050140256,-16.52423969140468,37.74104049764625,6,S02
3260,1.1503939170241773,2.2892085236912476,9.449798565832152,64.56090169578353,40.56366214088128,0.6,29.853130113683903,-16.177286091111057,38.54674899254225,6,S02
3280,1.0991656011899589,2.196702634320694,9.490328152688644,60.55657851436196,38.52682430331276,0.6,30.252607650572532,-16.875546983668563,38.31864728127125,6,S02
3300,1.0504357198008345,2.1078239527540736,9.528497480150913,56.78544896108986,36.589324219281174,0.6,29.34904655878484,-16.3006372931098,38.28749001621332,6,S02
3320,1.0040824227710696,2.0224302541390817,9.56444399902564,53.23393289626681,34.74631712937772,0.6,30.43320574254241,-16.93395722744301,37.56040630687369,6,S02
3340,0.9599898027137358,1.9403848903396408,9.598297155607675,49.889241025961745,32.993194555898135,0.6,29.86261782090162,-16.373303568941438,38.146133145723475,6,S02
3360,0.9180476051118694,1.8615565712697288,9.63017885782651,46.73932884674086,31.32557277924793,0.6,29.97999532274789,-16.45732276203252,38.576259256982354,6,S02
3380,0.878150952624751,1.785819154801227,9.660203914246502,43.77285327244559,29.7392818763601,0.6,29.106940492654868,-17.00700212974771,38.67808653573599,6,S02
3400,0.8402000828399242,1.7130514449096093,9.688480447501718,40.979131786830315,28.230355293715387,0.6,29.627853094573577,-16.12614716987454,39.27274785137914,6,S02
3420,0.8041000988152018,1.6431369977344432,9.715110283654194,38.348103974965554,26.795019928892426,0.6,30.20989858336759,-16.775811936779032,37.91011438962446,6,S02
3440,0.7697607317868803,1.5759639352443704,9.740189318877759,35.87029529487755,25.429686695846364,0.6,29.62703692721926,-15.846136507046472,38.480409119295004,6,S02
3460,0.7370961154508114,1.5114247662083893,9.763807864787818,33.53678295896347,24.130941550324263,0.6,29.735954817095816,-16.846877904885712,39.18053115328061,6,S02
3480,0.7060245712519158,1.4494162141869527,9.786050973660748,31.339163802318264,22.895536952976173,0.6,29.554732025313516,-16.650707200749487,38.39025974689715,6,S02
3500,0.6764684041452517,1.3898390522676283,9.806998744713923,29.269524022264473,21.72038374881521,0.6,29.65729326132665,-16.59718122797238,39.450537467528726,6,S02
3520,0.6483537083179327,1.3325979442808735,9.826726612549447,27.32041068011471,20.602543442721007,0.6,29.414026710634914,-16.644369966708666,38.56628835799998,6,S02
3540,0.6216101823860996,1.2776012922418218,9.845305618800179,25.484804862542198,19.53922085167132,0.6,30.46309637047113,-17.949533543348853,38.088994461353266,6,S02
3560,0.5961709536048421,1.224761089773966,9.86280266795636,23.756096405911496,18.52775711532852,0.6,29.750031174918945,-16.63776384398551,39.025104816440674,6,S02
3580,0.5719724106515044,1.1739927812801798,9.879280768294032,22.12806009254953,17.565623047503813,0.6,30.309128704971442,-17.12125770927423,38.25056596379558,6,S02
3600,0.5489540445642451,1.1252151266357227,9.894799258772895,20.59483323323798,16.650412811874386,0.6,30.492147631689004,-15.74883412393038,38.59984367952153,6,S02
3620,0.5270582974381148,1.0783500711867087,9.909414022720652,19.150894555199596,15.779837906139445,0.6,30.571366824515962,-17.132256781444568,38.25829946731567,6,S02
3640,0.5062304185003127,1.0333226208460085,9.923177689073356,17.791044319552523,14.951721439572431,0.6,29.1492862914758,-16.928966712381964,38.03598665884249,6,S02
3660,0.48641832720473666,0.9900607220867077,9.936139821896418,16.510385596633924,14.163992689660331,0.6,30.297243632277727,-15.94075166516118,38.40787908240827,6,S02
3680,0.4675724830034903,0.9484951466410947,9.948347098868787,15.304306631763886,13.414681924218774,0.6,29.52560987190758,-17.606102692252847,38.190073591069996,6,S02
3700,0.4496457614697086,0.9085593807206607,9.959843479373003,14.168464237947287,12.701915476035612,0.6,29.339231195492125,-15.878212347031788,38.713632761948865,6,S02
3720,0.43259333646194476,0.8701895185798483,9.970670362796463,13.09876815570938,12.023911057726924,0.6,29.976608914802924,-16.89719080697843,39.2409524436717,6,S02
3740,0.41637256803546807,0.8333241602532251,9.980866737613932,12.091366323743696,11.37897330509021,0.6,30.32133005359969,-16.52451602721902,38.33668227000931,6,S02
3760,0.40094289582019127,0.7979043133024395,9.990469321788153,11.142631007330621,10.765489537810806,0.6,30.10035791454203,-16.50159185957125,37.96073958994812,6,S02
3780,0.38626573759861893,0.763873298415733,9.99951269499419,10.249145734573954,10.181925726921088,0.6,29.968743433514636,-15.907333098259219,39.16578129766588,6,S02
3800,0.34430357157446406,6.609759211632393,7.256327869850402,-4.2,-1.2,0.6,29.589486604664888,-15.90675528449731,38.44001259255487,6,S02
3820,0.10412029290350495,6.85890688085553,7.6017626404586265,-4.2,-1.2,0.6,29.815414768068518,-16.703822731648657,38.89336951858317,6,S02
3840,-0.1486469097079321,7.046430052701738,7.007337059432905,-4.2,-1.2,0.6,30.100443704232493,-16.670235450887994,38.17037293216243,6,S02
3860,-0.035653170894242275,6.569846629098177,7.177008694704819,-4.2,-1.2,0.6,29.799859865117796,-16.674340371935365,38.798178161074254,6,S02
3880,0.302920398422715,6.813417636873667,6.885134980977109,-4.2,-1.2,0.6,28.80089488304613,-17.062701967696185,37.52299059420643,6,S02
3900,0.25728513850891865,6.758335607329562,7.242527868265555,-4.2,-1.2,0.6,29.763348956194832,-16.5874419795523,38.5053096009735,6,S02
3920,-0.08905787489251588,6.6874379443975975,6.89163195990261,-4.2,-1.2,0.6,28.997458679848716,-15.678789675303033,38.904978436216126,6,S02
3940,0.046115322717049975,6.3483943667614655,6.894619961393809,-4.2,-1.2,0.6,29.701500185576126,-16.390068551186975,37.36782550268083,6,S02
3960,-0.08902350118425356,6.714485189589599,6.740585848116645,-4.2,-1.2,0.6,29.56198437584961,-17.448158247962695,38.76261376828488,6,S02
3980,0.029937318724554754,6.65108685658056,7.44591345090834,-4.2,-1.2,0.6,29.6647441068789,-17.635037894696822,38.26958668943974,6,S02
4000,-0.028296864354872303,6.673893105557524,6.967483219344538,-4.2,-1.2,0.6,29.829271706014744,-16.95047058202778,37.82225660018125,6,S02
4020,0.19567623865476824,6.714405887963748,7.181477360028119,-4.2,-1.2,0.6,29.62669294807074,-16.957895781980483,38.2389814366682,6,S02
4040,0.23331676832999224,6.617198249223048,7.413804158540896,-4.2,-1.2,0.6,29.847045274330583,-16.259425404142554,38.25344224836535,6,S02
4060,0.05776438686669123,6.826083163586039,7.73272171058631,-4.2,-1.2,0.6,30.009144793619427,-18.025383850097796,37.896932586118915,6,S02
4080,0.04531922019100249,6.589499796564956,7.194035659595673,-4.2,-1.2,0.6,30.106650927130307,-16.540667809223393,37.998367819062075,6,S02
4100,0.10625970084728331,6.969590121800559,7.282554389935412,-4.2,-1.2,0.6,29.518315586769372,-16.02635139259606,38.14987474479099,6,S02
4120,0.4138795401116565,6.596675726303449,7.021938129965175,-4.2,-1.2,0.6,29.570530305347333,-17.7521413538104,37.91341179598253,6,S02
4140,-0.05778928247708659,6.385947139952006,7.197334259075911,-4.2,-1.2,0.6,30.111075101874373,-16.786959229890485,37.907583083935876,6,S02
4160,0.042845238492446966,6.421831154156633,7.360342902501716,-4.2,-1.2,0.6,29.537207627913993,-16.350805774807775,38.045794337632586,6,S02
4180,0.569473509912873,6.61594545487246,7.213200207787956,-4.2,-1.2,0.6,29.947543188980397,-17.26897141492028,38.435315326744394,6,S02
4200,0.1950758496716175,7.072736293873458,6.884091023056328,-4.2,-1.2,0.6,29.83853811387243,-15.978566563196818,38.5277850058681,6,S02
4220,0.3152707426975267,7.005879488971408,7.109397481231143,-4.2,-1.2,0.6,29.490912298952583,-17.072985013870206,37.531009519754285,6,S02
4240,0.07194763980076617,6.780998375377546,7.148587924633811,-4.2,-1.2,0.6,29.16102201055914,-16.90206410524153,37.99022458175416,6,S02
4260,0.4358612175339518,6.780244684452004,6.905730569697251,-4.2,-1.2,0.6,29.51037852863813,-16.692767589435135,37.80612216590826,6,S02
4280,0.5022329645691325,6.512713351676484,6.885027844952719,-4.2,-1.2,0.6,29.44190937615996,-16.619032629332654,37.525482980808036,6,S02
4300,0.3369774171656378,6.772525217261524,7.215254081134475,-4.2,-1.2,0.6,30.50869157099396,-16.188433246884365,38.32699083367947,6,S02
4320,-0.03271316314024755,6.639032503072956,7.292927313895203,-4.2,-1.2,0.6,29.72260863507213,-17.43602354615459,39.321289331931084,6,S02
4340,-0.029234753318050005,6.7994456784238215,6.911602537564764,-4.2,-1.2,0.6,29.909604847112334,-16.365067577316044,38.12249816361831,6,S02
4360,0.5665991961800015,7.042466794205273,7.134333802027117,-4.2,-1.2,0.6,29.62720497762403,-16.838309773915476,37.99152641355731,6,S02
4380,0.12306491066844821,6.890451417209201,7.5027085766366906,-4.2,-1.2,0.6,29.458902181064197,-16.680686443488657,37.26620486521934,6,S02
4400,-0.04804598608134164,6.971220422050645,7.334149308414078,-4.2,-1.2,0.6,29.634131659476182,-16.52671922164438,39.774082340873385,6,S02
4420,-0.20821712681975177,6.7103947047984285,7.378438732336208,-4.2,-1.2,0.6,29.583816531843755,-17.356707515834515,38.123321660877885,6,S02
4440,0.025637463740375024,6.439738736678027,7.1418914925711805,-4.2,-1.2,0.6,30.092700984508163,-16.871552069591434,38.59713342164754,6,S02
4460,0.12512847157528642,6.776958587113011,7.3739650219777335,-4.2,-1.2,0.6,29.189336186381766,-16.435045483650516,38.922269218069694,6,S02
4480,-0.11035580068422904,6.690546856338841,7.154661766274921,-4.2,-1.2,0.6,30.470978366829858,-16.637470614569857,38.11207347852242,6,S02
4500,0.18419390926960527,6.815202998476933,6.7224651536716955,-4.2,-1.2,0.6,30.295475526634974,-17.272821915963355,38.24860757963994,6,S02
4520,0.0375317566849875,6.8637235363715146,7.308324374984125,-4.2,-1.2,0.6,29.60458086438937,-16.792462781489185,38.30389232391666,6,S02
4540,0.29944279875342333,6.848734923566456,6.992614689765178,-4.2,-1.2,0.6,29.494335394718558,-16.804456293810208,38.98264839492976,6,S02
4560,0.01931615761952825,6.592685335320484,7.277644960501988,-4.2,-1.2,0.6,29.58013569989356,-16.542803475057518,38.426913363711044,6,S02
4580,-0.1525808018912971,6.900724565376293,7.249138926236113,-4.2,-1.2,0.6,29.843330272520287,-16.244246059006407,37.982733044668684,6,S02
4600,0.38764804992650637,6.957958491283727,7.156494785375284,-4.2,-1.2,0.6,28.550047698871982,-16.702611225963935,37.847136661278185,6,S02
4620,-0.09883041406998266,6.836419578125872,7.1716885134376085,-4.2,-1.2,0.6,29.784104038544143,-16.506174591733814,38.62105978931402,6,S02
4640,-0.052481033475510114,6.736388090693684,7.3620557181474675,-4.2,-1.2,0.6,29.38700658302362,-16.158250760646887,38.070322908145116,6,S02
4660,0.10184545537685755,6.302306219743509,7.128160143246832,-4.2,-1.2,0.6,29.49669424106529,-16.46306672964132,37.100120507408,6,S02
4680,0.12415451235560886,6.916006049910575,7.218411723675124,-4.2,-1.2,0.6,28.81379214786197,-16.79427252426687,38.77767672842103,6,S02
4700,-0.05202860289582856,7.045739786073919,6.924778995214163,-4.2,-1.2,0.6,30.57511641610172,-16.205174299995704,38.46476908857514,6,S02
4720,0.32452932382194144,6.5482327027607665,7.281011956211166,-4.2,-1.2,0.6,29.71053121748209,-16.670298855855883,37.61367102957905,6,S02
4740,0.021750731490622385,6.94262723127996,6.676672878127996,-4.2,-1.2,0.6,30.429043388419537,-16.76839724483169,37.80550770334861,6,S02
4760,0.18117772155436224,6.632378198092156,7.267146008341032,-4.2,-1.2,0.6,29.880533134698133,-17.48002072711192,38.939955069655724,6,S02
4780,-0.10318124262606662,6.652782389951869,7.0842161739442115,-4.2,-1.2,0.6,29.78663161627942,-16.332432346254315,37.74079152035591,6,S02
4800,0.07082553355128524,6.733575071663829,7.1733727354683445,-4.2,-1.2,0.6,30.18945123737739,-15.97273623531257,38.69278932315753,6,S02
4820,0.09820284790535759,6.75587867388415,7.163323714081539,-4.2,-1.2,0.6,29.754179033900684,-16.656463357157488,37.95199909934531,6,S02
4840,0.08639047746294695,6.731696070121395,7.161959782536394,-4.2,-1.2,0.6,30.231969929527796,-16.99491060390158,37.763449366699476,6,S02
4860,0.09423201470045516,6.783169895655737,7.176228337178171,-4.2,-1.2,0.6,29.622282770577684,-16.244379116874903,37.92265116597439,6,S02
4880,0.12103816630269593,6.7446709444232,7.128412558790171,-4.2,-1.2,0.6,29.912214808243075,-16.66128157572634,38.2947182245693,6,S02
4900,0.06397467648867003,6.737697827941055,7.1329647946008725,-4.2,-1.2,0.6,29.87134954396751,-17.027514393463072,38.55566492387479,6,S02
4920,0.1010944389124466,6.732109497727293,7.184045781883713,-4.2,-1.2,0.6,30.39288660547266,-16.879510019878346,38.49314418493043,6,S02
4940,0.1224981365669857,6.731704023526172,7.1631876099392215,-4.2,-1.2,0.6,30.345707568495655,-16.509332341822354,37.28410826597133,6,S02
4960,0.10955924392933475,6.764316339487017,7.157302940461374,-4.2,-1.2,0.6,30.152497988532605,-16.54655414202925,38.71582585505716,6,S02
4980,0.09721393567378762,6.800077267920519,7.149888443534948,-4.2,-1.2,0.6,29.875284362416824,-16.63481357429141,38.16144721620603,6,S02
5000,0.09955141719228613,6.736020976530973,7.1764539053108525,-4.2,-1.2,0.6,29.952452005069585,-16.212219019150506,38.35323898659599,6,S02
5020,0.0685715199352182,6.733542944720475,7.18773690163595,-4.2,-1.2,0.6,30.58092746082752,-16.896819717275505,38.187358442717425,6,S02
5040,0.07989485478364507,6.694785005959995,7.161434662496558,-4.2,-1.2,0.6,29.955207285982816,-16.410997081747094,37.996133585075064,6,S02
5060,0.09600120594521644,6.744683007628862,7.196425183246477,-4.2,-1.2,0.6,30.113386332942728,-16.72073619229521,38.231596579021215,6,S02
5080,0.05666490207420389,6.698856217315295,7.194451354220813,-4.2,-1.2,0.6,29.73097131682261,-15.46356819017019,36.94540754032558,6,S02
5100,0.0511668041601204,6.7366665100508225,7.127036697350591,-4.2,-1.2,0.6,29.08471445137968,-17.21266202468349,38.55216705146465,6,S02
5120,0.07650179354864874,6.727543203792131,7.1650731736482,-4.2,-1.2,0.6,29.06053050291363,-16.473696905323376,37.895190577738,6,S02
5140,0.10357245294593581,6.77242457763618,7.158805797375223,-4.2,-1.2,0.6,29.312625294996867,-16.798035813245328,37.51216038113135,6,S02
5160,0.1124272976635177,6.707610994782286,7.181473801923169,-4.2,-1.2,0.6,29.891812821769058,-15.580562265439465,38.659616203159544,6,S02
5180,0.10972571452341758,6.730485547654101,7.165233196836824,-4.2,-1.2,0.6,28.96912147237051,-17.461394880174165,38.168767546711926,6,S02
5200,0.12309541930338469,6.767823070482411,7.177659888453216,-4.2,-1.2,0.6,29.566120272382484,-16.131230192163322,38.49330369295654,6,S02
5220,0.07901667779286277,6.744289838040124,7.1402402767018485,-4.2,-1.2,0.6,30.3199112825827,-17.115742971699635,38.489699444816154,6,S02
5240,0.09088798256620159,6.71178355161908,7.188315959640198,-4.2,-1.2,0.6,30.501729897033364,-16.73545128338619,38.756204726002935,6,S02
5260,0.11050865841884913,6.79812341181006,7.178286031124102,-4.2,-1.2,0.6,29.548112491285146,-15.676822481538037,38.47186862328013,6,S02
5280,0.10477944387708434,6.728994260623115,7.181776578270467,-4.2,-1.2,0.6,29.5332825616374,-16.16024101169716,38.71701381820082,6,S02
5300,0.1227608782058257,6.7368112571617225,7.205702207456246,-4.2,-1.2,0.6,29.609047497224154,-16.426188182149254,38.74579644730365,6,S02
5320,0.07080646848995717,6.7497878194456735,7.172804707028533,-4.2,-1.2,0.6,29.886325257870247,-16.943000967650494,37.322773347513845,6,S02
5340,0.09875352894645187,6.751517948584615,7.17980839563793,-4.2,-1.2,0.6,29.64596551390451,-16.75081068419826,38.17574338952274,6,S02
5360,0.09860833347275207,6.729505304338133,7.160747518004686,-4.2,-1.2,0.6,30.01751106175069,-17.091175321369832,37.97260898243304,6,S02
5380,0.1381983903999182,6.74730120444211,7.141471090413623,-4.2,-1.2,0.6,30.152598062023053,-16.635961679537736,38.32923498892102,6,S02
5400,0.1092915465943949,6.704824607290438,7.19072812555077,-4.2,-1.2,0.6,29.55537079639181,-17.137620376816116,38.934568694045616,6,S02
5420,0.13056626313951006,6.699052924167818,7.171328896898344,-4.2,-1.2,0.6,30.479501312356913,-16.478165103212696,38.20010194095748,6,S02
5440,0.11455048219470507,6.7218730566775715,7.178252321077386,-4.2,-1.2,0.6,29.810993899590887,-17.420496966400307,38.42726866673045,6,S02
5460,0.11965975392580006,6.732682525674629,7.171101482176904,-4.2,-1.2,0.6,29.938577444422304,-17.350208069205173,38.315085827759965,6,S02
5480,0.12248331946595956,6.758715021140305,7.1469735012731554,-4.2,-1.2,0.6,28.910286813236105,-16.40784773407441,38.20493351709934,6,S02
5500,0.09613014323190765,6.7576963489744575,7.229095550466623,-4.2,-1.2,0.6,29.753144465928408,-15.86981205535396,38.58558332009008,6,S02
5520,0.0991588157042485,6.759098777439054,7.147031519708492,-4.2,-1.2,0.6,29.4056088533529,-17.63002909783622,38.25894522219593,6,S02
5540,0.09513184983014597,6.7379661112082365,7.170760829579947,-4.2,-1.2,0.6,29.38814395324338,-16.441791758736905,37.87857748922349,6,S02
5560,0.08535183833070552,6.767057405970757,7.175768962675414,-4.2,-1.2,0.6,29.883473624767046,-16.579170224800627,38.603365960010244,6,S02
5580,0.11839462770007268,6.750774640430856,7.161520560217214,-4.2,-1.2,0.6,29.300311222821897,-16.40050439493826,37.8892660334884,6,S02
5600,0.06996571870660842,6.744189776924616,7.154317414194531,-4.2,-1.2,0.6,29.502575206201044,-16.386773248703616,38.730606669732076,6,S02
5620,0.05686108853262375,6.718977918508091,7.212303037769113,-4.2,-1.2,0.6,29.219723504050048,-15.907059564302399,37.64431467961137,6,S02
5640,0.06583715030996107,6.750959183290023,7.212096040038512,-4.2,-1.2,0.6,29.50041788906565,-15.966074702538451,38.767211435624006,6,S02
5660,0.0808425087517781,6.701353434854301,7.170742435839519,-4.2,-1.2,0.6,30.2982649651739,-16.875228255442487,39.18078698150855,6,S02
5680,0.09016283505036699,6.72223833624887,7.198153084146419,-4.2,-1.2,0.6,28.94699144813738,-17.106622077533817,38.36895507603307,6,S02
5700,0.1133578222230773,6.752300132234873,7.1877345925947465,-4.2,-1.2,0.6,30.37773409937587,-15.868596207318857,37.68218110162031,6,S02
5720,0.11528389334038433,6.733673361482869,7.169202117986021,-4.2,-1.2,0.6,29.828068270666467,-16.77817526117139,38.71566821268857,6,S02
5740,0.07501958697321653,6.737672697280296,7.220509076871438,-4.2,-1.2,0.6,29.490750962732047,-17.0273145877245,37.33659654802205,6,S02
5760,0.10752981221963684,6.719377897471455,7.157036654352508,-4.2,-1.2,0.6,29.422090601716985,-16.24796153407093,37.88262318829255,6,S02
5780,0.08376796273854334,6.741630869939003,7.130811762334387,-4.2,-1.2,0.6,30.20644844679224,-16.752499166916543,37.966792818418234,6,S02
5800,0.113257535515731,6.72093712850643,7.153198482433081,-4.2,-1.2,0.6,30.012864928957512,-15.603846271523294,38.81171224118622,6,S02
5820,0.15645268415262395,6.748954134476794,7.143615651114919,-4.2,-1.2,0.6,30.111868068730548,-16.576783380118798,39.310761427163555,6,S02
5840,0.09535114058852046,6.726753101017904,7.165356310823241,-4.2,-1.2,0.6,30.50438394878717,-16.849445816886995,39.74507224580191,6,S02
5860,0.08672690783494198,6.775908853928145,7.127670345858803,-4.2,-1.2,0.6,30.006920701997284,-16.975656330331404,38.5276840399176,6,S02
5880,0.1210373598823446,6.783629113007442,7.189646569459072,-4.2,-1.2,0.6,30.126600383085318,-16.968849567982033,38.749110439794,6,S02
5900,0.12574208900987816,6.742068536437472,7.177564838536394,-4.2,-1.2,0.6,30.369969102864882,-15.95757161711992,37.80446590201381,6,S02
5920,0.07141272192539508,6.718163262103226,7.1755128269828985,-4.2,-1.2,0.6,29.83070521522556,-16.952702233328385,37.9925748316905,6,S02
5940,0.06358660257991813,6.7448379830181,7.148930459488527,-4.2,-1.2,0.6,29.87339108847845,-16.737433510537713,38.591313349999645,6,S02
5960,0.09397182146569227,6.748259061730426,7.1992987254586405,-4.2,-1.2,0.6,29.170008420791202,-16.481979241661797,38.576064315689656,6,S02
5980,0.09897360377708427,6.7348330862058114,7.189824593225037,-4.2,-1.2,0.6,29.933690588406897,-17.281663311148755,37.74576454569146,6,S02
6000,0.13939546413966103,6.711882267460024,7.14869730172394,-4.2,-1.2,0.6,29.66066002538274,-17.144457603074372,38.33697089051361,6,S02
6020,0.09688102058054668,6.725382088830813,7.1523532237852905,-4.2,-1.2,0.6,30.26095243048129,-16.194758227013658,37.56261008618389,6,S02
6040,0.0802155359591036,6.758562542732816,7.184300984715613,-4.2,-1.2,0.6,29.978224590105125,-16.12164400555708,37.611576801281046,6,S02
6060,0.10958385464898006,6.7408861538422045,7.19535526228012,-4.2,-1.2,0.6,30.09909565616956,-16.56228955635306,38.05443834828358,6,S02
6080,0.10814629890755176,6.725726726977452,7.176443806003765,-4.2,-1.2,0.6,29.750509875199793,-17.03838990380023,38.03110536020817,6,S02
6100,0.1125624308231609,6.758850650044285,7.15375739250635,-4.2,-1.2,0.6,30.361767324387593,-16.44573303461517,37.8349921428015,6,S02
6120,0.1077453873983584,6.708844587031563,7.1507027029431764,-4.2,-1.2,0.6,29.23351371399698,-17.072220438563626,37.76906777901912,6,S02
6140,0.06755461124370667,6.746334763765217,7.17911422423785,-4.2,-1.2,0.6,29.32356571076642,-16.17487683995072,38.46813375386449,6,S02
6160,0.10772833712642292,6.735421251579587,7.150208019127767,-4.2,-1.2,0.6,30.91378223441736,-17.456469653294256,38.50559365849136,6,S02
6180,0.12384684326745193,6.752802696915801,7.170289029033062,-4.2,-1.2,0.6,29.795162769734432,-16.438143843869657,37.852849588405384,6,S02
6200,0.10120861098178716,6.758327848215549,7.185832961601867,-4.2,-1.2,0.6,29.779129678018077,-16.68646109803042,37.83516141016215,6,S02
6220,0.10808902958101599,6.73053070379472,7.146583653697164,-4.2,-1.2,0.6,29.34069093255332,-16.96564847707535,38.28466074634413,6,S02
6240,0.07386690566208826,6.789299981151661,7.17025538091128,-4.2,-1.2,0.6,30.120918509131368,-17.707828008077392,37.857130239672664,6,S02
6260,0.08942790026593159,6.736501101794118,7.156036571579161,-4.2,-1.2,0.6,29.452712014304318,-16.533872464016007,38.151886878741955,6,S02
6280,0.07261043409853828,6.7372922063492915,7.175257596690121,-4.2,-1.2,0.6,29.75494238151444,-16.773436528698703,38.3697506749326,6,S02
6300,0.07423407805915731,6.770233645825416,7.163520640456055,-4.2,-1.2,0.6,29.363376959428177,-17.05995233511177,38.093893170150096,6,S02
6320,0.09348355955621909,6.773236632656715,7.174577004902823,-4.2,-1.2,0.6,29.838022288092635,-16.842979122312833,37.734974611956645,6,S02
6340,0.07262856618396357,6.766899964419323,7.146774611421861,-4.2,-1.2,0.6,29.529611992073526,-17.333583662229174,38.03254139949469,6,S02
6360,0.07780124629748773,6.751096776130122,7.160484452247674,-4.2,-1.2,0.6,29.945942114869187,-15.919342934241698,38.437290423824585,6,S02
6380,0.09375351037484186,6.729665006476256,7.209317218946289,-4.2,-1.2,0.6,29.873218417894204,-16.481291591010198,38.11187000341275,6,S02
6400,0.09188179547294036,6.724612402848803,7.13981430087088,-4.2,-1.2,0.6,29.31793124733108,-16.84350498791085,38.18242201284327,6,S02
6420,0.1531750758874234,6.728293348245263,7.171471306398944,-4.2,-1.2,0.6,29.717216803663636,-16.589238781085605,38.587001025856146,6,S02
6440,0.11245023319670613,6.682499310382514,7.196817842370889,-4.2,-1.2,0.6,29.30912917885032,-17.364802711781046,38.965996068452384,6,S02
6460,0.10324490139902746,6.723982230531553,7.1703902377854,-4.2,-1.2,0.6,29.306350807276935,-17.145007319491995,37.63180178414229,6,S02
6480,0.07637007097368377,6.728875106270961,7.146937307402545,-4.2,-1.2,0.6,30.08380438633489,-16.72490251082426,38.53450833427887,6,S02
6500,0.07254363909878331,6.7588348667463665,7.1756472338448285,-4.2,-1.2,0.6,29.855900500285838,-16.82717222615282,38.048034166510305,6,S02
6520,0.07221277874951305,6.726753645550305,7.147002584484581,-4.2,-1.2,0.6,30.12275160028553,-17.14268294838576,37.91083197097253,6,S02
6540,0.13071894071109202,6.760998602985655,7.182941538356016,-4.2,-1.2,0.6,29.614780167693468,-17.184860011752825,37.79415683871797,6,S02
6560,0.1084886841504695,6.771440510975324,7.196766797893635,-4.2,-1.2,0.6,28.572578340855426,-16.919723138472516,38.02403487759006,6,S02
6580,0.09892449815619067,6.7440351221159265,7.132178966115281,-4.2,-1.2,0.6,29.81383157028094,-17.537780608019006,38.0429590695611,6,S02
6600,0.10330950615400446,6.744726954657638,7.169957699785015,-4.2,-1.2,0.6,29.48610921542296,-16.2328695205675,38.26064688354071,6,S02
6620,0.11227926178938691,6.694712562289122,7.143667166211102,-4.2,-1.2,0.6,29.54085540202607,-16.58743675927422,39.029547398957014,6,S02
6640,0.0813566371353048,6.719389360675286,7.135756575275303,-4.2,-1.2,0.6,29.567307266283922,-16.794279288663553,38.016094069404396,6,S02
6660,0.10552787855708495,6.7230454052341155,7.164584491290133,-4.2,-1.2,0.6,29.8569963020954,-15.739096148304075,39.30074366507942,6,S02
6680,0.04701334944803061,6.7334429554331905,7.179208980436546,-4.2,-1.2,0.6,29.72645628975571,-16.223141709386375,37.930387217217515,6,S02
6700,0.11601180507267672,6.729322251483459,7.163810112037383,-4.2,-1.2,0.6,30.25537942701343,-16.388085592740545,38.28540564362925,6,S02
6720,0.10384019580234825,6.744959061587687,7.171375797459861,-4.2,-1.2,0.6,29.059981011388686,-15.91376745943096,38.279974871691735,6,S02
6740,0.1308892523439086,6.755135892587283,7.154926876447568,-4.2,-1.2,0.6,29.619182025554473,-17.32729538410269,38.32130327390673,6,S02
6760,0.0748439130591024,6.72435218098334,7.17409524509926,-4.2,-1.2,0.6,29.54666899695313,-16.635611688143527,37.57362889281207,6,S02
6780,0.08794118980258744,6.770509978206584,7.111228183926883,-4.2,-1.2,0.6,29.822015446196065,-18.307782173658193,38.163570395780894,6,S02
6800,0.1219160878208849,6.721053744702404,7.166742988439685,-4.2,-1.2,0.6,29.76587182778752,-16.64967938080131,37.564065503478375,6,S02
6820,0.13621348266860764,6.717316107373565,7.173159737442194,-4.2,-1.2,0.6,29.871257443069773,-17.032946786271573,38.726380195119276,6,S02
6840,0.09570532069929899,6.737344564917446,7.20074991619121,-4.2,-1.2,0.6,29.77901600168741,-16.78660683412484,38.043468113606785,6,S02
6860,0.11999194947308821,6.725954827454914,7.163100644922643,-4.2,-1.2,0.6,29.766743694172607,-16.10794418384836,38.50003737160006,6,S02
6880,0.06452062702420545,6.741476585811274,7.188764938209999,-4.2,-1.2,0.6,30.18061278955951,-16.74479543744645,37.9317736173224,6,S02
6900,0.0991583587940761,6.739132647586021,7.181490772632026,-4.2,-1.2,0.6,29.233296188826706,-16.97055549208888,37.91430504352339,6,S02
6920,0.08398197137415471,6.747010078488247,7.228355923392794,-4.2,-1.2,0.6,28.3843175131406,-16.5078025022586,38.88839062382029,6,S02
6940,0.12615666784149862,6.7326596701326915,7.151688216476512,-4.2,-1.2,0.6,30.63126650117781,-17.09183320396768,37.6871160070318,6,S02
6960,0.12156531180523794,6.720394857566663,7.159309271473881,-4.2,-1.2,0.6,30.41522329729176,-16.075304062975608,38.12963047874664,6,S02
6980,0.08276261899013396,6.715057284931655,7.153874081782346,-4.2,-1.2,0.6,29.795730275734535,-16.321693958784543,37.53954044395155,6,S02
7000,0.11916553169544554,6.741850780754018,7.198198745008844,-4.2,-1.2,0.6,29.48691288983545,-16.915489975901743,37.9232843995257,6,S02
7020,0.1053054944997909,6.776093697355008,7.146865579464661,-4.2,-1.2,0.6,30.099003773197744,-16.779383102826703,37.91403916566328,6,S02
7040,0.14520398345379368,6.749761941029069,7.181875779699245,-4.2,-1.2,0.6,29.60502441805697,-16.117688489115928,38.01818086142614,6,S02
7060,0.14067631032061,6.740862287283577,7.147575246164771,-4.2,-1.2,0.6,29.496289035726903,-17.09654367131737,38.817397344591676,6,S02
7080,0.11950428921520637,6.728500894937664,7.134093392523199,-4.2,-1.2,0.6,29.85691207395895,-16.90338519573923,38.035933005215384,6,S02
7100,0.10210429750643896,6.7597118901946995,7.159024395613694,-4.2,-1.2,0.6,29.599530192848583,-15.65740070294215,38.350983835821665,6,S02
7120,0.10128271880086234,6.738601688481226,7.1838209620658775,-4.2,-1.2,0.6,29.428986232301195,-15.734528632049972,38.18967571886617,6,S02
7140,0.12517920487340295,6.734912507332739,7.125519806056668,-4.2,-1.2,0.6,29.902333388082244,-16.636732999556813,37.7761232283898,6,S02
7160,0.07837186089626891,6.749759683143055,7.172361740407118,-4.2,-1.2,0.6,29.934503450810848,-16.749801123175544,38.681421766259646,6,S02
7180,0.09621880567899946,6.721311431950637,7.185640669769893,-4.2,-1.2,0.6,29.078450959188228,-16.40606894154728,38.05285606436687,6,S02
7200,0.10227798971778362,6.7463143152400775,7.150914817147542,-4.2,-1.2,0.6,28.916022903462665,-17.042412110874153,38.00131502647825,6,S02
7220,0.12817606701610618,6.762299755402026,7.143575750648996,-4.2,-1.2,0.6,29.22591499311222,-16.685557674582846,38.45337173740764,6,S02
7240,0.11364425951358201,6.730673471026632,7.161347666133478,-4.2,-1.2,0.6,30.26705703170534,-15.685434506699242,37.65000035980093,6,S02
7260,0.12311632118233978,6.7412545450423496,7.160377587412411,-4.2,-1.2,0.6,28.90489772048749,-16.93679461879642,38.0094000689219,6,S02
7280,0.10465787607311573,6.717264630531659,7.135290558128832,-4.2,-1.2,0.6,30.028320478064973,-16.63276731184918,38.245530557167655,6,S02
7300,0.07098180095451122,6.734855066873336,7.175993222362339,-4.2,-1.2,0.6,29.725799928283443,-17.350789191591506,38.22086460977934,6,S02
7320,0.09772056807396018,6.7641996699102,7.162722365390588,-4.2,-1.2,0.6,29.242646040572254,-16.73846019937597,39.004493732767386,6,S02
7340,0.07881438653395328,6.700013131919988,7.1907720096799395,-4.2,-1.2,0.6,29.837801555876727,-15.409441377802251,37.18523746292616,6,S02
7360,0.10282991664683226,6.7139822633251,7.148328252919443,-4.2,-1.2,0.6,29.089113052967654,-16.423922786236602,38.6307634055687,6,S02
7380,0.11976956699640613,6.753750530689979,7.168555979800275,-4.2,-1.2,0.6,29.70623346153831,-17.327121336093747,38.17570957431982,6,S02
7400,0.07951174246484075,6.746491800431377,7.130519803635656,-4.2,-1.2,0.6,29.809492612784727,-16.614844496396152,38.26825284839768,6,S02
7420,0.09715296466326687,6.718711071646892,7.160893296340314,-4.2,-1.2,0.6,30.564801027975733,-17.325664578234896,37.32999781007525,6,S02
7440,0.09178233091342802,6.760403172840882,7.196168835502197,-4.2,-1.2,0.6,29.4512768557329,-16.5473059483692,38.54017788911702,6,S02
7460,0.1123253530344965,6.7063991472566915,7.177140965799236,-4.2,-1.2,0.6,29.727355501596666,-16.724266471845983,39.3477135833812,6,S02
7480,0.12762463987886755,6.742770943174742,7.171140508038076,-4.2,-1.2,0.6,29.746304006362674,-16.37092091319873,38.229875992201514,6,S02
7500,0.0544969304949667,6.740539248582719,7.16048920684257,-4.2,-1.2,0.6,29.445585447340353,-17.099289694756813,38.03385616359466,6,S02
7520,0.1010043239972077,6.729044833652507,7.172350663745628,-4.2,-1.2,0.6,29.62921538571359,-16.359623128524152,38.156642567253066,6,S02
7540,0.09765475354245917,6.733894828488118,7.206547706074324,-4.2,-1.2,0.6,29.773323515785673,-17.200626364727746,38.101878511293336,6,S02
7560,0.13792988347745938,6.757922310078201,7.158687030706036,-4.2,-1.2,0.6,29.818819407750315,-16.095638096483512,37.84113593463596,6,S02
7580,0.08057810687339226,6.743727164622986,7.170085918207133,-4.2,-1.2,0.6,30.709269830999695,-17.022007006175535,38.586088993199745,6,S02
7600,0.062020186355885513,6.740239259496882,7.182933838282868,-4.2,-1.2,0.6,28.85420717554229,-16.14714237201222,38.413410741718145,6,S02
7620,0.10867257400874494,6.7364337784265995,7.1686634484511895,-4.2,-1.2,0.6,29.943902189436436,-17.76332915105931,38.138996075939815,6,S02
7640,0.10058611860410507,6.724658131255202,7.1800272147426885,-4.2,-1.2,0.6,29.52210133928387,-16.798039660402754,38.12384242308734,6,S02
7660,0.10920587871150109,6.73366371792271,7.118411679627291,-4.2,-1.2,0.6,29.836211193228333,-16.45775073823402,39.05940403575891,6,S02
7680,0.06607350292270472,6.751605657112326,7.158437421644572,-4.2,-1.2,0.6,29.81108198933797,-16.362653434941024,38.4585904970347,6,S02
7700,0.14211529214266544,6.733076940650784,7.162551340046563,-4.2,-1.2,0.6,29.315261793784348,-17.447397332734475,38.26213904152826,6,S02
7720,0.07903597956593714,6.720623418132866,7.1368745883590625,-4.2,-1.2,0.6,29.760649517211903,-16.210714749332755,38.551540123591984,6,S02
7740,0.07985786235725062,6.72234976519786,7.139451602714395,-4.2,-1.2,0.6,30.10759961306001,-16.58850114986224,37.92027096848233,6,S02
7760,0.08629287488436548,6.782947040278824,7.163113345407315,-4.2,-1.2,0.6,29.868051384744806,-17.003324825552557,37.46278366021507,6,S02
7780,0.11220302115268938,6.714558810274679,7.164883097833309,-4.2,-1.2,0.6,30.51400692268745,-16.40089110581954,38.55317884156264,6,S02
7800,0.15042153329651842,6.7447952143815835,7.135499300999445,-4.2,-1.2,0.6,30.098927410600886,-16.518036120139968,38.794928706646836,6,S02
7820,0.11732196540885104,6.726814439114318,7.168395218488919,-4.2,-1.2,0.6,29.69245345430747,-16.647751816866098,38.0389353115463,6,S02
7840,0.10805229302757978,6.713616546471259,7.174063638788343,-4.2,-1.2,0.6,29.926192735568993,-15.900983670349476,38.33880385407102,6,S02
7860,0.10834212023071463,6.753540409111782,7.171101862674835,-4.2,-1.2,0.6,29.644072655130138,-18.542915748954652,37.645339052458034,6,S02
7880,0.08627248142948973,6.7561710723312824,7.181985680281514,-4.2,-1.2,0.6,29.92156717631,-16.26191557384015,38.074789685262495,6,S02
7900,0.1141051218462561,6.722432022705462,7.199226503784167,-4.2,-1.2,0.6,29.99090553266405,-16.811087601889078,38.34718832911875,6,S02
7920,0.08642066757841589,6.741432524954241,7.162361934374756,-4.2,-1.2,0.6,28.9507813449076,-16.818615902508064,38.32432082734705,6,S02
7940,0.11273616776715759,6.722246418913173,7.185304929783835,-4.2,-1.2,0.6,29.989668407025448,-16.377049494554353,37.96973675586208,6,S02
7960,0.10030116133900795,6.7450212858365495,7.153583647158165,-4.2,-1.2,0.6,29.17200105740058,-16.558341712142564,37.396126731082745,6,S02
7980,0.1251170728137464,6.747522189100818,7.163928521311897,-4.2,-1.2,0.6,29.543026660241765,-17.171832975612396,37.565984072393306,6,S02
8000,0.12138863786351792,6.7724520409651,7.187527044781608,-4.2,-1.2,0.6,29.39298116191182,-16.438471292745987,37.793260820734574,6,S02
8020,0.1046776301160731,6.757180048079612,7.1615478817441796,-4.2,-1.2,0.6,30.621923256362024,-16.249003299946853,38.47859331561037,6,S02
8040,0.08820298936227651,6.765948759403593,7.160295082187722,-4.2,-1.2,0.6,30.251132081041856,-17.678644576334683,38.78697196335394,6,S02
8060,0.08458812228374758,6.713752871328945,7.172608209399578,-4.2,-1.2,0.6,29.784178640357972,-15.664042039153719,38.866970611730395,6,S02
8080,0.07483045135102709,6.730310981997406,7.1863469013860275,-4.2,-1.2,0.6,29.795172176758843,-17.058065304985117,38.65907305086236,6,S02
8100,0.09232615498868675,6.731487667608939,7.153556938317073,-4.2,-1.2,0.6,29.65522554536334,-15.988025492355062,38.3258529847048,6,S02
8120,0.08796205839278821,6.733743871620892,7.148510090531467,-4.2,-1.2,0.6,29.670175603139857,-16.687617904502595,38.66256157623616,6,S02
8140,0.0864303122720468,6.735083277942242,7.191698769912041,-4.2,-1.2,0.6,30.26984704406973,-16.451440969471335,38.89540138879833,6,S02
8160,0.11656730305392603,6.760739392219264,7.172285174235153,-4.2,-1.2,0.6,30.324557241834984,-16.683041488748415,38.58685199332075,6,S02
8180,0.08946985675963604,6.748143706295258,7.130965144269238,-4.2,-1.2,0.6,29.437487809933504,-16.77543881376132,37.743336290695105,6,S02
8200,0.09500648758772168,6.741354766673584,7.144249846364616,-4.2,-1.2,0.6,29.590272056555513,-16.231275510822304,39.34240751420185,6,S02
8220,0.09990918068558059,6.742829144789608,7.2019949775613386,-4.2,-1.2,0.6,29.43218862365224,-16.718077591002853,38.88412023543547,6,S02
8240,0.11278150346868317,6.711767504790082,7.124540787892189,-4.2,-1.2,0.6,29.399926957398012,-16.75472175223313,37.544946456925345,6,S02
8260,0.061655428150492596,6.751946478141797,7.177094018999859,-4.2,-1.2,0.6,30.349738477753743,-16.95756207248663,37.41249827039475,6,S02
8280,0.0880416090504274,6.730476169771722,7.177660132332557,-4.2,-1.2,0.6,29.58440180264816,-17.005312081079772,38.05306148624655,6,S02
8300,0.06312332590822037,6.722137654016576,7.145926748728176,-4.2,-1.2,0.6,29.515247798060766,-16.166349101055037,38.20954788832773,6,S02
8320,0.09881799801701076,6.739364762034393,7.16928953242973,-4.2,-1.2,0.6,29.983679620628806,-17.407794217909693,38.55824309172867,6,S02
8340,0.1018873672319819,6.673079303571223,7.182652418659765,-4.2,-1.2,0.6,29.530990212727964,-15.904246045962712,38.06471023050327,6,S02
8360,0.09378869342956414,6.793212308816748,7.135099393751128,-4.2,-1.2,0.6,30.18830120186125,-17.24230675747398,38.667262074909594,6,S02
8380,0.12836689856966768,6.730044117579045,7.163806893856314,-4.2,-1.2,0.6,28.736496391857035,-16.061570247446085,38.46034038937497,6,S02
8400,0.09597368960157357,6.725613167230712,7.172967719824896,-4.2,-1.2,0.6,29.633873288423423,-16.997621754521887,38.69226819348621,6,S02
8420,0.10764500826298881,6.729967322543066,7.162858248263903,-4.2,-1.2,0.6,29.417994480823506,-16.387050063684224,37.5514703483813,6,S02
8440,0.1313512933737785,6.742315779969596,7.148864178477897,-4.2,-1.2,0.6,29.114436986198562,-17.02956017612813,37.9239781507652,6,S02
8460,0.08132352242351777,6.783259172029741,7.182926482722528,-4.2,-1.2,0.6,30.514734253775796,-16.870548487782536,38.5156968420293,6,S02
8480,0.1214128233346668,6.737626700693099,7.137341390984838,-4.2,-1.2,0.6,30.714550453756388,-16.33477221111027,38.86994010547497,6,S02
8500,0.10214267319392778,6.723349645019381,7.1560625598078715,-4.2,-1.2,0.6,29.73657678577419,-16.975884489039853,39.23566655077741,6,S02
8520,0.0805576298953311,6.717278460745556,7.168190142066485,-4.2,-1.2,0.6,29.002174476231506,-17.257216760504207,38.91476251273078,6,S02
8540,0.09920676484214822,6.765911895700884,7.1799004894585385,-4.2,-1.2,0.6,29.35410256328813,-15.878147660878922,38.90804941243437,6,S02
8560,0.1040580035160198,6.796250831149756,7.178644523584742,-4.2,-1.2,0.6,30.31056623928814,-16.81063090685165,38.10097137637768,6,S02
8580,0.1238391002661362,6.695576239222016,7.138226981650334,-4.2,-1.2,0.6,29.735038749401227,-16.389194044384233,38.55310529575728,6,S02
8600,0.08588700253452683,6.73065836915205,7.189609718185171,-4.2,-1.2,0.6,30.14919436496544,-16.29109186129986,38.50232286551444,6,S02
8620,0.07596882229955076,6.75638577197157,7.171902618299003,-4.2,-1.2,0.6,28.895685246245577,-15.89738484219576,37.90230067310521,6,S02
8640,0.10049773304199859,6.769582737540955,7.127751175720581,-4.2,-1.2,0.6,29.344699829059806,-17.183374904891572,37.83636475436322,6,S02
8660,0.11288863546586901,6.7093683594940146,7.195630392471983,-4.2,-1.2,0.6,30.224655260076965,-16.94842185857518,38.17681608628191,6,S02
8680,0.1394115970070612,6.725830420450051,7.1416768056783155,-4.2,-1.2,0.6,29.174851018048773,-16.19152294902584,38.087635381783144,6,S02
8700,0.10358871939400352,6.753406745865348,7.183147400428659,-4.2,-1.2,0.6,29.282139128174844,-16.840116911798464,38.05634567873657,6,S02
8720,0.09079657630334498,6.743914637234331,7.144529207884165,-4.2,-1.2,0.6,29.663597637581802,-16.812921113128468,38.58430943298233,6,S02
8740,0.09958780730191624,6.732212856433689,7.171031863785921,-4.2,-1.2,0.6,29.984681345472385,-16.676144466050008,38.495444968914455,6,S02
8760,0.10019251752366345,6.725957153443608,7.171915587467685,-4.2,-1.2,0.6,29.03214801412926,-17.241555335172876,38.40343568107405,6,S02
8780,0.10366770415691721,6.766917517154249,7.186413447509895,-4.2,-1.2,0.6,30.017247198279062,-17.34165501729838,37.84084741365568,6,S02
8800,0.11302310264072439,6.677780092697687,7.180077575800602,-4.2,-1.2,0.6,30.309471086649097,-16.126709641453193,38.42091727061342,6,S02
8820,0.06500340983428166,6.742096442954227,7.19113691866849,-4.2,-1.2,0.6,30.342600853274284,-16.503108822914708,38.550182767136214,6,S02
8840,0.10980839140582432,6.747729993436002,7.177981365769512,-4.2,-1.2,0.6,29.253892780552512,-15.820778611081248,37.43476458311879,6,S02
8860,0.11541187369858608,6.748860395051783,7.151059829433431,-4.2,-1.2,0.6,30.6294642278998,-17.147654729979372,38.05973526216957,6,S02
8880,0.07259437301124755,6.7732116286812785,7.154206684072206,-4.2,-1.2,0.6,29.858647483387415,-16.57031113157013,38.26286710440127,6,S02
8900,0.0914071125336287,6.742841388180129,7.151086401138457,-4.2,-1.2,0.6,30.0080092010791,-15.725267409403505,38.50938591232288,6,S02
8920,0.09691491750662592,6.723527393989014,7.189652565990835,-4.2,-1.2,0.6,30.079746443581804,-17.218906691884854,38.868089172401554,6,S02
8940,0.10365170252504076,6.724613752203937,7.162095154075087,-4.2,-1.2,0.6,29.370285687691815,-16.67599275581796,38.19991168779257,6,S02
8960,0.08947306670079018,6.729246838656781,7.141611854093679,-4.2,-1.2,0.6,30.447239252461337,-16.30887739002204,39.69110630343525,6,S02
8980,0.10849707559140268,6.727081116958431,7.159860278545437,-4.2,-1.2,0.6,30.07562865394927,-16.609133109885605,38.623070614026076,6,S02
9000,0.11596149108664702,6.702945031927361,7.152622962561797,-4.2,-1.2,0.6,29.95958611514791,-16.70031268553855,37.79050272408933,6,S02
9020,0.12205014515919577,6.743614497955083,7.186524533844174,-4.2,-1.2,0.6,29.77082505166883,-16.029766340054444,38.448987593450525,6,S02
9040,0.10042744922468576,6.729551327007107,7.174753217378323,-4.2,-1.2,0.6,29.594569768789707,-15.885006220457418,38.73690134238614,6,S02
9060,0.09484761669292097,6.754829754403968,7.185483603736817,-4.2,-1.2,0.6,29.070174315612476,-16.955340058527874,39.09015993049569,6,S02
9080,0.11639872473149793,6.736823433290015,7.191768675338563,-4.2,-1.2,0.6,30.423493684285628,-17.125249032756376,37.97064876307844,6,S02
9100,0.1276967108184688,6.71114733453343,7.152590211067582,-4.2,-1.2,0.6,30.059951448805695,-17.302998283022227,37.40312615354516,6,S02
9120,0.09221425892143666,6.765595804207052,7.200633905774205,-4.2,-1.2,0.6,29.86136936972391,-15.737452730737346,38.163128584054505,6,S02
9140,0.10428873258650079,6.709472791535062,7.140833830851191,-4.2,-1.2,0.6,29.407504424157473,-16.7286831691703,39.22169648479002,6,S02
9160,0.14329207573328603,6.74346282323111,7.17188615581071,-4.2,-1.2,0.6,29.372815287059893,-16.730017647088815,37.676774096547945,6,S02
9180,0.0791054134250247,6.73326148043056,7.157122923134764,-4.2,-1.2,0.6,30.36588563124181,-17.38191217042364,38.169968004271084,6,S02
9200,0.09800288617849585,6.7453329102817,7.17178003841003,-4.2,-1.2,0.6,29.74148918187238,-16.338970782008076,37.71907784759586,6,S02
9220,0.10239061016576378,6.76794157788387,7.157920549775206,-4.2,-1.2,0.6,29.81491344789923,-16.48295291723253,37.69791340115365,6,S02
9240,0.11313795387547346,6.728566932992996,7.164322352509357,-4.2,-1.2,0.6,30.089723370868686,-16.944292760000952,38.186237084266125,6,S02
9260,0.10838306233819905,6.760687303739263,7.159176647455594,-4.2,-1.2,0.6,30.881184711239264,-16.831933824675193,38.5998385518199,6,S02
9280,0.12859370218923288,6.721852740895756,7.213511731735158,-4.2,-1.2,0.6,29.79617796724085,-16.83538036645219,38.62714975763654,6,S02
9300,0.09896292443265785,6.774000895755699,7.160047874836519,-4.2,-1.2,0.6,29.62244436277918,-16.38245962461784,38.580568751309684,6,S02
9320,0.10600289209066915,6.741730909128581,7.16243827289473,-4.2,-1.2,0.6,29.15853251719406,-16.036321422299544,38.392869980226195,6,S02
9340,0.10164174682839369,6.720736076506809,7.181823337289757,-4.2,-1.2,0.6,30.239370304669077,-16.306162180945027,37.38581085769954,6,S02
9360,0.08486144630807914,6.759751594861828,7.14463392542265,-4.2,-1.2,0.6,30.101731079022407,-16.084699606577566,37.118218051522,6,S02
9380,0.1289891518034129,6.7558640378662895,7.187860520638028,-4.2,-1.2,0.6,29.84351355407863,-16.741037732158425,38.61892704452772,6,S02
9400,0.10273697809909256,6.732966685653051,7.13700010839319,-4.2,-1.2,0.6,30.189997930755236,-16.304951895175215,38.62377021528986,6,S02
9420,0.10977481899947049,6.746467023294402,7.1940380409218605,-4.2,-1.2,0.6,29.207548495451757,-15.563339096858199,38.520429737408236,6,S02
9440,0.08133813796034056,6.775284363444283,7.18958298150845,-4.2,-1.2,0.6,29.912721777972504,-17.615516700734688,37.11976638189091,6,S02
9460,0.11161215504760463,6.742984756853758,7.180794323585769,-4.2,-1.2,0.6,29.36147348465892,-16.856457296816238,38.09631512944625,6,S02
9480,0.12723075541932533,6.697000412978432,7.162895197510965,-4.2,-1.2,0.6,29.17359570992284,-16.1694830641203,38.50449091363045,6,S02
9500,0.11285961546882242,6.765323171729092,7.17461599336511,-4.2,-1.2,0.6,29.646647515723075,-16.618240679973724,39.02070844799186,6,S02
9520,0.1255190511362574,6.740067391975571,7.199763263947439,-4.2,-1.2,0.6,29.86614384749885,-17.364350756074217,38.15157052848952,6,S02
9540,0.11363863888083231,6.747966988903158,7.158554458364367,-4.2,-1.2,0.6,30.48110261660248,-17.43107905602095,38.57554154402705,6,S02
9560,0.10371827453806852,6.735876931416582,7.155793690333223,-4.2,-1.2,0.6,29.50009268973929,-16.481084658862855,38.177973368517115,6,S02
9580,0.15956722443109617,6.749847380766271,7.189808731951016,-4.2,-1.2,0.6,29.46550964781344,-17.1231278014916,37.65760874056839,6,S02
9600,0.10395425211376044,6.7214914456804715,7.1540538995904,-4.2,-1.2,0.6,28.955220659414856,-17.3835555375841,37.896799046680506,6,S02
9620,0.13095036858192396,6.733875502999728,7.160441777358794,-4.2,-1.2,0.6,30.10175985264651,-17.541539685009646,38.74379696278571,6,S02
9640,0.10974773168809755,6.785462123665658,7.160755514466418,-4.2,-1.2,0.6,30.089885485405727,-16.59506400043693,38.05376036712251,6,S02
9660,0.12236047786394971,6.744275399083229,7.1599148083407,-4.2,-1.2,0.6,29.41523116441294,-16.9442551271693,38.60491551886121,6,S02
9680,0.08723944070432862,6.74250731597418,7.167706992198168,-4.2,-1.2,0.6,28.949243668110032,-17.613530593481606,38.60710889732096,6,S02
9700,0.09215335284499758,6.720957789064298,7.1405386378137745,-4.2,-1.2,0.6,29.863623914855886,-16.43379467992748,37.99067409039698,6,S02
9720,0.13209930461215585,6.767517071959168,7.1697294236080475,-4.2,-1.2,0.6,30.095200796342823,-16.557302847484245,39.052387667062156,6,S02
9740,0.11281088426873795,6.728445333348728,7.139076737424717,-4.2,-1.2,0.6,29.09432471849411,-16.430215452891847,38.81663485755371,6,S02
9760,0.1319012689143637,6.704027073001269,7.159753641722349,-4.2,-1.2,0.6,29.73740336748855,-17.132026025554325,38.30435764975236,6,S02
9780,0.09632929703845787,6.733934966917497,7.172302691321175,-4.2,-1.2,0.6,29.697953308164006,-17.13127820675087,38.03510153693198,6,S02
9800,0.0918980900246914,6.747501836599457,7.152212601890306,-4.2,-1.2,0.6,29.978353812989404,-16.363596408373184,38.03940891799255,6,S02
9820,0.09855025201472178,6.7199537023374925,7.171459938709641,-4.2,-1.2,0.6,29.958482830415104,-16.210032684700494,39.330189030066364,6,S02
9840,0.11117010270834071,6.728090735737978,7.185143174680048,-4.2,-1.2,0.6,29.867094167677184,-15.99447474188596,37.64854861537685,6,S02
9860,0.11226755074953834,6.765383696250906,7.160302978389652,-4.2,-1.2,0.6,29.656338800553325,-17.63094058019516,38.20832325460034,6,S02
9880,0.06575109998875922,6.742050631056243,7.160990006194288,-4.2,-1.2,0.6,30.4467043224774,-16.732457919983435,37.406134097317434,6,S02
9900,0.1183930307619801,6.722353959063335,7.170677304096287,-4.2,-1.2,0.6,29.62772872372667,-16.845448738088894,37.90870260542847,6,S02
9920,0.121673340634747,6.728668638403842,7.185489871318196,-4.2,-1.2,0.6,29.35304408628436,-16.64263440198644,38.25098736568744,6,S02
9940,0.09960106216061869,6.748540992454465,7.167770682462748,-4.2,-1.2,0.6,29.88209284733233,-17.19537187807015,37.89309553098128,6,S02
9960,0.10595945031313962,6.7515531204415815,7.190540721361373,-4.2,-1.2,0.6,30.321116644168463,-16.291392884781747,37.23030229143117,6,S02
9980,0.08565767166762835,6.7451871706320725,7.225071833599059,-4.2,-1.2,0.6,29.500342646215586,-16.154364017975965,37.516513702272,6,S02
10000,0.09539016358390333,6.709086327439053,7.159837413813247,-4.2,-1.2,0.6,29.2816461793977,-16.921073866873616,37.56701803935194,6,S02
10020,0.07163652690955613,6.755940653551778,7.1649394194710965,-4.2,-1.2,0.6,29.970263595134846,-17.059390159148826,38.32861858177315,6,S02
10040,0.10328207634253368,6.746651042756767,7.155603690986551,-4.2,-1.2,0.6,28.7816672260295,-16.55278565003637,39.10446726308569,6,S02
10060,0.10191675971230695,6.678751842226937,7.151519178754006,-4.2,-1.2,0.6,29.809486554401637,-16.768525314013782,38.0959017025603,6,S02
10080,0.1141013824148965,6.740915270266978,7.182694592280883,-4.2,-1.2,0.6,28.937916365456967,-17.02030291762175,37.975606756943684,6,S02
10100,0.04358697351329898,6.719524401962135,7.173946696866848,-4.2,-1.2,0.6,30.55500450357849,-17.04986472396827,37.91424298208217,6,S02
10120,0.08643316002055577,6.761233360779508,7.202133024780481,-4.2,-1.2,0.6,29.089470900835526,-17.088339244404033,38.06196005511793,6,S02
10140,0.10979651018322295,6.734517653879131,7.164463316354698,-4.2,-1.2,0.6,30.115038284098162,-16.495454313509427,37.28984638684411,6,S02
10160,0.09980024256117291,6.761539890056882,7.174311797458733,-4.2,-1.2,0.6,30.080692618091184,-16.46736701150005,37.992659559347835,6,S02
10180,0.11244205070596631,6.746246753119218,7.134194451781483,-4.2,-1.2,0.6,29.386403726232825,-16.760965402201855,37.21955375718528,6,S02
10200,0.08631888108680812,6.741565434607651,7.154315520923043,-4.2,-1.2,0.6,30.068829932282323,-16.64960893864261,38.07458686661978,6,S02
10220,0.1072592436259737,6.696606268887209,7.1471887950965405,-4.2,-1.2,0.6,30.209306871853357,-16.206339473394863,37.739777983709644,6,S02
10240,0.09509810507700202,6.694872874522078,7.130503813044248,-4.2,-1.2,0.6,29.757238306471745,-16.208050204539536,38.503395977178215,6,S02
10260,0.1080801330861882,6.7818062293241095,7.1789982816387115,-4.2,-1.2,0.6,28.713310042175866,-16.590019033588383,38.40583403234933,6,S02
10280,0.08083403346017363,6.730809166956245,7.148166168921408,-4.2,-1.2,0.6,30.150913646162625,-17.693955431234418,38.06958485947188,6,S02
10300,0.1091084524038953,6.738850958509798,7.133820936448526,-4.2,-1.2,0.6,30.153572520761852,-16.823448036444695,37.785358668140326,6,S02
10320,0.07943728762407208,6.733846699116835,7.159797055647771,-4.2,-1.2,0.6,29.670924941968813,-17.112296553743505,38.59444616462169,6,S02
10340,0.10147967432611465,6.739743857881501,7.145891082978228,-4.2,-1.2,0.6,29.186729842256018,-16.11319421340727,38.51239723494561,6,S02
10360,0.06640029571314549,6.731943874392812,7.184729845490911,-4.2,-1.2,0.6,30.260369523683426,-16.12339713425161,38.091827875674234,6,S02
10380,0.14179691061939143,6.763391446591441,7.156448440811144,-4.2,-1.2,0.6,29.695956495604605,-16.97947374664387,37.621872116064864,6,S02
10400,0.11142943915445477,6.755092821991571,7.134977480987266,-4.2,-1.2,0.6,29.235830900001694,-16.46954939610418,37.81988498147918,6,S02
10420,0.10917171242169847,6.729729035758009,7.168056578566055,-4.2,-1.2,0.6,29.723731475510586,-17.09950206306207,37.98617108283249,6,S02
10440,0.08599887968153616,6.708473262598954,7.183905124556314,-4.2,-1.2,0.6,30.065840579088693,-16.690346108950813,38.70381913385689,6,S02
10460,0.11498662779006333,6.743021211257825,7.135330397202678,-4.2,-1.2,0.6,29.070098500436707,-16.318457699728327,38.66650148861527,6,S02
10480,0.09086623830039559,6.744719203458741,7.178586092656707,-4.2,-1.2,0.6,30.221489456539928,-16.614896115466152,38.26788910525307,6,S02
10500,0.08785966019504504,6.745986259667382,7.169682017889222,-4.2,-1.2,0.6,29.765423862949692,-16.50705401743374,38.26254993246197,6,S02
10520,0.07465949702601704,6.7505021998847745,7.171012259068324,-4.2,-1.2,0.6,29.82524635775535,-16.998588526534316,38.723823298645364,6,S02
10540,0.1561963586371591,6.750042296538415,7.165019899292659,-4.2,-1.2,0.6,29.890133796162946,-16.897059162511397,38.43193422638721,6,S02
10560,0.12380595651120105,6.695597819135432,7.205833663629592,-4.2,-1.2,0.6,29.337330764943033,-15.602589942256962,37.4254884911072,6,S02
10580,0.09683770425019493,6.734042031538686,7.188392154850465,-4.2,-1.2,0.6,29.084135178936055,-16.397737000339312,38.79889052789631,6,S02
10600,0.09178286235880269,6.714046818036187,7.174190958515611,-4.2,-1.2,0.6,30.390371170477078,-16.513283346232814,38.60070833967859,6,S02
10620,0.10325851183396428,6.770837132041263,7.1617439447148135,-4.2,-1.2,0.6,30.32882449528826,-17.354334419294126,38.1509011523371,6,S02
10640,0.09418191934234675,6.742875529202014,7.21344112342409,-4.2,-1.2,0.6,28.728332525404312,-15.461443575336318,38.506162344691454,6,S02
10660,0.11868827111626386,6.724926147092612,7.15633996194954,-4.2,-1.2,0.6,29.496247731132506,-16.425426157279478,37.650117764429574,6,S02
10680,0.08117017444005517,6.713123019134348,7.184378501011977,-4.2,-1.2,0.6,29.78613228010557,-16.381500369692585,37.6444997280461,6,S02
10700,0.1406778141334598,6.766665698602803,7.1670475554181525,-4.2,-1.2,0.6,29.367257230875094,-15.985262100482938,38.35768445231932,6,S02
10720,0.10817250134637255,6.763460890089401,7.149257429081613,-4.2,-1.2,0.6,29.211032158706534,-16.469616801180642,39.458404726215406,6,S02
10740,0.11571175192841629,6.733508541129162,7.124597142582064,-4.2,-1.2,0.6,30.22438684574833,-17.713874584191053,37.981553773041185,6,S02
10760,0.14133254386100907,6.741180895401418,7.169577865601006,-4.2,-1.2,0.6,29.940578239483504,-16.516064229233123,38.45104802256625,6,S02
10780,0.13467309690330714,6.736521498624534,7.146698688832431,-4.2,-1.2,0.6,29.27039224092142,-17.387693740335287,38.17382079862501,6,S02
10800,0.09900788091410417,6.732498874554743,7.156586876032091,-4.2,-1.2,0.6,30.11282031512104,-16.70196891070281,37.84433682988795,6,S02
10820,0.1165110963817287,6.763260583627988,7.136671575780572,-4.2,-1.2,0.6,29.511911078996953,-16.074365678064016,39.24070440208775,6,S02
10840,0.10494641948161679,6.736394885035076,7.1494207783895725,-4.2,-1.2,0.6,30.03780628275415,-16.314771133370844,38.36647930017538,6,S02
10860,0.11622473047226395,6.737371540428988,7.177213662629606,-4.2,-1.2,0.6,29.315894043694023,-16.07403266090572,38.512786273910734,6,S02
10880,0.11332314304203592,6.712787090236091,7.187817100915469,-4.2,-1.2,0.6,29.28248386968122,-17.07046083541933,38.37506120363244,6,S02
10900,0.06933701411348692,6.7633310792983465,7.143796208726121,-4.2,-1.2,0.6,30.108453532277867,-15.94073639003114,38.0442832852356,6,S02
10920,0.08794324957574301,6.73643844728348,7.189919337765634,-4.2,-1.2,0.6,29.506089759060433,-17.386948877790857,38.40523669731313,6,S02
10940,0.1521129537542659,6.755181086669288,7.16602114584202,-4.2,-1.2,0.6,30.42849254224686,-16.75222925511119,37.289461288172475,6,S02
10960,0.0937524091613967,6.756159232498622,7.190626976059028,-4.2,-1.2,0.6,30.939032354955554,-16.397518394210543,38.96919664997511,6,S02
10980,0.09048549689304342,6.726721721034306,7.186663541629748,-4.2,-1.2,0.6,29.774067319221032,-17.03348731940236,38.29309808367924,6,S02
11000,0.10314234321664227,6.74544549942032,7.205290419130205,-4.2,-1.2,0.6,29.60214640390715,-16.40627580219062,39.00674003155364,6,S02
11020,0.13143622030849386,6.749920501642462,7.151887929101307,-4.2,-1.2,0.6,29.500176301122426,-16.048256704450118,38.58779654594356,6,S02
11040,0.13326586156942058,6.71532085403396,7.18637331901065,-4.2,-1.2,0.6,30.49594140122285,-16.52222264028549,37.73390570903652,6,S02
11060,0.11219234229268557,6.7387579708510925,7.141410550669043,-4.2,-1.2,0.6,29.809357969108248,-16.81041659606832,38.3474983558427,6,S02
11080,0.0923030532255385,6.7328249368099975,7.183073232644756,-4.2,-1.2,0.6,29.713181000949184,-17.206261265542807,38.162552643525665,6,S02
11100,0.1056285054702513,6.715727079657546,7.170669810006344,-4.2,-1.2,0.6,30.70845740383333,-16.818185577241096,38.13942344959988,6,S02
11120,0.09878034774815922,6.732288517467697,7.167093570478716,-4.2,-1.2,0.6,30.051888878511342,-16.84182938580018,38.64518814490267,6,S02
11140,0.07429377238674499,6.727830563756174,7.157751382273593,-4.2,-1.2,0.6,29.889020721297477,-16.296512369010642,38.924912396243684,6,S02
11160,0.11073014455857191,6.758180577947194,7.175390640976413,-4.2,-1.2,0.6,29.696062793030965,-16.72922099353894,37.577974357005964,6,S02
11180,0.09711752097864049,6.731413091600929,7.15997416348424,-4.2,-1.2,0.6,29.044780154525537,-16.31759135546814,38.52473707301735,6,S02
11200,0.08914594627595226,6.745722300162697,7.159539287090043,-4.2,-1.2,0.6,29.53319371165848,-16.86388311819742,37.3882248275529,6,S02
11220,0.11165470015156567,6.732147687155869,7.142488096882862,-4.2,-1.2,0.6,29.94876125278253,-16.328833281538728,38.82068268731339,6,S02
11240,0.07299227852443493,6.742978092841135,7.173970510668351,-4.2,-1.2,0.6,29.451287379883233,-17.574167817948364,38.49778100216411,6,S02
11260,0.05400061094875437,6.726561390985217,7.180553344440707,-4.2,-1.2,0.6,30.459255524185743,-16.96537882312272,38.350982524109575,6,S02
11280,0.09896063944409819,6.748384922574019,7.17758959620519,-4.2,-1.2,0.6,29.559686701785427,-16.748353766004428,38.453007220250846,6,S02
11300,0.11411791628370173,6.729002806958615,7.133409870037842,-4.2,-1.2,0.6,30.480344935329267,-16.585238532542007,38.58605444567506,6,S02
11320,0.12332446933535857,6.728803125850099,7.184971849324893,-4.2,-1.2,0.6,29.870144898082224,-16.695775339902912,38.091564835444615,6,S02
11340,0.10988721951313024,6.731778670339493,7.183985054661414,-4.2,-1.2,0.6,29.043606283769535,-17.164866905340773,38.491784687688266,6,S02
11360,0.09540145392875497,6.770725730624211,7.194967181417735,-4.2,-1.2,0.6,30.15117376441334,-15.616372386816073,38.59756942431529,6,S02
11380,0.09693210191384719,6.739548046449391,7.164751658758458,-4.2,-1.2,0.6,29.84643978702875,-15.770633805070073,38.31511685167213,6,S02
11400,0.12165787430629017,6.730338997324875,7.178693391055617,-4.2,-1.2,0.6,29.677870171599075,-16.933975082480494,37.856231935091095,6,S02
11420,0.10957270114892803,6.719260079360176,7.204091886307706,-4.2,-1.2,0.6,30.057911062913814,-16.249939744340033,37.27302176721343,6,S02
11440,0.08454857542686091,6.750426843292453,7.178369076657009,-4.2,-1.2,0.6,30.461770904704835,-16.67225756208181,39.23669663419275,6,S02
11460,0.0947937070337654,6.6978407645896105,7.185541134726065,-4.2,-1.2,0.6,30.19537613234273,-16.766169828171268,37.456382729867215,6,S02
11480,0.08682964126999997,6.712802180106022,7.164566662163678,-4.2,-1.2,0.6,30.728928102419985,-17.2226416955225,38.080140893986005,6,S02
11500,0.06863115035988318,6.742545257753773,7.172393197199834,-4.2,-1.2,0.6,29.72053527067551,-16.275110380545804,38.59660447577827,6,S02
11520,0.09228759115466682,6.753134084924323,7.138351479252777,-4.2,-1.2,0.6,30.306348315772652,-16.570234728440546,38.83479433913139,6,S02
11540,0.11629986572777329,6.735688979424051,7.1690901361043595,-4.2,-1.2,0.6,30.32998551630056,-16.39528963203439,37.889575967205765,6,S02
11560,0.048878141207652555,6.762798334407471,7.149223372680741,-4.2,-1.2,0.6,30.471514581881497,-16.84541463527438,38.228164085859945,6,S02
11580,0.10558538400851103,6.703516014420549,7.1274403453208395,-4.2,-1.2,0.6,29.430706725821228,-17.296834669488316,38.821660932062315,6,S02
11600,0.07602587777724461,6.75480584547848,7.1819895808859116,-4.2,-1.2,0.6,29.106248814027865,-15.995453097351389,38.06280637378736,6,S02
11620,0.08647654349386347,6.729009649588411,7.195890934960186,-4.2,-1.2,0.6,29.76246859570975,-16.664275300790504,39.23369329411112,6,S02
11640,0.09776857573816888,6.7336737930699115,7.168295962956852,-4.2,-1.2,0.6,29.191967325449802,-15.674321183744837,38.163759130888685,6,S02
11660,0.06940812899040551,6.759993018646601,7.173834227202863,-4.2,-1.2,0.6,30.334733433501537,-16.986989447517054,38.75312458848953,6,S02
11680,0.07739210272066098,6.7115039136980235,7.171051001455581,-4.2,-1.2,0.6,29.2586173274004,-16.135795315733294,39.117559522389485,6,S02
11700,0.08284091997627355,6.743593545283902,7.1597746972929865,-4.2,-1.2,0.6,29.287312453359004,-17.051023883943135,38.47185160992276,6,S02
11720,0.12364510538356341,6.752428395132136,7.199567832285172,-4.2,-1.2,0.6,29.31412597794599,-16.467544287063454,38.965482663004074,6,S02
11740,0.08341935111664772,6.763246684023324,7.163336561124639,-4.2,-1.2,0.6,29.453570358804697,-16.997791957131042,39.39983922611851,6,S02
11760,0.10600135976026334,6.728785273804503,7.179761622505616,-4.2,-1.2,0.6,29.557355825481093,-16.19906191238237,38.31154409405631,6,S02
11780,0.10983826812053275,6.728006784488429,7.177502722013383,-4.2,-1.2,0.6,29.83986862787835,-17.53630689967105,39.23012727377647,6,S02
11800,0.09424066861531694,6.729278773922612,7.196744227071256,-4.2,-1.2,0.6,29.23965597388907,-16.135916354866453,37.304138521039256,6,S02
11820,0.13566542997837738,6.732407956880662,7.168762773198075,-4.2,-1.2,0.6,29.639354773789815,-16.689388978585626,38.42173930624385,6,S02
11840,0.14751163591368016,6.7414600731874526,7.14447819665682,-4.2,-1.2,0.6,29.36562349182214,-16.6965610840985,38.13208669827201,6,S02
11860,0.12058329759497867,6.7581835496007905,7.184706072742947,-4.2,-1.2,0.6,30.199477953185394,-16.110145022138195,38.57890507779753,6,S02
11880,0.09737012597184917,6.744668704871529,7.19153949238463,-4.2,-1.2,0.6,28.949533402094783,-16.309342033799417,38.025895796602484,6,S02
11900,0.08329221433038869,6.723360813059313,7.196321255511398,-4.2,-1.2,0.6,29.888317621634286,-16.950119723471463,38.139224951906414,6,S02
11920,0.1314811749331062,6.721109544409212,7.178762895066166,-4.2,-1.2,0.6,30.02800604789555,-16.974194558795887,39.79499810426861,6,S02
11940,0.09218696437962702,6.75335122151887,7.158493554890218,-4.2,-1.2,0.6,29.763804581391096,-16.257615408047833,39.44670464029177,6,S02
11960,0.12452333322630471,6.728960388843554,7.1981552543894125,-4.2,-1.2,0.6,29.796899130724512,-16.606509671674466,38.474311354266156,6,S02
11980,0.1087157987579619,6.737908192100199,7.150135111595069,-4.2,-1.2,0.6,29.898433292941746,-16.82330321810931,38.128658607516535,6,S02
12000,0.10528628557951675,6.72768671888917,7.185377125679493,-4.2,-1.2,0.6,29.650727587790875,-16.58296183490041,38.4546353531064,6,S02
12020,0.12713392222294254,6.773157100333848,7.188345361165548,-4.2,-1.2,0.6,29.699032687104935,-16.76165571412622,38.22308091776122,6,S02
12040,0.11614835680997129,6.730635980155607,7.177317221419622,-4.2,-1.2,0.6,29.577619073317557,-16.81561684907165,37.883494255256295,6,S02
12060,0.07967104601053913,6.70626903856953,7.182910728093234,-4.2,-1.2,0.6,28.840595779541353,-16.875996359396535,38.19153455991533,6,S02
12080,0.11728881335778218,6.734654959291526,7.157245388076549,-4.2,-1.2,0.6,29.556298172507343,-16.809836647758317,37.97807666870518,6,S02
12100,0.12453484771047514,6.76850257690761,7.158477453691879,-4.2,-1.2,0.6,30.9074218149314,-15.95256315792522,38.55624696250294,6,S02
12120,0.1452277838848891,6.725301272684225,7.144167349906884,-4.2,-1.2,0.6,29.313602194005345,-16.494313444512876,37.95785589232343,6,S02
12140,0.08800749397695816,6.754142092754565,7.168940075431948,-4.2,-1.2,0.6,30.38962655157347,-17.538664271773058,37.96558653670576,6,S02
12160,0.13661071623394463,6.729383236051151,7.160569706743937,-4.2,-1.2,0.6,29.526960416978866,-15.814973956033834,38.52487308949339,6,S02
12180,0.11731579124485053,6.727499624219435,7.21065760391562,-4.2,-1.2,0.6,30.212844074759108,-16.313884215072243,37.82915932199139,6,S02
12200,0.06661747463571999,6.7348845450445864,7.152461858428161,-4.2,-1.2,0.6,29.76078362590149,-16.586961799561973,38.114939666253484,6,S02
12220,0.10024905258403886,6.705736376846799,7.1611595077602574,-4.2,-1.2,0.6,29.401421102000267,-16.418806848268687,38.64513658646681,6,S02
12240,0.12611292766939683,6.715058201594882,7.1995843311228995,-4.2,-1.2,0.6,29.56085543089811,-15.949485298112743,38.30744375062692,6,S02
12260,0.11493577713778971,6.750619240540924,7.148144171167777,-4.2,-1.2,0.6,29.594647650867294,-16.18262855073035,38.072092540247205,6,S02
12280,0.0707231474754427,6.740709180308845,7.193995061230553,-4.2,-1.2,0.6,30.272310814107684,-16.123114950991344,38.466021313480994,6,S02
12300,0.1292387809407582,6.759542267774377,7.1893537253434765,-4.2,-1.2,0.6,29.471099622574602,-16.991665947723224,38.35198167042054,6,S02
12320,0.14240939841902178,6.737455749441281,7.156352790627371,-4.2,-1.2,0.6,29.53467969148088,-17.080441154163523,38.774341833553684,6,S02
12340,0.10055896724312073,6.710740849681117,7.195168498465331,-4.2,-1.2,0.6,30.214361429013735,-16.707490749405906,38.04654977033531,6,S02
12360,0.0807066250888448,6.754532697258112,7.209269895147763,-4.2,-1.2,0.6,29.032471014431515,-17.015421090339448,37.69074651386874,6,S02
12380,0.10774969170463655,6.702534394990187,7.18011067344029,-4.2,-1.2,0.6,28.132952662188877,-16.64825494968965,38.477646445507276,6,S02
12400,0.09726527113024876,6.713251021833425,7.1808217091917745,-4.2,-1.2,0.6,28.826934902599096,-16.10481633637256,38.83979263007933,6,S02
12420,0.09260900361098535,6.749047970123867,7.160029511654442,-4.2,-1.2,0.6,28.890258729131013,-16.475058318888994,39.08366133382662,6,S02
12440,0.11192842829538249,6.736573287528809,7.19975962098745,-4.2,-1.2,0.6,29.889235266970253,-16.148467785578646,38.243127615357594,6,S02
12460,0.10491669397424182,6.721261928594791,7.151456363429999,-4.2,-1.2,0.6,29.352249029279523,-15.951428338400367,38.73666781864708,6,S02
12480,0.0715695041904533,6.754620449243802,7.171298355705242,-4.2,-1.2,0.6,30.22065203941856,-16.778600959554126,37.977474704917626,6,S02
12500,0.09472568862792391,6.7448200609108735,7.181907030951992,-4.2,-1.2,0.6,30.019409255226506,-16.01624080334689,39.083935641655835,6,S02
12520,0.10988078960526461,6.7520598590144125,7.184541771667852,-4.2,-1.2,0.6,29.45594808148692,-16.058406978497835,38.03339537603679,6,S02
12540,0.10932532353932929,6.7234624095673015,7.163457760292166,-4.2,-1.2,0.6,29.65235942944782,-17.011903897769333,38.492292558767126,6,S02
12560,0.10314119595476849,6.750661661207363,7.136437017433674,-4.2,-1.2,0.6,30.314158839347478,-16.63619496087501,38.93117054680371,6,S02
12580,0.1163245551834181,6.746365066470063,7.154137267526676,-4.2,-1.2,0.6,29.72658296862006,-15.089596666583125,38.253796888942674,6,S02
12600,0.12273894348082068,6.757541782570235,7.174430766570294,-4.2,-1.2,0.6,29.03971695802686,-16.468789488201978,38.05597492145929,6,S02
12620,0.12089248667562247,6.718836178366923,7.123734152832279,-4.2,-1.2,0.6,30.98567880070955,-16.611388968538954,38.27016401414675,6,S02
12640,0.09128294568766829,6.69418564637762,7.136809547806001,-4.2,-1.2,0.6,29.78063023551671,-16.02932119892776,38.051306247976235,6,S02
12660,0.0997212169521814,6.742039889876323,7.2183971220719085,-4.2,-1.2,0.6,29.456503986691214,-16.697110750844804,38.450322168097934,6,S02
12680,0.11997636297320194,6.734830730811399,7.170402724793241,-4.2,-1.2,0.6,29.612712832835342,-16.56392568149747,37.71450528614361,6,S02
12700,0.1089490545794567,6.738692761483143,7.153342367134024,-4.2,-1.2,0.6,30.22702222616634,-16.800273753348772,38.46092037232721,6,S02
12720,0.08393870603266493,6.726239719492816,7.200458721753559,-4.2,-1.2,0.6,30.163082717225112,-17.44561923773403,37.588775646098505,6,S02
12740,0.09693216015077175,6.695418354087836,7.20560710656305,-4.2,-1.2,0.6,30.34818386847397,-16.873405459583235,38.44450288908421,6,S02
12760,0.10187537244043977,6.750023306962597,7.167622217190798,-4.2,-1.2,0.6,30.083918782594218,-16.450015103049665,38.63564381430841,6,S02
12780,0.1300025618965659,6.757764426182287,7.173282205001788,-4.2,-1.2,0.6,30.484292273764165,-16.563727280374064,37.534737844159636,6,S02
12800,0.10065949106860508,6.778847594774727,7.1355293754920215,-4.2,-1.2,0.6,29.020552127307578,-15.699174023840817,39.560361230304196,6,S02
12820,0.08245890070331437,6.753494322642782,7.180180424941688,-4.2,-1.2,0.6,29.613897193112837,-16.2598865592555,38.11735242687843,6,S02
12840,0.07625042536130974,6.728186190041404,7.174421600233567,-4.2,-1.2,0.6,30.483804300543607,-16.799425716643114,38.08300197731323,6,S02
12860,0.11484522180891361,6.7408764247699535,7.126882321739011,-4.2,-1.2,0.6,29.88799875565427,-16.372169779292655,39.717527313827006,6,S02
12880,0.09933060898842815,6.734978561025815,7.180225502834745,-4.2,-1.2,0.6,29.414674621254083,-16.57216174203698,38.36293976832308,6,S02
12900,0.12466248271975597,6.7174828882771624,7.18126448555223,-4.2,-1.2,0.6,29.686462500387098,-17.836606469631683,36.94258494295608,6,S02
12920,0.11884233293471422,6.745831791159508,7.185169298309521,-4.2,-1.2,0.6,29.25780171794141,-16.32468823787419,38.44845073300832,6,S02
12940,0.1113240113599084,6.719055245023817,7.147467124183802,-4.2,-1.2,0.6,30.276184837328252,-16.714243460712396,37.66107274590603,6,S02
12960,0.13182576855259726,6.732904919307938,7.171044835330541,-4.2,-1.2,0.6,30.304218784147256,-15.961607099197902,38.68218395550655,6,S02
12980,0.10696624909382613,6.7337766618666866,7.168351047603399,-4.2,-1.2,0.6,30.505564969610976,-16.62151793848429,36.91533422576868,6,S02
13000,0.11798844249665859,6.742417741253937,7.1891985760003685,-4.2,-1.2,0.6,29.89257904172983,-17.079234534267638,38.542997061653026,6,S02
13020,0.07282600096285313,6.748361268975699,7.1869106657482735,-4.2,-1.2,0.6,29.991929510006372,-17.26657416885967,37.94846275475848,6,S02
13040,0.10081499866540881,6.739436696396514,7.160011330851657,-4.2,-1.2,0.6,29.54235114963218,-17.09134487846186,38.5264405876264,6,S02
13060,0.11575919441661901,6.696495050031566,7.199644050242668,-4.2,-1.2,0.6,29.65154357379187,-15.654174033485653,38.577603593110105,6,S02
13080,0.12614201267557376,6.714552061281386,7.164950908877407,-4.2,-1.2,0.6,30.240202731081723,-16.940738004615707,38.39960308797461,6,S02
13100,0.13325997526448613,6.771155082943774,7.137856528474756,-4.2,-1.2,0.6,30.17478647475945,-16.3867608913583,38.74184968949235,6,S02
13120,0.12397865140564697,6.73026468612884,7.174405542136743,-4.2,-1.2,0.6,29.89344189325409,-16.196449918566614,39.05595390760698,6,S02
13140,0.11087976330915247,6.765152189556874,7.170013381005374,-4.2,-1.2,0.6,29.095109410448035,-16.43062495123811,38.661150468738256,6,S02
13160,0.11134396541393358,6.754094982230754,7.145733893841866,-4.2,-1.2,0.6,29.50603620461912,-17.31042379243896,37.5840114737262,6,S02
13180,0.0727621021766942,6.725920109533473,7.1909346062337525,-4.2,-1.2,0.6,29.685515870337163,-16.677319584418463,38.75929794644748,6,S02
13200,0.08287858548810915,6.707877535429397,7.142460051579326,-4.2,-1.2,0.6,29.578604544571206,-16.823316893782504,37.65263205315998,6,S02
13220,0.08884139872048973,6.73421307725497,7.180863186961465,-4.2,-1.2,0.6,29.440909775860707,-15.975079467071245,38.09970210478133,6,S02
13240,0.09980434975189353,6.748822856264714,7.131102231055049,-4.2,-1.2,0.6,29.88569750736216,-16.28887796956944,38.65332955207695,6,S02
13260,0.1144655278578686,6.736081051306701,7.1822690533984614,-4.2,-1.2,0.6,30.073877077281526,-17.057081034374363,38.291401952940106,6,S02
13280,0.11515024330161142,6.6886891973788964,7.1795429971937885,-4.2,-1.2,0.6,29.81287353203827,-16.96697615196909,37.803960033025724,6,S02
13300,0.07279882168538165,6.7399585699832345,7.173003203424271,-4.2,-1.2,0.6,29.360987093809946,-16.86247281862312,38.33577740448582,6,S02
13320,0.11206883214874314,6.735633937158436,7.148576009740877,-4.2,-1.2,0.6,28.665794463698543,-17.1169367795437,39.335629631123574,6,S02
13340,0.09063578716804625,6.7252446955594145,7.117079517160426,-4.2,-1.2,0.6,28.80829855550401,-16.550138993113478,38.70128766121091,6,S02
13360,0.07192696744742341,6.712052208589762,7.145410201750419,-4.2,-1.2,0.6,29.955228639461954,-16.15655996519969,39.2652039907908,6,S02
13380,0.09240765589593572,6.738324988626507,7.170556720396157,-4.2,-1.2,0.6,29.245640457542603,-15.842878718227055,38.52439313042641,6,S02
13400,0.10351544112989668,6.707500368638174,7.164007608135416,-4.2,-1.2,0.6,29.233474170941314,-15.647084790133668,38.04810453299341,6,S02
13420,0.0733519958248836,6.749613150791485,7.176883914022803,-4.2,-1.2,0.6,30.27653956372043,-17.49060841387238,38.214555277376945,6,S02
13440,0.08558007211769236,6.712341838234075,7.130072029503191,-4.2,-1.2,0.6,29.257311718327095,-17.072000861940722,38.728459844164504,6,S02
13460,0.10553403209301226,6.7745986963091385,7.159167220578384,-4.2,-1.2,0.6,29.47935097891865,-16.735887243670657,37.94020811323101,6,S02
13480,0.10698654014247083,6.745286818791948,7.155974636315461,-4.2,-1.2,0.6,29.10631955706486,-17.038381213461445,38.15351150688354,6,S02
13500,0.1005806264823418,6.770300264746951,7.189693059235284,-4.2,-1.2,0.6,29.065481984528375,-16.96749741340741,38.59378008926408,6,S02
13520,0.09638697426060523,6.736013561616001,7.147511169280957,-4.2,-1.2,0.6,29.1558783104854,-16.52893371244261,38.121844532266245,6,S02
13540,0.10873228757005314,6.752853228570415,7.166470532301671,-4.2,-1.2,0.6,29.820636081853937,-15.384861930139428,39.419257995890035,6,S02
13560,0.1289335010309354,6.7466670344181745,7.118177432817918,-4.2,-1.2,0.6,30.375014125379145,-16.70727842199984,38.357676138273675,6,S02
13580,0.10743838822206406,6.74101334165235,7.17998685082418,-4.2,-1.2,0.6,29.183271005831045,-17.333784384110352,37.71885419068391,6,S02
13600,0.08237737780387243,6.738090458677012,7.1839094242047485,-4.2,-1.2,0.6,28.78492396369231,-16.465157058219134,38.66113264837044,6,S02
13620,0.08964282830470494,6.7695986773129055,7.138039604261333,-4.2,-1.2,0.6,29.85012393297198,-17.24151329714103,38.1100263001345,6,S02
13640,0.050401109777058695,6.737751472829355,7.174321692180093,-4.2,-1.2,0.6,29.888592427860313,-16.421004263441187,37.763826161130766,6,S02
13660,0.11019183805302499,6.726644483051006,7.172487164466538,-4.2,-1.2,0.6,29.678155796321093,-16.725566582522326,37.48481985304215,6,S02
13680,0.10682260389663605,6.715187053805293,7.186340933305358,-4.2,-1.2,0.6,29.60887153639948,-16.40368738733303,38.097880796391195,6,S02
13700,0.09045059331206834,6.728220158565182,7.20136211240677,-4.2,-1.2,0.6,29.506452706377498,-17.25392086073597,38.3671106583337,6,S02
13720,0.08549950642770282,6.716993240250899,7.149424254210686,-4.2,-1.2,0.6,29.52116989092573,-16.21948698797454,38.933186463048294,6,S02
13740,0.1062235744318977,6.759072340077324,7.138249913183488,-4.2,-1.2,0.6,29.47156215524891,-16.10318131380459,38.01445222957208,6,S02
13760,0.08774230292935116,6.714584127040875,7.171722413457373,-4.2,-1.2,0.6,29.377796176047227,-17.636602170354273,38.33217100583706,6,S02
13780,0.10188343983001948,6.706868499915456,7.147408136386604,-4.2,-1.2,0.6,29.372231538127764,-16.487652390599244,38.517269353411635,6,S02
13800,0.11911829400164496,6.760137335448644,7.179548354518345,-4.2,-1.2,0.6,29.94231302238788,-17.455995961246273,38.10271059502941,6,S02
13820,0.09120396938578536,6.744148935094808,7.174890009710491,-4.2,-1.2,0.6,30.796305305970733,-16.546086664755506,38.72020720131622,6,S02
13840,0.11101166713981293,6.7596022519805015,7.16365368862174,-4.2,-1.2,0.6,30.555905452922417,-16.32089836184002,38.08052824742297,6,S02
13860,0.08524971165149801,6.703804985955837,7.162200612367467,-4.2,-1.2,0.6,28.94842529994901,-16.104204193092976,38.130354968177265,6,S02
13880,0.10991095481083715,6.739191822378064,7.167995521734264,-4.2,-1.2,0.6,29.656518328115624,-16.14246805939699,38.16196118274614,6,S02
13900,0.08541617588306737,6.721575916092175,7.146523097659249,-4.2,-1.2,0.6,30.365353328521696,-17.306918807437853,37.93634402379893,6,S02
13920,0.09474613745964165,6.749881942205513,7.182876693123904,-4.2,-1.2,0.6,29.497887522340314,-16.46169331086716,38.84665593050452,6,S02
13940,0.09429916856234258,6.7252716422147385,7.1456407178724675,-4.2,-1.2,0.6,29.714622790829473,-15.393838404909923,38.49691120213376,6,S02
13960,0.0767084595196108,6.746994139093228,7.167085730218914,-4.2,-1.2,0.6,29.677950077295485,-17.354948577067926,38.17400615476325,6,S02
13980,0.09484941182050712,6.729753055192357,7.190616494652149,-4.2,-1.2,0.6,30.375580789752654,-16.41649707143599,38.76745386986396,6,S02
14000,0.07809584858930443,6.750345965009136,7.164896239068246,-4.2,-1.2,0.6,29.679767869334537,-17.33771639565957,39.14036680341653,6,S02
14020,0.10874304996457014,6.762145313450605,7.133883062511483,-4.2,-1.2,0.6,28.79601635671732,-17.694120300134465,38.52435984799792,6,S02
14040,0.10198212990653727,6.72400105468002,7.1626788647590125,-4.2,-1.2,0.6,29.62098221292453,-16.525902714800882,38.314234025824916,6,S02
14060,0.08222614871245264,6.744291188733161,7.1560988819443025,-4.2,-1.2,0.6,29.789888280285705,-16.41365398602551,37.7895379222223,6,S02
14080,0.0847934835273311,6.750860406304722,7.139776052010214,-4.2,-1.2,0.6,30.02220157328891,-16.938572336639,38.05851422003468,6,S02
14100,0.07041095440130773,6.735303238291872,7.177325195952516,-4.2,-1.2,0.6,29.834331530171408,-16.99098181401446,37.66526844050561,6,S02
14120,0.0794319431765879,6.739638691657789,7.191318010795063,-4.2,-1.2,0.6,28.903319838026,-16.45616163002653,38.07258856079384,6,S02
14140,0.07303298580765985,6.718339428118973,7.175955655951339,-4.2,-1.2,0.6,29.9854774899592,-16.648326466840068,38.09134620974558,6,S02
14160,0.09847905471081576,6.70731893345628,7.167198119464786,-4.2,-1.2,0.6,30.174520009109557,-17.950770278870408,37.58322715554087,6,S02
14180,0.12824379715259196,6.762900713191206,7.178640939295758,-4.2,-1.2,0.6,29.549866912705607,-16.673647007601126,38.128760491347506,6,S02
14200,0.10438125720892914,6.72739843061394,7.149613288012287,-4.2,-1.2,0.6,29.31269707383198,-16.385902429085647,38.17951041173473,6,S02
14220,0.07472037312627036,6.7581296638725155,7.179979286299491,-4.2,-1.2,0.6,29.334802224457906,-15.86546592570847,38.325041495817096,6,S02
14240,0.11841230392984026,6.735010184210425,7.182477918028876,-4.2,-1.2,0.6,30.591831417516676,-16.97379151668013,37.539022758636925,6,S02
14260,0.09034617233235227,6.736014903563224,7.17813234860091,-4.2,-1.2,0.6,29.39685993593388,-17.3096156338039,38.75379878071723,6,S02
14280,0.09441722788511141,6.72697253844231,7.182312762287397,-4.2,-1.2,0.6,29.47332491955624,-15.555150127874207,38.42721596031074,6,S02
14300,0.09027018340103475,6.731805127664878,7.191854884857379,-4.2,-1.2,0.6,30.030744178813077,-16.939121178220915,37.987349812436875,6,S02
14320,0.09430324962560138,6.722718273433122,7.15466323387915,-4.2,-1.2,0.6,29.991509181966812,-17.386972541619635,38.648750526703715,6,S02
14340,0.09198339876131842,6.729792252330593,7.160352573014932,-4.2,-1.2,0.6,29.548769169415618,-16.16764246153555,38.0517825678864,6,S02
14360,0.07609861885084611,6.705240892537404,7.154258517145794,-4.2,-1.2,0.6,29.180802544481807,-16.36298153236879,38.60114262068752,6,S02
14380,0.12080733357120924,6.721151866081776,7.148809076389754,-4.2,-1.2,0.6,30.67864207572204,-16.739067811156705,38.13881545059408,6,S02
14400,0.08098291675975715,6.745110783185615,7.177227487834221,-4.2,-1.2,0.6,29.764534052637163,-16.802258948233955,37.97713278368227,6,S02
14420,0.15441591930280005,6.739016659428725,7.148095517703948,-4.2,-1.2,0.6,30.338401218083167,-15.370224480460067,38.24502557447284,6,S02
14440,0.10528050478625361,6.717022970631962,7.164837815116851,-4.2,-1.2,0.6,29.436229040500056,-15.9057839821586,38.6354024182502,6,S02
14460,0.1289491942903086,6.721982634939191,7.171050282598949,-4.2,-1.2,0.6,29.620815250828404,-16.284993886843107,37.88974424273646,6,S02
14480,0.09058522584415143,6.684956875389921,7.177400683367224,-4.2,-1.2,0.6,28.764543920190793,-16.17352826926981,38.01353461672572,6,S02
14500,0.11064998407051166,6.75998553824609,7.147427935853322,-4.2,-1.2,0.6,29.616706903165067,-17.12856875415074,38.13362936493378,6,S02
14520,0.11302822611828718,6.7753029972505185,7.146927694545167,-4.2,-1.2,0.6,28.800902766873595,-16.98494604451459,38.084731155659554,6,S02
14540,0.10991845440491381,6.771278455446429,7.1671311917997995,-4.2,-1.2,0.6,29.578475087878502,-16.503539685804327,37.79311581025709,6,S02
14560,0.09883309870778448,6.7334170328606175,7.18113452128375,-4.2,-1.2,0.6,29.849246686276327,-17.076074541314167,38.38630545330965,6,S02
14580,0.0971353418454955,6.7056802668721,7.1473229807367,-4.2,-1.2,0.6,30.152262359660785,-15.602954497937956,38.091224909788636,6,S02
14600,0.06522960118008388,6.740844975543749,7.172320156296126,-4.2,-1.2,0.6,29.427387971690386,-16.53968448237947,38.49160521293897,6,S02
14620,0.08987208677154819,6.711241158929432,7.147863203102204,-4.2,-1.2,0.6,30.209893397485686,-16.527517444540315,38.106343597212174,6,S02
14640,0.06311614320245251,6.738206474965755,7.210098924843313,-4.2,-1.2,0.6,29.720111314721493,-17.495683293706023,38.94113835904316,6,S02
14660,0.07715753971456851,6.738424893025925,7.155415311673326,-4.2,-1.2,0.6,29.20238852286627,-16.259057597932536,38.72368716926086,6,S02
14680,0.06210801760257212,6.764710549175486,7.160654341186744,-4.2,-1.2,0.6,29.815781247823683,-17.316888217503347,37.69620501741664,6,S02
14700,0.09626605225484611,6.742081856805794,7.1818009667232925,-4.2,-1.2,0.6,28.856366686096337,-16.681634359601613,39.11973382704676,6,S02
14720,0.11253602504684417,6.725097451867836,7.161100352689858,-4.2,-1.2,0.6,28.8473916792781,-16.588915475270998,38.50827369245473,6,S02
14740,0.09018376178208001,6.736224027067961,7.172578023794801,-4.2,-1.2,0.6,29.748204187186733,-16.6160892721709,38.441737740184394,6,S02
14760,0.09068948798566343,6.737294881502003,7.163904500383661,-4.2,-1.2,0.6,29.651840351685195,-15.807134414758076,38.68076363260594,6,S02
14780,0.07271238868161618,6.7375103997267045,7.1464714741593935,-4.2,-1.2,0.6,29.366430242583657,-17.665150772300187,38.29882853894425,6,S02
14800,0.1290022850872075,6.727370682034059,7.161734165754058,-4.2,-1.2,0.6,28.872697927829623,-17.282918137038052,38.34753250870243,6,S02
14820,0.13340793840625842,6.76601989671453,7.187476350692241,-4.2,-1.2,0.6,30.281411015593704,-17.088046326728414,38.11415429291165,6,S02
14840,0.0766911294985275,6.73426250271293,7.155170763083744,-4.2,-1.2,0.6,29.824474769031678,-16.413779750699682,39.20339816752669,6,S02
14860,0.11513270400914677,6.7390249765786505,7.138825468056784,-4.2,-1.2,0.6,30.78820982656924,-17.241321010603606,37.289274655478344,6,S02
14880,0.09962658424972495,6.7640245607814435,7.170194777370099,-4.2,-1.2,0.6,29.537902210592776,-16.812158810969493,38.55913595471096,6,S02
14900,0.13487414949585846,6.722677238108106,7.164061532954883,-4.2,-1.2,0.6,30.022470322781203,-16.920577028015714,38.04378321423331,6,S02
14920,0.10671881337609922,6.774228346206589,7.17433189032409,-4.2,-1.2,0.6,29.367267801110987,-16.11056837694632,38.525442873408565,6,S02
14940,0.08793723259545493,6.738829513416914,7.1624206364198475,-4.2,-1.2,0.6,29.661255617384267,-16.615142925175018,38.657168610469625,6,S02
14960,0.1142592940263089,6.743808922881675,7.197724140614267,-4.2,-1.2,0.6,29.87750176967469,-16.7599580731169,38.547221057338895,6,S02
14980,0.1076012188472894,6.721405059471596,7.1616013392452915,-4.2,-1.2,0.6,29.24213698816182,-16.389796274815193,38.43860250703842,6,S02
