timestamp,ax,ay,az,gx,gy,gz,mx,my,mz,label,subject_id
0,0.10784586009578129,-1.10178398030195,9.741280705248515,-7.572788096310835,9.283884733466872,14.460675357958758,31.97281569638929,-13.846097168793799,39.98491399810831,5,S02
20,0.401846067428701,-0.7798456670770191,10.118397407869157,6.711887943131118,10.917400900910891,19.13536403678102,31.093005862639057,-13.530598085820564,40.319825945172326,5,S02
40,0.4694912080539019,-0.6034054256583505,10.264467654355833,22.311921494830464,32.19581733281199,6.04881265712833,31.457744875213436,-15.437451194876122,40.47736284154172,5,S02
60,0.6796066541515827,-0.38829306317260504,10.585827344080347,22.389088062984552,39.68949538113211,2.6099176459199724,32.580203996639256,-14.051312486071765,40.72412522617305,5,S02
80,0.6984371412795973,-0.17259185634736157,10.806689450473929,30.304297266280575,52.36254767295396,3.51586901119235,30.444154160159847,-12.564880977681227,42.7705429995623,5,S02
100,0.9203384256269488,0.00989839320461576,11.11041884010969,31.011012451118734,56.48632394825947,-5.223836635228366,32.003793752316966,-15.29520359738352,40.21104889275226,5,S02
120,0.7877321750193101,0.08193967428899479,11.03194834618936,27.734453264047495,58.035870530261356,-4.76312794133944,32.42575282930473,-16.804990141552054,39.83650159051769,5,S02
140,0.9279017870696447,0.0544392140962032,11.407155733245173,20.721065471925016,52.71820953059605,3.5037889719732696,30.653571341338385,-16.250059680871946,38.75371999045475,5,S02
160,0.723629684282469,-0.008992690379833204,11.473583755975797,24.90899435165611,47.2365397034131,-10.897383501124022,30.80326318276925,-16.907017704816752,39.53828816149329,5,S02
180,0.6472946862239776,-0.055615055667448246,11.321136739846304,12.746383434549376,32.691851716194215,-10.82103337707183,33.238311482489394,-14.882382800476442,37.251264962434725,5,S02
200,0.47935227568541416,-0.026956596979521748,11.244496005634918,10.51626425802512,26.562559234306644,-11.100410323029747,33.24730665375181,-15.94251379361973,38.67845520908317,5,S02
220,0.3498384093877215,-0.19938533890324311,11.169621425888602,2.1448245043531218,22.638734482592515,-10.722419562068344,33.90671419793198,-16.929476068246778,37.040390196364314,5,S02
240,0.26524780037347573,-0.39556017054259424,11.079719844446725,2.3696855089541202,11.239512525834957,-18.132197218448475,32.443103925227774,-17.795054288152564,38.672756125150784,5,S02
260,0.20815921904893153,-0.7290802113528927,10.786639354142801,0.512015007179051,6.925493363691131,-16.149419317292544,32.868507721741146,-17.805687097043077,35.27950922625651,5,S02
280,0.20653501947576652,-0.6469453402581935,10.872541238652673,-2.7443319050892523,3.7418137267636444,-21.59412638759639,32.99598883901804,-18.556442803538097,35.76301229970724,5,S02
300,0.08926108347725854,-0.9428319308511743,10.689178293335978,-5.131137101987749,2.2816692505081058,-11.07861886476253,34.313954637125335,-17.51418085510649,33.83133398804845,5,S02
320,0.09879646628238334,-1.3288660476773255,10.442485184844488,-11.756194957942439,-2.540529297656983,-13.574225946968348,32.361953304427445,-19.38003173335645,33.44909943742442,5,S02
340,0.06188536362785023,-1.4872650425086928,10.339672769038035,-5.896256594389758,-9.14030063192015,-7.614809441733204,32.517435583808876,-20.32787248122856,31.115577810291935,5,S02
360,-0.03065584684970965,-1.5816006509969445,10.247423618660859,-1.5868078685079654,-14.331129954481845,-7.235282131053853,33.15280200532061,-19.625028191699123,32.74378512309401,5,S02
380,-0.07944885800640586,-1.6233899489906995,9.828569242829927,-11.66583707408424,-25.446447275515663,-5.669616727424239,32.93225985304585,-19.765700907389878,32.39635353804897,5,S02
400,-0.2884698129800073,-1.9077490655567855,9.749144435212255,-15.00856835159927,-27.504709922780258,1.9439423628762524,33.69323030188133,-20.611758945411115,33.45321011169409,5,S02
420,-0.32257616195083305,-1.928749195079094,9.566851478490333,-22.74615923002819,-39.30918673188704,1.5038718020014414,32.28609136279565,-22.265104751797466,35.28063538753072,5,S02
440,-0.45025914418506485,-2.1691653783668556,9.649704049391685,-29.248073039623822,-47.13795628316944,13.998371554107221,32.11437131236307,-21.717039348545157,34.35032369546184,5,S02
460,-0.46456456821886083,-2.163448858150304,9.525666641051407,-27.568271957214478,-44.245384588941846,6.166262655306964,33.20202282106541,-23.930396370762235,35.322062418361256,5,S02
480,-0.5058690826449429,-1.9531793875746755,9.365357469853475,-34.40570197394864,-59.10796492967846,16.731311668354053,32.563230262772294,-20.424182117098514,36.215199581691955,5,S02
500,-0.7590761881711807,-1.8793697725074523,9.33363863930144,-32.40486148596388,-63.81236458633408,16.403896265119457,31.222806639752818,-23.841288738399193,38.21674365972411,5,S02
520,-0.4401616390157146,-1.841851930648158,9.590996973359154,-41.84296893695388,-58.693881051665926,14.447794896354099,32.889377689411035,-20.935173215613656,37.51856981582386,5,S02
540,-0.37971026266318464,-1.8637081635419948,9.501642023548563,-35.2481628172213,-49.45473158039599,19.04451750542865,31.695290283672488,-23.98515520673281,39.0533491092958,5,S02
560,-0.3922748565576395,-1.4320553694798146,9.724492433153753,-29.07922881711447,-40.880567935852824,12.001917378409834,32.13631971419288,-23.00002989941128,38.555705614241084,5,S02
580,-0.19258348014759555,-1.20371195993654,9.891318442587009,-20.82209246307388,-21.795076230199186,14.58643119581981,30.655555878089142,-24.342682641871964,40.43063985271568,5,S02
600,-0.003192017358538385,-1.0571990252150143,9.76065085813656,-6.7339105126418755,-0.22036583143420674,22.160856918018943,30.520366620117045,-21.88434107278097,39.66254808658924,5,S02
620,0.29988764788663447,-0.8471084555844794,9.86863485087553,9.249661701300159,9.349321256032256,19.518108012785188,29.402040691220158,-24.216138484354953,41.82540653341672,5,S02
640,0.5054226693086056,-0.7376062789568392,10.370661127988132,14.815795095634762,32.050260577515466,18.17719850351914,30.02104180331846,-23.445699114534367,40.2694635210501,5,S02
660,0.6550506877513981,-0.4412168807445439,10.60807561849977,20.4115472685412,35.76083023902747,6.858045327497127,30.83998490664534,-26.42939581680659,41.38912680062519,5,S02
680,0.7262925814929022,-0.19758485311167615,10.58185192994373,28.42421990013523,48.06052811548774,6.589843994227559,30.892099255987237,-24.947951538046162,38.09113067610545,5,S02
700,0.749380996152257,-0.003931361204076056,10.992709503413067,33.20776951426464,57.82408625599592,8.803689737560243,31.821943843927922,-24.458246069090038,40.953736402531,5,S02
720,0.7320081177606353,-0.08974458259880032,10.985146398216854,29.08830562348152,51.71989007816836,3.8608777497345748,31.32308682545805,-22.82813206428233,39.91722205087734,5,S02
740,0.8833470927336113,0.2525171884841653,11.297111626439118,32.287488951259874,53.993773372538385,-6.781358107062863,28.789589244320535,-23.60383391777304,40.10821087552676,5,S02
760,0.7212396798345468,0.0006762032616381974,11.343777038936702,21.906064094630008,48.57847379237116,-6.774143230576776,29.502596136015455,-25.967064735028238,39.64577083455861,5,S02
780,0.49588328758151456,-0.09980119238819848,11.304653935438273,15.822091189741247,39.979428944513174,-10.630615402613477,29.426693580827514,-22.568601965487737,39.21464204951307,5,S02
800,0.6619070727619757,-0.11128014746328693,11.449785904374654,7.996909740430122,26.099192152791048,-5.758704619384741,28.819976821890553,-23.728713257300864,37.88191663519619,5,S02
820,0.43382962460217456,-0.2562481882554849,11.433786662125147,1.0293529936111216,21.47076628289746,-11.11731260744478,26.845782299836213,-23.41537748315555,37.14757814925395,5,S02
840,0.20244552105669333,-0.4482209189860992,11.283716299720753,1.0185856274871048,13.826915064276681,-22.208467711326247,28.071499880247842,-23.325072292588793,35.972825578344846,5,S02
860,0.15320137225767408,-0.3207690697681807,11.24462330234991,-5.21293899005806,3.2412766996287576,-16.38729179218486,28.526636954336578,-23.86156852952707,36.51511860420529,5,S02
880,0.26277766272176395,-0.7312386960504798,11.026565849754377,-4.901023341840564,-0.23889679302767264,-15.472194033689084,27.70890189567119,-23.025434977961996,35.162531906240446,5,S02
900,0.2306785004896109,-0.8104215853822094,10.71850132144542,-5.330260302240443,5.803748888736261,-15.180402374927398,26.245070216324073,-25.4179460403332,33.007185384640906,5,S02
920,0.09494383066742688,-1.0872802389966811,10.542665858389789,-5.822557829049667,-10.106532689789992,-9.004162525379794,27.531297716948675,-22.843593786649407,33.26816428358577,5,S02
940,-0.06108294416976284,-1.3415481967131746,10.30380738977939,-6.673881240594336,-8.936469177745868,-17.420971436807946,27.405260837128584,-23.14537858977821,34.007528951694425,5,S02
960,-0.009087358333666196,-1.5273180162439917,10.129782360750403,-2.0056435142194973,-12.544436276532172,-7.913498821137244,25.493573222480975,-22.99694374864277,34.573493721124024,5,S02
980,-0.08662950235249922,-1.7411777548393836,9.869975615582643,-16.120639029882877,-19.669606337689473,-6.756676204228139,26.843992575477145,-20.911228680233837,33.53887135772102,5,S02
1000,-0.3716050551577754,-1.9459160260790078,9.71152553920079,-15.821683472560466,-23.852546785658234,-2.4942985154757524,27.741921911490387,-19.988024009966907,33.12831348152359,5,S02
1020,-0.38709857407074166,-2.0471513717998504,9.74302543129326,-24.8332716526977,-28.814357039593194,3.045147367119272,25.473877330403027,-22.660473018585172,32.48987660401138,5,S02
1040,-0.47046170482859906,-2.152134083370966,9.488627053204645,-28.36859077203787,-41.49990290396556,8.843177612069386,27.97555919711748,-22.796693986214766,32.87568525639567,5,S02
1060,-0.5653544909164919,-2.17936512859204,9.485009664846228,-36.35028407725888,-44.383165486784314,3.6125485391449517,25.828030507873848,-20.96618468752874,36.4384665342907,5,S02
1080,-0.6004587073897268,-2.299557978236016,9.165904088264075,-38.788529275311426,-54.973004707208176,11.14011714361556,24.09558576169018,-20.451298812929842,34.180657350505285,5,S02
1100,-0.6341272920490615,-1.9000733196471937,9.501122085511113,-39.372145126626926,-60.324312714529846,19.95354005062362,24.151302324274386,-19.29317976491989,36.27009354679892,5,S02
1120,-0.42874985262999465,-1.7692063158676645,9.43382892908748,-38.11511429652267,-54.86502544328505,13.357220629674236,26.363043441988424,-19.07299180303153,37.18034067412095,5,S02
1140,-0.46167325953079186,-1.726709679282519,9.564831990902404,-32.79796690913272,-47.050840228431426,12.35488314826936,25.369759488584343,-21.145881217075274,37.96921857369447,5,S02
1160,-0.49148613039850697,-1.5748258934871542,9.558229169806891,-18.13179032081632,-45.283999217288624,11.648320705747421,25.636604728250614,-19.20807793294128,37.909787942804954,5,S02
1180,-0.3911451048235559,-1.4465351542169675,9.72334265576401,-22.27558674409853,-29.99980407562732,16.47927876134202,26.848235405570225,-19.63076630230728,39.21603971510042,5,S02
1200,-0.05777342882491979,-0.9876919531636963,9.81441682393235,-6.1628139146433,-8.83831598587564,15.360238231819231,23.133322485975285,-19.3230859600109,39.500245311958075,5,S02
1220,0.17527022828384559,-0.9211428237472505,10.206007626068141,4.824073926445682,9.989032218457282,17.93991439756156,22.98265028258252,-17.299312094568954,41.10897288749074,5,S02
1240,0.4486427430945038,-0.7185667669538927,10.250153102620436,12.252863039251821,21.514445959086263,10.391858808578464,24.903716346453862,-17.41801731102624,40.93640679176239,5,S02
1260,0.700680979929718,-0.6829397199213438,10.56180413794189,22.036618972702268,37.90769405727058,16.256351130387678,26.07417701726351,-14.60910642369316,40.74808856129689,5,S02
1280,0.6559982346823068,-0.5019739977447941,10.742521877292264,21.955534661127775,49.69472189202549,9.879465491778626,24.042851494731824,-16.777073256940913,41.70232863121395,5,S02
1300,0.8170293777321879,-0.31896569693809407,10.931476813264151,27.754001172431618,52.96879698955358,1.1552169994896242,24.998470128430423,-17.86587019432203,41.473399010135275,5,S02
1320,0.8086764957041036,-0.25477651591995576,11.108650829621823,28.530749735814286,59.87084376889813,-5.071611276774165,24.238122998154182,-17.07475726617773,40.83255264879876,5,S02
1340,0.857558316136892,-0.006131362339473423,11.171073015377448,28.903177650306137,46.77120828554159,-8.212901035254058,26.39196072716433,-15.806379217254431,40.19196891791379,5,S02
1360,0.8525749418367984,-0.014613230942317215,11.193971522148084,29.108348571107246,39.54837931997803,-7.477039957984843,25.007933308568717,-14.797494142191141,40.395555016038344,5,S02
1380,0.5645315133452263,0.07380254581571322,11.372303848496113,21.774428999687935,41.95922975011635,-15.037927794422826,26.014523268287896,-14.160333964558962,39.35411015432036,5,S02
1400,0.7496826597790741,-0.2004798866799653,11.47579754641738,10.23332352902468,32.067966773907365,-7.90543962259456,23.517694740025988,-14.090053209797333,37.051503269926805,5,S02
1420,0.5069434023611301,-0.2987755224913282,11.529455465690967,2.2471808435117344,22.272466446852277,-16.30689758133139,24.26198694483942,-13.359205210536581,39.09914080646668,5,S02
1440,0.4219824807912136,-0.3378766130378622,11.316131515210655,3.723239768868999,15.194827109871795,-13.556142173566647,25.04325913524798,-14.413272275853611,39.811206792055266,5,S02
1460,0.22065262401676328,-0.42602595871740034,11.36874338876739,-0.056486116878116555,3.301228737918364,-20.459392468712604,25.563512339113586,-13.19472596293917,37.571600457130195,5,S02
1480,0.21809145057143847,-0.752528391827129,11.00892743856299,-6.02368954990117,2.7941050555352263,-17.17279315704717,25.19855060534863,-12.829496475444536,35.123971429802864,5,S02
1500,0.14984315986554841,-0.9443310643824214,10.931081947358086,-2.4886115001913325,6.193964931555862,-15.731458905763,26.93583040090849,-12.262009061429634,33.08871897296085,5,S02
1520,0.009780489568412043,-1.0172874352946844,10.557411155626125,-4.190948772315931,-6.1349677276673225,-18.852395777353763,26.357478856832,-12.309671346262828,33.90146603441737,5,S02
1540,-0.0015456069561798208,-1.3303870286991604,10.446103214928087,-11.170645119871038,-2.518086202914562,-11.028915061610382,26.27052226064666,-12.025886948998851,35.18181114561253,5,S02
1560,-0.1788714004325759,-1.5397146594205793,10.101214366471531,-15.054988711705857,-10.904054311358067,-7.87489814363312,27.591883318426277,-11.684808761092718,34.18325269403173,5,S02
1580,-0.1639516562089642,-1.6700791400024562,10.018984065512697,-12.951473329789057,-15.99590961828657,-2.7335084024835665,28.857263357604573,-11.0082969544844,32.03760689537734,5,S02
1600,-0.3051937616932616,-1.7902259309334634,9.801368510340945,-15.966753574004041,-24.077355547016264,-7.804475399261049,27.45368894795807,-12.936972863615953,32.913474118035836,5,S02
1620,-0.12490420169401265,-2.108720230311123,9.73825581253056,-15.80396456429731,-26.619834180677124,1.0124654013706358,26.916093181126406,-12.364347763647542,33.6151219416635,5,S02
1640,-0.26813136136166105,-1.9601376371662773,9.52174027185607,-24.844121572470165,-39.84193545063496,3.1688368870861408,28.84735430097982,-10.490572417142097,33.59256797611006,5,S02
1660,-0.33844223737208035,-2.204102517438571,9.319189408649455,-29.1934052758291,-47.6271084619243,6.867376858003805,29.537452476868907,-12.700578112403683,34.90503015333327,5,S02
1680,-0.4090965689995101,-2.1613501359204537,9.49089808931785,-34.893514180780876,-45.935371455230054,8.506371024837739,29.22386090104766,-12.210476981233096,34.69867828620893,5,S02
1700,-0.4099679833713923,-1.8127453893299577,9.47570564122638,-45.72184363502788,-56.86523701425221,17.59717244741057,29.488035685312393,-11.515348042851677,35.85033303716676,5,S02
1720,-0.5879564895323177,-1.8972685467256187,9.39485510715231,-40.95275831881692,-61.90482266850283,12.785511406833464,28.58743953251065,-11.7072281532596,36.6809924040053,5,S02
1740,-0.46772494393756914,-1.7874417515899634,9.451199171440157,-35.13646697551938,-49.96147317351548,18.465291622991497,28.891688350686433,-12.324778052266016,37.514228424837924,5,S02
1760,-0.39894938557629434,-1.673584952545576,9.665475434403294,-33.680023389641924,-44.596527969367756,16.84760208564451,29.95879186878863,-9.238105006433688,37.86737581537567,5,S02
1780,-0.2735950190703115,-1.5227172963145579,9.738446181340988,-24.469080906571982,-31.007651851144082,17.928648189572645,27.727554099311696,-12.715901855388873,39.55350906435405,5,S02
1800,-0.04775304801502983,-1.4290161855715373,9.769212086384657,-9.312514779989765,-12.963796578936035,17.860704560227973,29.265449735682417,-11.094236847058387,39.589513254305274,5,S02
1820,0.2060983766733721,-1.0672362787718388,9.889168751082927,-0.845498244841814,0.30006653590082855,19.382580161759833,30.31212417252957,-12.706536286809936,41.90055868400611,5,S02
1840,0.3104555339351871,-0.8653816972471082,10.163496715667861,7.449174737271547,24.069239414645473,19.520403246689916,30.293963306728777,-12.636073342869157,42.8619563829604,5,S02
1860,0.4778001793127178,-0.6814516622532891,10.245847644213864,17.835531395813756,40.125095680109915,4.535979969733761,29.93718721051215,-13.489210111093676,40.63274261921313,5,S02
1880,0.5227098933418552,-0.4385875802468429,10.577588666031449,24.487253596637355,42.55753883815816,4.948644843843493,31.53536816718386,-10.198392294606471,40.51148414125849,5,S02
1900,0.8674094101261353,-0.3724688252947419,10.713200994222117,31.249545295955773,54.30700707638057,4.558562444991581,30.27980672817146,-12.752729675387128,40.78399966666369,5,S02
1920,0.8836926224399244,0.020676154858704512,11.15158062643877,33.07655845425968,55.14632698734679,-2.160897887631141,31.228550879857917,-11.594066435985326,40.440346078345456,5,S02
1940,0.5197055483716063,0.017368476144683898,11.045146089720959,21.090016836777732,51.094181034649395,7.718692056880939,30.037577481324014,-11.611095011855323,40.21076890323237,5,S02
1960,0.6870695349524346,0.006533233736537206,11.248812205209646,22.360360691147154,42.570518825650254,-6.193498811976238,29.56406417875162,-13.115575571680141,41.01035337382454,5,S02
1980,0.7672561497912368,-0.1310936197404432,11.15297751607911,13.178867512128996,47.03288356705241,-10.177361809530558,31.985151326627417,-13.459780009374917,40.05979875079249,5,S02
2000,0.46188514939534797,-0.1360705908560719,11.270362886361276,18.95988771358184,37.9359123178679,-7.583768470483843,32.2132580016951,-12.569099350883626,37.86973648109441,5,S02
2020,0.43351313922736157,-0.09369323333402187,11.200100416398422,6.581556503099232,23.431426011143255,-12.831579640444184,30.720730587514257,-14.047557827890063,38.78272220290383,5,S02
2040,0.43462700298714363,-0.33338882787011903,11.44520635573071,6.868566001883996,14.952841044035413,-20.035910749217607,30.67267261075554,-13.605442834298575,38.84624447865775,5,S02
2060,0.1308538160303944,-0.3186215395412627,11.183811533992763,-2.1268653344323263,5.021653759905157,-23.004619904179773,32.922470823829755,-13.330047826580582,36.46403746853229,5,S02
2080,0.1592238768203378,-0.7795377382267927,11.141966919726812,-8.503730687925072,2.837498414285041,-15.104934142008078,34.34798621009524,-15.007194922995298,37.11053655479333,5,S02
2100,0.18302833654361653,-0.8548072282566361,10.747114797312367,-8.400628236194647,0.36175392445219234,-12.273319915087123,32.30163913746185,-14.34553836473201,34.142347694044446,5,S02
2120,0.006036198476948598,-1.0766320928771957,10.659143532411523,1.9469996673384422,-3.553581743672317,-19.472284948593657,31.91273384410048,-16.928062148717895,33.98840737899705,5,S02
2140,-0.17117869701698166,-1.343582609071056,10.407680811991913,-8.123304922261317,-2.825530005298626,-7.3951582213496945,32.90391855891947,-16.28961141654026,33.154845420094745,5,S02
2160,-0.04769195315073038,-1.7189991355286809,10.280105567513344,-11.689551767663335,-8.553284203661953,-10.415424304461634,32.33725668621462,-16.330165339972275,31.917595396327854,5,S02
2180,-0.06679231988267506,-1.5937645324755365,10.146750519600447,-10.616682766509992,-11.062817021371986,-7.196324750791127,31.063840123565907,-13.851375227548017,33.93614009733342,5,S02
2200,-0.18020180567012253,-1.9255171105102393,9.833548635039596,-9.969216273427124,-22.211406838085637,-2.13417348380804,32.33799664212262,-15.768416999183934,33.53175866345941,5,S02
2220,-0.26380108164690663,-1.935150204749125,9.831868457684099,-17.84860745751817,-25.446796683943315,-3.4482050940403774,32.78595547963768,-17.46408347687548,34.9356053976051,5,S02
2240,-0.3470860190680807,-2.1201976365908695,9.453580095032711,-24.239466857564175,-33.04372118242793,1.833270504189377,33.299978137384045,-16.77256534193823,32.95281992800574,5,S02
2260,-0.6357566195818527,-2.1862500504301146,9.410007458198642,-29.49855908546234,-42.8990624972868,10.257768285815224,32.533680632557605,-17.731194973182788,33.00292821101584,5,S02
2280,-0.34712652293432644,-1.9528309156910095,9.447156675800258,-33.8720526751774,-55.22037243432974,11.492105795842326,34.76393056698173,-16.913988243550953,35.69208250438636,5,S02
2300,-0.7024284733529952,-2.0594043706331497,9.249401547926906,-37.45925288758399,-58.08514970242391,12.563724838992407,32.55627156529701,-18.74481450986787,37.043341026122384,5,S02
2320,-0.5915352910703983,-1.8785374299733453,9.330973829898856,-37.486173784768404,-60.33593088118491,16.20384112012489,32.37222645049873,-18.668304238617157,34.96996221392418,5,S02
2340,-0.4820964936470563,-1.935531988183921,9.50288859132585,-37.81738576830315,-57.90005174319057,13.448404831032827,33.439028462030436,-18.93062596828929,37.394652103248035,5,S02
2360,-0.44875721895586096,-1.9117801750791756,9.420048976655854,-26.632399626968024,-49.03902538261436,18.734257059148824,32.37042270100916,-18.391362102982754,37.24013915144057,5,S02
2380,-0.20104988325023362,-1.4144690547033179,9.624825068563595,-20.289209921148238,-37.186310658545196,21.499242913527517,32.87902345445532,-19.545427528347115,36.77755251630781,5,S02
2400,-0.10140945698898651,-1.2730592384997685,9.900978644647077,-14.972874586533365,-15.598609599109729,19.461918263017797,31.141361806342513,-20.423040140791173,38.8090335744403,5,S02
2420,0.0993265417837609,-1.076207767994759,9.909551041111783,-6.863629206625083,1.3349222524703797,18.18849883878146,31.938904960212906,-21.4813287443668,39.82213130293691,5,S02
2440,0.22465764480026967,-0.7490818293502699,10.302299360213215,6.7806427287392514,18.11946660446355,13.255205062548955,31.749999763266068,-20.65737640274289,40.85277993932013,5,S02
2460,0.41886117834407843,-0.5665657558019648,10.485299320820458,18.845298262264485,30.076964018243718,8.306670317905953,33.341807613993566,-22.67831703918306,41.929297662941586,5,S02
2480,0.6009266942299892,-0.42182905709310164,10.65689706494386,20.988144314074713,44.30981938961959,11.183432784856945,30.811179112180568,-20.24637343874498,40.04879982863563,5,S02
2500,0.7491865562134099,-0.147275176919748,10.879383865762552,30.986550488046714,51.84426197577299,2.4950514349454394,31.92667664769361,-22.21718575422735,40.52824000922565,5,S02
2520,0.7616295382108755,-0.06352790580503587,11.00137611002362,26.447363983653812,52.45539610070519,9.555836529685237,29.395458642937093,-21.700849124263428,41.22790484976913,5,S02
2540,0.8584449677511455,0.16977547620279773,11.160123559458317,28.033194499873428,54.235879930032134,-1.4765957248594557,31.087693562305503,-22.301372166247496,40.02194055693751,5,S02
2560,0.8877580889351437,0.06923536800929306,11.179008512516958,30.57408462274208,56.270399665858875,-8.216167733968824,31.435908067867594,-21.69963777188462,40.779395303021914,5,S02
2580,0.8213262976143089,0.0453646302130469,11.335853503523118,19.965518800441483,37.295749799469164,-3.6358520271683523,31.41095638854991,-22.70601421691987,38.180824727832466,5,S02
2600,0.6532905841737743,0.1459281819727376,11.251060744478314,16.399024348014944,30.836492418820367,-8.93294356374477,30.97362002964073,-22.4136700829374,38.64463372134894,5,S02
2620,0.4615131316133858,0.008208137778036043,11.363574412301586,13.576614136451692,20.238773207334855,-11.48290961003823,31.615637722465284,-24.813551872304625,37.949098033283356,5,S02
2640,0.2815091240781733,-0.2668743433422224,11.09831452214848,4.271953659610328,16.614773231665527,-18.285657239818747,29.576436637464703,-24.3142712574714,37.094082792200446,5,S02
2660,0.24283449959397913,-0.37000599729678796,11.279498809350155,2.277955943898583,10.445325824915285,-21.612653488469483,31.13204925269187,-26.498325353193596,36.036478981512175,5,S02
2680,0.16780354659727575,-0.6227124053965856,11.186447617035041,2.8042107967017404,6.8589703953585035,-13.28573182603142,29.27630115312375,-25.223330100214906,36.224827581078735,5,S02
2700,0.13285453271664727,-0.788673564256221,10.989212618590805,-8.973326583358205,7.396346046301811,-17.75239698492285,31.65058559795121,-22.76793659039639,34.01639708056512,5,S02
2720,0.051568683304234766,-1.1484798387146458,10.722856264370055,-1.1930444294505484,3.1655093274856254,-20.10093951605401,30.692258338857663,-23.428657592402967,34.1767795544005,5,S02
2740,0.11600508546505744,-1.3280885049461424,10.621622169636447,1.567961800028269,-5.4638520082946345,-12.789757137049856,30.588988483379573,-23.355073922621813,34.53971679807518,5,S02
2760,-0.217511417157656,-1.4830023862766928,10.415257331363554,-6.208009036956652,-3.839641794046516,-16.56751597825541,29.984278361521593,-24.545489635313455,33.85618720756031,5,S02
2780,-0.2029055968744998,-1.6258316460477749,10.0482220200872,-5.745199273658718,-12.028881248845092,-13.613649502102845,28.890348937583124,-25.568333888588633,33.90921048950529,5,S02
2800,-0.25216798504244353,-1.827701099791675,9.871205905396051,-9.066352764274537,-13.706361853430025,-10.981269793042193,28.972468171804348,-24.833969802024125,32.27777980524098,5,S02
2820,-0.31777845465148846,-1.8766983770476386,9.728830029188284,-21.359675329668026,-25.754454436949153,-1.046210332341479,26.770800897473823,-26.020190260393992,33.33803792048727,5,S02
2840,-0.5712032493810054,-2.262835501093897,9.775883544698315,-24.59904285023399,-34.409130991029386,8.40812894076762,28.000568181626722,-24.357212323423475,35.16728631861565,5,S02
2860,-0.30464974808485057,-2.078033019608076,9.616740267466795,-31.650966013866803,-42.66573061165663,7.777115415331425,27.632142413798487,-23.350653781381105,33.63259675873177,5,S02
2880,-0.5254940717173061,-2.0107741444541727,9.708441124179632,-30.42048257488372,-55.88086164902066,6.7948360090108615,28.12556809578103,-20.9301172554605,34.287822668747026,5,S02
2900,-0.4972636048248362,-1.9396824944923596,9.17824182702905,-37.483166326949714,-53.44355938144255,15.994520572920335,26.725725600213053,-21.926931255368558,35.06938640155672,5,S02
2920,-0.5502750591629978,-2.0418644029491273,9.449727698124292,-37.10667951694544,-60.655730837022325,9.213536765467378,27.688259719447334,-24.09544700695676,36.58020859520825,5,S02
2940,-0.5403003308236312,-1.9646069399098713,9.571647608370887,-42.378285052199736,-54.987403830575246,22.137459133712685,25.467390973860343,-22.462296579655753,38.10838729047048,5,S02
2960,-0.35397982141687334,-1.8760949206268192,9.389688926793669,-31.103392623465894,-57.08720268865228,20.005186659445187,26.593317460076136,-22.531716178679627,39.722068553661934,5,S02
2980,-0.2372972297474866,-1.508747742995187,9.541796395845285,-25.232473753467357,-40.75603673053035,20.687805663921022,27.773386733128568,-23.69526580939014,40.06455503890053,5,S02
3000,-0.10659254549921923,-1.3632464290135065,9.928691040627925,-12.822333729423708,-23.127193900407562,17.789566950965384,26.728478131729393,-23.602072830318523,37.89510610197256,5,S02
3020,0.2682016813968626,-1.1900628652352367,9.972277901865832,-3.379207640481458,-9.013216820100151,18.11412794593438,27.09247173448109,-21.70049199432639,39.976992422354044,5,S02
3040,0.3867868504815858,-0.8849710307593468,10.221622316376203,4.008343861305325,7.353222880467956,15.523988585702481,25.147098872066845,-21.443158156799825,40.387583640782104,5,S02
3060,0.3021811748397226,-0.5749896257079172,10.172579786714524,14.705899874523414,26.767485498185703,13.989408990510322,27.139181877608657,-20.986327896497762,39.832560480793965,5,S02
3080,0.6089077776865781,-0.4502324054059159,10.509392283284459,23.48794426186114,45.541918940821034,6.031753383854184,25.26067382962476,-20.73184003807575,42.55569281268638,5,S02
3100,0.6721063688216248,-0.3539898014818431,10.810923305117775,25.496207697662843,54.69507490950542,4.843743712195775,25.716536412084963,-19.614783105970595,39.990193679105474,5,S02
3120,0.7677021302778134,-0.062434885332220316,11.054022154424736,29.678729819283657,51.90275950828387,2.2475645971118463,24.043937169736544,-16.917680994700554,39.31035005143785,5,S02
3140,0.781793414297701,-0.04131002026015211,11.397007512647521,33.7189431016641,58.40551470698832,4.0819887644687745,26.056731799602844,-21.418347990747417,40.06845348196974,5,S02
3160,0.8674768078868325,0.1530389620705353,11.112542519236792,22.38710825418035,55.40586846839547,-0.3369634442266124,25.273597730194815,-18.722187467042012,39.400963738348594,5,S02
3180,0.7489988358311769,-0.012458008759819582,11.417694272002704,20.14928878639525,42.06580995787543,-2.447676056426084,24.627258635959755,-18.631562140887088,38.4396473304482,5,S02
3200,0.6218095509492104,-0.052808617398661245,11.301789852834212,17.754949798777588,36.956876754425885,-10.146890532662624,23.95709576578748,-19.500976082311546,39.59565732104067,5,S02
3220,0.5040067803336182,-0.12040973525908912,11.42623912410235,16.051225307461653,25.97307263468084,-9.349579835104393,25.78512223417365,-19.563491135141412,39.336139345632134,5,S02
3240,0.4459173177415835,-0.21330675772032592,11.293275549073615,5.724814022278889,19.394033216426603,-15.734835041363274,26.08646519343215,-18.950559571991818,37.24395606433999,5,S02
3260,0.4414737508979998,-0.4944326911155887,11.158998461273116,3.0313951982124783,12.116678902105564,-19.587286644352663,23.73014788429174,-17.845896247746126,36.09355675731925,5,S02
3280,0.2781816415349842,-0.7163573364250859,10.97857726180445,1.5914272829557445,8.558307975504716,-13.930674326552127,26.383593248530403,-18.203178132932607,36.523568204060226,5,S02
3300,0.22949529324462603,-0.6893549772834298,10.814326843361435,2.2665381816610575,-1.761802611329261,-24.987149476775183,24.543953073908447,-17.917448992403575,34.95971452817443,5,S02
3320,0.030311116965968513,-0.8880009409133307,10.678237626725736,-6.213866172056402,0.6968435474627335,-14.086989199605652,24.341570636788163,-17.053911566491784,35.05846387529525,5,S02
3340,0.07916423666716513,-1.142774420454348,10.332591157427453,-3.1519909130641492,-5.319266571872972,-15.291383685040975,26.09688212593697,-15.767692704587166,32.97514685610153,5,S02
3360,-0.01866775408914198,-1.3819008306041611,10.467077992895772,-1.7199331235877793,-1.2869813937232626,-12.266460455567312,25.856603356833073,-16.03553787586415,33.53883803822208,5,S02
3380,-0.07300995247952907,-1.4652328789771212,10.242923715930608,-5.423262954180187,-9.71065555858754,-12.091162649298013,24.77199978110614,-14.312676940595239,34.60667071555311,5,S02
3400,-0.24663280634592724,-1.791273462382665,10.16331993892212,-12.61547147941494,-16.5220230537491,-5.544381811230037,26.71253769343852,-19.071946690547506,33.602574502858815,5,S02
3420,-0.2612277589595139,-1.9719332551585254,9.798536577378467,-19.815698133632402,-21.98640377286091,-2.32687521951021,25.145512138211224,-16.017230911864946,33.124054158730175,5,S02
3440,-0.26304128701314955,-2.199531798969185,9.719689442191417,-13.496136006933838,-32.36837562240827,8.555210906823428,25.94984177849178,-12.765294910250391,31.918243827268558,5,S02
3460,-0.3015682196969206,-2.205125505156038,9.683751968114414,-35.284934313097345,-46.29999937520293,6.354077054515803,25.111287595336098,-15.105906100027498,32.68704091267979,5,S02
3480,-0.5427375933664316,-2.0835591752184444,9.549085379176729,-29.726986669670406,-48.769191035560766,13.172844858599523,26.1053204883724,-13.947323756284545,35.957377275861425,5,S02
3500,-0.6821189221000453,-2.2955666181775976,9.473376647898949,-38.043767235482626,-58.68840335366766,12.041802703751646,25.207379048997737,-14.166449334870467,34.72157914803452,5,S02
3520,-0.5905771372782712,-2.079101743727076,9.575828952209742,-34.60073622403779,-62.085638772782254,12.329668764550037,27.261516401554502,-14.250092259008044,35.599209651793586,5,S02
3540,-0.37070069469471445,-1.7893471639366856,9.487228394927083,-39.45805752928041,-58.72017866691492,15.316437731145054,27.795129635682716,-14.021835100307857,35.949135022282206,5,S02
3560,-0.45727553589641046,-1.789000108306909,9.340603417885836,-44.136852597770506,-50.0491508524443,16.14378399569666,26.48391845081226,-13.090118481732837,39.80516309636302,5,S02
3580,-0.2500116303448875,-1.4667779527774054,9.502282466544937,-28.42147784321078,-45.1627701380649,20.214289177016596,27.288154390839765,-12.904781380734814,38.16549713194404,5,S02
3600,-0.24122549637326893,-1.3822081084382476,9.467534975979737,-19.10872822740148,-22.719929442131587,19.80549216656502,27.404917402251595,-12.79069113773394,38.6021694537555,5,S02
3620,-0.04996808893904753,-1.1620428360119752,9.882044303462786,-14.551895047412032,-15.009749125329744,22.50549545302648,26.762430314870727,-11.185793868043561,39.50594402747702,5,S02
3640,0.27640621499330426,-1.0083996980010905,10.020559035019371,0.6260432744256184,4.381988000988573,18.084919888035927,25.615586457092835,-11.705097245491555,40.15256067816667,5,S02
3660,0.43820932542798563,-0.665852479440971,10.191081165123032,9.89657767469345,24.726048148087237,10.231119539161709,26.3445775086746,-10.554957039355335,40.739654988699755,5,S02
3680,0.5808020651491487,-0.5047533638427798,10.460203308233904,20.04903063931665,41.33829566756001,14.594999857092716,27.481284998065167,-11.0327320832094,40.654670543320044,5,S02
3700,0.4868194259232238,-0.37549145461929734,10.944622980453046,19.239088309857742,51.87839289439486,3.056917746890532,28.757378710522477,-12.104853243865803,42.21488444953868,5,S02
3720,0.88081741226985,-0.2875270824047851,10.816479422140532,27.248958131930216,54.093434514646454,6.8923286833956725,27.829577147005494,-9.153101859526942,40.37070430496708,5,S02
3740,0.7288911515645191,-0.036260477676820065,11.047953470027938,29.625383828084008,50.804762456119626,3.174860126270854,28.303272201098633,-13.11082909190764,38.6087356265982,5,S02
3760,0.683022844578733,0.06757598143848614,11.223724701715577,24.58697605888731,48.926818242177376,-2.8977191535044047,27.746657193200345,-11.918382271637977,40.92514390668502,5,S02
3780,0.6566648725705462,0.22036205501573491,11.304377247498506,23.940274663614197,47.086017610715594,-6.713911639851814,28.059944704568785,-11.60308275425068,41.156720485601355,5,S02
3800,0.6081366063117299,0.15364829854146161,11.655015887688434,18.00968306359277,36.04717803053754,-7.679822381333773,28.760824425110354,-9.615529047838336,38.44781970972103,5,S02
3820,0.6251741624518041,-0.13246149574361732,11.202868461314969,9.725112570106102,30.93396157403311,-19.995875104394358,29.37180558301783,-11.226771240062398,38.385164979390886,5,S02
3840,0.4263231939583526,-0.30348750035791683,11.298837418182696,4.594571007298515,20.131268950624573,-18.834989277437284,29.24720582797127,-12.069749479819714,36.36937182040807,5,S02
3860,0.524458785938632,-0.08222174549674156,11.313748180091643,5.540638248912969,13.157653788035171,-26.770251088171065,29.605155523276625,-11.721318470640476,37.52010433434504,5,S02
3880,0.23308680637646503,-0.37115806811144286,11.027050421687772,-5.300719227799592,10.944917064768969,-13.722500748700503,29.237947231199655,-11.338436654264223,37.769058656421905,5,S02
3900,0.1850803813419008,-0.6250066836134711,10.722113063713014,5.30928945764258,-0.46940401293970413,-20.59481936532895,30.74301002496643,-13.08165336218319,34.87407866521165,5,S02
3920,0.012128062651042743,-0.9610920466856625,10.952641519811406,-4.730660118661734,1.6757430201819992,-18.764897291940425,30.81164247452162,-12.016851883001667,34.52752311749251,5,S02
3940,0.11080967696390244,-1.0593890903993926,10.586076874120817,-5.895588951194344,3.912275461955934,-17.311628128492487,31.08064479604761,-11.403935309037944,35.650209745032775,5,S02
3960,0.009698792913376122,-1.3371962653218548,10.477951221396241,-2.6146678024733037,-0.2591121654266908,-16.669830564188935,31.332333299646898,-11.926978185394617,33.1880271663499,5,S02
3980,0.027632794439434297,-1.6355579185987563,10.430242875837912,-7.327642658432665,-5.603250423564776,-5.256744556363742,32.538148550623944,-13.36994504089718,34.30484107721086,5,S02
4000,-0.21419860740146654,-1.792912733399697,9.99783601234866,-10.962355365915013,-15.246406893507654,3.068908341542294,34.068171095840114,-12.077154267368687,32.48865848902278,5,S02
4020,-0.15910757220074165,-1.8950047666975178,9.810917680479768,-12.817871060692294,-21.854893770629225,-5.873612050281821,33.048025380028406,-13.370316734033704,34.07035944460803,5,S02
4040,-0.4042907215395415,-1.8750011537094946,9.565710528813035,-16.91254489095578,-33.33867174722509,3.9893440639061,31.063978392579866,-14.294100494565106,33.629324418726895,5,S02
4060,-0.2622316047552198,-2.0553535661863,9.682312697336053,-23.226136244257837,-44.02753567980085,15.665037539067713,31.495075242650667,-13.819653602549394,35.338524396486946,5,S02
4080,-0.4307351266787587,-2.1661608753143904,9.470732466988999,-31.803379896373546,-49.14139450359875,8.067009309115107,29.929460952416758,-12.843490261222259,34.72067730485885,5,S02
4100,-0.43954384983514383,-2.2385133689688264,9.375931534953287,-37.36328160639506,-58.94916001898117,12.2056215544076,33.27850284066037,-13.12889692567867,36.99535389576371,5,S02
4120,-0.5560576958683455,-2.098646180162437,9.44717477085872,-36.67961628897094,-61.45786488771241,19.866704618332026,32.38445842798852,-14.281965691761073,34.455711568218256,5,S02
4140,-0.6194238660200261,-1.9890231868280477,9.433726475897222,-37.10795434833832,-57.52523093053313,20.805960827269185,31.747716288685567,-14.393117294504886,37.387684515395414,5,S02
4160,-0.7890478477220599,-1.7899309521474713,9.290515566909928,-32.70321514911052,-58.63460593852035,20.986791295828162,30.69430162657205,-16.526236807188404,35.946904957746966,5,S02
4180,-0.46910021824990356,-1.6711757875921438,9.580542905720153,-23.878010903766718,-46.792805483130905,14.37195217929238,30.186346009511055,-14.125345462305384,37.63547179773606,5,S02
4200,-0.24912368334725118,-1.4037785594602699,9.594919203384066,-21.67036355165485,-27.48028839182287,21.197793176451995,30.698676300762255,-13.29698493116201,37.635612747948954,5,S02
4220,-0.06579451056880248,-1.3139959261522736,9.789127181971338,-13.272903565745093,-13.254399767262953,16.435204661931806,32.523957369874,-16.39704260469514,40.36188205985322,5,S02
4240,0.031190888318670923,-0.8973043710325215,9.830127645829215,-5.5167936127903925,0.9274902615936822,18.696131018309273,31.32655785419626,-19.17549464317399,39.278672120663195,5,S02
4260,0.4012626962493602,-0.6639068595925961,10.35681694176764,6.056946915615618,16.215014935412174,15.364833045075907,32.26458653430146,-19.046181337456332,41.060475954915546,5,S02
4280,0.522383171618764,-0.4877594757746486,10.531655864874667,11.998943970187764,40.12968874756309,13.164126527182484,32.40470878520378,-17.44446448867917,39.74707117540774,5,S02
4300,0.8294478182968541,-0.2619587068943834,10.66548338784095,22.029148346092914,41.99765945474044,11.232886958046818,33.67969635198389,-19.448573977856505,38.69684291978623,5,S02
4320,0.865284372699347,-0.16276824405180174,10.877381623750647,31.514260925427276,56.85669233277219,7.687362287729631,33.28949305777799,-18.422973121412053,41.551947626510966,5,S02
4340,0.7379785806189432,0.0670836874810126,11.015554401500768,36.22721681319682,59.821099251814964,1.9469999440813015,33.49205555683206,-18.293568462679673,38.862145098939976,5,S02
4360,0.8093334795715162,0.08982751693690535,11.054393019626053,30.52769063672289,53.25537260406193,-9.26573789891395,32.361564863400034,-20.025435175616757,41.0300804488804,5,S02
4380,0.646369928149864,0.08768088621655154,11.183390167047541,28.0006088443478,46.95100354717903,-6.624489065383175,33.21658971388929,-19.09576545254464,41.279962517401245,5,S02
4400,0.7344103615284486,0.08750470320396528,11.407702336490441,14.413195856253225,37.96846115438815,-0.7704158066871379,33.2958214238429,-20.167854349196872,38.95778648764153,5,S02
4420,0.713793686061233,-0.21421103657706458,11.320544127454797,9.68214405811094,39.13664602686836,-6.382038172030604,32.66029568750979,-20.28547478274179,39.91808907500493,5,S02
4440,0.48291140614882466,-0.14829584055728384,11.348473960072784,11.33596478358091,23.83008189584017,-12.627262443371558,31.81344551530686,-21.10647825513336,37.96368142702033,5,S02
4460,0.2953542275013936,-0.2601239048339118,11.150319895349977,1.2014013549143518,15.008221575504805,-17.918679568204222,29.4170242411047,-19.87678492768155,36.9723020901765,5,S02
4480,0.31769917964443767,-0.3678652808087087,11.249641814454193,-2.196107979294079,9.262843829910029,-17.50555926736396,32.87180929658947,-22.462145590883893,35.70926520212109,5,S02
4500,0.027713308596211836,-0.5977136866554242,11.068194027269321,3.3344994705221724,6.535164594274303,-15.205800953216789,34.43039368671573,-22.611841077461623,35.47524588739316,5,S02
4520,0.24192773507673926,-0.9094981232692505,10.731541689268393,-6.506849515483836,-0.576487896955505,-15.793108882344464,32.10132039818944,-22.542312439044295,32.76808875225974,5,S02
4540,0.06367695032768989,-0.9233786485902611,10.532992242987453,1.125544022241714,-1.8712083230722367,-9.321816135532009,31.69470260840116,-24.78164909551383,33.67124273032732,5,S02
4560,0.10234566446511266,-1.2254241903948586,10.333973046998656,-6.919408969091728,0.33595705660158015,-11.555926916959184,31.978150773481627,-23.509011515523955,34.01343003035545,5,S02
4580,-0.0757394846997747,-1.56682913144343,10.014352334356605,-10.192397177486896,-6.690074021527543,-5.723359966139362,32.355805232134145,-22.304937321220716,33.305226439712484,5,S02
4600,0.008453135936345335,-1.853277454871709,10.086023495882637,-12.272845615024274,-12.692183340486022,-4.375966698739626,29.582016147350597,-22.47645394373796,34.70571126039784,5,S02
4620,-0.07899143236025499,-1.9674686850370753,9.867844822611337,-9.136640806813404,-15.932629618151491,-4.25381751066718,30.696731260114728,-22.95997374280544,34.87420055318161,5,S02
4640,-0.22083647504552908,-1.871568048097149,9.809989327423471,-23.57768111882291,-19.616281226162236,0.6932340331987831,30.07287970411095,-23.17532743843644,35.43379593739873,5,S02
4660,-0.403555428336577,-2.0973977666852073,9.668311479679733,-25.750788032700164,-31.440593551781447,8.820164332165692,30.517617940331643,-23.024752289456195,34.67722972344123,5,S02
4680,-0.4840126655137512,-2.122267600424687,9.51383059286212,-26.19897349547598,-50.05698779799707,6.733613568625641,30.645680872140822,-25.424227762576244,36.002871971148444,5,S02
4700,-0.5531991284342677,-2.1156782162569243,9.40916631848118,-36.69913756368276,-53.30758771775932,7.60243044119569,29.91986953392748,-23.74084186093581,33.77062528034671,5,S02
4720,-0.4972509445319687,-2.13839727769154,9.502158517982549,-39.69807754840807,-59.58429500432195,17.595061791719534,28.258761942198305,-24.85536936086595,36.78615701533085,5,S02
4740,-0.6612717099773182,-2.0730779548692713,9.587897655245039,-35.83677288888719,-53.81247664170887,17.592768967369967,28.422799142299507,-23.21945733270221,35.068267453029634,5,S02
4760,-0.46491483284032364,-1.9426609609882186,9.365978423951704,-33.71281963744682,-54.24495956453452,19.044838455839667,29.668964930502867,-25.756098684246552,37.15908377550286,5,S02
4780,-0.43242005867988165,-1.6615676245215014,9.320577456463678,-33.39161517441006,-45.128692416888086,20.85030083405525,29.786885380273716,-24.199228572041815,37.088358629491104,5,S02
4800,-0.3385458379997649,-1.593798769499385,9.740036265927813,-24.803879964205958,-35.98495000943396,17.3917653128042,28.78932378515492,-24.350016619264665,38.25437439878487,5,S02
4820,0.004416084446284899,-1.1992388799465254,9.711051650171596,-14.99112447727678,-22.156326456693787,21.37877333196192,27.422497381069217,-23.98637946097926,40.36052696797114,5,S02
4840,-0.08166743585139644,-1.1007152995668912,9.876137993183626,-5.500643429928009,-7.678670064837688,19.563182229403253,28.104476231385064,-21.739581553247135,39.07487567623884,5,S02
4860,0.35928117317277675,-0.7190199947487226,10.141293100462088,10.354639623523756,16.27626408103133,14.671953871446425,27.550819825958715,-24.549188501736054,40.548044814393016,5,S02
4880,0.4639060661947303,-0.6934106450873121,10.452419193627252,15.278758082017397,34.213324635406096,14.017199130817966,28.322844516051386,-22.235930577408432,39.049021405571615,5,S02
4900,0.5237595570935921,-0.20831831097100417,10.660763314814545,25.296110164901588,43.55382583569897,10.58467889520306,27.843250114112543,-25.017471248529088,40.04774265736156,5,S02
4920,0.9166741467135296,-0.15313289831770438,10.858505121409868,33.4491802066439,55.880388289730945,6.780443661386487,26.824287009167428,-22.815992689954847,40.94119391669421,5,S02
4940,0.6734637812654339,-0.35022708219295634,11.013138859088428,27.84754742631134,45.37636547479442,2.6193868826061144,27.464638317425862,-23.27196100754933,41.353144597998906,5,S02
4960,0.7945089078307492,0.06329385610470867,11.170709559458647,31.228795183789504,49.115046922167465,-4.447349242393588,28.317003585857535,-24.182758663640396,41.09975360578644,5,S02
4980,0.8687396220352609,0.0501129153344574,11.16344525222245,28.812893256717647,47.31528213030906,-8.147849058756707,26.909878277184955,-21.29798894348887,39.117175439981466,5,S02
5000,0.38990742571709214,0.07881611152837856,11.226091831419305,25.247755913315608,48.33212968484621,-14.602477952376134,26.50529991008418,-24.703265202289423,40.09537879410981,5,S02
5020,0.42328876438773344,0.09176326183766739,11.386615630600458,15.873434337150126,36.01056585356879,-9.593654138442215,25.767138304236845,-22.02416116714882,40.46633540035645,5,S02
5040,0.26560695623827146,-0.2990132990853375,11.195818601052945,17.013499435522643,25.15190121193484,-19.626974393844677,26.619583505894965,-22.957933635123993,38.614256088182564,5,S02
5060,0.2791232581255763,-0.16608639855079066,11.202020102820399,8.943909958113736,16.10291611484314,-15.21287581438209,27.208066068323998,-20.22624102265925,36.97933791599366,5,S02
5080,0.33027106189699684,-0.300632753587864,11.103503749559838,0.6389028353066513,12.320752989265355,-17.045014165702188,26.286392677380253,-22.51307564213311,34.69105831810009,5,S02
5100,0.12698505246584713,-0.4863702731671704,10.963712138055518,-2.018883460365882,8.492230779448713,-28.380569421306,26.17326262509269,-21.370965373241354,34.81025301052143,5,S02
5120,0.1618374248340892,-0.8705878658392063,10.834959409792859,5.146044942692943,4.994990138911069,-15.554645718516612,25.24098796754543,-19.406329300512155,33.914283679267385,5,S02
5140,0.13825741487170978,-0.9832438176925125,10.659052071516502,-5.752907871088557,-3.058893426841118,-13.73753639683911,24.69191963804375,-20.13546821050223,35.920201476100004,5,S02
5160,0.14198525778276558,-1.1340308381801056,10.58441780587733,-6.4801710204155025,-0.5409986666387476,-11.909439327536527,26.25312043116251,-20.104676176963345,35.53860988301066,5,S02
5180,-0.010362212217443947,-1.5361444140669327,10.415393510506396,-6.448082267009931,-5.587113881123918,-14.94126066540657,25.11461167815824,-18.536319890129704,34.272543729075785,5,S02
5200,-0.14525832306832162,-1.667268979005728,10.078527604142202,-4.882341371860395,-10.76654897832904,-12.08730295496772,25.52894530200507,-18.323648107493618,33.4964333163961,5,S02
5220,0.04306903067801711,-1.8289931778661335,9.80307808365222,-11.228892833091212,-16.756093740151798,-12.289793939544559,25.692756661665676,-18.860372963112482,34.310952987408,5,S02
5240,-0.20941086965360348,-2.0276012835377832,9.871331252553773,-16.296424258486493,-22.099997287406424,1.932407933272125,24.262577118086973,-18.710272989415856,32.71258396961015,5,S02
5260,-0.4653527822257708,-1.9302901771616108,9.667942872003334,-24.31614701545235,-34.688086541168936,0.44695948906926686,25.395937807409766,-17.111292270158195,33.499774907520944,5,S02
5280,-0.23608386866598288,-2.2442723720914093,9.705225524479204,-26.91189577646419,-37.97380111693606,9.72710996486483,24.30121437191007,-17.352361929390057,33.31155853461837,5,S02
5300,-0.6673889158447632,-2.2491010412530468,9.44377775519119,-26.85099389486898,-51.31173504781453,11.871743111820377,25.43774260494986,-15.989031775234771,35.96593435336504,5,S02
5320,-0.5148851539492673,-2.202313107958907,9.327564812397467,-37.35068485319669,-59.04152924981397,15.514684405327184,27.17882940842525,-16.074274930863712,35.53444498452367,5,S02
5340,-0.5159432196308368,-2.1281277920415573,9.285151531720924,-43.5419945509835,-60.19733372975044,21.346658050536067,26.36467261115336,-17.144956990945573,38.12159136237715,5,S02
5360,-0.5067427999405112,-1.9299280381203876,9.231292231153716,-34.007994931598134,-60.78490888656434,19.11643464583902,23.0493008768898,-17.46870704672874,36.675100843953054,5,S02
5380,-0.40146123658554156,-1.7907525060265699,9.330660336966051,-34.06950190300631,-50.98348380806476,14.135344972818425,24.768875221419613,-16.832416418018298,40.03612522563378,5,S02
5400,-0.42622493973609665,-1.458330620502913,9.630407051672647,-30.19328408489446,-39.99204152659103,19.19492737720571,24.60206100286577,-12.820942470520805,38.89413159241912,5,S02
5420,-0.27255888532746186,-1.3838264846456598,9.656981697038916,-14.324061868925124,-30.048154415390403,18.060897931490494,25.946292245585262,-15.326348847861418,37.30867699494626,5,S02
5440,0.15394181945922186,-1.129999577315751,10.01477624646563,-6.568366748437394,-7.272985010624999,13.774054281213395,25.244485614482095,-13.305708298779999,41.51463044380004,5,S02
5460,0.2539781525774015,-0.8033807100345252,10.154134963028593,-0.4529365493262203,4.656929129028168,25.18329387424525,26.406493685662277,-14.194670275477234,41.22536521455057,5,S02
5480,0.24820481726454527,-0.7736658216120662,10.244765213019395,9.59882369596409,23.74017235253944,13.96695222730918,25.466549121516245,-12.029505596052896,40.497280701041014,5,S02
5500,0.6027273440475701,-0.5440693309718527,10.529903772955489,13.150242764269873,38.18405297861465,8.576981760275814,24.899129006316123,-13.136827923602183,41.87069374417952,5,S02
5520,0.7458345285437338,-0.20629299375325472,10.574394747150645,26.33109416315815,48.084685196875824,11.290144024031248,25.80473152640409,-12.367654912953078,42.70050726848742,5,S02
5540,0.6938408653658743,-0.10609601656745302,10.98513624309319,28.4084050780295,54.93880569259579,2.033387049898428,25.995633048851396,-12.636350921205759,39.46467769538548,5,S02
5560,0.9508908109831578,-0.00895362019438966,11.031352615083692,25.89890562090011,56.76486095379856,0.04994232887681671,26.765744918952535,-13.438738290922863,40.352844185850685,5,S02
5580,0.6541197542483423,0.08080988926773344,11.06568926037239,31.892452205341815,48.999890300555144,-5.269017400964817,26.27212552899505,-11.452341787132276,42.245802315560525,5,S02
5600,0.7035431703323269,0.07345223093686709,11.266093836050878,17.758174668942992,49.30062170898742,-3.475233057524466,27.433824716453483,-11.771721995897089,41.16181341549612,5,S02
5620,0.6609987621735521,0.08053449165092874,11.342487799910591,19.31581126323794,36.669398826880354,-13.264013160618616,26.152121784432115,-10.286694063000144,39.43837860211987,5,S02
5640,0.3226302590602834,-0.15810133534471482,11.277105882781367,10.166787174944137,28.0069177870377,-13.746845402711521,26.834422191531655,-13.729546779384155,38.469292884378476,5,S02
5660,0.3714998478843258,0.023996334647324938,11.34868265170009,6.495017408751203,22.04848377603964,-16.46402363790995,26.944583999873537,-10.706234845148446,39.12040235935963,5,S02
5680,0.1596815364225666,-0.23724934785015062,11.240751189471178,7.732238718270383,13.212450593875207,-15.554576138604206,25.612164692238917,-9.633169088887461,37.38867464020575,5,S02
5700,0.23214118811191325,-0.41703994925567506,10.967420986855933,0.6776309961105138,3.7423610635501667,-16.05535187870385,28.816789100881405,-11.195364647025702,36.449799842268924,5,S02
5720,-0.0038412858568976083,-0.7459029726477315,10.747740494558803,2.6408502807898016,8.203493472810877,-19.71424312594229,27.30972525114289,-9.670861139691521,34.54835049269545,5,S02
5740,0.23731249121431258,-0.9929329241031029,10.83650772622518,-2.1311266976268035,0.994233340727041,-19.83104208262804,28.01553380104737,-9.871489651371537,34.14870427520539,5,S02
5760,0.08424107983418863,-1.2199717523484797,10.450190883764865,-5.642122826137043,-0.688320152875215,-12.40994696389429,29.005052779266503,-8.223624445796775,34.45615588371989,5,S02
5780,0.11375106969098975,-1.3323882759985695,10.123417432658256,-10.379482130214841,-5.211027370440441,-10.480769286285172,29.667267493927245,-11.191578635400901,33.52431424037182,5,S02
5800,0.08072664675882689,-1.5231757069807947,10.216994619606835,-8.865200752620922,-10.987541985114358,-14.559743504532094,28.21155055024195,-10.94740649083454,32.566688169045705,5,S02
5820,-0.005099320944622107,-1.6919679827489456,10.016516860024606,-11.90362714889687,-19.618828697165043,-6.084373783201945,29.208995995941684,-12.403051787508197,33.695239230353984,5,S02
5840,-0.18803218524930318,-1.7937266750503051,9.877163432780819,-8.698192872625711,-23.82554253813362,2.72089715335543,28.934783930873664,-9.943684876042756,34.61274670398522,5,S02
5860,-0.12293933907895804,-2.1747738401899888,9.753530063318463,-16.829625513619707,-29.81417068864486,0.9721714116847687,29.408118388540313,-10.41572218775439,32.761257606855835,5,S02
5880,-0.2788667305688576,-1.9810338350736127,9.65427136188933,-30.3654224851017,-47.23363403691473,1.9762002887609147,30.31274163150936,-12.358731773048754,35.49582269212575,5,S02
5900,-0.5591687546924929,-2.1319007556811935,9.452749657950886,-32.85847614492472,-44.93746192603595,11.559513432658783,30.874786353436484,-10.775678179387825,34.70781128692771,5,S02
5920,-0.4689932016241918,-2.080046558732726,9.497393773894803,-36.859061587170764,-59.005467202044954,14.384103642238136,29.66891332966835,-12.943770825153102,37.95108597544688,5,S02
5940,-0.6055045284999795,-2.005461262363913,9.57764649690425,-37.64288852626584,-64.70454735075384,12.487895043917012,31.16808168156943,-13.945758368379408,34.98937703687516,5,S02
5960,-0.554564644369945,-2.1245617989518997,9.345628430011702,-43.28571957385036,-58.573684988898236,15.52771663377057,29.446246279463605,-10.72986792252467,36.94666071204382,5,S02
5980,-0.5572729243608552,-1.8517616561854477,9.362517329166991,-35.424199651074325,-55.64546205620558,17.975837788326558,29.783019959285934,-10.806956844126361,38.422535403432114,5,S02
6000,-0.4522742477737527,-1.613892167323884,9.5942023852112,-28.37950021198946,-44.66606733040458,19.370320247315828,31.16611164774341,-12.138515398645831,39.3938754730573,5,S02
6020,-0.27973692614392365,-1.3704788308825568,9.670973787169936,-24.73261763908999,-28.251121322487577,18.967059704517553,31.215048673972262,-14.320170052997975,39.11823901411825,5,S02
6040,-0.16454398448994725,-1.1121737692966727,9.783461388983676,-9.879782797363998,-10.801175417727908,17.961717245932515,32.09627203657071,-14.332387388556889,40.34202898286868,5,S02
6060,0.16860118075001948,-0.9857190182419124,9.999874271565297,2.076860816745211,4.848755773958874,18.10361431183457,32.28808360172172,-13.447767517078585,38.69390794744146,5,S02
6080,0.3612209023490801,-0.6704347876478678,10.372858393885428,10.565233410082133,20.82459069566907,14.290417616484445,30.930212184848955,-14.041400637945607,41.53862512337548,5,S02
6100,0.564655154822267,-0.5757298552169199,10.31802717799056,22.240869394728893,34.92287033582223,14.397314534555813,32.98274871459259,-13.157647732670325,39.760075707062434,5,S02
6120,0.7511531596883243,-0.2921088564383012,10.641958323249735,24.018919701250038,39.848148060141064,15.725632025206428,31.782073700305638,-15.054043306994881,40.75576057530168,5,S02
6140,0.8235036677727474,-0.20955417792141628,10.967780412661948,32.82623410709176,54.010801188344274,2.310125833276191,31.99487278725137,-13.865145049415112,41.210194394228786,5,S02
6160,0.7395867804934021,0.04169507011710896,10.948475063705583,29.912350240101897,51.178710483497426,-0.3471499767024513,32.937188945982484,-13.914587659243468,42.29023970704927,5,S02
6180,0.8542367381276443,0.028345225064812532,11.135916303565724,33.12766168146008,56.082841081567416,-6.1485195533899955,32.473215150762925,-15.510732947348025,41.55556686932713,5,S02
6200,0.7827903939159018,0.1508564438335963,11.142881305796262,25.87928248315942,48.26544418400483,-3.911715746439389,34.84536691848183,-17.78770132021218,41.02539456887897,5,S02
6220,0.6357401334277983,0.03736913319027464,11.313737124251109,18.55243361769008,37.45076655282684,-13.415822532480995,33.43297176141154,-16.588753908961316,39.64143710606883,5,S02
6240,0.5786104444522924,-0.12798329817867427,11.444993179440104,9.00312911051084,34.5018312290512,-11.794979643893468,32.18757285261903,-14.407940137029762,39.143249383519304,5,S02
6260,0.43338637671190283,-0.29519390940262025,11.228407591249477,8.020883406070979,18.22897131983741,-16.051266567379574,33.35617743816932,-18.069581540579357,36.53515072792249,5,S02
6280,0.3505543481959533,-0.21029409648064,11.134594859313864,4.784413000619316,17.53309499648893,-8.613228829353902,31.053709538195996,-18.337006053253848,37.49496600113351,5,S02
6300,0.23956837675416046,-0.6312892346676839,11.011527892505391,8.029296398585352,14.09372167762145,-16.517399334191825,32.11130092806958,-17.129913872110095,35.25617597052178,5,S02
6320,0.029980573353899684,-0.6332675403578758,10.988932085409022,4.178798476252783,1.3966770350689164,-17.03301222476365,33.57502390378832,-17.180335002121865,37.00220048687803,5,S02
6340,0.05695844228142503,-0.7311637016682506,10.82178457587785,-1.4815978755702854,-0.9674536754049337,-17.128711971071635,33.070897899530145,-19.330876257371486,35.345562015009726,5,S02
6360,0.0558378875166204,-1.2561755850398613,10.622029310656853,-7.071132185742893,1.1434099932510786,-15.539706999267947,32.77372368303834,-19.777818343027842,33.55379728396599,5,S02
6380,0.08120541191487746,-1.3586568400338708,10.372080505403154,-8.315802018092997,-4.620358763802288,-10.825630028333524,31.018391446816082,-18.895075261347884,33.00661718442403,5,S02
6400,-0.09702419097524365,-1.6130803009777368,10.170431217303834,-8.558615361401301,-6.419778859443201,-10.783973627974746,33.01941013707568,-20.515491370705654,32.19808912268478,5,S02
6420,-0.16502741852521982,-1.7820268380853068,10.115511960583657,-7.97778678066279,-5.972421005944187,-6.102386691095815,30.52957597889546,-19.84903489245591,31.95581215259301,5,S02
6440,-0.23184223977767862,-1.874544580600307,9.894763397544898,-8.728139680552822,-18.32513212678495,-3.9849641148758628,31.36170026393705,-20.637625816209088,33.234959164367,5,S02
6460,-0.13345592823895588,-2.2138277057668816,9.383987322709503,-21.28226942304425,-29.32536954114675,4.9153773207323965,30.029654731085433,-20.92486048065428,36.13506327685071,5,S02
6480,-0.3799731528368331,-2.125769997203144,9.632878548795208,-31.284572120618197,-37.89044947042035,2.935089380550393,33.05247070848699,-21.31107783403678,33.16089407523766,5,S02
6500,-0.75705715880736,-2.1803578686377465,9.302851228414351,-33.23484925833936,-46.93861596049566,5.336952943684062,32.11550557771342,-20.63879044870646,34.94760030439602,5,S02
6520,-0.5749405070459463,-2.3168895449484235,9.45980315212255,-29.884135333232447,-53.170059613173116,5.731847001961731,32.09245799474516,-22.125536115504374,35.328944618265325,5,S02
6540,-0.7503023666203568,-1.9323980768182494,9.360373207607848,-33.56450031711926,-58.893487556473964,13.476319492181197,30.41118409481216,-23.687141692721063,36.592228254557114,5,S02
6560,-0.5139229451924762,-1.8463212077215259,9.28243064168214,-40.19861928233954,-59.150378140417146,12.535084987107501,31.76402911830179,-22.168484871830266,35.875307376695176,5,S02
6580,-0.5166789157233221,-1.8575075438962703,9.423729196651594,-36.70553292252332,-51.64330843700274,18.861046931645166,30.978315431016554,-25.26690681009604,38.77775204696835,5,S02
6600,-0.4987454013304581,-1.847596033693409,9.51420291559749,-29.533661908261735,-42.84335920956826,25.548496812508127,31.95025082847789,-23.484079800117378,36.54912634066625,5,S02
6620,-0.21701066258193788,-1.323305873338545,9.71758430936443,-22.350101777318226,-30.8234861975581,20.245332258125252,31.87519623057356,-21.996249881084722,37.624883274129864,5,S02
6640,-0.12446308583095583,-1.343773026819638,9.7997015094933,-14.013311170521511,-20.1278521703653,18.04951838952182,31.994769483604323,-22.644818879286863,39.787519161976014,5,S02
6660,0.11602683704719724,-1.2116439462108706,10.05136854828338,-3.8286694157156203,8.799726639235303,20.530520378493854,29.969679472952997,-23.499942596907943,38.95969562900938,5,S02
6680,0.11510877202302736,-0.7049222122741179,10.157923495098052,7.031109253559758,11.049164714147214,16.82844137333709,30.5529856641595,-23.77610908136261,40.694581195844414,5,S02
6700,0.6772580331079703,-0.7098833827158131,10.391472486775754,15.243307752401968,31.12391710457143,11.941870577319925,31.279106720144107,-24.12142958304162,41.60837748886234,5,S02
6720,0.7655745303614849,-0.4697685068277152,10.690038058219578,24.31188149499404,40.379583537297734,11.835398068817822,29.156426181349595,-25.509247064754565,39.509267208861324,5,S02
6740,0.5155983380741103,-0.08486517468183497,10.879718211973943,26.58054704993041,50.02950070036541,0.6768175891517488,30.850283953381943,-23.423924266420904,42.26392869765491,5,S02
6760,0.8236107529625052,-0.17639261650575794,10.860015923203116,31.713918448091203,50.90867180056764,2.4113329208316543,29.07321023053753,-24.893251410236527,40.88543274117261,5,S02
6780,0.9550601882568197,-0.07329896373526042,10.875888134454373,30.367685730276055,52.187579510619926,-3.9007064456732237,28.354946737512325,-24.67345202981908,39.129750871708126,5,S02
6800,0.6372089219181021,0.07971428807915942,11.232153333222154,22.7277177092993,56.172910099571084,-11.295393206288049,30.04619368638701,-21.275338228993142,39.9999568904224,5,S02
6820,0.5051992497243428,0.02038237928546599,11.30892690397793,19.374258236982595,42.802365874951875,-8.322186842113348,28.104981142798543,-22.22211761353146,39.98912656738606,5,S02
6840,0.4659191950078011,-0.05441429532353867,11.367521246463566,14.57715801908062,33.99855071174212,-18.493006994525768,28.185685462874904,-24.544602306594864,39.490633085706776,5,S02
6860,0.5904187540904078,0.048724745769042746,11.311981540874122,7.350452467291004,23.725189547370018,-19.569771478549786,27.74823689500308,-23.68144732668834,37.87792476328067,5,S02
6880,0.21445449873176306,-0.1582240548906909,11.179051950092857,6.841713419310616,17.277458063385634,-22.144729485517033,28.609864440928853,-24.83027500619016,36.29537764781557,5,S02
6900,0.2924935161051885,-0.39642177124103867,11.066913262419222,4.008480202344251,8.292571622096741,-15.987780336232733,26.524748843758402,-20.988288495261855,36.22817453685926,5,S02
6920,0.16448227464823972,-0.5359469106988151,11.09010867155916,-4.159681421153751,2.1580227613381053,-24.904507833020766,28.569639485240998,-24.003674392776468,35.9904590837524,5,S02
6940,0.21441838289616827,-0.9288956595467837,10.742633123938495,4.908498741126629,3.86170837448811,-17.363704949653062,27.100910206240577,-26.216821762432932,33.60818462478364,5,S02
6960,0.11592626275791298,-1.0772185260031337,10.624271291634772,-1.7554298039184508,4.0984774969825795,-8.648889960123986,25.740543448216695,-23.659018664955337,33.34298820231059,5,S02
6980,0.04837363780623273,-1.2471651078361465,10.582419329231309,-1.3831836619695523,-3.249491048793683,-14.835437690962324,27.533967114593477,-23.93379384635411,33.51380324244698,5,S02
7000,-0.007557894120022446,-1.3772913805786013,10.392355212294929,-5.415789651331865,-7.06647305068689,-3.8647970787325927,24.311190339163765,-23.32153342557003,34.18949768666859,5,S02
7020,-0.19406811516756137,-1.7840361155276285,10.138745707662842,-16.672594472473683,-13.47387252924978,-6.951546296731059,26.83078643028302,-21.48653802970864,31.963687494129907,5,S02
7040,-0.2776183574373098,-1.9023568413469008,9.882604845952448,-14.775852034668507,-19.15155749838413,0.4258942792631627,26.448522915867496,-20.437490634058857,34.14413668924769,5,S02
7060,-0.36641369015018377,-1.7378480973077748,9.770244099285227,-11.18373991801444,-21.655363103069345,-1.7699578255159354,25.179481836191748,-22.103715348455882,32.54053545727983,5,S02
7080,-0.2730021490028651,-2.047689143287875,9.566873188733787,-24.115035144266006,-38.6968616530251,8.410367199188418,26.14883133958232,-22.37992198644426,35.95132034644571,5,S02
7100,-0.24166676531820921,-2.241901305534557,9.411650905423091,-33.44799010656454,-39.89331427167642,3.147853088075735,26.440606615275044,-22.028092041605568,32.745572102656155,5,S02
7120,-0.4799317752138865,-2.1883172695043736,9.580064598563547,-29.216342680334048,-49.6852754248283,13.875043292039164,26.374159371190107,-21.08983761156945,36.935052393743916,5,S02
7140,-0.6915531252476504,-1.9921697367368092,9.597709161086952,-32.537188429089426,-56.042956598620734,9.654111493667484,27.060709423725093,-20.980810406384336,36.286504779191844,5,S02
7160,-0.5012794134829548,-2.0503146398957397,9.319185004396846,-38.10572982610877,-55.67038245625763,15.009829193834078,28.319390551230644,-20.44816746771413,36.89440812897958,5,S02
7180,-0.5789201421851565,-1.8675183140031508,9.435379553318024,-33.973428270079296,-56.48156768543376,15.490507851944628,25.11193527433243,-21.631642425174817,37.49144355775988,5,S02
7200,-0.5121118643194763,-1.82926847558362,9.44557150338544,-29.463977025714364,-53.07827872119416,16.737374042453677,26.875892598926033,-19.9559806478065,39.17420961761004,5,S02
7220,-0.29243196698209384,-1.6050806920906915,9.683366130771626,-27.32777433544565,-33.735495464954205,21.34307335125251,24.710480665519327,-19.07782782031195,37.66515098383897,5,S02
7240,-0.1762551766504297,-1.3381371229327246,9.815418844369246,-21.61223453688689,-24.23243067115834,9.953561489395508,23.86121033737777,-18.530923170660365,39.608430610571986,5,S02
7260,0.08290694315096286,-1.142618798540474,9.793068510528444,-4.538257985149103,-3.4493682924102114,11.529844663377498,25.760815929082458,-17.767987248918267,38.820458884968055,5,S02
7280,0.2691277602609954,-0.82231045035537,10.307162491777815,-3.156963167475058,12.063331781917825,15.114697688656051,25.945929147489462,-17.93274363132211,40.124714821637006,5,S02
7300,0.3936009641617073,-0.680149580246258,10.407896782011226,12.149226750022304,30.463137227372343,15.997048821356532,24.383940395067267,-15.713833796267012,40.16519763963299,5,S02
7320,0.7175949767996359,-0.46080966849481675,10.646926429864791,22.709350337815405,40.03947441159673,7.211390524738475,25.352927625467856,-15.7541654438385,40.67706728712889,5,S02
7340,0.6085626130059234,-0.15399688675889028,10.891895077561221,26.187321501042433,45.993114793827374,5.825960728319153,23.452821257764782,-18.60684942746886,41.805439593021745,5,S02
7360,0.5797576716219139,-0.14798903957701423,11.04836375151401,31.515986088429724,55.00369125207757,7.812310963507021,25.99061673957513,-14.954557349850472,40.48810476522264,5,S02
7380,0.8090035432868504,0.06232336667040675,11.138848785066985,30.38545491590099,60.07590369197851,1.4513492377078197,23.943633412475087,-13.95256928005795,42.466796469107685,5,S02
7400,0.6957414608536717,-0.011299857389754024,11.06485852335317,33.81280121648774,50.62594284827199,-4.964034997944339,23.572148637377666,-14.840919158836087,39.53693322476036,5,S02
7420,0.8335928506594535,0.11584377830342041,11.354352906604152,22.161037034578634,49.49858358330333,-5.331175300547619,25.000145189706018,-13.940845961684417,38.785048043628095,5,S02
7440,0.4351259812388346,0.08943951584657636,11.403829571980339,10.824851963257956,37.97230241549192,-11.123350138945474,26.14046437106576,-14.021944950686068,39.811597134826705,5,S02
7460,0.4313736505573368,-0.11883050640218944,11.306232822056018,9.626333143174737,25.540741537389998,-11.150728398912976,24.47555343146952,-13.828545344681086,38.19313191279545,5,S02
7480,0.2058070492574398,-0.18258624911628465,11.086730562743027,1.8185324549589366,13.730635883759815,-11.640708878039552,26.016970648045007,-12.989318237333649,39.108517979514396,5,S02
7500,0.33698649600947317,-0.438896021122254,11.34631039440279,0.3982598026314035,16.672507577194988,-18.636369868672823,26.298875257265447,-13.471711046480605,36.5106989105615,5,S02
7520,0.34589133057154564,-0.40769255438682633,11.234658682194054,5.482583589309482,5.408894105673743,-18.80860662355915,25.769742556418933,-15.543941061874541,34.87261854750531,5,S02
7540,-0.057172781071159445,-0.8096296192709718,10.841173427339712,2.3143899383076008,5.497054226766051,-17.40965436386859,26.776654486256934,-13.711602279082676,34.04000254508999,5,S02
7560,0.006926048614477209,-0.962305340965603,10.712931732060063,-1.3344986477531284,-2.3910700344018245,-6.0448138413455546,25.31230883671549,-13.316275442840084,34.54587536274414,5,S02
7580,0.1504425682404283,-1.0472287452287932,10.302249619357262,-0.5853663636945172,-3.388332017326878,-12.637512731305732,27.690797389393996,-13.331159138605589,32.51822746062063,5,S02
7600,-0.1232595240792699,-1.4204929099945014,10.416754552308777,-11.432518161451615,-10.465404444411291,-15.328023225783914,27.102957409182256,-12.969325299477159,33.32316561034689,5,S02
7620,-0.06300830017890668,-1.6210911645551596,10.185810243794965,-12.105856995053962,-6.058922226646175,-12.092134266713918,25.681754279862474,-10.75567661991452,32.76579017124854,5,S02
7640,-0.11449035832795273,-1.8659877849910724,9.883362036799976,-7.827080047376878,-12.624141548787765,-7.658104232192494,27.311649951700698,-12.772224139384512,33.90032238354791,5,S02
7660,-0.21985278916760723,-1.9018884653796253,9.627629201628233,-11.546098897967472,-29.233475167388786,-5.842610176848378,27.503809852942766,-10.27101673232561,34.38649380847515,5,S02
7680,-0.43123762878185345,-1.9270184481148755,9.657477224096821,-19.568131999855403,-33.55100512120113,-2.1141920707517583,28.434983003682994,-11.038234300058708,33.48220389599609,5,S02
7700,-0.5321121410004039,-2.0792320410407794,9.567248917437384,-28.89168429892729,-41.90921633808326,7.167012351658281,27.098757514022562,-12.007809759301598,33.942779109703885,5,S02
7720,-0.325692366272441,-2.0473973372459606,9.63999214789981,-28.642384100888577,-48.02722046109751,13.344097913930321,26.695382540079624,-11.716313052743761,35.516906732850956,5,S02
7740,-0.5734436855851373,-2.3113654442032203,9.47650726767135,-42.012736321298924,-47.640214740752725,14.230219210151503,27.470745406460708,-11.6298129634181,36.55650321243219,5,S02
7760,-0.5483189835829355,-2.0138615133515168,9.322342748792966,-38.30415665863539,-58.40971669605803,14.223527065419862,27.779094794015652,-12.345101746753963,34.79840197104923,5,S02
7780,-0.7160459470923902,-1.976319494623219,9.527103295536572,-35.248681821704395,-62.33815893352,17.398798439249333,28.038416700217773,-11.29911231354994,38.143982319639996,5,S02
7800,-0.5075395432793545,-1.475361964884148,9.257421952825965,-35.444239536628665,-50.72794635313821,21.260545621347482,30.67576354331799,-12.271358902621444,37.67951439435748,5,S02
7820,-0.2592970957862507,-1.5524462076438719,9.755882923974271,-17.693382479673016,-34.65062062302168,17.58662937531539,29.85570592783643,-11.438367922048577,39.56597221632964,5,S02
7840,-0.2193297168321324,-1.43805176172178,9.62910922232179,-19.813752331196866,-21.373722015668132,16.55586203483543,28.002842924933084,-11.264222238722631,40.334777932495555,5,S02
7860,0.0976303484817731,-1.1457682960485231,9.792331417627263,-8.119502385583043,-4.573954226058218,19.3732757848861,30.305317462769995,-10.340440210284473,38.85149341474328,5,S02
7880,0.18804309428389965,-0.9497271278598887,9.915610304286737,2.411560116978152,2.680402862153959,15.962610477250156,28.738196515954428,-11.8418068914551,39.50283102759567,5,S02
7900,0.43800442646933047,-0.714145564874499,10.3353846330885,21.2925262414772,22.388756072981963,11.48575204506808,30.355132514235756,-13.952377307806486,40.10121470673065,5,S02
7920,0.5361293632438492,-0.5338659518207387,10.532526407493668,25.72099580479678,41.496139378285974,10.599211520213727,28.975390115588652,-10.69236535844627,40.071308450188525,5,S02
7940,0.7437885503207852,-0.3258795550159212,10.713597815403983,30.478028563657606,46.26596483028454,6.673777444625628,29.304494706850505,-11.20297916536493,39.319814683908916,5,S02
7960,0.7155093726263719,-0.12164026177938209,10.922050447915538,29.866150905499463,56.3803589269588,-1.5473341783557353,31.198783578095316,-13.553939584767512,42.41918807108612,5,S02
7980,0.7966271230115537,-0.05930874897926288,11.001579655601477,30.557835620194542,57.7202412492141,-1.9370982433642534,29.746064638643116,-12.333533149254823,42.317100305521535,5,S02
8000,0.935838175099616,0.03906836450021568,11.290218357890664,28.324379669054156,46.43118280764965,-2.4381661469078506,29.90042361885316,-13.57897107467046,39.6257916893175,5,S02
8020,0.5491010583608019,0.08388823578095761,11.334057246090895,27.968618044493343,47.92371147221639,-12.315517308488353,30.91486085764404,-13.389229622312811,42.1440959951856,5,S02
8040,0.6285824112692847,-0.02585347631591129,11.69871210987925,22.686424941444024,41.1314246485175,-12.245521299738908,31.723770664165052,-12.592195975310494,39.649019395768285,5,S02
8060,0.5096841723193666,-0.14187638575657585,11.227230715839976,15.940378648353342,25.14007613127983,-10.497113437707888,31.18783699580087,-12.160262917412506,39.123650213032796,5,S02
8080,0.3362591568775896,-0.1049911628773294,11.201223391340749,6.4772683359906535,17.76138332147985,-17.81673734542921,33.018017617987255,-10.975625990946135,39.269246856733425,5,S02
8100,0.29392166364984196,-0.16680534115628343,11.186296565827048,4.033607438675632,14.157056665413641,-19.421694477888824,32.078876352120034,-14.024826617041292,36.857770607551195,5,S02
8120,0.10504612389817548,-0.7047101459165581,11.15855659223558,7.3381897283079764,9.780500065453126,-18.24705341842191,32.64335562151729,-15.411265639928926,35.686957951691916,5,S02
8140,0.2168817848376463,-0.6390784834604304,10.943341241981516,-7.319708325018286,-1.0584981837326708,-15.322012928355596,31.593871160142612,-15.683423176965647,35.26144855768926,5,S02
8160,0.018865678285401533,-0.9384784411988671,10.93181029970101,0.06012933927870012,-1.297367004787504,-18.515983985156566,33.505645717927706,-14.964725557922604,34.9376456284318,5,S02
8180,0.004554191500959065,-1.2605044159540817,10.57229879348726,-4.812444036145737,-3.751845447854964,-15.880859604396028,33.91813668107278,-16.717444584788907,34.23935261897231,5,S02
8200,0.13112232022144496,-1.41513381767854,10.458601469495159,-9.08868221062199,-8.502382658097059,-15.76872141937544,31.81428391669862,-13.629834056121702,33.27013451684353,5,S02
8220,-0.15417008809001972,-1.6221037566935887,10.18895683231196,-9.997449250055851,-10.802754535685725,-7.3024138887814445,32.292857750197015,-18.286216273178184,32.09490169810708,5,S02
8240,-0.15705437002498304,-1.6302534773496735,10.080094551582036,-12.359362994218454,-13.630729344914299,-4.509970723017083,33.56856340167174,-17.39609344229051,34.31166727950038,5,S02
8260,-0.16927716842574872,-1.9984699756712265,9.849446180263298,-14.245968634571586,-19.19303269664638,0.9095975136054125,33.30684821448346,-17.25123067666557,35.161021988656245,5,S02
8280,-0.5031668843284693,-2.0408788001621248,9.722611742198591,-17.46338522219012,-35.02399248549305,2.7739506022638194,32.071862658456084,-17.28456390131616,33.25817737342207,5,S02
8300,-0.2642900655286802,-1.930707823521497,9.558291287907727,-28.841364676058873,-42.21904169596202,8.806490885713323,32.63481388145202,-16.84104456457608,32.769490759595755,5,S02
8320,-0.5946838630152482,-2.3383542317780823,9.48685455353515,-31.661265166261042,-46.5208321159683,4.328025798656446,33.048081285316584,-19.038768311741105,35.00023362415635,5,S02
8340,-0.7358523999022448,-2.1006817936299376,9.484972292931392,-32.33075827561088,-56.08032920535145,13.00253402981239,31.710628570161692,-18.516516780141387,35.158345046542586,5,S02
8360,-0.6518688108477155,-2.0386028366458446,9.378097827197248,-41.52454851862534,-61.31914671664625,17.613995218499227,32.15914428955983,-18.610639628749055,33.51751227476464,5,S02
8380,-0.504014820046623,-1.884106157151399,9.443119250865852,-41.47430657019407,-58.86206358437441,18.93980719081113,33.535256288841154,-19.876378202463684,38.043985742211646,5,S02
8400,-0.4231668167450866,-1.6531014563251802,9.397767239801256,-33.861773411354996,-52.33564909076051,12.251925709530516,34.03854065830924,-20.282607757427886,36.88280532219274,5,S02
8420,-0.20670615368747716,-1.5390188037131527,9.75085711295633,-26.860296747969347,-45.069325909775316,24.71457715722643,32.73658846345292,-18.400775265157733,38.132506354414865,5,S02
8440,-0.24517838097637565,-1.2235599392335859,9.701467632801076,-19.265087899840907,-31.74682081796382,17.99822479799832,32.02644685943427,-18.37724412920884,38.91964589322662,5,S02
8460,-0.048787854362001615,-1.1915740488757611,9.801831487611421,-7.770734211343665,-16.082975976733728,20.737700477264468,31.247114083716614,-19.072962043099796,40.78826546908925,5,S02
8480,0.11757272337752564,-1.0417578378981605,10.04366017849565,3.7098849696382814,2.7411764830418752,12.455367534450376,30.581257223284897,-20.312381220522504,39.78856354090722,5,S02
8500,0.39177860107713103,-0.7863001851810838,10.187712553453853,5.3680724001874855,22.045170988878795,16.29676141532036,33.35693542502342,-21.13554872270879,39.4859610201072,5,S02
8520,0.5321301895798408,-0.7032714561005964,10.368723056358217,19.803868428685885,38.5850264001319,13.192419117816156,32.59398544218368,-21.78565144782935,40.35494436782554,5,S02
8540,0.5724192582418287,-0.4132801881054992,10.57479501331139,22.804386447267383,52.773039131539434,10.18308055946397,32.15590177456728,-21.027855325362925,42.06877874650681,5,S02
8560,0.8553865775859718,-0.20576744022158494,10.694957729108822,30.44432090607059,50.27065008298815,4.631118884247499,31.885564853477067,-21.715994940507503,40.818572738022695,5,S02
8580,0.7327867946483038,-0.22487200922523648,10.971518182859345,35.18513715864893,51.5745372033947,5.552052409017351,31.98933592205243,-21.906536620804857,41.18523691738482,5,S02
8600,0.9028508847870476,0.024666146451397183,11.391801845556014,25.723225666096056,52.10861472205879,-2.7548255352388638,32.53844069603325,-22.617532774936507,40.5493186596688,5,S02
8620,0.7617331093505697,0.09130380392271886,11.298063559605652,23.264153657855733,55.333268390445994,-7.915221340550387,31.726487540223694,-23.36115657644321,41.22031552361974,5,S02
8640,0.5375025611799399,-0.09555403831649857,11.464390581097765,19.848164738677685,34.860004360061104,-9.295664632771382,31.091627012286647,-22.840927033714117,37.55960643528593,5,S02
8660,0.5687825918596443,0.021208369759889323,11.292714140733985,13.040658465764572,29.572742641938902,-15.647431349702499,30.72391783894128,-24.453662765237063,39.11243092360241,5,S02
8680,0.3449671901355349,-0.12289637936611891,11.492268678276517,9.146835995851607,18.594819046900025,-23.36200418886535,30.789003944404623,-25.546841857472764,37.524050211057684,5,S02
8700,0.11046891680567617,-0.27147678050905927,11.172237183678403,4.3105576175480556,14.876225197935426,-15.83102883727713,30.000778829233163,-25.208293402987035,35.760609858590655,5,S02
8720,0.4107921765908662,-0.5235649367938884,11.078437744778832,0.5979047482832129,8.02424945749055,-19.60477330663059,30.489700126057667,-22.605830632790934,35.805467614402225,5,S02
8740,0.3043777101059997,-0.70150955390891,11.099180479118859,-1.944053719567917,3.339773595051306,-18.43111104123696,29.67646156119521,-24.065272860818446,36.11935832658846,5,S02
8760,0.06961883688294031,-0.9490574008504742,10.869069491712109,-4.348065061023119,-3.159347620258619,-13.651665713044391,28.46800791980676,-25.546074349504867,34.39149974020279,5,S02
8780,-0.08466956772715964,-1.1238282015538261,10.602800365101336,-11.166056401014183,-1.1673825084493463,-12.012829754711928,29.94529686642638,-24.087214294883342,34.355815480618396,5,S02
8800,-0.04266450164955196,-1.2886733851330905,10.351209589623087,-14.19400011520895,-14.953934680337486,-10.907473273742822,29.1829611385179,-24.709632371238886,33.37031124672267,5,S02
8820,-0.03826315337134287,-1.5036858066057963,10.176856183753046,-8.404496090212245,-7.52518544178209,-14.090094498492789,27.84441880639859,-23.478110962501802,33.11593301332565,5,S02
8840,-0.06986478226236556,-1.7568884856663765,10.182864017372774,-4.94880679682546,-6.904317303994502,-7.790117348990549,30.35418685031129,-23.857824561983495,32.72262812149665,5,S02
8860,-0.1731603588851411,-1.9401228469370597,10.037805766252271,-8.921217076065295,-12.945511024105308,-6.495757291867379,29.74635140406919,-24.83091394159684,34.82651970775079,5,S02
8880,-0.08569807034689553,-2.0589449505150688,9.601674232342143,-14.98257761475148,-30.018862584178727,-0.639627253436912,29.70760194496462,-23.701933432485802,33.186653687032994,5,S02
8900,-0.4383777442290342,-2.054535221638417,9.466893218327245,-20.78967776235991,-34.485774026029745,4.5141038985530395,27.976308025955795,-23.958728477028,34.116586224278834,5,S02
8920,-0.4721770075004965,-2.2305747609462574,9.458709529805038,-35.50175489518153,-45.354297530875755,8.634548733417525,28.16718462953538,-24.777706516209605,32.01556794645562,5,S02
8940,-0.6364882425299805,-2.156522546713343,9.303436884250157,-36.07496276560261,-60.828822741382844,18.01862063414026,27.133010366603816,-23.463605886992383,35.640737946606734,5,S02
8960,-0.6293686958646114,-2.036758103638755,9.454391434935124,-32.71445225451887,-59.79011036392847,11.307088709727413,26.685942865206687,-23.762638340360454,35.80890198875579,5,S02
8980,-0.6250324829532183,-1.8923539556807472,9.583614559027138,-38.07724490188413,-58.416295193693564,13.412808812318007,27.848919566901102,-23.537544539413826,36.85889741407171,5,S02
9000,-0.6927357708998413,-1.7477399516624037,9.686518592000665,-34.70073491521721,-57.749271751118236,10.968908383478064,26.57173465228014,-21.41379577401584,36.24421178372548,5,S02
9020,-0.3359089267928834,-1.7296696405838103,9.472506056625953,-35.73431325764086,-44.944535458702966,20.172798290260957,26.781291596435945,-23.24550125101242,38.541159402048365,5,S02
9040,-0.055367114517930804,-1.4270498870377701,9.420406563026917,-27.72172083949931,-40.99845727529006,14.639616744187508,26.28304128045668,-22.358592358380434,38.92840069101775,5,S02
9060,-0.0850775609330073,-1.183234193574237,9.63149885764637,-10.07747083174943,-16.004393959454873,15.759551325503415,26.70033199225318,-22.252334969204306,40.79060442849396,5,S02
9080,0.03557562633452602,-1.071937685946157,10.052914699531918,-3.5181470174775957,0.5184035359489076,15.306032488527679,26.103093651252795,-22.19669036036006,40.68614933102023,5,S02
9100,0.3621413925779102,-0.893257258712971,9.988121154529649,5.876511131593664,7.392530256177465,13.743084501751744,25.136940612718533,-22.25311463610914,41.1684016884409,5,S02
9120,0.3123692505841087,-0.45555322202349674,10.27718938739809,13.65261929521104,37.40071687628253,14.644697017059682,27.171313091179012,-21.189725766529357,40.174096615863135,5,S02
9140,0.5771607115336885,-0.30264732952424744,10.623973607979256,18.676380218535552,43.147015214730935,9.2037588440864,26.318566596501757,-22.580882006649198,40.343418999866955,5,S02
9160,0.7508770108581075,-0.27562773301242754,10.622107404646378,28.638958229932573,51.74324954658282,-1.0538388095689801,25.23398753250419,-20.811920942428447,40.907460230642904,5,S02
9180,0.8869172670003815,-0.24080348904020255,10.946716880937347,37.414064996982844,59.39095163698627,1.8533747848390596,26.427092063442863,-21.392535046927886,41.160241314115424,5,S02
9200,0.7998955161919449,0.026270927264626015,11.124616664393251,38.91544329070142,57.44620287735519,0.9867093978321376,24.344289324933595,-18.76284365310122,40.054914842778935,5,S02
9220,0.7842153564692035,-0.0368598417160802,11.261857001211252,25.157537575370625,51.872584388630465,-4.3818775096547,25.816729496623157,-18.95654271857682,38.66479891523172,5,S02
9240,0.7345668902209079,0.19735924557433754,11.407098345100428,18.69208818563042,49.22350619451581,-4.9356761606195185,25.67729484752955,-19.183288942581314,38.47774706548379,5,S02
9260,0.5166149397213988,-0.19235080345155606,11.371977276284424,13.478106572156229,29.91574891610684,-10.632267456778552,24.71703653877311,-18.349457022955562,40.29623359326929,5,S02
9280,0.32265952396307507,-0.05780261847912366,11.28434341603852,9.44317772520552,24.886749242222677,-10.476175643086487,24.744821538652168,-19.400909157945463,37.8186818906027,5,S02
9300,0.31362240943138747,-0.3258932988702621,11.239630560201158,11.870385083923622,19.95142968043903,-13.533656340143734,24.27244884769982,-18.288050916814903,36.18174308886187,5,S02
9320,0.31292159410429354,-0.392793755193118,11.128115794881754,-0.8124347354048549,16.928753735807106,-16.935398134312035,26.980454006372884,-17.154964206562315,36.045636304719125,5,S02
9340,0.255964043830641,-0.5209545227750972,11.01604105431453,-2.303922810588389,0.2940684125242321,-14.578209720743292,24.297914037431262,-14.55005927768763,36.44802041375667,5,S02
9360,0.25035133274586896,-0.8777451136555241,10.772242915964188,-8.820708592959683,1.0818136983947964,-16.650993709619918,24.595358804806036,-17.20764019820306,34.52454284585616,5,S02
9380,0.11089328671281778,-0.9264165371430941,10.821205127680626,-2.833859422802068,1.2650983020494493,-10.969574960596429,26.508735550346042,-17.575210695202568,34.29629778609456,5,S02
9400,0.16097375059590538,-1.1468875462703263,10.6709713789778,-15.683172412588181,-3.417692309023068,-9.774861861023002,25.776164724319983,-15.763517700266057,34.65815958305426,5,S02
9420,-0.006834869518499306,-1.6713343453207448,10.382128460889785,-9.567308804073527,-2.5834718435357704,-7.300574435818021,24.702659937626194,-15.659274401321802,34.18366802307466,5,S02
9440,0.02692032716878362,-1.6422652731456553,10.169125444173408,-5.909816515773684,-16.114365264487883,-11.075386011343932,23.494686322573102,-15.288070251092105,34.079720078479426,5,S02
9460,-0.14668720788560163,-1.9113778968788147,10.005145271504928,-8.920189062679807,-19.908634590637686,0.41353389132550367,25.371071989146127,-15.821556255774107,33.45788907592846,5,S02
9480,-0.09246152775273159,-2.1223485250472858,9.85949023218401,-18.989892420813398,-24.256549400130673,-4.503608053993322,24.853960652965284,-15.260457519009474,32.78778394293095,5,S02
9500,-0.35240535603872614,-1.9849031970916726,9.542784514980404,-24.144202938955853,-28.376941140791377,4.396107543973198,26.983735901060093,-16.70920103221924,33.73398280650538,5,S02
9520,-0.449534669014268,-2.186272953680769,9.635281222258408,-27.491298437084556,-44.45961040110673,10.819177831638163,24.95903052636676,-13.554428393987674,32.85286827449275,5,S02
9540,-0.39032537183302973,-2.107331684445341,9.438481928348516,-35.965037022965674,-56.1858454514134,10.311270401570944,26.734945325031894,-12.629102421648977,35.193022865388656,5,S02
9560,-0.623249505973198,-2.0530791210523573,9.288451552069219,-36.80659161128274,-53.34367290616363,19.546816075440255,25.15299260759253,-13.99685051423273,33.29206439751107,5,S02
9580,-0.3190777321046159,-2.0909348471657374,9.250404559072187,-37.43683227826033,-58.83801927743081,16.678839358449043,28.607205769305775,-13.151494378737576,36.07594575518565,5,S02
9600,-0.5230664644279827,-1.92500278998096,9.546786760043807,-40.80618114774242,-50.14655576069468,22.153913324681888,26.172356867895978,-11.66071108321156,36.523323098716666,5,S02
9620,-0.5716177982229683,-1.6344528306214656,9.574059356293647,-38.94015209855485,-51.3426439468325,17.10107766045063,26.862706394060876,-10.567625879269599,38.82778293257304,5,S02
9640,-0.3142078840428506,-1.445799853857428,9.613121913612256,-23.568138887778158,-35.28648249899072,20.261037651549184,27.050127412820892,-11.334445366523827,39.87368505413769,5,S02
9660,-0.2755677378552177,-1.2303686352852763,9.86797937829096,-10.712468005220861,-24.281428253261286,12.528742084164703,25.932432909645883,-12.422488762429268,39.61564848580237,5,S02
9680,-0.1278128770415759,-1.0529814605472796,9.904611105907355,-9.716124853125411,-3.1971316111141146,17.077858279770243,27.24067639337419,-12.432900106100695,40.776563740959205,5,S02
9700,0.33472766659915776,-0.8309740127507612,10.137735830726998,6.01706405610645,14.439122215130965,15.618246135773871,27.968445813608277,-13.315946074381127,39.56961080386346,5,S02
9720,0.6046162061112559,-0.691648829136077,10.21775802250829,17.73962665728549,26.19824400680903,10.611058486718381,26.490329418679963,-11.79957331196361,40.83173229317316,5,S02
9740,0.6154558627640939,-0.4073347451453469,10.688905788202772,21.749006714355765,39.20522377739765,9.681757124544893,27.321179763830823,-10.42316484932319,41.48402730727459,5,S02
9760,0.7950181176242437,-0.24951938642151486,10.87086882494959,24.98199060822485,58.4467611389895,5.106630112651274,30.813965019921408,-9.61424941896917,42.262258219901746,5,S02
9780,0.8556219852227669,-0.10834499313638286,10.906463931780918,29.4246408562045,51.45957445779771,4.711786222829602,28.77576077277549,-9.950019831887154,42.24185552393769,5,S02
9800,0.8699523731469412,-0.14062029305967266,11.154930267898283,28.319817205455,55.99769400469422,-0.040653113756960235,28.585713256276847,-10.673265743977252,40.86188438306826,5,S02
9820,0.7335842808696263,0.0405822746687287,11.38023077505309,27.34359493558472,60.504565499390225,-0.08146492291374197,29.643212480220445,-9.859918505364028,42.2350731525045,5,S02
9840,0.595167650112961,0.1422620084298837,11.287330526137083,16.507981949875134,48.57710264664056,-5.482122537526692,30.819566235276284,-9.47741295368034,38.47673378469863,5,S02
9860,0.40058805169755296,-0.037418709097402185,11.278983703560158,13.91076259115334,41.24145728421133,-19.260368865301558,28.185407567516023,-11.369160662283008,39.13157098344403,5,S02
9880,0.49201255162773383,-0.2642526870606655,11.403708058741708,7.325988283612346,31.479235401868674,-11.751820503121133,27.287209099123686,-10.372650008921823,39.04946176376478,5,S02
9900,0.37384074144716484,-0.32310649797904056,11.334054017905364,11.91505445656157,19.31193123807732,-17.162399413354535,31.37080584633705,-11.927963401511338,37.06852975413,5,S02
9920,0.34403532909524226,-0.4002984907048753,11.23844951598488,6.585602878930312,14.56573228776779,-13.67509524979874,30.692323029292137,-11.550568206987759,36.971335213693585,5,S02
9940,0.2711386789247998,-0.5306309398872606,11.056753296186127,-2.338125467255815,10.917120493256743,-13.20472502882138,29.873319563006646,-10.57450810912503,37.21806719832413,5,S02
9960,0.1850619396390985,-0.8831738867728482,10.920144788563656,3.247949181249922,5.039423536672073,-14.345137348521938,29.7544572840886,-11.26897463744232,36.667741082324206,5,S02
9980,0.18803525117706255,-1.0051691795596909,10.744425737704912,-6.745610291239838,4.10577065905614,-7.318039740952463,30.001905860626923,-10.944826386530192,33.79249621060574,5,S02
10000,0.06377844056946019,-1.112266105743702,10.54644928545134,-7.858410062943491,-7.227899043477304,-11.940071891992782,30.454004993986075,-11.022850218313831,33.85535167148344,5,S02
10020,0.09293503781019137,-1.286683981608298,10.22348502346067,-2.1410276850543752,-1.1654160721483666,-10.534647441745165,30.1283117087125,-9.803032858075804,35.26439858281215,5,S02
10040,0.01083902688569087,-1.718139663035113,10.238768582649193,-7.706092104844648,-11.787282737968392,-4.57819435258217,30.783582258188886,-12.581920082113168,33.90772555238303,5,S02
10060,-0.12626121367283155,-1.720459642774876,10.122104060940865,-14.806003585716969,-16.5078841116572,-8.80506475393029,31.177713239636603,-13.717645973673498,33.51842347786786,5,S02
10080,-0.34309167471464674,-1.933874817951867,9.887257025672367,-14.643090173574489,-25.37505175348513,-4.626903110478989,31.87904560829939,-12.867786169242931,34.09219789941519,5,S02
10100,-0.31037719248256,-1.9856712469100142,9.748615229283898,-29.77921308886415,-34.06287525688079,-5.741102413839499,29.66883090932143,-13.552691750055459,34.633056915968844,5,S02
10120,-0.4895277146198078,-2.196748424234967,9.665992138672943,-28.02604554121819,-39.89082445478317,4.567748449756066,33.557045569760476,-14.370478691595444,33.94808913529204,5,S02
10140,-0.6367570643622935,-2.193435651413603,9.39591688319889,-34.94686664755685,-48.592266693473405,9.471324346627583,31.488482686717234,-15.575269907710892,35.71567314328764,5,S02
10160,-0.6562083549798196,-1.9931822946338336,9.463301653639084,-42.755296005578316,-52.50541342960608,17.53054856218161,33.47093134088543,-15.04463904003209,35.44301362786781,5,S02
10180,-0.7453456997517302,-2.021599460576994,9.364343878273562,-29.842044065974708,-53.04813819517923,7.487049095964901,33.733866985732575,-13.254675817736292,36.38929295458345,5,S02
10200,-0.5954729096039253,-1.926840616845665,9.470432941047823,-42.00378411685318,-57.17860304847956,14.537202094177468,33.84190641642755,-15.59373763981848,37.820100939487055,5,S02
10220,-0.6972241450862133,-1.819901036318182,9.492330092366613,-32.79161447249106,-55.75999889787526,19.058780493972165,33.99837394371145,-14.870528392721043,38.67806156194795,5,S02
10240,-0.43216321548579273,-1.713976975894578,9.566064822123833,-32.0835469456084,-39.20357530560062,16.618849482508352,33.04097112920728,-17.330903065138287,40.36585987667262,5,S02
10260,-0.4269642027657824,-1.410055002705815,9.602490068781497,-22.345591938032527,-36.26701208991233,16.48898026163418,32.09524024545073,-17.7566176046594,39.16271989133781,5,S02
10280,0.07085940109242855,-1.1987876752321234,9.836630560052619,-8.1945002039519,-9.360312397571754,14.839701753201092,31.281155509223993,-14.80513393345209,39.24692325557693,5,S02
10300,0.11696086986960685,-0.8862852869148201,9.897671522936964,1.8065330754811884,5.3425588699073785,18.003126800457043,32.103398122314275,-15.860246004852344,41.745656773689014,5,S02
10320,0.39333295339517005,-0.7188105830634552,10.153859499692864,9.164706953840174,24.52324402071844,6.160334384860208,33.288691939391754,-15.240197422187233,39.1441527206422,5,S02
10340,0.5255077598476499,-0.6716842947165551,10.45768281993379,20.456188987497097,42.164597498068474,11.017744783618642,32.37741736884968,-15.999857131411378,41.35415554768964,5,S02
10360,0.7494321830677123,-0.3794956595002125,10.726386840944627,28.56849264542706,48.67091068976257,10.170010318257791,33.56305232536833,-17.86135887805568,40.72134459465866,5,S02
10380,0.9282490279137856,-0.18452173615182987,10.99683720622458,26.78448345027406,58.1350494364181,0.09991364813878334,31.57553688229429,-20.488038200998055,41.0530201815182,5,S02
10400,0.8125799500178968,-0.11320845561609162,11.255051208535003,32.88908015717533,59.048199087502084,-0.7000941683946479,32.11002759921254,-18.077496821983537,41.53482078947402,5,S02
10420,0.7193330917159961,0.056240348156816444,11.15249913150108,31.64567788246514,53.28154385507107,-0.48608679799337395,31.94030714919733,-20.576637196477087,39.7060146220614,5,S02
10440,0.5842612231495922,0.03150026420256587,11.292340353164084,16.34475402789271,47.299610560980106,-12.736737545268566,32.31202722563923,-18.16297155984624,41.086315350992926,5,S02
10460,0.7502233709248541,0.06307112932770542,11.265514783791236,16.746442246652727,40.51307456731628,-11.466692898833898,32.99436281031677,-19.116338487778194,40.47295216254482,5,S02
10480,0.4872676453827358,0.047479795942352174,11.351533739985994,10.900714134199287,28.122476763704572,-9.934130101062978,32.82953938411336,-22.082319022815753,39.65286993463763,5,S02
10500,0.5436168805225631,-0.1114876472641314,11.332314546151583,8.340194944843628,17.55305522116245,-16.844886243984327,30.694618793845713,-20.08621885982027,37.82034432680378,5,S02
10520,0.32503486980489327,-0.29523831075848944,11.104499252622423,1.4698526662067293,10.877675684800929,-20.146050047403143,32.75697659200475,-21.57760600472893,38.20955591755221,5,S02
10540,0.047515555154694265,-0.3695083567921848,11.215746021017925,-2.726659651337815,10.887374387434658,-10.737255125808678,32.500279016133305,-20.37749003959737,38.859325757167035,5,S02
10560,0.1528414351518094,-0.7592537472288989,10.798404414694991,-6.147804234690457,1.2838547376038327,-18.095407186883786,30.877390252045487,-21.696293047600758,37.758547388973,5,S02
10580,0.015626971423390007,-0.9030538025920773,10.83454711933531,-2.468710239074056,1.782879494526416,-17.74023888855375,31.740750767149777,-23.067737261167924,35.33158879776785,5,S02
10600,0.09523581315872015,-1.0852017868720671,10.512393884901872,0.5452899261328357,-10.115574392912894,-16.323553174402353,32.715410328792245,-22.60005525237586,34.19040512392866,5,S02
10620,0.04449435500014933,-1.514697764513205,10.24171099102776,-6.693002972350703,-6.525677221517706,-14.409865171465983,31.7523921007446,-20.20733190897737,33.80424300149376,5,S02
10640,-0.08784893733944635,-1.6969074711261674,10.222693638673185,-3.9747200190923246,-7.626158860444144,-11.229974709524258,31.270679980327525,-22.66528354645438,34.57033331471874,5,S02
10660,-0.1122720858265091,-1.7426480344140087,10.065097487716248,-4.2389019403035055,-17.11609691211534,-2.7754859828421528,31.891459009541553,-23.76015226499581,34.212466226230106,5,S02
10680,-0.2701490063701919,-1.9476134750361414,10.018676659595467,-17.121765934656647,-20.98222569186105,0.3627649285676532,30.591354589622426,-22.41950431327701,34.95370170616762,5,S02
10700,-0.13188821462626932,-1.9591878998485954,9.711094724891652,-23.420746120444935,-21.621414052929897,4.854521945953012,30.61159501879385,-23.73279878376119,33.63102240784818,5,S02
10720,-0.4660380973066971,-2.1542688271115735,9.446673564260923,-24.676940538269655,-41.97217056551878,3.8133032304662504,30.99014513235678,-21.49766482293057,35.709422438674494,5,S02
10740,-0.5358029025901537,-2.182119146024512,9.387139923991693,-30.97593983491728,-50.47067336012811,9.215243774618935,30.88239651512393,-23.88428467695724,32.86002108577814,5,S02
10760,-0.5746591551591074,-2.166308571727064,9.617715856223645,-29.764140226635792,-54.99425090773051,9.665277738378512,28.215210656953015,-24.273208016574458,35.893487817655334,5,S02
10780,-0.6353552473206312,-2.0634332993496485,9.531596996764218,-33.26514551461397,-50.86972706886839,10.877148465083245,30.144934556309245,-24.641751772904815,36.388614123225565,5,S02
10800,-0.5775595232128922,-2.0185897844786425,9.330516798730256,-36.52669736972109,-66.07036461879375,17.853958107314945,30.14138990924626,-24.919201756456143,36.76863870289536,5,S02
10820,-0.6694191800962379,-1.7256758893388568,9.408985121284221,-31.281593569471344,-53.11540745118371,17.91233955155923,28.166896399763967,-23.358819296012765,37.8447274453797,5,S02
10840,-0.23633847033187452,-1.7646426326841804,9.675030598267993,-27.917988323208352,-43.74034466475924,18.938315336399597,27.485358503935277,-23.225370315463366,38.40809707651926,5,S02
10860,-0.2821241100755645,-1.4592274449894065,9.735773058006021,-17.161507585300942,-28.243590695871468,20.663544412034405,29.03394186969511,-24.683218455381112,39.3918913281839,5,S02
10880,-0.03856594912682765,-1.1300039685743948,10.012294982432346,-13.07274625104451,-19.60540694182352,17.057385671780512,27.579401464085773,-23.144718053475966,41.570555166794065,5,S02
10900,0.2126541008339322,-1.0295946496672972,10.003951794891565,-7.450739585421142,1.3251961041998126,17.92241436285441,28.011627234980523,-22.920499584258316,41.16821869235549,5,S02
10920,0.35768305212392437,-0.776136893070662,10.23728849977427,10.071965019504624,23.18366313588978,16.61803353384033,27.797577347669247,-24.578633775648054,41.02121698183813,5,S02
10940,0.7044901220944427,-0.32992151612390097,10.44190695186766,15.730423475564251,38.11572229627662,15.821356840477803,28.661604050705808,-24.665868620879486,39.78427056452192,5,S02
10960,0.7757163000746315,-0.42387886776246386,10.667718379609328,24.07031910243599,41.23016270429101,15.968307120120388,25.727525477010843,-22.685990214576286,39.27396101649776,5,S02
10980,0.8006394525901466,-0.11618783397815119,10.798633313676367,27.533718164680494,57.070357376055384,7.889824706193764,27.70542531394337,-23.282702597290548,39.741161362155275,5,S02
11000,0.6006223484310065,-0.08902605970362276,11.025443479319721,28.61405247821889,60.537274921473575,1.0025984050137389,26.13088244825845,-22.385890938225252,40.4268044494266,5,S02
11020,0.8053780291872584,0.11641313640842568,11.186902187279678,31.427020736403225,50.76992933469469,0.09195691796303895,29.23219712459682,-23.755207615380368,40.58146011737005,5,S02
11040,0.8425055939800581,0.001935954228245454,11.219574088545533,23.893964767854403,46.56552972075343,-10.083732791422966,26.766629294115052,-22.297052755661454,40.74797058945546,5,S02
11060,0.5499509935194875,0.06220660858394933,11.312036415406538,21.48666015888081,41.05733168356233,-14.703116057987208,27.894584301017847,-22.45953154809177,40.70518364896575,5,S02
11080,0.6152023593362795,0.19540572427139963,11.261893238073304,18.161037537206504,34.194016604617254,-14.116405121982362,25.719067228641062,-20.386929414713013,39.18555731363829,5,S02
11100,0.25251363943319377,-0.053230151411598065,11.383607865011284,10.293588777791225,20.34367605126839,-10.806855056809598,26.191420167993897,-23.76998019372724,36.447736542343996,5,S02
11120,0.17518551351035427,-0.16595390762008627,11.20191246834853,4.001690547450209,17.469048966866055,-18.20779593867849,26.103303631716205,-20.11539763326163,37.47998500296115,5,S02
11140,0.25489393131489996,-0.349619364644,11.21542023305627,-0.05905556778468313,11.230612230493994,-18.792382518228223,26.94781989670355,-18.069685251909174,35.267941899577174,5,S02
11160,0.11693181738114317,-0.3588894345801478,10.947166493265359,0.8513344282121951,4.747580859330824,-20.597191243220696,26.33290756668812,-20.766608023263714,37.156097168703,5,S02
11180,0.1874465647498963,-0.7898964919696629,10.69429783081832,-4.895257513874728,-3.1723876493498144,-24.49019472383165,23.89524057507352,-16.756336888421373,36.04941918764597,5,S02
11200,0.018923221746014116,-1.029111534467816,10.630571165349862,-3.5295219476275346,-5.557048214402573,-13.508647166206464,23.767283240374,-20.114928731882905,33.866631257886056,5,S02
11220,-0.09724118266903636,-1.2659656623072493,10.563368120663952,-7.500629915276821,-0.04016896109838686,-12.081266570609666,24.984615029955677,-19.962871748862845,34.60584871883755,5,S02
11240,0.0024686798125593684,-1.5168183510340532,10.131405845730534,-12.381908306649258,-13.517398220714375,-7.012065963541767,26.857907904836072,-19.917436376155933,33.77903934244313,5,S02
11260,-0.061831120698317865,-1.6274786783279334,10.111873560902366,-11.006831561980977,-15.731296840808415,-8.958142448692211,24.65189870177112,-15.992067458824444,33.39976560438967,5,S02
11280,0.011437631162801484,-1.8108501189178476,9.712560840266653,-16.201407362729107,-22.614016149764133,-5.629238596236372,25.228849718324902,-18.617436263892337,32.23178455929082,5,S02
11300,-0.23209163755997217,-1.9502015421014265,9.817464053444962,-19.26397949383707,-29.12770774370786,4.917594754522817,23.133121079815446,-15.945471726915574,34.504700520365546,5,S02
11320,-0.4692082168035482,-2.1697160969713867,9.603611157481334,-21.845721769775153,-34.02197054404757,3.589407814378584,25.396972357383518,-18.604211324043078,34.767719384877864,5,S02
11340,-0.3704882871561691,-2.226418164190634,9.48840264716785,-29.644460100111356,-43.94566297041095,12.299709181847135,23.88690710145532,-16.87107160730563,34.034921691939985,5,S02
11360,-0.40540075796706154,-2.1820067560949865,9.325463055876403,-36.22425651660106,-48.62465170232373,11.365572620391278,24.12852096572569,-17.413702357576945,36.37957530135375,5,S02
11380,-0.5510867874686919,-2.0503328735949338,9.475491607980002,-44.39670149890139,-53.82596899883596,17.381842968586422,25.086103699494522,-17.963850488621226,35.1575740286021,5,S02
11400,-0.8850367346056904,-2.0577241722474655,9.46303808137498,-37.42409460110359,-53.9816614719585,19.24551547813314,24.821637297034513,-17.042755038533684,36.150349903232524,5,S02
11420,-0.5974693622366001,-1.9507276154098612,9.566927953961251,-40.290367158524774,-56.21077433712427,14.823985784310524,23.616916248129726,-16.13813665146235,36.91823402202736,5,S02
11440,-0.5653392683373148,-1.6028177883076924,9.536353465478511,-35.87668427787879,-47.165252629933875,15.681341542561015,26.423219080368362,-15.313860050610273,39.119939445467814,5,S02
11460,-0.16771598173902844,-1.4784173886893341,9.659115663405066,-26.314756717684105,-32.94900546050093,10.004704197810174,25.22073626997399,-15.60339819398243,39.249657707341676,5,S02
11480,-0.16668930447865601,-1.3431669671666129,9.920646018026211,-14.49638097503231,-18.75750180346861,20.337753045115413,23.31410657132892,-14.985643166450608,39.68869203816468,5,S02
11500,0.007055304801115991,-1.03066710601174,10.160590386956505,-3.0293555644885637,-1.8536825411443991,20.04563455059425,24.682605932659413,-14.94135117166233,40.42098078834579,5,S02
11520,0.2524511100576745,-0.8954682471486777,10.062562086312067,-2.692725834546164,15.705652310033098,14.574107687168253,25.985371466254552,-15.374138643836508,41.13496429391746,5,S02
11540,0.3118685177423714,-0.823626842472168,10.415512472583845,13.812069181214177,26.659925712263192,19.825514462901786,25.095486687506085,-13.702981026248871,42.18081319123214,5,S02
11560,0.618795839307324,-0.27952301167289195,10.69609177581401,25.289674371930587,42.34628140004823,9.520256437962283,25.371561012085145,-11.328673015963222,42.35842130057984,5,S02
11580,0.7652479037718517,-0.18640189054504866,10.717221611893153,33.73817777767085,52.46058292592343,0.785434425356374,25.8108370481472,-13.602132975613408,42.386261623226716,5,S02
11600,0.8261800937527519,-0.17260906705849233,11.002939343107085,36.21344432205603,53.71737862910442,-2.981980570777001,28.27077093216103,-12.987924339226272,41.15592951513074,5,S02
11620,0.8880498800153592,0.03317458407460813,11.068417213698968,30.024103042363958,58.179416031282905,-3.800218678613073,27.057111852840755,-13.152053884951426,40.4009545268696,5,S02
11640,0.7019266435719093,-0.0893814659700334,11.27307722679204,26.18065574352944,55.70575688564065,-7.015791315274315,25.847195117244635,-13.205491409810783,39.607151270533144,5,S02
11660,0.7294960542172854,0.23479231488279834,11.174666570654376,23.073691509238074,43.09678245664655,-9.391674770176255,26.540534533050735,-12.853799188337776,40.19753553197907,5,S02
11680,0.7322657377196781,-0.2613728823358552,11.455634171736785,13.959472235884103,38.109216069350474,-18.253995615502486,27.400494523892895,-12.89619261649813,38.85709091246337,5,S02
11700,0.4564950059917493,-0.052386141074553014,11.377880118440807,12.680503289198775,27.355708250834073,-16.892368739798574,28.252508960898513,-9.88288607552229,39.04199021498743,5,S02
11720,0.24326592021127305,-0.23957727583159177,11.14142579848497,4.82706172399723,14.463486885253452,-5.824517875671429,28.035853666348615,-11.538309416785662,36.9509240827452,5,S02
11740,0.44426947220214086,-0.4406998476883861,11.065380174586801,5.408841155119858,7.2428816786467065,-20.228815037726605,27.32395069563381,-14.064053392648988,34.809931163965445,5,S02
11760,0.20135932200792594,-0.5070147053101759,11.163516031227365,2.684485038144474,4.297624910232989,-19.423506788662287,28.26651296389521,-12.504338909719678,33.7727612062117,5,S02
11780,0.23339083089635654,-0.7450753025477523,10.93791554397735,-5.157114019533521,-0.5507593107447988,-13.481833589524713,25.554484410824323,-11.654449868819928,36.16369970458898,5,S02
11800,0.1014624418674593,-0.9828673128275085,10.787476174464443,-0.38511287736990685,-1.1605803373844301,-13.543138693867098,30.6708284947429,-12.650782904847846,35.27447592312569,5,S02
11820,-0.11515605461894399,-1.2604329091534008,10.356032343167866,-4.573025512384579,-1.445723713761659,-9.79388148474926,27.767924335999624,-11.818167425943379,32.86014297946339,5,S02
11840,-0.04322892763710476,-1.3954105957131027,10.251993421440847,-4.064751639891545,-4.07144532220363,-13.385402910395365,29.882686817484096,-12.784040103359578,34.98038513330607,5,S02
11860,-0.11525669232317673,-1.6406570818395585,10.010123366811841,-8.27099295389818,-11.04720947145937,-5.927801648688316,29.432032318135647,-13.50197167458559,33.300928851828004,5,S02
11880,-0.059905392651566025,-1.7568407764628737,9.960643375245821,-11.475378247688363,-15.37822608253113,-5.0566424500379865,28.48109209240035,-11.522677992274131,34.50216016987913,5,S02
11900,-0.15255370632318863,-1.8281504236503396,9.807313929153421,-10.488503921046718,-25.938441490456388,2.9458156426304467,30.856201597959878,-10.72417794470704,33.377054527987795,5,S02
11920,-0.20926581856083473,-2.137704585977013,9.496044804098073,-25.09957705593343,-33.52930617680237,10.334260749096297,29.27109524008,-11.395024552213483,35.07532455526817,5,S02
11940,-0.39639575957653417,-2.1248622591479767,9.52871069285596,-29.63144172299778,-43.26933922274895,8.50652478111704,30.350541438346628,-10.892505971813117,34.03155723542605,5,S02
11960,-0.44709872696144803,-2.0806582053255656,9.657438271588456,-30.815825298054932,-46.3312098318974,12.094520571547642,30.518694438617302,-12.023086214527204,33.44045035349252,5,S02
11980,-0.8145698519944203,-2.135662453664923,9.591078528365697,-34.05474356145835,-62.194984673153954,11.223575542758091,30.346841715420645,-10.664149448760995,33.96554721960028,5,S02
12000,-0.5421590033107997,-1.9229103161331051,9.559569451417419,-47.09671271696743,-56.55017501410738,20.1287486458562,29.342805530635992,-12.859420094104905,35.603549481167946,5,S02
12020,-0.5345855330086645,-1.767960830605062,9.505963993577492,-33.18308145573391,-57.76729665991019,17.476076707727895,31.50387434867236,-11.695829721317043,35.848972429059394,5,S02
12040,-0.3980588579552714,-1.615224850002734,9.485234942274662,-32.78319660553211,-48.11413851178492,14.278958028254474,31.03595341104827,-14.792525966252683,38.02456978146465,5,S02
12060,-0.3947976919870122,-1.6042829089417483,9.510896604863122,-32.02480926800968,-37.680279726081075,15.631702665927188,31.22061732632016,-11.71131708769352,38.73102876495534,5,S02
12080,-0.14334194520492655,-1.29401634339949,9.84040331872424,-15.577598148951733,-27.12697594176926,23.722182656587176,29.927856586614105,-12.877105360950923,39.314827812643586,5,S02
12100,-0.014141103703674163,-1.2036382204878409,9.957420928538928,-8.706581046066013,-8.64574678908342,19.177154809881163,31.871001460540096,-13.46283398318782,40.822727738245376,5,S02
12120,0.19302208243819025,-0.8765177949384959,10.046004998025786,1.301690469307637,12.839847408410456,19.710995522446716,31.879632888699668,-14.929343579971658,39.68159915241071,5,S02
12140,0.45707744665430194,-0.7808388892846769,10.271090424011632,11.512325427310032,22.69564818996027,12.687943460648945,30.500528248520595,-12.606599418469163,40.70624261571269,5,S02
12160,0.6456703880675781,-0.45124030539364063,10.44428137480456,20.180929951605247,33.62315609937099,9.501437227987498,32.72979353353006,-14.04520085912106,42.72611959363002,5,S02
12180,0.7612512321889628,-0.21546515706455838,10.877406805632972,28.55573577619658,47.426446731994695,3.278043548841717,33.330980430939576,-12.48957846329204,40.99861371183579,5,S02
12200,0.8684961675936842,0.018246938909413327,10.818639361924859,31.554034243967042,48.62111541922859,2.378891280199961,31.162163113851484,-14.591988500345067,39.88296281649024,5,S02
12220,0.7470049602537887,0.1336035995485997,10.992305859641105,33.10448980461282,57.04050782823322,1.2203484118807673,33.17986864564925,-15.568229002657095,41.40216323779421,5,S02
12240,0.7579852126254786,-0.03523229789445375,11.255466034165657,24.561565599812194,43.20105065536538,-11.017821421870904,32.63528497277217,-15.402705029216783,41.13192638710572,5,S02
12260,0.748825477580089,-0.001023899855703364,11.282742607219985,25.969562837748263,43.380008550914816,-3.6445959936115915,32.61617370970876,-15.195528431116127,41.216507806905284,5,S02
12280,0.5705393111120077,0.026628235246186863,11.352470371590128,15.529643465931326,31.100853839427362,-15.5666868183993,30.446158208147867,-17.72051186885072,39.06638672346617,5,S02
12300,0.5217471095429576,0.03689890738963564,11.373156922662284,13.279618037742956,30.400002999645576,-13.244048157187672,32.35497149009971,-16.345112022359896,36.69848183966408,5,S02
12320,0.5178930980234663,-0.08414602263567131,11.40180773560121,0.13149351934113707,19.32236238333661,-19.3597911209814,35.0354092315233,-18.63505210225931,38.073256194421816,5,S02
12340,0.04654713613142935,-0.3983738737041444,11.288768699032993,1.5385970716529975,11.451511889823255,-19.01963467635455,34.22127591780134,-16.203768307765877,36.8099936111846,5,S02
12360,0.191283112919455,-0.5741427625897164,11.299715170972144,1.8151709598269141,6.527904245463131,-20.60205544006448,31.677054598283007,-18.174113110145957,36.50921117614883,5,S02
12380,0.3273805572736347,-0.5752012058199734,10.986316303604069,3.4758913235778452,5.01090723769829,-14.717213409990276,32.04611833547979,-18.849378128444858,35.26658721972838,5,S02
12400,0.1523784390402811,-0.9556775313208834,10.772457086726831,-6.540777085051989,1.8020543957306165,-15.802679073599636,32.08373647063619,-18.104188373051308,35.456087639004366,5,S02
12420,0.09962310543944182,-1.1740467612846501,10.66745043797659,-10.27342422370156,-3.767661809020993,-15.508414049629154,34.4047260015154,-17.91813795689097,32.37886302469545,5,S02
12440,0.06116130121777345,-1.2515646637079045,10.497746655776815,-7.601885491922151,-0.48710915752891526,-10.246362354902681,33.260513129337326,-20.076361102294115,33.68297963035269,5,S02
12460,-0.009014288580638477,-1.4799624612417697,10.144965994321156,-13.172831257396641,-8.741447650989192,-7.270983628925985,32.97391948097285,-21.25395370989124,32.97657740341796,5,S02
12480,-0.031818924463572845,-1.7526905525060883,10.047320056945772,-18.04598998212228,-15.826427239754329,-7.2436057666366915,31.178961504109488,-21.994474687937533,33.47271503351577,5,S02
12500,-0.052600734973123786,-1.844547034880657,9.76395494979342,-8.649058234798328,-23.86449884115261,2.671117824303059,31.212356515227228,-19.041279328841497,33.144904179402374,5,S02
12520,-0.33934369211111637,-2.0684922478341847,9.541710836357462,-20.290932026047667,-33.47541770765087,-3.0778022819558277,32.057212128173745,-21.42936948533537,32.685838388632185,5,S02
12540,-0.459561384122938,-2.1281778779924156,9.614830552043683,-22.206208833886297,-37.64669486097717,8.309571975133386,32.459847150448326,-20.793742845154192,33.782304770168096,5,S02
12560,-0.35684484670010896,-2.221572081468087,9.475992202631176,-37.31435474325236,-46.94396237390613,7.510037537707624,32.114429376533,-22.30583557306864,32.459489973511886,5,S02
12580,-0.5867245393987759,-2.271986753727346,9.418961616613151,-36.690716932193006,-58.04414074721836,12.68550773179665,32.6117046354844,-21.18570636971386,34.84352244361889,5,S02
12600,-0.7115645984268147,-2.0813074256971693,9.269166314122605,-44.477401390197386,-64.22705115847911,18.711959883136405,31.68239536155314,-20.344996924772225,35.21565027419737,5,S02
12620,-0.505784054762414,-1.8107491416544763,9.52205789371459,-36.485672541482835,-54.959192892065495,13.56554853976499,32.09277955061364,-21.392227345849562,36.45365204483897,5,S02
12640,-0.5521160260247457,-1.7980777556635776,9.244725274369499,-29.11443710019406,-52.25798849931589,18.695622751405846,31.98671568211199,-25.182272255478395,35.67976905274038,5,S02
12660,-0.31947477169920424,-1.619255968917704,9.452344565302264,-31.815056074230057,-41.534363053905444,18.342650494789638,30.482716084643677,-23.253584122740556,38.46340302702816,5,S02
12680,-0.2903953734717287,-1.4023850685841113,9.657161985605672,-20.194052583307432,-28.205994701126453,15.695495785549227,30.868563453870667,-22.226845993258223,39.61588216400688,5,S02
12700,-0.15177590954129686,-0.8910894546816983,9.685997042982159,-13.42672998148069,-9.413587356675379,12.803716039802248,30.199353219726746,-22.529216524052195,40.437982144224655,5,S02
12720,0.13956888309211812,-0.9776403332164985,9.796724871984804,-3.906884703888558,0.35311376685974527,18.317772054043747,31.00311871362629,-23.927111106284027,39.81218903463701,5,S02
12740,0.14573305765416306,-0.7424800458644727,10.2438725207682,4.487338194962972,28.120650597136073,10.894011415652018,32.30534055166212,-25.033362670690448,40.9080306679774,5,S02
12760,0.2906343947805577,-0.6744794968573824,10.391715894315583,18.882916841716504,38.45504258180094,10.630775982938724,32.25622219471114,-21.879288207245594,40.97249213624644,5,S02
12780,0.7758228769686377,-0.26021151349976535,10.644757161787538,29.28394310767513,40.913326296717734,5.88685065595349,30.549242370279963,-25.919711398931824,39.15412489692002,5,S02
12800,0.758656374743364,-0.30150109941139724,11.021218979120649,26.73858887548219,53.729856168289665,0.5045731617262502,30.458259768273372,-25.15771524341538,38.81242395457689,5,S02
12820,0.766021601840204,-0.14483296957680966,11.165167329315759,32.737757390721875,57.711236160864146,-1.1899645093898368,30.615465928243324,-23.57680490439678,40.65456920254271,5,S02
12840,0.7544818772442055,0.10143970097540617,11.149129883015595,27.507109246737144,53.247851982992565,-1.7445929410467769,30.44280190651226,-24.50901128712151,40.33504611890922,5,S02
12860,0.6820593608730627,-0.009145559920446814,11.267830191116106,22.445596948328664,47.86575483887309,-3.966543605451848,28.635310068002987,-23.322543996697185,39.8934452446546,5,S02
12880,0.6301995631367465,-0.04859649754266267,11.290307050494956,16.30243717740391,39.407423651029916,-16.848442445508766,29.07745963916791,-22.373176594891678,39.56957331791793,5,S02
12900,0.6634936891063823,-0.08595743259393826,11.19531425495382,13.606272834080073,31.61282527552611,-14.03285906307252,29.213791123410868,-23.043414513511284,38.54072501451343,5,S02
12920,0.40176711118467356,-0.20377445273027753,11.345376634948472,1.1230858939317274,24.498509810940767,-10.788590029945572,27.1382230886825,-24.364784376856996,38.63380982513208,5,S02
12940,0.2597161118267476,-0.34844152186225175,11.029388693810144,-2.3423030068574953,11.801600623833641,-18.20213585121569,28.26087088997823,-22.663822681382513,36.09761768954599,5,S02
12960,0.1906809970145092,-0.5444674399750031,11.005992635429875,1.597831948002919,6.573909492555017,-17.001093397220384,27.693317740400786,-24.600900141208115,35.29109973406827,5,S02
12980,0.19957625099042503,-0.730376808153687,10.897084523676487,-2.699449310094568,-2.1234919356958786,-21.642792554626585,29.720365734650144,-22.519496904157954,36.27819293117807,5,S02
13000,0.17507270063512956,-1.0272265242368581,10.813015687143421,-2.388001785177845,5.091727397475453,-15.053773569030412,28.782590931821385,-23.20257530783589,36.12184294775392,5,S02
13020,-0.045559194720199536,-1.1774680896434488,10.577922167038261,-1.8808040246056614,-4.52505311016103,-14.551202356244334,25.94042960260868,-21.883889575053526,34.549287300372725,5,S02
13040,-0.11147541968593166,-1.4337492176136866,10.376843871362054,-1.9944972639507208,-5.6745718598848915,-9.17421361265574,26.659751967846667,-22.791710742164522,34.07487341930691,5,S02
13060,0.09499250226960836,-1.578241666525594,10.224844918473801,-11.489239348462828,-12.00644959226849,-3.4438023493332364,26.095390560632026,-21.94929716932204,32.5116970779352,5,S02
13080,-0.13865811971571027,-1.742715888942753,10.05869500762016,-15.007747394903628,-17.517035543016462,-6.962097600011066,26.91538751266141,-22.99412752510274,32.99052332523084,5,S02
13100,-0.13759573611253081,-1.8639711130912542,9.885138819461197,-14.342710273824029,-23.359441260797446,-1.99134862201619,27.693593348652456,-22.682951554639914,32.87983160428894,5,S02
