timestamp,ax,ay,az,gx,gy,gz,mx,my,mz,label,subject_id
0,0.18548771095983857,-1.040188380021435,10.02220221563892,-1.6043417526830224,3.445417641780682,19.401395179581325,31.86532413132981,-15.085922571998491,40.07963048001863,5,S02
20,0.40837388245884587,-0.8250274962506239,10.21746283371036,3.366691600891877,12.857642536825104,13.871804543015097,32.07564793537706,-12.90705316211469,40.875476647437125,5,S02
40,0.49034196890299075,-0.6537013520810027,10.368096815138667,21.58993733482947,25.66137275657117,10.630118865310472,31.111017952693793,-13.280224169454517,42.53631419559677,5,S02
60,0.5380067044202114,-0.5598441992275369,10.574429017817028,22.0429601399559,44.30183527781895,6.925214083594096,32.69481661898047,-14.240151089983382,40.89544976803758,5,S02
80,0.6834972254752106,-0.14709277757066186,10.946867788288642,28.958247524688968,51.66707173048162,5.994837983600923,32.15682746008396,-14.458192810148592,40.74374434290564,5,S02
100,0.6985734176413184,-0.07605580745567861,10.910346253771657,28.70050291369959,56.58345378890509,3.311136421847917,30.374369439657325,-12.513901411399232,40.98358939529441,5,S02
120,0.8184932728112166,-0.07390720418591312,11.176597595508516,25.60970061337694,54.61382904910037,3.9606992503669414,32.10371497422196,-14.293687089721008,40.83158084472738,5,S02
140,1.0304102039004317,0.002245927983229312,11.387090649241541,31.809827306535137,47.83563433978877,-2.9667864745295325,32.82831152399073,-16.101884434589678,39.833265628553185,5,S02
160,0.6298262391815068,0.05671327292811967,11.460293771193635,19.65549295890635,45.262599322533845,-10.00930089336605,31.362112775402938,-14.76949380014106,38.9071813702187,5,S02
180,0.702218695819657,0.023217137161242005,11.224300145284516,24.338479130551566,39.74169259200847,-10.997940046371411,33.04937398744386,-15.43462837620606,40.22941880562692,5,S02
200,0.4428756003912965,-0.24440062486901795,11.196966623005144,9.386729657402704,28.70736312144272,-17.975477937064007,33.625979357338025,-16.935430141265513,39.13715153942702,5,S02
220,0.3092277626371541,-0.13299225723410307,11.251416788326711,7.533936569932055,22.4295691483746,-18.260255322262847,31.42874146172718,-15.639788906907787,36.702973118046685,5,S02
240,0.17544151572077063,-0.23903262945674666,10.970290898603814,-2.1559793053616882,6.687830496283175,-16.37406987560126,31.572188687728623,-15.506730406305495,36.88257116188484,5,S02
260,-0.0054525801447421335,-0.7012277302153431,11.045663263534864,-2.8587302028115014,5.445305288853055,-13.161477869614743,30.584093317010467,-15.848416572406897,36.05447110908031,5,S02
280,0.048088576139850375,-0.8149464923293215,10.838866280513695,0.642725083104196,-1.8006508672992598,-15.19436982966072,34.01443835983527,-18.23791337413916,35.88550335302587,5,S02
300,0.2026893429999325,-1.0136839056986024,10.637812014354624,-4.011023276846514,-5.076954151154014,-16.267516996957838,34.80146598952507,-17.90798144987565,34.15960949160729,5,S02
320,-0.05987267375443356,-1.330461496607549,10.603005870827193,-5.542836178502631,0.8679483317620289,-9.519257534307908,32.11208309228922,-18.657515065910093,34.01474828425674,5,S02
340,-0.08394666367252732,-1.4450580841853315,10.37546286575846,-4.291456392867639,-11.161658569890161,-6.114879398553134,32.43542133191339,-19.75797652560543,35.35765765883018,5,S02
360,-0.12342540860654497,-1.74306762521351,10.083362663073943,-5.910789337238894,-12.27693781451561,-7.468772126125456,31.37037899092933,-18.054140478606005,32.307316326352776,5,S02
380,-0.02611891225218929,-1.688793611302534,10.060691479706307,-11.504279021095396,-14.5741760205418,-0.7823733741547688,31.429750410493565,-18.888819142486472,32.036316715580654,5,S02
400,-0.247322796008527,-2.049589016787489,9.679502147200083,-10.884110622443295,-23.852704559455272,-1.2149771461482812,32.80001193236856,-21.19877934616803,34.4093350846139,5,S02
420,-0.2041175485066596,-1.963692607730724,9.782250610986226,-20.32983910611726,-34.52110146265613,-1.127111279151538,31.872192352984612,-19.606314127604463,35.61859713335569,5,S02
440,-0.33298558651417975,-2.21191253045016,9.313705829534433,-28.479772687293746,-40.49722738359055,8.62053102496303,30.84452263937442,-20.55043181288551,33.55549437750645,5,S02
460,-0.5285220611992645,-2.0302958767428616,9.474320084399972,-32.934545172603784,-54.92274450388625,9.925167483736072,29.796460107794495,-19.07813440297721,33.18380713609962,5,S02
480,-0.5808973482094567,-2.031962816689079,9.482221659598943,-36.202895707658115,-59.198276547642436,15.86541482759669,34.025338246294396,-23.15620423962065,35.07335505966593,5,S02
500,-0.6223679951131453,-1.9874636461546247,9.414668901556364,-39.069786873591724,-61.784912200176905,13.96037209021139,31.66388438585114,-21.728987448927136,33.80559518820373,5,S02
520,-0.5470180368285631,-2.0527445842707186,9.285144793736535,-36.11553024002382,-55.25761163667455,14.678748237884527,31.331103950221518,-22.15842468325341,35.47796248134634,5,S02
540,-0.3194158919191654,-1.9070992809620533,9.502473264543811,-31.16074407237912,-49.474831611633824,21.01193389256262,31.68209486446824,-22.789843542147253,36.88170305806401,5,S02
560,-0.2950843315471976,-1.4658468040831316,9.588905779728657,-16.65767648867805,-39.0908051107801,22.03257436870955,31.840204616661374,-22.85908910857993,36.0649547997215,5,S02
580,-0.20107542564690825,-1.4119878910389347,9.909911208361939,-22.556885132753333,-19.65030070121051,19.2326671006516,31.412020284860212,-22.52412548304639,40.54680472023173,5,S02
600,-0.01589721428010532,-1.1676521736436365,9.865212143756455,-10.24090170067268,-9.271937862284869,13.015261738332919,31.37834514896441,-20.98557012537828,39.2592497152451,5,S02
620,0.3954951192510905,-1.043240484855201,10.150496885285246,-3.7863050907172076,12.291997544086872,17.856136853148783,29.497988676524933,-23.65084300205402,41.4017196917482,5,S02
640,0.3367870980729698,-0.6358956647711889,10.286366958292444,19.393035687543954,23.12085274934868,15.24810485596309,29.430842674912274,-23.16817725833266,41.31658100246835,5,S02
660,0.7239781125432788,-0.3830477965656177,10.527079482291908,24.53364349683059,42.895304485325475,9.730696657293803,31.61704351180077,-23.938762161886192,40.38812854083255,5,S02
680,0.6919309718063723,-0.4082882907295473,10.664389404635847,23.555713320912446,54.69136713259184,8.109868628591485,29.512613337432906,-23.376730719862955,39.64015848637614,5,S02
700,0.7979371850502348,-0.22525564733676817,10.882050822871596,31.426700161662207,57.47052478783349,1.6324944500544336,28.31069417137627,-23.308861500988513,41.50652812087686,5,S02
720,0.7850157913216498,-0.08344660087270582,11.09471224578743,26.129881519805853,54.054467375290756,0.8589944638067667,28.452441660440495,-24.483523371330126,40.99747185197651,5,S02
740,0.7339432149851316,-0.14286328115983482,11.046021709871622,31.849828296272126,53.70844020611829,-2.9612849939184875,29.299374034561776,-23.339666287696687,39.875008216346885,5,S02
760,0.5318146827091726,-0.14691581508108234,11.341143758328245,23.67023822669805,45.64000792073456,-3.6929855306192345,28.187797005802206,-23.875139802107874,40.17116523979306,5,S02
780,0.6486259605003714,0.0654551813771514,11.131692153854647,23.59481622135007,36.85085075967459,-10.413820231734071,29.252085306162634,-22.473615870187775,39.126411321510716,5,S02
800,0.5863738182726702,0.01558677314805633,11.340110891820407,17.019495138498744,30.763683227775182,-18.281548076152784,29.96274541091701,-23.757237612749254,38.73804118804188,5,S02
820,0.5619907499597228,-0.21725485033625605,11.313651930399233,7.997893411459102,15.916933300723969,-15.839759836105346,28.29697470432734,-23.971257871306406,38.258561223535814,5,S02
840,0.20634223047229938,-0.13504860070776725,11.339739920858712,2.957747949581969,17.964455005161906,-18.73151690326363,28.129145856935626,-22.8748673664969,35.61616397811317,5,S02
860,0.3855533337362673,-0.560991102041959,11.107102926705164,-1.7654060609757813,7.9493692458316625,-22.03746524023996,28.875032686502415,-23.47919004297776,34.98504254512238,5,S02
880,0.3096106304926213,-0.7128456404528392,11.0706109610959,-5.262280342645509,6.174952437389124,-16.94723076080987,28.15232526478427,-23.381670428578218,36.07049358418207,5,S02
900,0.09530300513265738,-0.8932101614808767,10.89349926616623,-8.654024729475509,1.7201754521432788,-14.357534765746536,28.2893052119692,-23.979198917951262,34.03639259764171,5,S02
920,0.17477269186198752,-1.2057781881766434,10.591034091545483,-7.739219660752445,4.300073720680218,-14.75245327470999,28.092410003431112,-21.938737009657913,34.47611565468239,5,S02
940,0.06703772685191595,-1.3599471941235086,10.208213369535676,-7.010077425556717,-2.32067722919777,-16.012147330708544,27.310638444067372,-24.6465764042406,32.96317124853374,5,S02
960,-0.028334316251506453,-1.6550807433311852,10.150916039626003,-8.250729732819064,-9.483064321247063,-5.231011865450442,27.220836162818273,-25.279077090700515,34.39605942348527,5,S02
980,-0.0717120250322778,-1.7364612657897398,9.870233831853866,-8.49834507661831,-13.411355410890225,-6.2995430636412095,27.680587327747688,-22.435482047220727,34.507407350052716,5,S02
1000,0.002311953167309491,-2.130117747385886,9.992685513871642,-10.08235485700165,-27.742178503394925,-6.511520418656601,27.227915382638734,-24.53596420146473,32.49416691739461,5,S02
1020,-0.3562096310861361,-1.9619661134074289,9.685645792470073,-21.142945732958122,-31.02277733439178,5.565875290536512,26.901731826404895,-21.722408795190155,32.92692423312366,5,S02
1040,-0.2668670893943027,-2.183412843961421,9.66153982202297,-29.348237117114724,-39.31327209477906,5.301534803643616,26.53682903431278,-23.505182521543944,34.067073376801076,5,S02
1060,-0.5748781109723016,-2.192343855035257,9.567690436948876,-29.76055394138387,-48.591038392340764,7.797288962927309,25.289945955436686,-22.52502520033345,34.859370296839046,5,S02
1080,-0.549312090654757,-2.2425919261417526,9.523976563339787,-39.72359450276911,-51.32963218402559,12.605584375627007,26.827798201105953,-22.05325651412533,34.195953772390894,5,S02
1100,-0.5768355002638046,-2.0408766302200254,9.678082787201125,-42.71730630672575,-57.77837450713418,14.81986473061601,24.362856045515358,-20.93571827283595,34.37585741090127,5,S02
1120,-0.5379121471499482,-2.0494765139108644,9.511135145824753,-37.192103916300894,-54.83448216026345,14.060007859926264,25.085092034757942,-20.921647043318533,36.668440447874474,5,S02
1140,-0.3408757515203379,-2.0447520485076898,9.393755168056261,-33.052380916089525,-55.66678352445542,22.2193815546564,25.641621557504628,-19.411556967783348,37.377530633779514,5,S02
1160,-0.4988240233019361,-1.7127916983699103,9.733789331082598,-28.573234968281948,-47.50027389197734,14.521218899765328,26.02168156511911,-18.93632069699097,37.5983909830064,5,S02
1180,-0.14683459895138887,-1.4011749273098106,9.539172953082717,-25.7866390127574,-36.487912903071894,18.407981115566027,26.4683612067593,-19.135390844554863,38.73759360298844,5,S02
1200,0.16303342252306435,-1.3059163743531839,9.62256995686369,-14.322223960270247,-21.26461832030779,7.33855778817383,25.680955522202257,-19.092597017206067,37.303337947950055,5,S02
1220,0.09494066520831168,-1.1367160323071486,10.011736047744,-6.16560994842935,-5.522663653330389,18.09077202474818,25.506059915537985,-19.045073906119033,40.55815835947515,5,S02
1240,0.23547457415538656,-0.6635493250480704,10.188317285124604,4.935233353751985,19.535254580099085,10.477623031965274,25.098291835641604,-17.712566584106085,40.72126487700756,5,S02
1260,0.47144877554956577,-0.6967833153256624,10.334780172566235,8.68232856990387,30.68926931376426,6.272608620943733,25.865965416311806,-17.616983639388366,42.669884435563375,5,S02
1280,0.42818880907114065,-0.4317741908085054,10.68901528411813,19.461557232591655,42.05212330706457,4.4990877132809,25.285762303490777,-18.394447286335055,41.195903251103495,5,S02
1300,0.7356603926822063,-0.12009246059900994,10.881835979402608,20.397851042348897,56.221701376209815,2.490552232114265,24.13595486003085,-15.271925338688469,41.27834847724116,5,S02
1320,0.9061311480863717,-0.07169396754541445,11.024259666707561,27.47070736136792,56.76525652228867,1.2951810484800474,24.82427858967326,-16.588940872201142,41.04769890929809,5,S02
1340,0.7372967031737861,0.1655459544272665,11.196908464667082,30.470273548765316,55.11455670195948,-5.703876717680787,25.76758140030829,-16.32103280016929,40.93360069399915,5,S02
1360,0.909947572860082,0.13844917557193742,11.19496259691081,18.34336005534163,54.67869810085234,-4.32392257017244,25.412148116820912,-14.147333134534714,40.20875454563546,5,S02
1380,0.5894405639440987,0.14117495334643154,11.109224217012251,25.327404257934113,47.21829488252352,-16.354935882734786,25.507725049074168,-16.90811740056175,39.32505861213769,5,S02
1400,0.7229210643170769,-0.03866471957661414,11.318266450709622,15.556484528345461,37.126126406536095,-15.609965370091283,25.5825442563749,-15.800323948625048,38.265747100590154,5,S02
1420,0.47948931313843113,-0.1976779467467304,11.09345511452958,12.162644718514535,28.55413787833293,-13.86710341598557,25.846525508245186,-14.606079279688572,38.62670523999487,5,S02
1440,0.3196215985284184,-0.3115803483980894,11.198658172725462,6.661997474561653,13.987840182096768,-12.099434550797826,24.895366298252174,-14.769880503257298,38.5645735753597,5,S02
1460,0.3819416370757752,-0.3055056622813916,11.15957312279083,-0.6368673087794097,11.114728505510707,-14.898910677102355,25.46764271339148,-13.697930474194363,38.26843603594909,5,S02
1480,0.23772375219211758,-0.6049621833629748,11.054660519240345,-5.05702656565523,11.71936369683168,-21.02789125275789,25.18781689669055,-14.036326981653776,34.713238213392415,5,S02
1500,0.10034484170412127,-0.8847672979314376,10.787135869256199,-4.989964477333466,3.517787818457065,-17.2523722561944,25.500105393807285,-11.932222819870812,36.07441210853823,5,S02
1520,0.031669056785045946,-1.0059981512497722,10.66062535983369,-8.51757466344267,-10.001132516164175,-14.355009229481865,24.944735426153052,-12.846788109828154,34.328857003468414,5,S02
1540,-0.016926820545305143,-1.2585334997947955,10.480783636983709,2.668183774776357,-6.301404357474529,-23.545935806983543,27.36616896311499,-12.395749613177884,33.60914747723717,5,S02
1560,-0.07847619183610771,-1.4379995600307824,10.468894764196742,-6.503523997831405,-7.309557148488975,-13.987249687790479,26.302469185306016,-13.510278910694806,33.90203904871737,5,S02
1580,-0.04837303269522206,-1.5771614814352917,9.966624843707178,-8.450206041205828,-11.221083272658632,-11.858167522909978,24.990679291112354,-11.25623006670589,31.979838511221995,5,S02
1600,-0.17800992742995006,-1.8076222796245043,9.886892632236256,-13.85988522265577,-24.474673024888656,1.780498932831175,25.363632637473156,-15.06442792843024,34.41261552012948,5,S02
1620,-0.1065089050660474,-1.905508670660716,9.711329013475385,-17.845193545624273,-23.046742207012624,4.74160895199975,25.194082623261217,-10.559752824546546,33.32920009206998,5,S02
1640,-0.42383067593697665,-2.206550837996692,9.70639856898571,-21.93805835066074,-35.457781320023464,-3.2925682768259485,26.030108104637478,-13.84691983662291,33.56717826746214,5,S02
1660,-0.4969277039702866,-1.9484449236498926,9.54059619665358,-23.26924621959421,-45.864026197311496,11.244744487543512,27.970263342420704,-13.42824436658347,33.56858893484079,5,S02
1680,-0.49557002267993155,-2.153841488022789,9.567798861720105,-35.59801375458777,-58.19466516777791,8.661452406860974,25.957181854368336,-11.659121829462492,35.251201779814686,5,S02
1700,-0.79338969843642,-2.2164134676385365,9.344173135327061,-42.29356591289438,-58.200593892394544,17.411330844442173,28.02361492800557,-10.824879457856321,36.475186173555564,5,S02
1720,-0.6016675060873964,-2.2367223315050393,9.473316335413209,-39.85422577249897,-58.752296229747195,15.40674181185389,27.454768429852294,-11.08851544704937,35.65553467733993,5,S02
1740,-0.7159862865264442,-1.843867534489924,9.236099642983577,-37.65217147854927,-50.41497984497818,15.858086016430752,27.68838449482063,-10.78849576503694,35.663188704340506,5,S02
1760,-0.48508807549971067,-1.644696316410888,9.419338935067755,-35.561609117125286,-45.32093825134388,19.965812197540696,26.718218307661697,-8.955368334241104,36.85972087417577,5,S02
1780,-0.44703428779159804,-1.5920628448144254,9.544085130181571,-27.009960054284264,-42.877598049567666,24.12148797640313,29.614312517860157,-12.794304179411988,36.769301839534634,5,S02
1800,-0.09892945473036227,-1.2285886178282017,9.68643800756894,-11.274934629802793,-28.410830419409415,20.616904233375134,28.49209131404892,-11.484588193563331,38.904187772040785,5,S02
1820,-0.038312814066592066,-1.1852840194686405,9.92252509948522,-11.195579425169974,-2.430640608241359,15.028351076947924,27.273107606443578,-10.950220652029302,39.63084262700601,5,S02
1840,0.229920966917657,-0.9518959291440481,10.168980163602434,0.17692754892261764,12.416865697897846,10.068085924238341,28.62386405500395,-10.20244709337998,39.901372133682564,5,S02
1860,0.5153782572446378,-0.7376094418009629,10.192476653091394,14.246802215053211,24.12825126121214,18.69497079029686,30.323210520247677,-13.193111556096525,39.854432731368995,5,S02
1880,0.5126606805311503,-0.609035973241153,10.668087268974428,19.430495237256995,36.354083718625915,9.443568274131081,29.461095233350157,-11.414557317268319,41.199334193892255,5,S02
1900,0.8204452449652606,-0.31184140653608594,10.655379624110427,22.738994103323744,54.527830533473,8.637796705733209,29.52167920826241,-10.622017206217759,42.006743472915566,5,S02
1920,0.7812404419510541,-0.09226724557561178,10.773624203482031,33.77539957887169,48.526871331478,3.9686614598426986,29.946622493253727,-13.525183614261897,40.790066825927,5,S02
1940,0.798159462509922,-0.17813594835795515,11.028100327861843,36.51862497604905,58.607811884440366,-6.453412951465587,29.37523626806171,-11.52149719623165,40.489615299851145,5,S02
1960,0.6571443488962971,0.05656365757290055,11.058445553540237,22.890783332543897,54.96232534916806,-3.7384112551670277,30.914896748108216,-12.047212068556044,39.44790570603465,5,S02
1980,0.5713061374368453,0.19754081855780475,11.254984170726777,26.259849660395513,48.3314332728853,-9.340450156787137,30.181155522019836,-11.30414125562409,39.81137057694208,5,S02
2000,0.4257203093715235,-0.011015846862905382,11.410183309908964,22.76280762498195,38.74668434826052,-10.781065090504462,30.23643695723401,-11.314992264373117,39.51642332630383,5,S02
2020,0.639885421388726,-0.10795805560616079,11.314482952268962,8.4017659211315,32.58718439208468,-15.76012238982865,30.202042722236452,-12.551202794204146,38.498529709552365,5,S02
2040,0.27650617357455987,-0.2667001160585236,11.450002138991238,8.956253077256491,22.195880658226283,-25.117776296730835,31.278296099974902,-12.871670359602989,37.47455972910635,5,S02
2060,0.15783885436347306,-0.2004398655345683,11.274340422671035,2.2298020093469892,16.6942895029361,-15.145628894632368,29.331994971563507,-12.563584399783178,37.248951660221586,5,S02
2080,0.036073654966753674,-0.42437696000843417,11.289172934029692,-8.656529297504555,4.415363679125814,-21.028948608348482,31.36093800629496,-12.065538157001608,36.197095572366585,5,S02
2100,0.191961189814016,-0.6475708536530786,11.143157110885381,-1.8611551674713747,3.511181882007569,-17.17215755832329,29.26830194019321,-12.438300245461031,37.165899403076,5,S02
2120,0.13998377898389855,-0.9518812917625992,10.773596815241547,-3.0692116950540145,-1.9126231357440393,-13.286655482330772,31.365453672243294,-14.46569016418779,33.82984424833137,5,S02
2140,0.014296101513010862,-1.0994128766172038,10.64700912799565,-5.887346072507874,-4.672485897707757,-17.158698106924827,32.49892206746583,-15.874507171115058,34.163370324342125,5,S02
2160,-0.07832577645671321,-1.2856449769119709,10.673978504805971,-2.6491601239084046,-5.526771572570465,-5.530539844557462,30.514068666441208,-15.392368452321158,33.45192773929975,5,S02
2180,0.006151521216393077,-1.467443035524323,10.113769262241593,-6.48522018289708,-7.272765978909928,-9.422876684591454,33.058619873973385,-14.942321220344441,32.77075667987258,5,S02
2200,-0.08665884927473519,-1.7177206185794476,9.91456986489984,-15.658926999264114,-20.225752878585496,-15.136020615551741,32.837508411444404,-16.28172541234413,31.544761454179984,5,S02
2220,-0.1645152192546714,-1.8626938449688264,9.787078734464863,-13.661595209736515,-26.706272911080653,-0.22711785240726512,32.21211777991598,-17.103777456663092,33.48891959475229,5,S02
2240,-0.27152069012799795,-1.9331318694458728,9.714156041577201,-21.202441593267345,-29.90239451482328,-2.5691070926957846,33.40177856291526,-14.04855525397395,32.91819463723926,5,S02
2260,-0.323386344875247,-2.259860738109929,9.406428324759732,-26.998561574462226,-43.35723516874252,7.027554895997977,33.081250097045825,-16.740175192216366,33.92606626224433,5,S02
2280,-0.4428616306997608,-2.147791807889018,9.495343258000153,-35.97823335000133,-45.90047955969997,9.76209283503635,32.59386422421989,-17.94288791507612,34.8944128665536,5,S02
2300,-0.6377965635728916,-2.297746458599467,9.471198143762201,-34.332432400608326,-58.00419923979819,18.133402262583196,33.408173340096766,-16.047972976869577,33.83463433113843,5,S02
2320,-0.38246116518350204,-2.0698559456679297,9.400241085324009,-41.91648935425238,-58.06586228537755,13.455911476585808,32.42115031888442,-19.102956155763124,36.573523499252914,5,S02
2340,-0.4632123363976437,-1.8902385098664758,9.558224040020383,-35.04178239474455,-54.33089889221736,17.86119013256957,33.18817362326178,-18.247670281481643,37.315924200902565,5,S02
2360,-0.39728533915009856,-1.7772141043771257,9.605813541353402,-33.28203181226175,-54.239942094258254,11.523339747670919,33.09351693345782,-18.298060865833534,36.28596103782182,5,S02
2380,-0.43633425577314267,-1.4712758060069702,9.712765560380378,-30.294465973512047,-45.365948306738346,15.60028386591359,32.10309841101573,-20.50254406145588,36.88977057133202,5,S02
2400,-0.1388821277079601,-1.4679130344888816,9.557983662616897,-22.024894007331987,-34.1447192681341,17.166074511070065,30.977839555657255,-19.17327114030793,39.10552378356506,5,S02
2420,0.018094662995816718,-1.3594857062826489,9.945980368796649,-11.882711963294778,-10.313359276207649,18.44938649963334,30.9636669826463,-21.096215729523003,38.64808078328577,5,S02
2440,0.1811453752507739,-0.9583287557762876,10.000658244892081,-5.5851700387098475,0.33694994235270004,11.703159927065094,33.024586760757145,-19.935247798878546,40.47769485007137,5,S02
2460,0.23492941506194914,-0.6821284167320949,10.369053056573335,11.084382659633011,25.007325269784527,18.329774451881697,31.34307180859699,-22.609463196089862,40.88208129901911,5,S02
2480,0.5853747174249996,-0.5474312433303723,10.33550123163036,14.118629865857958,35.53855035815128,13.322102017813192,32.99484506439596,-20.46875347956415,41.10997360685713,5,S02
2500,0.668291849779792,-0.4637337459684938,10.683212830482189,20.370419846909268,51.912865475827545,2.959109653020692,31.960627882167874,-22.852162163547096,41.45046049284475,5,S02
2520,0.7837486745636777,-0.2277417682554694,10.933427405977186,27.950701737037686,49.54838604840892,4.399705763782264,32.78829194652135,-21.818868881913232,40.302484274507506,5,S02
2540,0.7601585300437315,-0.13896873526648157,10.999891211027824,32.50025004637369,58.396570459665384,1.0884015461700378,31.02847986532368,-22.536398303822303,41.918973234479,5,S02
2560,0.8802444222737474,-0.1493377385704831,11.055323618324842,30.82732277557807,50.971685619368685,-7.132798667802437,32.13476630041379,-22.10512947282752,40.27989966983484,5,S02
2580,0.7913422902963683,0.14199010176075694,11.281721330868773,21.68215937587742,45.00397111136106,-10.198220649485714,31.255734998819648,-22.407175122287928,40.9948841170711,5,S02
2600,0.7405238002060972,0.0701652663513404,11.346132638192774,26.7454327098647,38.720435221654476,-8.515377282897028,30.956582029899142,-21.820673570522622,39.913948926743096,5,S02
2620,0.5110999875618536,-0.16732133622162412,11.34735320619145,13.549232958312569,24.68813983982923,-5.359916860228801,32.154814566960994,-23.544636441618845,38.73703700631144,5,S02
2640,0.49498148689428045,-0.1809373156573571,11.31799062346783,7.974629209445852,30.30704142065567,-18.270800418995872,31.71681437371397,-23.208231107111846,39.72174850338515,5,S02
2660,0.37068519617030105,-0.14574271139462913,11.186237872022804,5.155500607152605,11.699730867295845,-16.923063726884017,30.232115791514598,-21.072926101111698,38.86120851612832,5,S02
2680,0.37943187293493175,-0.4559186908697823,11.140236949858844,5.345046173696031,10.012420661962796,-14.607834304227804,29.82908104575393,-24.508556324431055,36.723851359477266,5,S02
2700,0.20566559368441747,-0.5461021297380972,10.901728535820427,-2.803313202165598,4.071724463490459,-20.44897101347095,32.154746476233534,-23.780644911199563,37.222918082681296,5,S02
2720,0.28675387882742454,-0.779750917110144,10.709065465381409,0.05474776895863531,2.2878109482620816,-14.542448045281496,29.580656863153525,-24.436903235452558,34.89739945014387,5,S02
2740,0.021629493798798208,-1.0433701939077695,10.81189453387829,-7.212663242640852,0.14272481986903895,-13.693815014315026,31.27154003563059,-24.918556102090566,34.176541028937606,5,S02
2760,0.05614643215991061,-1.1962237850181114,10.386617441481718,-7.424493771961596,0.6371838659529108,-8.417155105874112,31.455614692051018,-25.664644410601536,34.90298297076143,5,S02
2780,0.03944725972866145,-1.5587399310746646,10.31367850869915,-7.316016203704365,-4.9098704930242345,-9.601868501484075,29.458904959966816,-24.004841487267452,33.663922613365116,5,S02
2800,-0.13373844345611954,-1.76782160962543,9.839534640466294,-6.638570145957294,-16.840023201508696,-12.644401944936314,29.52646027010094,-24.7177532273023,32.81748781942008,5,S02
2820,-0.16793104904814918,-1.8882447632021486,9.97154557910874,-17.551640382969772,-18.938428870114763,0.4260868642706169,27.36607571137505,-24.46013982945654,33.93077815595933,5,S02
2840,-0.28284634547644594,-1.686591420238638,9.9330601059874,-21.31812380422178,-34.22237294131012,-4.69612211065534,28.076430467646155,-24.427644836188392,33.62043738655439,5,S02
2860,-0.18937780906012405,-1.8470029414745393,9.737754973768043,-23.046303462222422,-28.578474976287335,4.650320249626045,27.576196840732013,-23.992392258236368,33.41965714721802,5,S02
2880,-0.6120591507544081,-2.285305477628937,9.531472204872589,-31.334568526205093,-47.50406636611335,7.862622747792417,28.757659642117755,-22.475496738575426,33.7411701020706,5,S02
2900,-0.5608942872930979,-1.8944692116335062,9.39445086555944,-30.21514160529093,-44.325087932897404,9.8512775099176,28.488439561861313,-21.955668195298912,36.0068383796228,5,S02
2920,-0.47100817025234465,-2.0509111714589094,9.15678715801098,-39.357052291761434,-62.89979893981902,15.198431014020816,28.769799148478153,-24.734751518932782,33.78480835740736,5,S02
2940,-0.8061511099391822,-1.9324989802940313,9.337887155571218,-37.56106929709149,-59.96047796726682,14.65838550141762,26.105077925665707,-23.254222865388808,36.517215437830544,5,S02
2960,-0.6049046818332755,-1.7752971442437084,9.31970354422782,-33.48479650475454,-56.03767377375305,15.977625644581693,28.07718685236046,-23.078717890542055,36.09999115212183,5,S02
2980,-0.6299679133946204,-1.7821383674772036,9.490769512831928,-33.24464710310502,-48.7245343062273,18.256421346914134,28.509439426991115,-20.980603000342988,35.77821368363669,5,S02
3000,-0.40748989587285556,-1.6789856820234679,9.504806323232234,-31.859749294614222,-33.58607791136387,22.189688484636793,28.223497190119453,-24.10040094258104,38.19199777994293,5,S02
3020,-0.1475445445814856,-1.410211204664154,9.818737560118366,-17.43474579212252,-20.526498144629226,20.76052704618467,25.728439773499574,-22.107681261051724,39.053906351159945,5,S02
3040,0.024966427058095125,-1.1730300161732492,9.856130105856337,-10.600087323058537,1.8043397344163001,18.775666990026007,25.755898881320462,-20.915126077146365,40.75395714975605,5,S02
3060,0.20103327843080937,-0.8295714014092754,10.127951290907646,4.657094679216825,7.288137791461259,15.849381346360499,24.842889283855545,-21.494632909707512,40.264262416190164,5,S02
3080,0.368850424206854,-0.7319216239557564,10.29296479419504,15.614086410170358,29.539052625714884,14.996269630600528,26.45821643935384,-22.50076887957345,40.81461813672009,5,S02
3100,0.9442087526209922,-0.3680981975497911,10.706022211436263,21.694671689532555,41.28442471998846,5.3662720068895435,25.73092458179324,-18.313093034979396,42.54828678390806,5,S02
3120,0.720807846297617,-0.3420447666487956,10.652095228251413,24.434374456844267,50.90781576194751,6.651448398217473,26.604487340725964,-19.48394158243599,41.45960054489765,5,S02
3140,0.8443028187068697,-0.0841846774364783,10.877612046400097,22.89922850446835,55.18165197306777,3.9889273225973825,25.755804845182567,-23.743921989750213,40.93345470388551,5,S02
3160,0.8526932407864272,-0.008577152040041634,11.119035830551093,26.314322448552236,60.90052248684582,-0.3655619455481528,23.730631522885844,-22.184969550425564,41.663109447016694,5,S02
3180,0.7209318199041344,0.2596085114694454,11.183680171912531,29.28317550582018,54.79705244601186,-3.3768850345971706,25.17977565746469,-18.092684907234876,40.03920541379032,5,S02
3200,0.8671077033833495,0.006507553337296412,11.345206870192202,26.148781955945594,47.30695261301472,-8.087805233890704,26.356000911809552,-20.088183123816695,40.33053361929154,5,S02
3220,0.6120578014236178,-0.10153622692343295,11.39674885845608,13.458790796285044,38.312582988792634,-14.721074108994118,25.536963155662974,-19.211572989544166,40.192462233240796,5,S02
3240,0.5154987577240404,0.0850424863412621,11.21872663184471,11.243407387470874,28.34609978749254,-14.734116808059484,24.93168785371232,-19.05674399429203,39.39885042889549,5,S02
3260,0.34203312995012836,-0.10310223218380796,11.362146949713177,11.075541129968055,17.979615458965444,-20.319486258930144,23.50342300048778,-19.032389672202214,37.65596610596265,5,S02
3280,0.20889442304127964,-0.35857336264849365,11.262516566157977,1.1657988846583507,12.983414797017232,-23.149414959148093,24.06421213117097,-18.79523517212771,38.18605340608322,5,S02
3300,0.26982059233598843,-0.5758345537867391,10.963912723421508,4.596692789872214,-2.6307041816603496,-17.52366309315863,24.203060501134196,-16.64260246058243,37.16282843599593,5,S02
3320,0.15617656133151014,-0.5898681793231177,10.92903382284719,-7.524265541135317,9.637775569462093,-11.680518929917968,25.85216155797464,-15.957669545047727,36.00195559667637,5,S02
3340,-0.07951918712274092,-0.7475167320350902,10.838453588943,-8.191278158842797,-1.082357318798585,-8.882477696877215,25.70210460136261,-18.784732367479354,38.09525346454631,5,S02
3360,-0.02246377677785555,-1.0110953381400751,10.538161643282454,-7.307644265521118,-3.704471645858833,-10.562965056418577,24.89833840326835,-15.183770670335967,34.55840945721128,5,S02
3380,0.2531095007419136,-1.2699465199462772,10.380137746736182,-3.1550800837183015,-7.959757069290194,-10.654698625933642,24.097730247351834,-16.793660807536078,33.855642594053975,5,S02
3400,-0.028035804458538177,-1.7539517312547421,10.247807410285496,-9.709791356336341,-8.814965137226716,-7.855699678533011,25.173916293206602,-17.487718294109108,35.645772502933085,5,S02
3420,-0.06167483863844059,-1.7819112291098365,9.946274942643042,-7.029172832634634,-13.377765599429313,-2.2684901038478857,25.48927272523185,-15.534072729434374,33.24294921464627,5,S02
3440,-0.08523684131585443,-2.028702698628627,9.708169263753536,-15.807302617298241,-21.507685286319823,4.776760759481366,25.061741926998472,-14.697835554526204,34.078934105557096,5,S02
3460,-0.24561135841247014,-2.000520001170351,9.527924458995939,-24.565035550900983,-23.263199395280772,1.9088015836824477,25.680170601673677,-16.271717754139274,33.19103093822004,5,S02
3480,-0.40310439664220354,-2.0607939402608966,9.45725349959861,-22.041501068031106,-47.73852454828451,7.438869737476205,24.865026310867833,-14.317950381077424,33.40558492164623,5,S02
3500,-0.5350155715877409,-2.124107456573936,9.313845241125799,-28.044728688689805,-43.12587470631257,12.173849983243528,25.85176355084392,-13.416557899063825,33.844620377161434,5,S02
3520,-0.585998107639297,-1.9967702567688959,9.320705886816818,-38.66985798728466,-58.67789038565603,12.016894063493757,26.199717025179236,-13.533269688082246,34.69573418377392,5,S02
3540,-0.749168095965075,-2.042916529547237,9.320504549858153,-39.49154640808323,-59.27768889349025,18.93630214288913,25.038331588194453,-13.992664400330968,35.67856143754523,5,S02
3560,-0.558067920551982,-1.8726159513347995,9.331402393505014,-39.39087410313042,-58.063995377728844,15.928409455391229,25.38570311231632,-13.381581822960854,36.8853540959109,5,S02
3580,-0.568902772099143,-1.9049964771813728,9.416491961807221,-35.69201839929891,-56.33234611207406,15.647690143361357,28.014026851372105,-13.485355270031892,38.04654667317274,5,S02
3600,-0.2800933883066399,-1.6701447085212018,9.775977315303567,-28.010022123441882,-38.57189824922065,17.69704501275937,25.247457728926484,-11.597234691822575,37.89103148856292,5,S02
3620,-0.3870073857810199,-1.3252559984084789,9.625833543412469,-19.161846013897875,-30.873523002560788,18.42350459749556,26.790439579922538,-12.888610392465196,38.17154568510542,5,S02
3640,-0.054891160775894426,-1.3491787161966942,9.7969260971483,-12.026817807838492,-11.083213791870055,17.556611707998048,26.21538307919171,-11.465155626477895,40.59795063691739,5,S02
3660,0.12609806557971498,-1.026533714107275,9.870616571849576,0.014274735016991613,7.311420288191134,22.72253735445249,27.084272351961754,-11.747809988015117,39.908235559091544,5,S02
3680,0.26095146144644504,-0.7123874245279065,10.474592921331126,5.620088559916511,16.657774409495428,14.248444996313648,27.672660022841804,-12.496558855090894,40.697808095061774,5,S02
3700,0.622528710243359,-0.8039976551515595,10.314743829882554,10.346892227647654,34.487229577008115,8.392421374575465,27.323243660092388,-11.27641468616965,39.12944729933695,5,S02
3720,0.7014122039442598,-0.4695419124158839,10.696692759521165,32.10489720313449,47.913376691940606,8.82492399286777,26.682734523462862,-9.554546686900553,42.20682002178589,5,S02
3740,0.7117967691706748,-0.21743272432028046,10.858236440736992,26.973038602068073,60.12844227675042,4.45058125828787,29.205569015248273,-10.647873370467682,41.14810931145298,5,S02
3760,0.7751352775023251,-0.02872222161070717,10.967395075073696,31.233614342513246,54.87142010826752,2.4163803643966073,27.74893753860711,-11.654253523126654,42.80044310550031,5,S02
3780,0.8798517077784559,0.004438051516796562,11.1451899576506,20.763539453248097,53.48902966479726,0.9922587338191272,26.84421425999371,-9.80982972577724,41.04707300145668,5,S02
3800,0.5949582822629698,0.18421520653614498,11.144073309838314,25.45766381041768,46.134310302385835,-2.1011612698244684,28.493887855735792,-9.929146879000793,41.004429832743675,5,S02
3820,0.6157433562007698,0.03974723915503946,11.411016216221654,18.715028164041907,44.1946768695824,-13.34224254518921,29.97351396825292,-11.904042218783763,39.70605737006665,5,S02
3840,0.5459985874045199,-0.25270304117267883,11.415966877337382,10.809172085582702,30.757085760821358,-10.453195460633907,28.577441035237243,-10.839035902556184,39.92935349219055,5,S02
3860,0.6782862472723874,-0.31799080721965584,11.260274577936265,5.9844542539605206,18.61635075417809,-18.578803381055803,30.14953624448465,-12.044043777834924,38.11915523020922,5,S02
3880,0.4005251093624237,-0.3481475066989554,11.524466179071634,3.4182687127303995,13.345365701492877,-20.467290506584597,30.49194250294924,-12.27077208680792,36.21146023675076,5,S02
3900,0.22661514701105198,-0.46434014897855785,11.087838817842833,-0.0018860988807256618,12.637578235758841,-14.657205547844276,31.054454788334116,-12.24956782685642,38.013093489339646,5,S02
3920,0.3066858054952184,-0.6432202945128396,10.891482282974339,0.2908155954041378,1.3829642554928168,-16.302889675916127,31.058402600871784,-13.066748126465953,36.51394664497902,5,S02
3940,0.08868069085885465,-0.8104063437923184,10.863276898848813,3.136434464551086,-3.983660224694871,-17.0343212797879,31.837439179603102,-11.44467237217129,35.71906576674632,5,S02
3960,0.3968867929124742,-1.1110307615664516,10.635581190262167,0.6321745310581512,-1.0871492776910106,-20.51022515786932,30.006866357739884,-13.129165285020381,32.83827782198453,5,S02
3980,-0.09739248454183014,-1.4794451068011711,10.419208144111815,-2.6679740067741196,-6.104714132082777,-9.228147276740486,29.807731637228922,-12.116460023414884,33.07542927448361,5,S02
4000,-0.021989028410278805,-1.5347867191699562,10.246022599359517,-7.382529692044567,-10.215914310119725,-8.366357956723622,29.68470131183171,-12.797487305840441,32.741638515921075,5,S02
4020,0.014071439455866197,-1.5989860369599842,10.027587194346655,-4.552097779891854,-9.817591717203333,-8.87064642819614,29.629438069872368,-12.631644868268609,34.354458501622204,5,S02
4040,-0.026437025318330448,-1.8282929884005068,9.770827918466845,-12.229307870950382,-13.76748989440472,-5.22854048600073,30.54308263591636,-12.95000428782178,33.31628530784066,5,S02
4060,-0.32219303358452533,-1.905127395091596,9.856013126539619,-16.907976866403033,-27.66248241821044,5.118237152638403,30.881261015150987,-11.83622687654017,36.02049472363246,5,S02
4080,-0.38682581774875,-2.1535262698012194,9.528186447807053,-28.871187949429356,-35.283329004801246,1.3625742787212536,29.523133142645307,-13.398322198846687,34.398947199778675,5,S02
4100,-0.2829198622513315,-2.2458958323539884,9.573111804306015,-26.272615142602554,-47.977886836645055,9.597477907784343,33.4588486749093,-12.919600553296068,35.67897035776585,5,S02
4120,-0.7055765508327628,-2.008027209025079,9.221992047850948,-32.834748783965864,-46.745055926365694,9.202138788487712,31.47423640464319,-13.231693139599585,37.05431113975724,5,S02
4140,-0.5366438954201795,-2.1896648874400375,9.383598200313287,-43.89484245175198,-56.236030460649715,16.365420184265012,31.54002669679327,-15.494142302517341,34.04477288127714,5,S02
4160,-0.5427101595544854,-2.0114099176560134,9.489274155803187,-37.362309725649105,-55.79292864321097,14.107441000603355,29.634331205470023,-14.206592354997163,36.176631430604644,5,S02
4180,-0.61441925491109,-1.696854818456651,9.579905353114977,-41.00503110170706,-54.23051335882708,24.65401529287715,30.890463933573436,-14.258224134927636,35.82995342896493,5,S02
4200,-0.4707447299397586,-1.5776654006372155,9.427712436255542,-31.61554099910053,-56.91553635300066,15.455992512171143,31.87614919982771,-13.942965000201713,38.07685017629737,5,S02
4220,-0.480137315800235,-1.5456402808290917,9.548542559496534,-23.506010049944027,-44.98458565790385,13.133820245235611,32.27657073856818,-13.76468491950505,36.13975294439754,5,S02
4240,-0.29021026930097826,-1.4047113471561772,9.676539567560035,-17.03636820832626,-20.02072894060515,18.411453430894053,32.95929099516677,-16.27930618751285,40.7015057700959,5,S02
4260,0.22792150759142568,-1.2198709666529925,10.050878555326607,-6.291074305523802,4.290409639447464,13.9284840713905,30.940682241372542,-16.77057714017258,40.55319129512617,5,S02
4280,0.264836565259978,-0.9141167846064988,9.984476032167194,2.521126418090307,16.2241083169241,17.34823261859846,35.07118228812427,-17.327314247753787,42.11534928542852,5,S02
4300,0.6206886205657861,-0.5074035081499009,10.326625077027966,12.027016090103782,31.683077354537208,6.456549601599207,32.369830660017186,-17.594434911012137,40.94285426365439,5,S02
4320,0.7650254332512201,-0.4457450041133875,10.384016497956754,17.3351361934764,38.8362622502018,12.529606053688578,32.35395305319631,-17.525269744962678,41.16630344471503,5,S02
4340,0.7572452610214186,-0.2714463708614787,10.783285104459438,34.73569607001731,46.881183212518295,5.66505735800915,32.76625544721584,-18.28208760233637,41.25848652322799,5,S02
4360,0.7982489410225664,-0.026198706765667962,10.803638870835812,24.822290811275582,56.74145153602504,0.6323705368789921,31.506462446888147,-20.65368238047658,41.61505612459611,5,S02
4380,0.7557949718323788,-0.12093156204118818,11.01349099754039,30.360308443678395,57.6609419723672,-1.7889592057243062,32.307571696895145,-19.049880751802128,38.913621271079755,5,S02
4400,0.8662907851174172,0.23363908232032254,11.125490073889491,24.785372779433292,51.93212827595481,-6.415860190396399,33.685663255170404,-19.285964188579108,40.04657455404467,5,S02
4420,0.5663655545597933,-0.09963685290187184,11.312904348077224,22.17925292036555,45.585301488511874,-4.624059675476012,33.123347110516974,-18.698292253471468,40.894938768672866,5,S02
4440,0.6000340063807006,0.18829293596838514,11.181634706773913,16.763418810328226,40.87605451298354,-11.1714533021853,31.530240036802635,-19.743515185779714,41.30173325881228,5,S02
4460,0.6892633901021605,-0.22650797183431612,11.27899310942493,8.458905399094245,23.79561230437902,-15.00395999389032,32.664879596752755,-19.856147454093758,38.78517510683112,5,S02
4480,0.41997767473454817,-0.11715313141514644,11.37771869839231,6.05937871891816,20.630965839266906,-15.862508673367179,32.78525112705715,-20.222262526038502,36.93036719155965,5,S02
4500,0.38857034159091053,-0.2670114468898352,11.040406692934962,-0.14616470914005486,16.728995419887152,-19.883713818737935,33.46992609539184,-20.243506090882995,36.95551066351489,5,S02
4520,0.21586264301980762,-0.5067436960867309,11.131429960882986,-3.756202736818015,2.449973670869105,-10.487197255932358,31.943632353578753,-20.412962553700623,37.39544421334149,5,S02
4540,0.23052484246488947,-0.6949485143671936,10.839731010640614,-2.70663056412687,2.4503781808073546,-18.009845059442164,30.773880161465488,-21.057801920439456,36.40263905363405,5,S02
4560,0.034909707315647354,-1.0073401624825822,10.82418405691385,-8.75597540307804,0.2170180998181339,-14.76262289591358,33.46505719972217,-20.15614070218594,34.15426383184575,5,S02
4580,0.0816364220996805,-1.1291173319058907,10.54063731674968,-9.039264902174628,-0.36987836387062045,-8.466214326773892,33.0261203814454,-21.662038116703037,34.38527736495213,5,S02
4600,0.030929679106691477,-1.4151002723740584,10.377405311230545,-1.690569805448681,-3.504750489040962,-9.936686578256273,31.505394423249864,-23.211650814444102,34.078912527831555,5,S02
4620,-0.08093171539661226,-1.7415850967500819,10.106909204758242,-13.469858571038149,-13.114869446869868,-6.739062140246551,31.236119863496008,-22.299659122659804,34.096343933357986,5,S02
4640,-0.03312507242692894,-1.8066130785342653,9.911043027417298,-5.222210242226139,-20.405587337226653,-5.187429421327732,32.277022484778925,-23.47800586496694,34.533370103238525,5,S02
4660,-0.2641779114577063,-1.9926605609388768,9.734962309083073,-15.96792392213025,-19.9872873249812,-7.1916913284500374,31.193866787128187,-23.15754298586471,34.29747422120049,5,S02
4680,-0.43905277150703925,-2.1280831132534366,9.451130738543986,-17.88684985457224,-30.87192169965235,5.8660583735758225,31.378771478232743,-22.481528291914152,33.888597485413506,5,S02
4700,-0.5346056638581235,-2.2069775516932535,9.472539886384352,-31.078908432534565,-43.747692517007835,7.418200977361577,31.264985948425934,-24.470246071601537,33.93971374837269,5,S02
4720,-0.5766361292574997,-2.1651119300292794,9.49051051891028,-31.329736193396105,-46.806848559139695,12.538394488818087,29.42503014145167,-24.07999362965951,34.70184100270022,5,S02
4740,-0.4884679076611764,-2.0590222509868243,9.446032102011422,-37.139056558210726,-51.50428022493464,16.650512708385918,31.29732929677083,-22.80443938288694,32.82808836547088,5,S02
4760,-0.4521697232686359,-2.022742462554773,9.399700181175383,-38.124706242533925,-60.362051951242016,20.108829307086623,28.126358550020793,-23.450243343897274,34.65872436155817,5,S02
4780,-0.48596319598736415,-2.0404464802130047,9.45938383016336,-41.258158044475714,-53.66365914228017,12.76893786898962,28.050250374979566,-24.454822249861284,37.55727310696119,5,S02
4800,-0.579955136954292,-1.7790485529792892,9.540709144165607,-34.36474145785724,-48.065926608309866,18.328058429068356,30.07518798631379,-23.667003087851942,37.416430834492715,5,S02
4820,-0.25992774012666553,-1.5689937665867513,9.606995480776831,-34.70941068521365,-45.619979553874174,15.375598670405063,28.78840969089123,-22.539288236789783,37.901211758900295,5,S02
4840,-0.14386493071727233,-1.5358129368225757,9.893395955037287,-7.785663798340454,-29.62654276891795,17.460466800060914,28.359314721743534,-26.49088544434751,38.05416509970994,5,S02
4860,0.049986152170784184,-1.237101827110799,9.774798720201302,-11.753836332345983,-9.76739631806845,13.29368835395358,29.155293044269797,-24.3803806925537,39.418079912430414,5,S02
4880,0.3088659038402026,-0.8968807309517723,9.966558339465438,-3.1821411370077306,7.281522899176966,14.896477904817104,28.6838411201046,-22.90408407471891,40.98756729849767,5,S02
4900,0.224764610037546,-0.789397548156263,10.136753821942035,10.615654141160704,19.1108918371543,14.071039569210116,28.318554021073414,-23.291410810106427,40.99550670915335,5,S02
4920,0.6888024055847345,-0.5026436150313374,10.383875382156992,22.379010926014647,36.83867050565221,7.054143979755546,28.83795539534807,-23.539667435815286,40.19353649667841,5,S02
4940,0.561584634980956,-0.34315561131703337,10.708713692905667,24.99509861567041,41.4983527919917,11.239899618610433,29.128449181625886,-20.747409721065537,41.56081046686314,5,S02
4960,0.852014945934028,-0.18777805991945812,10.863772512432808,25.39695722098151,53.859703754798765,-1.0278374999977031,28.910419625387252,-22.882381602501578,41.27448763434183,5,S02
4980,0.8494844130289574,-0.14048402241493962,11.016761527451816,30.184926623031306,54.29751875414026,0.2790914793542093,26.910424102888264,-24.153705726920915,40.513510395079194,5,S02
5000,0.8237222066312464,0.09207307807347478,11.139765707117197,24.258684726102857,51.752957338558446,1.2213446523947593,26.571871674063296,-24.7192151633659,40.02960115906096,5,S02
5020,0.6404395877251602,-0.031063193771932708,11.267323870420888,27.175835579530595,50.85422800673219,-7.199468659111191,26.62127098455052,-23.122513136493875,38.45938299563945,5,S02
5040,0.6728503466788989,-0.0336401563288202,11.340875697286386,20.309115085689104,37.899373133116455,-14.077508647158906,27.283587077702492,-21.97990118742855,38.91345941445569,5,S02
5060,0.5886765175711222,-0.04265161603316489,11.341735421689615,14.369660452501009,26.91685069789915,-10.448095398658767,25.21710294129779,-20.390736209940783,40.98423233021031,5,S02
5080,0.4446707067354445,-0.12692155658242252,11.339114299317478,9.718402253014563,23.723064141774913,-19.643966271115733,26.683417692036226,-21.8575490748608,37.83294881234809,5,S02
5100,0.5808244162471892,-0.26683936028553135,11.356083280084341,2.8596661079861727,13.012107822714775,-14.608845340327855,25.70667442800135,-21.250994472794325,36.90787157162304,5,S02
5120,0.18127402399103676,-0.3310253677848095,11.116135370200743,-0.5414941795110142,7.990147780977536,-14.239401573409758,24.76490287676022,-21.809655858356145,36.65497968671343,5,S02
5140,0.31154597273009954,-0.5649713922386534,10.910415956633807,0.5447794498848131,8.970172767690968,-19.98223080332278,25.069141191966175,-22.077841266560878,36.3933489013824,5,S02
5160,0.29836350348149465,-1.0891041801151295,10.759026619094294,-0.7904994383025765,-0.8538313956222656,-16.820288486368348,25.430063449868214,-21.89819778213747,37.56046685899436,5,S02
5180,0.09273010802212303,-1.0398690532086987,10.570502180001636,-4.457050350289431,-0.0766656902072751,-14.750148569412278,26.680796274587173,-21.549433298224656,35.336421621622534,5,S02
5200,-0.09071115719719208,-1.4513034078473674,10.426318803482124,-9.196838420273416,-6.178250001596093,-10.584667840403627,23.80032156995133,-21.122622378369265,33.23177480263228,5,S02
5220,-0.017059901398355726,-1.4469159315976,10.268116281576235,-9.640692671489045,-6.754423534941088,-14.020011899649349,27.2952694453939,-20.480663655423193,34.164171507477214,5,S02
5240,-0.15539620034800364,-1.5937769493940745,9.998616756056201,-15.788569010338477,-17.801343601349796,-4.366625858152998,25.90284944636142,-18.507826880314973,32.08156614298053,5,S02
5260,-0.03563358291813415,-1.7321398460685773,9.836445676819256,-11.431009753746881,-19.680221853807137,-3.9000947950490716,24.55333733894014,-20.541154795049017,33.36929324148805,5,S02
5280,-0.11361860439873592,-1.9157756765352265,9.891092620741126,-24.840538298555167,-29.368293849138585,-0.10914252234466704,24.351824860828348,-17.224629786895534,34.30494667148969,5,S02
5300,-0.5046290188727405,-2.182304121147447,9.543891219804696,-27.32246902361366,-45.10554414261221,2.005546006121117,25.563868546903493,-20.666038938756703,32.7235212708584,5,S02
5320,-0.34326422016279357,-2.210730969728722,9.485383425056861,-28.66545604149781,-46.26076756019238,8.220184166878619,27.576421276003824,-18.399415902672054,33.245584097234286,5,S02
5340,-0.5864598959782164,-2.0947719046678137,9.500319744899842,-37.58721247858922,-54.26187041510074,12.051861309025647,25.599384576925324,-17.953917306920776,36.61456768638333,5,S02
5360,-0.29958207546711946,-2.0162839035817606,9.331717093692566,-42.84819102575993,-48.27145229323804,12.141985112688985,25.957688728355933,-17.454182679143567,34.53094950890586,5,S02
5380,-0.4629935141076904,-1.816767200250472,9.334270622027992,-39.64331308640294,-57.136094107534916,18.254403580024047,24.132418964400706,-16.356754222816104,37.63502347012005,5,S02
5400,-0.6600477778134817,-1.8755888753925933,9.319249127866927,-39.39138570350178,-54.17660842915684,12.974164776951389,24.573628703928357,-16.852913087140706,35.65997968610954,5,S02
5420,-0.5230308937656686,-1.6435643052853746,9.55925192511303,-36.78322616303885,-40.99179942636192,18.966809744850654,25.93405568147328,-15.002442946150087,38.92200702197229,5,S02
5440,-0.29054400510983625,-1.283526088832135,9.514185765818434,-31.9174062149176,-34.573970781217625,21.020043406424882,24.54479431633518,-15.587890021355243,38.69822033480358,5,S02
5460,-0.13253062245835337,-1.4262037338424856,9.823434252296503,-15.658136629701247,-21.741641623915203,20.555342328266292,26.07488528158408,-13.09653013580662,39.297508956089196,5,S02
5480,0.2536135925136327,-0.998243380693878,9.86838237631306,0.9589871041464049,0.2731516769617206,13.42607117416676,25.935821487715614,-17.000518102343385,39.178251981885495,5,S02
5500,0.4685222985393821,-0.707175169322124,10.229894156197101,10.562610580468633,15.934424076203975,12.640478684223984,26.373003902866735,-14.794709767551424,39.752134203789936,5,S02
5520,0.4169738152996919,-0.6034902454124007,10.272931859913893,15.29153664392323,32.18303516352757,14.94883781378238,23.98341298934872,-13.48023850817734,40.673159714336265,5,S02
5540,0.7114203222998999,-0.4709280294206787,10.534206139780418,23.567393123009786,48.20483050164114,8.157955997863752,25.06461046123715,-14.956127352376132,40.116397031766105,5,S02
5560,0.7288570251174578,-0.08209486106639693,10.815092806842234,30.175354868497937,47.9472511555119,0.33679047865777745,25.895633177067374,-13.28726722885585,44.02249035740561,5,S02
5580,0.9500195159986479,-0.07051515498679213,11.023593733237067,36.56279921509977,56.853857388946736,3.585520783794789,26.953416136982163,-13.628440883751622,41.24849290266296,5,S02
5600,0.9266898398882533,-0.05675819418507025,11.073945722543986,29.86136929793324,61.75516762086529,3.459699144617319,26.6535798856834,-11.287150293287365,39.96025347896904,5,S02
5620,0.7315149571617763,0.017901466365426277,11.150419244126619,22.566746610299248,53.94947365280616,-8.090353114459505,25.29058309495172,-12.501316999673206,40.857458168204396,5,S02
5640,0.5980700632308279,0.0701722928545935,11.15956563985165,17.079092706111314,48.139229847871626,-7.873839409940526,25.42543983856094,-10.928001866031742,41.34732089636766,5,S02
5660,0.5162816998559546,0.08123811332599554,11.265667712794318,16.675064855423106,34.500504940059926,-14.267107235717235,27.84688212098414,-11.46410177586873,40.245057099477876,5,S02
5680,0.4460505181302751,0.020501320899331904,11.310496841969032,9.193323743286143,26.809220936060157,-23.50206725107501,28.938171599861253,-12.864598887172782,38.155745002493745,5,S02
5700,0.3204628714496048,-0.10428989029065328,11.316717997548816,6.834276408242492,26.395792675475857,-13.680432832348258,27.04500237633684,-13.279102381847132,36.7904568186814,5,S02
5720,0.27010085920117993,-0.3684064509099284,11.387692469238209,-2.7421957732960633,12.54332278414175,-18.55778852267124,27.901027189393307,-12.249346626172263,36.16860445971191,5,S02
5740,6.829089307909542e-05,-0.5052808928480699,11.089492756331174,-11.913619821320125,7.383586185266059,-21.22635537318093,29.27230810509642,-11.512387361842563,35.98950642682554,5,S02
5760,0.21998342232712886,-0.6389018231590025,10.818702947046338,-2.9717199786126383,2.3151797068465703,-15.389662291580578,25.909829034227464,-12.164232426057485,36.69076001185052,5,S02
5780,0.052260705843515234,-0.8748366877916276,10.69864679049209,-6.376487243221312,-1.4828283425169118,-17.976053027958606,27.583494938849533,-10.502063215731969,35.87802649006056,5,S02
5800,0.12470797812791537,-1.3449320862912315,10.648022331190703,-1.3411490183273669,-8.076194768925445,-17.138414058047193,27.38452828321319,-11.330365950315496,34.865426722634965,5,S02
5820,0.1963445043353158,-1.3267224195613436,10.384024537973216,-3.239308876979878,-7.72190698805627,-9.700400514599579,30.645141134445616,-10.077591058666147,34.15507776287633,5,S02
5840,-0.083965978294062,-1.585291196343937,10.138390568862867,-8.30152965255081,-8.879071335583797,-11.403371176113241,30.766227890121467,-10.071269780565622,32.23421092992775,5,S02
5860,-0.0450064260561065,-1.9241678017026596,10.023059186783497,-3.29815055028089,-18.523058553561224,-6.014031193952661,29.8266029742868,-10.00411350085076,34.14929512315749,5,S02
5880,-0.1554516624930832,-1.9079360817959667,9.688637789878994,-15.450078835601605,-26.916221994349733,-2.25456160417335,29.95063622372624,-9.625862563275815,33.16743923748303,5,S02
5900,-0.2581676501449258,-2.126320825630253,9.623433974374393,-26.045554435302986,-34.06965289058897,-2.364317199351339,29.04174484901899,-12.243935576989495,35.07885181545938,5,S02
5920,-0.29448791251338247,-2.039222508824363,9.57582757919447,-27.945096718095623,-45.889081903466206,10.492101890237729,29.6670226413638,-12.22679844533292,33.79753887217913,5,S02
5940,-0.4420216963704474,-2.206644926362893,9.504396587403928,-29.590709811590944,-43.75535225087128,10.562743225504432,28.382303562527657,-10.330249956858939,34.91919774600039,5,S02
5960,-0.4757941586535559,-2.1458884676920778,9.334615722432522,-42.44357773374695,-61.56158940682489,8.623279861408243,30.146469549324333,-11.765985963181038,36.25198452324524,5,S02
5980,-0.5834760224700181,-1.8577551458548138,9.688269441944101,-40.00503468384189,-61.30129551877029,16.081230847664163,31.114994704858503,-10.095768669488022,36.33296294362753,5,S02
6000,-0.5920916616919871,-1.8687012121951765,9.387092101185235,-40.34540155560141,-62.63111470313044,22.202412226189864,30.552101989026145,-13.475823410686264,35.12050546017389,5,S02
6020,-0.533549196145336,-1.768164051414938,9.571476999209759,-35.678763226600275,-53.6933849031783,19.810995736052945,31.10869721896114,-11.893567504883116,37.963248303868816,5,S02
6040,-0.26533858416744205,-1.4422097852873008,9.724258555511902,-23.855842334980938,-39.545516800755586,18.843403033082932,29.953673899530795,-11.217362285229882,38.19446769465589,5,S02
6060,-0.08233216315267905,-1.429868286392208,9.514713613712287,-21.448444683434218,-27.84649432315026,18.056252254195556,29.82182840503181,-10.835756056099916,38.61032633064295,5,S02
6080,-0.06787966226359765,-1.1659446980884731,9.939257692136954,-7.7250060362061514,-12.579002142675858,17.554693824347403,30.35500201855882,-10.649947679970227,39.74061416082754,5,S02
6100,0.21025420417234647,-1.1418414958063343,10.0243539378404,6.047195204440881,10.191632911486323,18.07026715676786,32.18424472808057,-13.324166768676722,42.12650385371653,5,S02
6120,0.3668295395561425,-0.7944249500796763,10.17119231268873,8.409191783269687,30.518772650533872,12.919568089702778,30.526461538629356,-13.853458974669378,40.31380311976844,5,S02
6140,0.49320633975240824,-0.31642663623549516,10.473976369405948,18.124800137240605,40.70585406099247,8.042061098267244,32.75026400794496,-13.319207130824381,40.541568940199774,5,S02
6160,0.6190303331345275,-0.5285307807228523,10.720742572397262,24.03739785281211,57.18695536103001,5.134422994198632,29.544592416027157,-11.804549231410203,42.371709113174205,5,S02
6180,0.6579346172544929,-0.20855279668236595,10.833742985283553,31.043333786736444,61.17301505868539,-0.5648308783787429,31.609545418600337,-12.40813918419893,42.73288484323105,5,S02
6200,0.7396940571630928,0.00490415564765137,10.969597072321518,32.43008577397558,52.987817085489176,1.628541960485498,31.697383333946473,-13.560075428712032,40.00270567336461,5,S02
6220,0.8144347139181596,0.03488273082500465,10.97485172071164,31.38111312397631,53.58669503441025,-0.1471912117062898,31.47338460774844,-16.085278120481355,39.82760996281133,5,S02
6240,0.2649326411197215,0.12109332325618072,11.218994193441965,27.453482798685982,47.35897722670063,-9.395246169248914,31.944176673629823,-16.0224809310109,40.169536981666774,5,S02
6260,0.7486900590302499,0.029069192530196117,11.335880437384526,21.211301846057637,37.42301742651958,-15.379136653351676,30.667390299350004,-14.033125898210368,38.61403792399196,5,S02
6280,0.5020267338875465,0.00681736580990383,11.397672630695823,8.187904097743708,33.53184784988234,-19.137517069964428,33.02578104631205,-16.57111082718474,38.63915516576777,5,S02
6300,0.5019311566239594,-0.21636147230364158,11.436467536457204,8.493450119866715,26.305192433892355,-13.955131847873785,34.095652757652005,-15.932988628255384,37.508732600301414,5,S02
6320,0.408715061390878,-0.08319823467201704,11.101635706621513,5.449882889057631,12.032806200052184,-17.646752405475393,32.58816082469033,-15.438108273954324,36.59979021208846,5,S02
6340,0.3000387778236676,-0.34701165966910086,10.99295361176994,-0.3018469096971863,2.9046315569221077,-13.894435863132168,32.73629982793038,-15.291437022157437,36.5619797615018,5,S02
6360,0.09857894527777954,-0.5766584681176543,10.812900081378602,4.611880088214973,2.3014051683166796,-12.938209490779412,32.563484994861824,-19.039273246424205,36.00552971370196,5,S02
6380,0.20841702590542732,-0.9873502623754817,10.862457234847744,-10.142256389302435,1.063501022215234,-16.639071731706196,33.013898488126074,-17.57501513058382,35.41430322932408,5,S02
6400,0.13296217865851506,-0.8888481608213561,10.626434920704476,2.8169658590905886,-3.566282591026333,-17.32136739472723,33.20984997484696,-18.0453743445447,35.3147675456097,5,S02
6420,0.040962116754294314,-1.2985191507775629,10.42935166116534,-5.219207717218313,-4.976607634420809,-12.216784436546403,33.48995650390487,-18.571091468360702,33.03975250719415,5,S02
6440,-0.19430105714118864,-1.4144228443670637,10.192438497207146,-8.556217329381706,-12.293776138990168,-8.617765417563533,32.39339565724681,-19.713027833563252,32.287166234048954,5,S02
6460,-0.13880212224053962,-1.6226082644982356,10.073581784895309,-5.252684869857867,-12.558805843817861,-14.93450503374609,32.799181701667806,-18.60478790187179,34.48277900065086,5,S02
6480,-0.1996968334935377,-2.0554289452034444,9.866508141939669,-16.636544000553073,-18.065366512683962,-7.3161605374202425,33.34895069083777,-20.87270224096509,33.94694413832941,5,S02
6500,-0.1448089292863784,-2.008557821626925,9.689892995166579,-20.97267880238274,-25.788614045048067,14.122599331482759,33.47185244800872,-18.889849934924527,33.43635554809756,5,S02
6520,-0.4217662401669502,-2.14248510884835,9.528737598336535,-30.3849484762609,-44.564963273378225,5.75059618015819,31.46423736150135,-20.24958267758402,32.65605154541444,5,S02
6540,-0.5364319196361164,-2.218778653938966,9.5352859269812,-29.357052207591625,-49.97582037930267,5.147142842692196,32.90594490765788,-20.736582744638532,35.806767251704656,5,S02
6560,-0.5188218973702725,-1.8828820381535987,9.39604852087153,-31.466524342456964,-61.311765124981505,6.781662274802623,31.80203002257849,-20.287599822040576,34.27610975835997,5,S02
6580,-0.7785216811142216,-2.0567279975814654,9.445510877062693,-35.907934524815545,-56.04793846585635,13.441488619022955,32.19767064159724,-21.986579660821363,35.2255998979907,5,S02
6600,-0.5823882484709236,-1.8977943259211438,9.554053874317125,-35.56472242890056,-57.46761775905756,15.2648034322735,32.31529891777123,-20.383660110220184,35.186410085018466,5,S02
6620,-0.4902502038542238,-1.7151949659469459,9.646662539391738,-34.879303791247025,-49.47544015186426,12.89932082770531,31.675303997711804,-22.23461094081207,36.594866552006636,5,S02
6640,-0.35175088401901733,-1.735123852726946,9.375147213673179,-34.3409821961631,-53.981153974904366,18.44231362206563,31.016211682061332,-22.29235616224874,36.79279523264119,5,S02
6660,-0.33743165148975696,-1.491586987851811,9.684012168183033,-24.155064074287996,-32.30628956871962,15.18864855674459,30.748425537585916,-21.94843332051378,38.61275551503092,5,S02
6680,-0.006391240523020453,-1.210968527332009,9.66427224232254,-10.965163285846359,-24.55226847447315,18.441723333938263,30.824549476961103,-23.15203014548493,38.91163039018917,5,S02
6700,0.16441124934905876,-1.2199766711394997,9.971055097292764,-2.3546723808661274,2.424911242251964,17.40711189154465,29.896176623881942,-21.653794081932496,40.69866081924806,5,S02
6720,0.3609534250642944,-0.8157561497920418,10.113560952301723,8.81507238543934,12.51262739503555,15.479194729293313,31.635415321460474,-23.73745629721647,40.22381185494766,5,S02
6740,0.4561549719967273,-0.6217168742464798,10.460397870541236,18.523344698286508,36.21909472020812,8.919137302867844,32.563170396096126,-22.412484037569136,41.51094352259098,5,S02
6760,0.6966036835860168,-0.387523966427136,10.553734924739857,23.435503271704686,48.49113735766372,12.689344560392458,29.276216518641572,-21.690919596105726,41.21637150544844,5,S02
6780,0.6528750490652239,-0.34480340584757607,10.82369093823112,25.72022516725698,52.70149113492949,8.203009857249256,30.926263790707658,-25.14204699700125,40.86442601837927,5,S02
6800,0.7368471554752122,-0.07943372346214711,11.007689586593536,29.34034794321524,55.95597502599922,-5.256730154078949,30.24794586913794,-25.531603664057766,41.10537487593824,5,S02
6820,1.0466967640741889,-0.058007556467662674,11.360691631541906,23.07322702060304,55.187645760901326,-0.26114229832963,30.099823973032905,-23.37818213774736,36.847062328251354,5,S02
6840,0.9675126376906581,-0.06802002266430428,11.28309023841774,27.169283415692778,52.364516231673264,-9.489454611315523,30.376503423278916,-23.478520479675208,41.88674623755509,5,S02
6860,0.7966621027189741,0.07703505355678325,11.302998150918821,20.275443575253057,49.45553427194571,-8.484507469602763,29.751853901562274,-23.639234804492425,39.246788427910566,5,S02
6880,0.44517714242618744,-0.003899197253515785,11.441663198706129,15.964918878819713,46.05321476873462,-7.287679742979584,27.922642424229767,-23.79603066918046,38.224218097601614,5,S02
6900,0.5685071296440115,0.0036726300468828688,11.281903164459283,10.92632624614578,29.59358564993394,-18.358133995135574,31.625896943123834,-24.28967557190682,38.173890680268165,5,S02
6920,0.23040402766232593,-0.29604095946719106,11.19396726375522,3.6065983327043787,21.568657987160293,-13.812379915960735,28.14792336615777,-24.222794835980004,36.28212386161316,5,S02
6940,0.15292572768333723,-0.3678824919721818,11.12861105950392,-1.31814658084792,8.433049251031346,-21.308329862625982,27.72385807543921,-23.470518764219207,37.0535856734724,5,S02
6960,0.20045157085375842,-0.535343302538182,10.940598297090872,3.9000542512837972,3.3985173579969823,-18.47756758216016,27.374203455473676,-23.64709333988114,35.02773802748791,5,S02
6980,0.3757964077732703,-0.6652060731498908,10.824524486445304,-3.429430547325631,0.22092140459437282,-15.890120858797895,29.030598542754316,-23.801154558150778,36.01484965156241,5,S02
7000,0.1459538089936147,-0.806212234416426,10.687794677741362,-1.4916035035809805,-0.8796200553998479,-13.587112057296022,27.38400175491471,-23.009148520386265,31.416416174577257,5,S02
7020,-0.025802939103526407,-1.3442949260050872,10.607693313612021,-7.278080855468282,-0.4697249896299154,-16.884765295031027,27.593386053935365,-23.44255092268288,33.228209670300444,5,S02
7040,0.027759237334936793,-1.4990475494489817,10.363703985506408,-5.864055979918112,-7.781167529676694,-16.262465076472488,26.052658700065436,-23.189086590439477,34.2479594852617,5,S02
7060,-0.11084874824959884,-1.613678312556721,10.139573909346547,-4.014350905388595,-15.427303558918824,-6.034537749286169,25.975004054486043,-23.047471771505137,33.3957767789055,5,S02
7080,0.0990505377938913,-1.8110585263858499,10.065460265199013,-12.30097747714009,-21.525317862352367,-7.487850314338669,26.812221726645568,-23.11302364807458,33.749926166535516,5,S02
7100,-0.2920699366721805,-1.9077796507756286,9.688238681507032,-14.43513462542031,-21.072004282971175,0.7432457417056105,28.11408745715893,-21.26207330614425,33.70260821236674,5,S02
7120,-0.42524069973276435,-1.8299854641542141,9.539932992259065,-21.395339138697505,-36.38644927999118,5.033904288955535,25.34539978590111,-22.264353456604063,33.107547784916704,5,S02
7140,-0.5395625521508798,-2.219367128611986,9.434035289568802,-36.318888418939764,-44.83186419215877,10.440673028876164,26.27082129409274,-21.27106315081995,33.15427482281423,5,S02
7160,-0.5692712225212485,-2.301074214744207,9.209743855406941,-32.35125458599258,-50.16357470162235,13.3140925177432,25.789393535370927,-23.21243113610692,33.94131633880523,5,S02
7180,-0.5366337116984955,-2.1373604774597315,9.4345119818835,-35.91753550711396,-61.023121218813706,18.03972339163869,25.699397386572414,-21.44826926920176,34.45897151186033,5,S02
7200,-0.5413189970575782,-1.904423602742928,9.380640012368692,-35.95197429587699,-64.63711230291648,13.219643961092313,25.700804031552693,-20.210058669204408,35.74194302383033,5,S02
7220,-0.5007760551478346,-2.0022971137362235,9.446039822416877,-31.916732918469688,-54.91556524497862,14.530837021722903,23.938521524297933,-20.71349011182985,35.72706398213447,5,S02
7240,-0.5118277270324665,-1.7164020649365999,9.379608519078651,-33.970345734598055,-49.38130195060933,23.198311201700953,27.26591204482072,-20.16938153068464,37.99436707034535,5,S02
7260,-0.3056756366283976,-1.3501372267395721,9.688483576498031,-29.072764025791273,-40.61297080898139,23.765491835875157,24.32587141509891,-18.75649284189077,38.749553423722276,5,S02
7280,-0.012076259020285057,-1.163184739820574,9.991388889995328,-17.870930265498345,-27.47282678300324,18.58341184353824,24.81879307485285,-18.526062764451233,40.5581774291576,5,S02
7300,0.011407943256604144,-1.0486598985832647,9.951150321615378,-8.342700449594178,-10.839557999078153,11.68284406067483,25.965042593107253,-19.474164059040877,37.4329890653143,5,S02
7320,0.2609294281161003,-1.0251541553330215,10.060529235427586,6.158891677925721,8.407413427551251,19.097510352532307,24.48798885748755,-18.21268884919167,38.93853435042353,5,S02
7340,0.25869507808922787,-0.5061685590612237,10.204825268009815,17.87479788894802,25.97534345040439,14.797116813417201,23.18173953113198,-16.365720570450623,39.209441617116035,5,S02
7360,0.6043085578214208,-0.6874957364149559,10.62197517468744,23.127798326295636,35.35871013496917,10.331239018989331,24.42897863929783,-16.663610644321764,39.59909460247155,5,S02
7380,0.6819984196923818,-0.20299491519635743,10.735859768639246,22.58770632625787,49.0940439412094,7.028127254455728,24.406130694143695,-17.85097213877708,40.13914948099836,5,S02
7400,0.911573843437488,-0.32489352697168516,10.963664259434216,32.83378962004138,55.60669474464045,-1.665900475655938,25.538426070051905,-18.01353616184521,40.82027241389582,5,S02
7420,0.9398702927992146,-0.005316142245232802,10.994152027414529,27.642919539720317,57.57321283698785,-0.8569989168433217,25.081429367465653,-14.608590365387645,40.91231233332456,5,S02
7440,0.7992782019428104,-0.020961259345478267,11.164485578172055,32.40076407842512,45.055047936018205,-5.847611356108387,24.810285625604223,-16.142058938067915,39.99093476850762,5,S02
7460,0.8216473641023816,0.015683619646018318,11.169620064424777,27.67670695622643,46.628046852009845,-11.990812881471527,25.93147503371609,-15.870221412055429,40.97695025637508,5,S02
7480,0.5652883662564356,0.2634881359039991,11.23818566614521,19.202665682521094,41.079806830152705,-11.399113931109852,24.872725488885344,-15.901456098151595,38.33379931369441,5,S02
7500,0.6811660330485136,0.07477772537658148,11.235171130272969,7.390749962657574,28.097749442684016,-9.987092223634948,24.508764305941803,-16.18927121318189,39.04207681748093,5,S02
7520,0.2847562937910804,-0.05797261810920387,11.353093941247117,12.370675301192946,25.538033840760622,-17.724902915676264,25.282941291118206,-15.175311977878135,37.152897822066436,5,S02
7540,0.28394401367693545,-0.30011604183512497,11.108815720996189,3.273181464536247,8.188130566838579,-17.14542183216942,26.22881472978052,-14.485915919345242,36.03672577753241,5,S02
7560,0.2630269018245247,-0.4510849872744278,11.058063704968779,2.7098538671692314,4.827341689948194,-21.120392531951968,26.97211199302684,-15.190636572889753,35.88822234273194,5,S02
7580,0.050947566607286124,-0.7386387218434589,10.786375061034155,2.2458634391281906,6.868816322742201,-22.43523685752043,25.338567621578242,-13.340052665588193,36.298193579717626,5,S02
7600,0.1830444576756185,-0.8898488732956018,10.774788396007832,-2.610566276444331,-1.6084756669902445,-14.486525067360663,25.97322372890111,-13.527881729552071,34.69430563289977,5,S02
7620,0.08735617086159073,-1.1043731423682557,10.61540888969872,-11.256042328094352,-3.916648919013067,-11.3247507935987,25.326207220097857,-13.105539963392062,35.783151212915826,5,S02
7640,-0.09303333083857354,-1.3931734707680472,10.5620502652017,-5.648266297824418,-5.505737692861841,-13.096262853028565,25.69309166220806,-12.37440450612343,33.80678394123133,5,S02
7660,-0.12651104965555207,-1.3909858404852415,10.249550937284317,-4.821473224086702,-10.681323886545954,-14.190412672393991,24.765527476052256,-12.556894894487861,33.3090211761228,5,S02
7680,-0.014077914496559527,-1.6544372472625017,10.097075898184233,-6.948634067670694,-12.683671565914414,-2.1983818185287265,26.582181633338436,-13.16874428017384,33.3927125389977,5,S02
7700,-0.12182145800921271,-2.0196598117421276,9.723987264573129,-13.323515974185142,-25.392779355245803,-1.565280969612652,27.30566854984331,-12.450711920389837,31.831861169216467,5,S02
7720,-0.253110305846713,-2.2439825535707647,9.69478026820092,-19.326670058082698,-30.891798321650008,-1.844838797336418,28.677002161343825,-12.518737682274459,34.4092703940904,5,S02
7740,-0.3767134976864771,-1.9906880219679233,9.520115581533013,-25.035851280868908,-30.53341331462814,1.0939456224862814,25.351591036675845,-13.736483967466455,31.618407591436476,5,S02
7760,-0.5795242530562027,-1.977250686470957,9.646811878977514,-32.62532146500981,-44.758518649518976,5.781295756768895,26.13208289268574,-12.529299192450019,33.3951502646369,5,S02
7780,-0.5062478205364535,-2.01860603076404,9.560881364400572,-35.93161076084843,-49.396666253055756,7.170047417738514,27.50970269688363,-12.185156994574069,34.26285584051648,5,S02
7800,-0.698754891814787,-2.035656220978289,9.281901919250624,-33.95574178850376,-61.54094379773514,15.46206924597374,28.64342776347407,-12.710069021315922,33.430839323068085,5,S02
7820,-0.5884147358728555,-1.839262365244898,9.520812802533818,-40.82182664604372,-64.05423337451556,18.73034342481764,28.6743093116347,-10.854824311491026,36.6783026013112,5,S02
7840,-0.43522816300815215,-1.7767118320061457,9.332061995969429,-34.245719533086216,-47.53855742169711,26.209005321927165,29.151484260914046,-11.108913194000266,38.029224958929206,5,S02
7860,-0.4166899565473575,-1.767441290681258,9.579794010315897,-30.123666574324222,-45.08776414860652,21.29490796209966,28.766087807534728,-13.537144063806883,36.40103467910641,5,S02
7880,-0.14953988841537552,-1.4377080684547474,9.490639266495897,-21.725565624838286,-28.716515058456586,19.11494938904603,27.872069195785645,-13.575856617966465,38.388438425343,5,S02
7900,-0.004073817410356395,-1.1201357108063656,9.740516288699093,-14.203208701704103,-18.56494066321102,13.180364338610474,28.41310422616334,-11.048909796007134,38.484868635534674,5,S02
7920,0.012425720576179078,-0.9947133306997344,10.101301264145167,-2.756114794315782,-3.2866544986854747,16.244981296588694,28.506287881977705,-10.694512108628398,38.57063088476633,5,S02
7940,0.4476974248190444,-0.7942320362568172,10.218679010938283,7.405913434331347,21.072678861195257,11.072159904468387,27.643012306869892,-9.910253699406084,41.33954784943454,5,S02
7960,0.46661050408491167,-0.46822260156707507,10.53054608289277,15.210986994517235,35.841046531656396,8.678299524802604,28.78227909438507,-10.056462602656108,40.61366903228481,5,S02
7980,0.7216468462533229,-0.42424954346451643,10.627290957607332,28.52840547201473,44.768623884361155,11.460998483301008,31.07654798331378,-11.175695579893233,40.39408677323483,5,S02
8000,0.7803716519202005,-0.2170106065066445,10.881130609273146,30.28446846834891,52.58099755067906,9.49725717727535,29.946921869951026,-11.9012270071207,41.5324058746873,5,S02
8020,0.7544744908370872,-0.17342662326927413,11.161360071178073,33.332265461093066,49.900130188566784,-3.177413460496197,30.804582106975474,-10.334196475963788,41.035137087336686,5,S02
8040,0.7937483066952329,0.03886924265037793,11.179562767190113,24.861648259142267,51.89754089795439,-3.3243344113279143,30.539637021116814,-12.287026330347219,41.324929162239016,5,S02
8060,0.6836039130342103,-0.1417000203641159,11.136773811049075,21.958805158869144,52.33253307416365,-3.0529931275044495,30.24511518116281,-12.292749150792973,40.09445582363041,5,S02
8080,0.48856006540667407,0.05819513639026361,11.209821077161871,24.47721173695002,44.224780279542834,-14.172028871790626,30.523778315628274,-12.422522021977397,40.8211844510489,5,S02
8100,0.5604140926000963,0.05119414689696013,11.327959366730653,14.009974702663154,34.00802907332589,-9.841461774932801,29.818444073633525,-12.992922993525998,38.82230847175384,5,S02
8120,0.32345519045517446,-0.14967732758665947,11.445583775737182,6.304381780141154,30.694451517344874,-13.317507824079106,30.651305681988237,-11.118219256949516,38.0927776143026,5,S02
8140,0.3873011859996366,-0.1862400054692443,11.301521155037458,3.8119945834031173,20.981467036644705,-16.694445164267066,29.851849790395534,-12.453058370126511,37.57470598914382,5,S02
8160,0.22989612749278932,-0.3849914269004726,11.294235587825113,8.02399979885855,13.480953077029575,-18.318526597501545,32.227328481038185,-12.169569070497262,37.26264708208367,5,S02
8180,0.2416665746060961,-0.4977806795205061,11.052500153544566,-0.551698837293336,11.800864174925657,-17.615350893821642,32.171889384451674,-15.176655084718627,35.81068992458282,5,S02
8200,0.05155347649940097,-0.7504820901273379,10.811800458319482,1.6988587711512535,6.046189057975734,-18.710156847467832,32.73402205613218,-13.748933280556072,35.72373042889612,5,S02
8220,0.11293748141680698,-0.9675350271292213,10.547668734497254,-7.736730942807352,2.162388390307486,-12.648164842885462,32.24649445984068,-13.90562306543092,33.86858020740111,5,S02
8240,0.07962280196702969,-1.16616491737814,10.43240596321516,-0.655323624226603,-5.275834228500066,-2.848388343311585,31.54076662336182,-14.22717762653653,32.61006148828635,5,S02
8260,0.017028502006669693,-1.4859594977516324,10.322844193580806,-8.323048717167383,-9.154596429734903,-10.075772639209793,30.98288870666597,-15.020808766079492,34.235178515337104,5,S02
8280,-0.005441021121041695,-1.7089956891592541,9.989610053588551,-8.891833929345601,-10.862040666136721,-7.45923102359602,32.13250900251765,-14.723114028455281,35.03164411483539,5,S02
8300,0.03784226772412171,-2.0048018722161602,9.970999987456638,-15.638782594252557,-11.713008570826613,-4.401127287750987,34.114680887007,-16.837930866527923,32.37351034236346,5,S02
8320,-0.25032083180369125,-2.005774347881515,9.718947694878326,-18.40699775667609,-31.598504706486384,-3.9866582329258207,32.21690630324966,-14.66796657055427,32.809979361225935,5,S02
8340,-0.5216310246829117,-2.1493878072656063,9.694046590097019,-19.066266454555308,-28.578269558438745,-2.271582038518193,33.03274650301886,-14.976636439321815,33.76417849790003,5,S02
8360,-0.43984080625663247,-2.0904563287321243,9.539844699438907,-29.291311007063005,-39.82220421135702,7.466163116496868,33.11761562967676,-15.7922243528175,33.41301312000307,5,S02
8380,-0.6656647071849121,-1.988357623855147,9.436382468576545,-23.949162200933774,-48.22671871224645,14.23945432628437,31.4365215079552,-17.625814787209073,34.201834852936486,5,S02
8400,-0.6005422724780254,-2.0822581628507097,9.415279721771828,-32.99960549105383,-57.7775771411593,14.845336385774656,33.12456419174685,-17.049632904537056,34.86236676741352,5,S02
8420,-0.5456458428952098,-2.0376543099717073,9.449531121981286,-44.49137220639351,-59.625798417279526,11.70104297427729,32.59203781186483,-16.80179761050238,36.92361823606434,5,S02
8440,-0.4729168267707341,-1.9743339300903444,9.358614940558482,-39.24017757594287,-53.078902461235344,18.74711355168641,33.60638759925257,-17.641032956245784,36.25069242933066,5,S02
8460,-0.570452550080707,-1.5729572064386288,9.582427285577207,-36.73446190849937,-47.25993771976805,21.27327517050821,32.532426869836485,-17.1022924125112,36.305824129447096,5,S02
8480,-0.43329008407928715,-1.511980037510379,9.604132101698044,-23.107238346994308,-36.43490590245171,20.671562120547907,33.337009047519516,-19.329807411418937,38.251992853379534,5,S02
8500,-0.23419426511597938,-1.3826836096261537,9.65061600960598,-16.677322440573956,-27.140280212383868,10.044357892665444,33.88013727260267,-18.06384268407325,37.48791157085712,5,S02
8520,-0.016146301152861878,-1.0793215654499895,9.744661944438661,-6.311140506081255,-2.397491900308859,20.017464134710654,32.941229781604754,-21.68847757399268,39.54522360392647,5,S02
8540,0.2161625849072273,-0.7331397250308347,10.074006263799136,6.225137336819134,9.847419684948436,14.032451284314696,32.57627675924691,-19.534016271440812,39.75185987852806,5,S02
8560,0.35997187907698014,-0.640555549783113,10.399259664941026,14.775499012916022,31.777072252993836,6.31761319706084,32.690452384103395,-22.643505431410865,39.177221885997525,5,S02
8580,0.45994420497235833,-0.32489641959960597,10.5655297288843,21.436941836723786,46.07478282647856,12.77721152584215,31.47390412993456,-22.324658288395433,41.79811568057359,5,S02
8600,0.8056110579521746,-0.1531897343707781,10.703999289279334,29.693748237402016,42.58162243024903,5.496016944146433,30.222049823938562,-21.724211915093157,41.67688329772436,5,S02
8620,0.8071511894648764,0.03126457433600792,10.890345736416625,29.13434532147819,51.057708149823824,0.3727946548317659,29.986655593030665,-23.188353060094983,41.24768974980931,5,S02
8640,0.7168177422279526,-0.10857349780348172,11.254136891191523,28.670549305170187,49.48949069523316,1.7183819514395124,31.321214457031,-21.860365690623247,41.299642225911214,5,S02
8660,0.7879624608927375,0.0030213995126755905,11.047461255956653,31.96368710122209,55.1386041499019,-8.363102670491504,32.869557882410945,-21.129750064188617,38.97826860332519,5,S02
8680,0.8567387069045079,0.03755311708205998,11.241080021188568,21.47091258982478,51.335363683831844,-9.0824443016875,32.4957878210462,-23.37081839756045,39.289648318328254,5,S02
8700,0.49434082941731516,0.1500565996836668,11.25137787044626,20.3587398810113,33.795492189259164,-7.583000328465369,30.929564688453183,-22.40062320167128,39.26102114852187,5,S02
8720,0.6516494874775802,-0.00415063119036449,11.41411023695538,11.85923355247115,37.020646841106284,-14.09690040506657,29.8286177484526,-22.858211446662594,40.58745584580689,5,S02
8740,0.5074458579981163,-0.22608912819482038,11.372416245831317,10.164062807100095,14.87035637663686,-17.92923123034533,30.14145068477794,-24.70661778244365,37.97117343580158,5,S02
8760,0.3660157739157254,-0.1937736412393653,10.934205141117651,4.228914635393989,13.108972820363157,-15.077573998410772,31.72238721471375,-23.577577154948845,36.967108198848464,5,S02
8780,0.17676346082701122,-0.47129349110918983,11.083365162437921,-4.022978774216767,2.9143769579731567,-22.571937416256247,32.99062782469579,-23.24172007277657,35.05739172158412,5,S02
8800,0.21025297123650566,-0.7894541267796003,10.952428807990612,0.7992743947375027,5.472351485315968,-23.376504005086765,28.931913451393623,-24.01810593419752,35.998456300147424,5,S02
8820,0.18700091197324195,-1.041765721325932,10.976496743465901,-3.4661204773019794,6.4097695412441,-14.944450182200814,30.37052932336731,-25.05914388005553,35.16340282801586,5,S02
8840,0.12768973833744787,-1.138262492387894,10.694825075789577,-2.679866709320229,-0.7862450361150175,-20.81810243382043,30.121028709766957,-25.0679977926377,35.03924367351816,5,S02
8860,-0.019239427910638984,-1.3455988798018335,10.410463994767339,-8.42129300920012,-0.1663316326597044,-10.568132318606208,30.315999818974305,-22.070769665808943,35.1608514851494,5,S02
8880,-0.00283857225397742,-1.468085316285533,10.053837256140543,1.939933890438735,-6.371653942236669,-5.069684410261646,31.415632101658446,-23.55197208392041,33.43639800135298,5,S02
8900,-0.09849437413014128,-1.8608007062414935,9.949522208754498,-14.352098482692114,-11.264600602949631,-5.411240286290402,29.293964190278203,-25.2843351866845,34.116904922216584,5,S02
8920,-0.033712715732825776,-1.8715400588910984,9.774326510760575,-20.692904026191876,-21.699722582611688,-3.425279946767074,27.645787711321223,-24.064241516488146,33.97854299566424,5,S02
8940,-0.259570688735112,-2.180391745452393,9.584835737065756,-25.213026838619047,-24.98378627692118,-1.4921990876265108,26.891903256432546,-25.101315089577575,33.592118829498524,5,S02
8960,-0.3058966869034345,-2.0064012269501745,9.586620632305834,-25.04338385253431,-37.450611141609436,7.020667522395259,26.95004258398383,-23.925799226815236,33.69836578079334,5,S02
8980,-0.524852861262208,-2.356380023997932,9.587912004437507,-33.486741674634885,-41.33874598330095,14.387815245204129,29.805163242951274,-23.72337761231217,36.83957733636167,5,S02
9000,-0.5365210753883071,-2.2218747413832904,9.50457580331433,-33.713643850025015,-46.38740029793054,14.125068667647243,28.721042431324204,-23.057101553790933,33.99803422417162,5,S02
9020,-0.6977959116388467,-1.9509003849153765,9.42757403555861,-37.89625462573117,-61.54215441816073,18.29965479267195,27.84282141598517,-24.99728310095142,36.48123634028452,5,S02
9040,-0.5582482504766294,-1.9528131638725883,9.342471095492012,-43.86327610350736,-51.79949741106665,20.65740905369399,28.85833159097813,-23.754004479687005,36.747522175541036,5,S02
9060,-0.4342751538760422,-1.9242045034833488,9.373306871911348,-35.78874034468173,-54.549212407559246,19.00744477378382,26.849783826486075,-23.510689649863597,36.33351983581986,5,S02
9080,-0.6297715407631748,-1.5616790896106636,9.574226969757722,-29.434319586436764,-47.55467296565851,20.189055699514448,26.493906861834876,-23.406966945632966,39.19039598651528,5,S02
9100,-0.20213290784231777,-1.3843563600852122,9.532927468392465,-22.586845399115294,-30.180938414780666,17.323502390999156,26.685847699782478,-21.34588887409391,38.604829774786644,5,S02
9120,-0.15071874668257787,-1.2026978186712396,9.941919458820047,-15.856066094316951,-14.163121873786325,19.143970781553314,27.665853872495585,-21.85869527218981,39.441158005767036,5,S02
9140,0.17656998947005342,-0.9096394207768594,9.922975448990831,-4.195945515335779,2.0218622796825354,17.836815219651733,26.095413291593047,-22.883555380496777,38.35455497905809,5,S02
9160,0.5565357830592196,-0.9500696472408865,10.12511168359108,4.050943321166971,15.674775738293551,16.382666112349472,25.012445827374094,-20.46130489759488,39.27944241483909,5,S02
9180,0.45407860100413355,-0.7354345453082582,10.331907408602836,14.47255730837771,35.168164081295416,14.310863245762443,26.590185529897585,-21.24153890804204,40.888756504161556,5,S02
9200,0.7007901133818799,-0.38947336569561986,10.686491115473789,20.303128332075676,42.92338780324788,8.863219752976958,26.662864449658898,-21.37400370481907,42.23473247946448,5,S02
9220,0.7010642161107812,-0.22817529632667927,10.662304724760345,30.933876769307812,57.31302016861966,4.812507466412366,25.359740042358034,-23.010798956756933,40.96370964137904,5,S02
9240,0.6956992889824846,-0.09197251076948551,10.813935809034609,34.69765993194564,50.13340030837518,-0.27500374055151877,25.995025226844675,-19.31281928801515,41.90332927163323,5,S02
9260,0.6921570600106823,0.02992457194443117,10.977578402400551,24.840173095303864,54.346860922751354,2.798090315859484,26.20553642067598,-19.258591521167027,40.11360424916648,5,S02
9280,0.6781452798451318,0.18865047856277034,11.261168904381487,33.26992671906535,46.62536082515948,-2.809856210107359,25.913158659341946,-19.852552880501563,40.14555114473097,5,S02
9300,0.5521768286618227,0.11492375452400685,11.13535093726968,19.377380932694667,41.785951795454146,-8.270490616171598,26.995784611791187,-19.529409285017586,41.16009123765526,5,S02
9320,0.44270774599698903,0.025365531933938423,11.270939080458758,15.683482571809321,40.199854600798304,-18.71347982916922,25.955590375990877,-19.51463267913659,36.9916304045945,5,S02
9340,0.4171675900374423,-0.14381502922928438,11.31052056116544,5.819469865199417,23.705641646362164,-15.97907131943048,24.783084972056564,-17.849562197552693,37.71556875393599,5,S02
9360,0.3341446449118318,-0.2779245476952835,11.116160971266986,4.412522522066664,13.988272349224,-15.374363835824534,24.702272776296304,-19.39558444870051,37.72244705871112,5,S02
9380,0.3928808490265987,-0.3965891248722784,11.070451705658783,4.964218742273586,5.0131397795844235,-14.743677621672292,25.638801218934645,-16.283972354194333,37.42287208891819,5,S02
9400,0.0864369374394107,-0.5088035098001302,11.143245395435217,1.3478955695471306,-0.13626726759728824,-16.23026498366981,24.619089639143127,-18.259974503190307,34.474395497375525,5,S02
9420,0.12610539869641196,-0.7737103601791695,10.942423523234794,-5.085430976512189,5.772473534555488,-20.030330935001242,23.99318800880227,-17.17679327216045,34.28156056313589,5,S02
9440,0.3013838785782419,-1.176226402438698,10.542739680184706,-2.530568191274381,-1.1427738342795357,-17.596607935746107,26.26868881867513,-16.661805561359408,35.63001865642526,5,S02
9460,0.04859006981702672,-1.247310291027175,10.594213111451584,-8.242055409827515,-4.795783880724037,-12.134345558226705,25.56174812630337,-14.96293434194179,33.29023964536256,5,S02
9480,-0.06520695072497795,-1.3258302482602342,10.246738871915655,-8.265291315670684,-7.173000621255227,-8.02202609462389,24.45495396958333,-15.555979686488179,34.3337301001344,5,S02
9500,-0.19917864613223082,-1.8441533390416718,9.95914932061175,-6.547354320947099,-8.542202011187628,-9.648070642732891,25.56542998929499,-16.845010889136866,34.46032115731811,5,S02
9520,0.12566758494679808,-1.952791238408578,10.058610448777651,-18.538479527200465,-15.838849490217513,-4.275430751313732,25.99181855903008,-15.224795654308416,33.46002966180165,5,S02
9540,-0.2669185284879694,-1.997019437889882,9.723499166957197,-23.629045927973742,-22.124654288618586,4.131087812138828,26.05958624517958,-14.806682265564756,33.08141008463056,5,S02
9560,-0.5290358858414622,-2.0330561451502365,9.709663253685594,-18.493876373127833,-34.059365185218674,2.5712096525260604,27.06097359653301,-15.992808293735878,34.7206891078542,5,S02
9580,-0.43796956251227337,-2.0549170612253866,9.455264967600819,-30.36551884729936,-42.693829928899554,0.09051166464885207,26.313443142689163,-14.305344437803576,33.44769743121581,5,S02
9600,-0.5600807432739755,-2.2096872758415373,9.31884292408309,-23.550107825316676,-58.69160069976418,10.222408704685034,25.586140142503027,-13.272421722283909,35.960019742124,5,S02
9620,-0.4522591427515964,-2.0901421349121017,9.292332730238453,-36.57899051509713,-57.0025328814304,13.401234294791605,24.504552811600657,-11.681966234990751,34.79009508440997,5,S02
9640,-0.6289077305843981,-1.9837944318858127,9.305761870655896,-43.03434892842374,-63.82161328536975,7.4754764387004435,26.540728957492732,-13.309620215781097,36.25221465793287,5,S02
9660,-0.4484601584440463,-1.8450050879075084,9.445991267053031,-39.18239535706544,-51.08717963164752,23.29996632551248,25.798824806718244,-12.523388852700442,36.324334767415756,5,S02
9680,-0.43846139161933606,-1.7979246016369324,9.48732196898017,-27.961075694872623,-45.21187836650582,17.28003465462676,25.80441194489191,-12.913449843282198,36.63061575643446,5,S02
9700,-0.37185465969890075,-1.7547450351323766,9.664365207872288,-27.236054956571795,-31.42005672868608,15.682292112445513,25.984269712217245,-12.321204321111876,38.97867335350044,5,S02
9720,-0.064886496372596,-1.2972544776640773,9.844604512265827,-19.768735057309506,-21.326024864539995,18.557008761549234,26.423184760871347,-14.274801438095924,39.2265006635662,5,S02
9740,0.16336800104883922,-1.1132778257159737,9.807589109264706,-7.44891439159641,-4.055851330884844,17.087365525965364,27.217216156383987,-11.488173499550609,39.34595600420094,5,S02
9760,0.26965647576326013,-0.8606746728264587,10.017776007787141,0.2541317915432524,9.30267643407362,21.946600142797564,25.090403832169216,-13.31905112441017,40.032924630205635,5,S02
9780,0.5292700118994572,-0.6167799857447824,10.27436078810738,17.011053618779606,28.333793497327427,14.6146424769251,27.722275142130442,-12.286376463936,41.780836140074776,5,S02
9800,0.8477039855226451,-0.3251441811266454,10.703263660930286,22.607016073296656,37.782092289536976,0.2864145602893572,27.772453653450295,-13.620008594028457,40.97088382931977,5,S02
9820,0.714875406478023,-0.23427406213931795,10.634296401204967,33.16437088889763,52.14797822789683,9.264888258674633,26.775545918209428,-11.058190384182048,42.51308930081326,5,S02
9840,0.8472282888305969,-0.14797687143772076,10.879360365351442,35.723521438264015,54.53330225337578,5.9249222500735215,29.08733412844498,-12.466950896370026,41.31207936320011,5,S02
9860,0.7112762662800869,-0.0394749922161792,10.892071247851696,31.388440716289953,51.42372184780979,3.0521832152204906,28.405171481260293,-12.27295174975985,39.84326393342562,5,S02
9880,0.6730040894121191,0.05557439888348106,11.1072128143225,25.94071878643467,49.26000481778446,-0.6992055271081586,27.31249029000795,-11.297264776781992,40.46889992135775,5,S02
9900,0.7328068294404428,-0.043534976190604716,11.411378545913175,24.76879770048117,38.483770366678314,-7.73071503548532,27.76609058869251,-10.64745097536798,39.37672284609461,5,S02
9920,0.6248391188783022,-0.11949432215807011,11.364039398175896,14.90575824427781,34.58323487476289,-11.560710783206758,28.976603019329414,-11.067252968300263,39.06232130962306,5,S02
9940,0.4907406138186896,-0.17302724502348454,11.198808811863332,11.515518554171763,28.958327308580444,-14.703022705039793,28.083745551384048,-12.471148855215603,38.65329235965262,5,S02
9960,0.47004562912594283,-0.2145108539576192,11.188148224255345,5.109445459011972,19.869707707554337,-18.28878389565192,28.89827281730482,-10.797195361574822,39.91643924145019,5,S02
9980,0.18902947107494933,-0.18645342544877516,11.146908798973293,2.5777157622383005,13.158474040651218,-14.493239688588421,27.895892482680015,-10.65135475507737,39.7573684545221,5,S02
10000,0.14009130839155395,-0.6338409421522999,11.00287844820408,-1.9578757839537824,4.244423960149734,-11.103123007654776,27.944831147831433,-13.208586553301851,36.60424261448497,5,S02
10020,0.13315869199215097,-0.8268301238306508,10.968143022015346,0.20503657383758966,4.814611709191318,-18.171683731084876,29.685449037771765,-9.362655315423584,34.99149322142351,5,S02
10040,0.030511926628098332,-1.1311730914003637,10.790895881627588,-4.312274556004289,0.5699759036060861,-11.736501284518257,31.366684724729307,-10.733179997862747,34.56679510726154,5,S02
10060,-0.03404530947488851,-1.2567210135647615,10.531201762802418,-7.600441775993616,-8.528460833740116,-8.276803471908078,28.69049369578509,-12.152637819395213,33.81545557289306,5,S02
10080,-0.07532472132441317,-1.4808633152143744,10.320803253894926,-6.988852543823304,-2.8435849551165724,-10.451801030511021,31.783662199239192,-12.578725592531466,34.274626898740564,5,S02
10100,0.011904904468984248,-1.4844865548803492,9.965085486944053,-13.011908732516787,-13.986684876318577,-10.025613865862695,29.72936571988937,-12.939486023384621,32.26476878712293,5,S02
10120,-0.1394020702420106,-1.817384476983305,9.943614720119445,-10.580111469534035,-13.403150994630527,-3.1942657174345594,31.23373648658968,-11.808087211425699,33.993820355258876,5,S02
10140,-0.007045316776478142,-2.013432190982789,9.848110190585551,-10.742002895625397,-20.871221187127748,-6.337091840172794,32.23699103247665,-11.653469158780469,33.18132244206995,5,S02
10160,-0.19220495513384897,-1.9594322484238624,9.649406481727503,-17.61326822758724,-34.14211680671359,1.9231776764891486,31.570072822479155,-13.405000135618987,33.25462724083817,5,S02
10180,-0.29782294435074563,-2.1318582636903964,9.558773373459571,-29.238549626801596,-37.39251077457839,7.060270277461744,30.610685022031127,-12.106074689694097,32.16173567165291,5,S02
10200,-0.5244736646643983,-2.066859337621111,9.515704168345719,-34.13476721371969,-52.53490357057176,8.45084253597745,33.65295507187653,-14.436343130014642,35.536659653982944,5,S02
10220,-0.7606907627492366,-2.2142174885964145,9.485470971261185,-34.92118743038196,-54.75607905898868,8.517907022202664,32.66136120142161,-14.66821092103623,35.312586770445286,5,S02
10240,-0.6078870140808994,-2.0316560849106144,9.397590978452547,-39.88338316975151,-60.423008038889314,13.158663813605273,31.44079078001096,-15.939226596383797,36.753980219721505,5,S02
10260,-0.5402751363406354,-1.7283621680580077,9.574900267103107,-36.470646792282686,-56.77862793339832,20.737220075281076,32.12607179708845,-14.44139791053092,36.8056729197608,5,S02
10280,-0.5330267605487092,-1.798605377866377,9.471668045078085,-32.19167556770052,-51.47195746309333,19.25836580814252,31.710959729891293,-15.660305311574566,38.18501428899097,5,S02
10300,-0.502836786441061,-1.5406790777299104,9.55075673309862,-34.57057585962672,-37.248328589135404,12.537245113549455,32.04077780590086,-16.09327423494061,38.27087482824375,5,S02
10320,-0.25414468584940975,-1.5138354428771745,9.712556854773496,-18.73854584351458,-25.786526568253297,18.64797163486386,31.935414257784814,-14.789863338692017,38.40405697551519,5,S02
10340,0.013728181894712005,-1.0724940301555392,9.880012101605253,-14.036996559396439,-10.47277588533899,18.402021300506753,31.493733183822272,-15.977565982130201,40.74680947091938,5,S02
10360,0.12668184005210148,-0.8502276068861889,10.06292015839112,3.251720857902412,7.716360093060536,18.964546853676648,31.597503082330864,-16.2730638856233,40.77564390952826,5,S02
10380,0.5741090023334389,-0.9337275972986903,10.308069499906527,6.439702750562026,20.98162560392318,11.789349976079196,31.895458594175835,-17.831322864151147,40.99480181298457,5,S02
10400,0.5250398502757238,-0.6558176172985031,10.319000697503725,20.147848654749737,36.48431374072107,6.485836448471643,32.549863422110455,-16.23218350945302,40.23416172645751,5,S02
10420,0.9639960405914688,-0.38488885078783885,10.734564112255613,20.22991631554275,48.30786552286732,8.067112907650017,32.81810928582115,-17.377355023927763,42.417284585559074,5,S02
10440,0.7900021366226825,-0.21277632058720722,10.86512720511715,33.0238382002804,55.53040186552016,4.190009378235084,32.489617462264924,-16.99360332863271,39.832402671875975,5,S02
10460,0.8503706886430875,0.2000060151908188,11.000919770646618,27.89805137724517,61.79270394563741,1.52437592631523,35.04574027324038,-19.74255303216018,40.712009844788575,5,S02
10480,0.8970716510629821,-0.14253021578508973,11.06213396537166,28.92720991698057,50.811505715147575,-4.2569906975877085,32.90470067981946,-18.013854258693467,40.16315236859387,5,S02
10500,0.8411161601445141,-0.03766773512732628,11.16726699584077,24.269721918740018,48.72204627317228,-7.34407851893458,32.24148170995129,-19.6759092476519,40.17104604710535,5,S02
10520,0.6843379188394423,0.1059493617042416,11.397661934102391,18.836841643515545,40.32394035089264,-7.729214913984363,32.13316359060734,-18.686926572243394,40.92667103181155,5,S02
10540,0.742840859123183,-0.08396853276743418,11.512423743402753,25.298593746100288,31.517127849734724,-9.831705999185834,33.42745380877767,-21.780944120141985,39.183858034658904,5,S02
10560,0.3564215434259894,-0.18761716082435415,11.441768113141135,12.653493422481496,21.61428446981457,-15.668396505173048,32.708898692341776,-19.694002509574148,37.749010654769606,5,S02
10580,0.3342291032395427,-0.2813004956091871,11.334476218378741,4.904598534298624,13.600489186145294,-14.40706893231001,33.12054988940592,-20.82505006238813,37.79040189968021,5,S02
10600,0.31272446828886646,-0.5191370962451654,11.198446318020626,1.3626509257817592,6.298944985591889,-19.985571793236165,31.68643117483006,-22.314165699216375,36.201413193579015,5,S02
10620,0.22108191679881167,-0.8813988507633785,10.854901711352587,-6.595017608692294,8.83895079855646,-19.450112063921,31.265927858276918,-21.53919655557673,38.066687373893984,5,S02
10640,0.22590451074528942,-0.8995235627992435,10.802203986053453,0.8673440346471875,4.257534419389525,-20.710766839793838,32.487989574334264,-20.556192152052134,35.056857590062435,5,S02
10660,0.08884765730040307,-1.1861699023120074,10.56736552478972,-4.990484674558316,-2.3157279579208656,-11.165092100755613,31.39814250915817,-22.007151491128646,37.02430567075911,5,S02
10680,-0.02426113991360794,-1.3115814759186781,10.326608654903694,-10.495704286058983,-3.937798294884698,-9.144957900525956,29.511697966071527,-23.030331343758924,34.15385913894171,5,S02
10700,-0.12585046960738563,-1.3287638445460617,10.19519671474507,-6.781226212366249,-7.989453538581149,-12.655534163692186,31.204506448302443,-22.131940805624946,34.799674812493116,5,S02
10720,-0.18453868205133692,-1.6767946628736423,10.160293324176962,-12.499550582483,-11.17583021442181,-5.586969930141273,32.2765298453484,-23.872473998759283,32.78458984327342,5,S02
10740,-0.11928287310734978,-1.9018245901972823,9.974388252733698,-12.054802872006913,-18.285946251845154,-7.986719769544383,29.857055911864727,-23.292312585777896,33.12676529476539,5,S02
10760,-0.1808973759020707,-1.942973918796865,9.540372089242924,-20.170796093245933,-23.685660815574973,-2.282901677092909,30.19276758707933,-24.63284712088116,32.23994608469604,5,S02
10780,-0.21994644622959306,-2.021221720205415,9.695564481948367,-18.799000666068295,-34.733728572983985,2.3057679478775643,30.453713585970313,-22.156782182978844,33.34185953641763,5,S02
10800,-0.5135574905265704,-2.1736282622452063,9.48194460446621,-28.866970129869788,-46.19069614563938,6.983126164362331,31.358752048725254,-24.580323050956103,34.29309121395096,5,S02
10820,-0.8334790712729038,-2.2192166323345712,9.508161823581906,-31.88944591375377,-52.82800778233694,8.289894482777358,29.13643253309065,-23.879344807834272,35.20408214332306,5,S02
10840,-0.512476260248744,-2.095675636267128,9.371630680086135,-34.40992790394736,-55.07276817635623,8.753308142425023,32.16064097044644,-23.134964042092165,35.48715594028073,5,S02
10860,-0.6305035627584179,-2.1394795583105743,9.328701498526506,-36.31160912463969,-54.64149665786886,10.196813647283548,30.399650137221368,-24.355509974698297,34.13141103729648,5,S02
10880,-0.4727751256320917,-1.9041008927748164,9.270313209115356,-36.238736650487475,-53.273814931869445,14.902756114783987,28.09406755350582,-22.476180083122177,36.4875510812977,5,S02
10900,-0.541157672919978,-1.5620854475769292,9.626553031479203,-34.23229701745915,-52.80501342286127,23.00249888987606,29.201615913233866,-24.808253214911915,35.85054102976109,5,S02
10920,-0.36662570808801,-1.5526750110876462,9.57756161526988,-20.28650097281754,-35.14627977366428,20.012977696161343,28.201557833815084,-22.418249225292797,38.31828411765782,5,S02
10940,-0.048216414255729506,-1.1058115150265517,9.813191670466772,-16.650121026770222,-15.301534598237081,21.266258557486022,29.16205793382135,-23.521129680734703,39.04356226567748,5,S02
10960,-0.09900643277869692,-1.0523648916680546,9.905693479690493,-3.5532767159414784,-4.259482073085197,11.073469956544027,28.31704141826616,-21.59228633678829,38.51899861639044,5,S02
10980,0.5441095064648727,-0.7796822459712995,10.020080697949352,8.99972986137281,16.193048378267562,14.457705286441705,27.011028815387295,-25.118238707620662,40.08971396448258,5,S02
11000,0.4351716992564775,-0.5137209702267354,10.29259621608061,15.023734313087992,27.336580872176796,9.57995306489844,28.680099554744253,-22.796553502341744,39.91278040037259,5,S02
11020,0.6627477309172498,-0.3655782418870136,10.551187633474735,26.06543243092624,40.592554251556706,11.815098046953882,28.998336095523616,-21.934070211401178,40.776201567720285,5,S02
11040,0.6359502852702913,-0.29193496791844664,10.811394914874436,28.881885268747876,48.217865804037004,6.910352856454579,26.928571649526653,-23.14225265461961,43.6024746334285,5,S02
11060,0.7909931659880396,-0.20957506946235793,10.891507270924585,29.649457885069207,53.78745765484742,-3.386273759397283,26.97193562883798,-23.6101995400854,42.7983080899777,5,S02
11080,0.7625651250376437,-0.05206651760694646,11.179773392112295,25.73584280184801,51.39706253831043,-3.6721919233427083,25.999700728962296,-22.732614837080924,41.46189922293287,5,S02
11100,0.8333214895273406,0.20792382133441517,11.094123020691724,26.903749447166874,48.51572279150346,-4.505641648834412,29.22100261009373,-24.299709321853708,41.15463371794232,5,S02
11120,0.7184829341748427,0.07279412520593914,11.263139367984955,21.401069389319666,48.88125952101494,-6.019943589220436,27.093197410918336,-24.182590571079835,40.07426531513414,5,S02
11140,0.5514742096234037,0.20912796927182825,11.246296798216393,17.047981399890215,34.309300526598946,-14.33380146538631,26.321530651261675,-23.111266026955636,39.196929756363474,5,S02
11160,0.41478440818077356,-0.14619358672927618,11.155484648786453,14.065435161773848,27.247598789426966,-8.251290856391075,26.298049570134793,-21.874788453894272,39.003942791741004,5,S02
11180,0.22797324668696278,-0.05206295681490033,11.29409141358652,3.426294590761124,29.136910164161183,-18.450665027242287,27.16475035952621,-24.26259469499612,37.69023566819915,5,S02
11200,0.36979045231838015,-0.326038099197743,11.037316050228727,-0.9841142393537288,9.942924781348301,-19.28307338898927,28.46461182119566,-19.246850170486237,37.31359462923232,5,S02
11220,0.2755144073398883,-0.4574131493905803,11.03313908253198,-2.3248982440011083,9.394529355553482,-19.326387450741105,25.986077778499222,-19.429253511506296,36.9177330600193,5,S02
11240,0.007996060569339769,-0.6191315686843819,10.812960380283887,-4.534466390243005,-3.864605952031095,-13.634546856973481,26.376408734789983,-20.67530775682636,35.100940106120504,5,S02
11260,-0.13259693236739603,-0.928614069586412,10.65159820946611,-0.36633315004437517,-1.9972111189188664,-16.54658034688154,25.329186828121053,-21.15094202917167,35.58834163210253,5,S02
11280,0.09865783394363825,-1.0862977432660108,10.390585415390905,-6.845814005136994,-6.528636146799032,-15.097010942175588,23.628679224852494,-20.939214508209275,34.26018843048444,5,S02
11300,-0.08048723694381654,-1.5048790470472546,10.193786132798616,-11.693573289515122,-5.677862447056493,-10.018862172967854,26.588791926324873,-19.550407573993194,32.34637980749969,5,S02
11320,0.05594553962912115,-1.8053528144614255,10.012636179097118,-8.849545958028227,-11.955056512487978,-7.004600336208939,25.89317067159121,-20.354662359226875,33.97616485559017,5,S02
11340,-0.2344714077394733,-1.7247080921007063,9.888438961627083,-13.089395317086979,-13.847232297861622,-5.283484032091543,24.55837780151515,-17.99735825175225,34.07782415218195,5,S02
11360,-0.3053349300925764,-1.8040117661550032,9.683363850861362,-21.929873405868168,-22.674753429949522,0.1878576589768356,25.579701057128016,-19.58595292391892,33.80975713024723,5,S02
11380,-0.22550554003823517,-2.2278066221235977,9.632009200307529,-25.01032306894496,-26.459162551721416,8.705435586151127,26.74314524074815,-20.124443914029193,33.08301379066514,5,S02
11400,-0.3679312526733993,-2.1622577180444678,9.579446178035408,-28.647443091738015,-35.49945978815908,10.694933748740631,25.654171482464747,-19.79865347297234,35.923284256460974,5,S02
11420,-0.4957456657942072,-2.23733470528957,9.46251075340201,-40.42309456363999,-52.854098196050984,7.46338567710085,24.33066450266908,-17.987981301054845,33.491511685192435,5,S02
11440,-0.5291427167819684,-2.1074873763466084,9.368334063361555,-36.52590041343122,-60.5015002440338,5.902741800139483,23.38164218876978,-17.165154259281977,35.449580597131046,5,S02
11460,-0.6423770382321989,-2.08543575757287,9.457996380292265,-31.988738890361294,-58.861151646282146,12.9776000107656,26.18712977710701,-18.32541756961671,36.5051416935589,5,S02
11480,-0.6464261896860041,-1.8190921994655878,9.293279428324206,-41.34442112651556,-60.178080941753905,16.09930213671963,25.66526191183602,-16.83149516255332,34.506060251109844,5,S02
11500,-0.43547744736946914,-1.8727631999513694,9.370838994036742,-33.54957980354122,-53.229863366893866,21.380902204692166,26.48606445629997,-14.266537645742027,38.516934942813734,5,S02
11520,-0.2859661552544941,-1.5092094312252058,9.544883714353167,-32.30913792461075,-40.854239080469135,16.085908195197447,25.832220197758993,-14.043469260621105,37.57652075251718,5,S02
11540,-0.2673244669113939,-1.335305085120717,9.64240274847073,-20.98375006567847,-28.77330448188987,18.528596515608907,26.12659659974871,-13.924637279122315,37.337360227098,5,S02
11560,-0.03951381332143855,-1.0549512111210608,9.927738949939984,-10.834723727745537,-9.018623889227428,22.01215311739382,25.54593582571175,-15.952557568400664,39.4298585834497,5,S02
11580,0.3261958899792612,-0.6629357190010723,9.976446136771326,2.8641485732086824,7.718732759398285,19.921672497879634,25.107447023643587,-14.104040928203347,40.671038545176216,5,S02
11600,0.20311964035637997,-0.6202323992331784,10.442320559104985,5.133443359722889,23.527807226492055,14.037464450222805,27.074162019378765,-16.306433121220905,39.835742744728954,5,S02
11620,0.4197178195410257,-0.47474085702393176,10.500659121538817,20.95859316597374,40.53529272871915,12.959879150996834,24.726558703632758,-13.56600534098228,41.60240014230596,5,S02
11640,0.7481937779240929,-0.19448890013246578,10.65744477390922,29.757714387859995,47.179239850731705,3.6580709167326937,26.322628813666274,-14.411963483057507,40.35663598983425,5,S02
11660,0.6871661152966972,-0.3373955279990815,10.844244319105332,35.21439578226458,54.3959292582149,6.054402303086389,25.929458930324113,-12.802314775566625,41.95791090885083,5,S02
11680,0.9769216978132915,0.027772971683400274,10.920876949265097,34.69949782160624,51.59951745200267,-1.4722314181223917,25.389313841896666,-13.40561857374893,41.67372284978508,5,S02
11700,0.7439860788362588,0.13125821118274728,11.055528082107987,29.30142082932554,54.671399241900616,-2.609769426517465,26.24007542538582,-13.180677966065826,40.495094925328516,5,S02
11720,0.5124935883819057,0.1087659613753427,11.220829378975935,21.947350132848708,50.319587584156196,-12.484447058754492,25.41876054744177,-11.643415058499105,40.49966224126367,5,S02
11740,0.5443574395287616,0.15906196338897494,11.389468585346398,22.627222919472302,41.16754914671123,-14.10172732236842,25.801255320715995,-10.5574779482263,40.36745673136565,5,S02
11760,0.3716048756008714,0.009058356825706784,11.378979661068467,12.30634569696467,29.52732387327906,-14.158913866866458,27.077534031353355,-11.222097051879368,38.573893891253874,5,S02
11780,0.4162092649536069,-0.08852110207223748,11.207798825844426,7.291381407731548,20.460843075115747,-16.251380022671043,27.162190932476012,-8.873222022714058,39.579554730742004,5,S02
11800,0.3430163783920065,-0.1973161371561975,11.272124395644008,4.248434230803011,16.268633811736585,-14.10023358496066,27.887706847166683,-12.629467019953418,36.25178012761404,5,S02
11820,0.21535173044511094,-0.3280998394490337,11.274536243620055,-3.494808225500985,3.1589800542041164,-26.2813588072845,28.25132091547712,-10.897499865880512,37.75404705281119,5,S02
11840,0.1914973980656937,-0.6289273138257581,11.079454180233729,-11.006551281836149,3.0661926977542855,-14.253626023938482,27.54472585263449,-11.80163398156713,35.373781488320404,5,S02
11860,0.16489778503390856,-0.8250029470197409,10.837232571243158,-2.435863758551906,-3.783406277637221,-20.370857797688764,27.0411886986694,-11.657086533996821,35.52818473502508,5,S02
11880,0.04263559158250624,-1.0151617314147494,10.592871868275099,-5.081725414020666,0.04169878788215331,-13.15522540305268,27.87112286969573,-11.211623095301086,34.83048215304001,5,S02
11900,0.11519033030323415,-1.2797961150271522,10.327463469819264,0.013888802826572011,-6.959551557225497,-11.555428189421196,28.82979356947831,-11.927605858821142,33.622031685938865,5,S02
11920,0.11616364597497482,-1.4160582269944253,10.362278895358356,-3.5980069714763627,-3.5535204449644535,-13.433288759730742,28.768559618812528,-13.60606196361618,33.944686881382125,5,S02
11940,0.036901487086542006,-1.5776619156515244,10.036921187726017,-8.184934730465987,-15.364456218606735,-5.026023819792247,29.074526678802137,-11.668299351308168,34.33429508461906,5,S02
11960,-0.1851867854580256,-1.7540898114159234,9.838941933728954,-15.956594280509623,-17.126112918552828,-2.0644061874433066,29.237711900281724,-10.684562578617603,32.97742309447642,5,S02
11980,-0.3174336317571512,-2.0888681200825796,9.93645205914723,-16.876017192268815,-28.638157653481123,0.36954143122552985,28.556874144275838,-10.569907821774887,34.08806656556651,5,S02
12000,-0.34467304909863483,-2.0491939782790975,9.562312900786772,-25.489417071479437,-36.1211540136784,1.9584320101286532,29.172277170052432,-13.468438263401078,34.43738309196229,5,S02
12020,-0.3986374673291908,-2.0615062853355477,9.370765352198756,-33.89565390489999,-45.114206246621364,13.549693915077382,28.908258977085495,-10.221508746191619,34.02146981873764,5,S02
12040,-0.5964119166621082,-2.1804783084000534,9.42122347099125,-33.677355549971494,-57.2504038352181,10.026613047730105,29.493640704637205,-11.243864576211255,35.638189468790046,5,S02
12060,-0.5473668515871986,-2.1227918512061925,9.326832727406607,-41.05459772780981,-54.90112046270301,13.833300276334366,30.37863874234302,-11.76662879642472,35.99630812702965,5,S02
12080,-0.47372610556794525,-1.947085827019154,9.471407458835861,-45.9882554017923,-58.541131071920574,9.5589716133869,29.81414994579198,-12.325984707741197,36.260525350380405,5,S02
12100,-0.46469015174689066,-1.8528771465404068,9.416393447671059,-38.26722789209146,-57.54757884733248,21.05138668061256,31.601272905160748,-9.938527148374707,37.39282055243415,5,S02
12120,-0.4909261291605298,-1.8255635695582464,9.508404503181934,-33.88611214846895,-46.9663391008077,14.324735952051956,30.365694672506734,-12.67099688996034,38.836949903608996,5,S02
12140,-0.32518856731995416,-1.471264303805947,9.796057173111976,-27.66766085734962,-27.685979692895554,19.08463853309619,30.608523088037806,-12.689499769321067,39.34235035068357,5,S02
12160,-0.03434942201852845,-1.326786866559741,9.87663226221293,-17.571425935448893,-19.873968895960505,17.742058304953925,29.919300978178327,-11.419828053092548,40.897147806226776,5,S02
12180,0.10069418173054782,-0.9821670404871667,9.861318879099,-0.423264003857184,-4.045461277899883,18.002840908594667,30.23489040446915,-12.716870237040592,38.69156016214586,5,S02
12200,0.18253612370084282,-0.762145034506351,10.091818660075539,0.4602747865845753,17.32538909401303,18.631989133216056,31.57472489280032,-14.300909419588729,39.87707084946674,5,S02
12220,0.5578331850657309,-0.6119317458911113,10.50856107958136,14.30010604405119,33.72821608893706,10.862038558055751,32.738612882838865,-14.362969854632642,43.15671280821018,5,S02
12240,0.6184622511532225,-0.6059339663317729,10.594615923560285,23.913532973290668,44.564314139750444,4.114157210877936,31.40715312092415,-13.590808317606374,42.31728105073279,5,S02
12260,0.8360184142815669,-0.24502410033162442,10.709793123252703,30.259624209399835,54.79138187558294,6.35496899815495,32.27634287221508,-12.710377235557768,41.911561169994584,5,S02
12280,0.7916335269310176,-0.11306197679758528,11.051664312228672,24.94947304356468,48.02619151035439,5.540099229169861,33.42058896319776,-13.85189408912505,38.92136550920232,5,S02
12300,0.6362007732570422,-0.11856825454565156,11.030176749634213,31.213057922913197,57.38419358290223,0.9211697528863579,33.638328256272594,-13.797815893474016,40.632413047276636,5,S02
12320,0.6487300428920649,-0.014152401781354636,11.208803444305474,33.443281908552414,50.21747470904452,-3.167729733960985,32.49300789627229,-13.287782976272922,38.84929464903467,5,S02
12340,0.5783752766127184,0.11977805265428815,11.264141983396568,24.149500954967678,39.08232869403206,-11.379077666763544,32.766074346595474,-13.71109734593928,37.59306847405757,5,S02
12360,0.4565861768053938,-0.08285132281745688,11.327504807659519,11.163634139713622,30.22740876042685,-9.573133493006228,31.127657762174756,-13.599029195103467,39.39205803919331,5,S02
12380,0.4037695146385435,-0.11469170504598719,11.18795840980967,8.14160106931288,30.306929786029276,-16.077924607209088,32.40500422133076,-16.34198438506263,38.83909231975345,5,S02
12400,0.26581899207007087,-0.052404277891894425,11.217178186459602,8.846964358404708,11.163150711148944,-11.387631366097647,33.40173588823396,-17.69836887945756,37.95449687599417,5,S02
12420,0.4433094701197662,-0.40236985424310234,11.447673961842643,6.850671816782554,13.805671166707395,-14.174524341363748,34.8401207112761,-15.853950517071144,39.37883580032711,5,S02
12440,0.31864746783291975,-0.5741098411173335,10.931979101970986,-6.303350812420274,12.047726263689981,-21.319417106749803,33.353367395951494,-17.077281245015154,37.89038212113322,5,S02
12460,-0.00043769716222759325,-0.7813331945461877,10.906640868189557,2.597978986000383,3.0812808091531956,-14.668692248305645,32.54499480409068,-20.433224686935976,32.723100050096285,5,S02
12480,0.3666736643797335,-1.0747766767681195,10.571880330768552,-7.713789785339655,-7.766578065967313,-10.043660736980465,32.17358694112579,-19.00506770484745,35.60853784996793,5,S02
12500,0.12406216718981958,-1.3238767109342109,10.460203279356872,-1.4661166177355542,-3.3205132597530564,-7.720856877553528,33.05236033825389,-18.535703027762295,35.79348676929108,5,S02
12520,0.018340048984213653,-1.5112863687714477,10.332680776777217,-4.846481946267604,-7.243658515673444,-10.341283182764181,32.28723891016713,-19.749922106294544,33.45618894626079,5,S02
12540,-0.2162375661419972,-1.744056990516234,10.252839728546595,-11.215898738648832,-9.43505105210997,-2.4139516196475923,32.58949615136654,-17.34320454615625,35.33114371481821,5,S02
12560,-0.12814912704513862,-1.708129486705132,9.966454358208468,-11.603257179633415,-10.57476464932435,-3.6643131337807042,33.358706024960064,-19.23924894222965,33.37781215330866,5,S02
12580,-0.04296344331313409,-1.8086940500201034,9.803187635026253,-18.3453590997434,-24.180530026075704,6.127236307268515,32.610717738457055,-21.60358017806962,33.85214551494202,5,S02
12600,-0.46052855503471224,-1.9710132441506738,9.67165989081606,-24.27747428653451,-32.528887395907155,-2.4132666387442723,32.00130456121915,-21.015068612204796,33.32061542649279,5,S02
12620,-0.3308590557330383,-2.1616550299101878,9.549579877878745,-30.046433845902673,-39.780967809715754,6.449767179653694,29.733607844477994,-19.374735401912208,36.030426643674865,5,S02
12640,-0.5860092513546982,-2.173234951721925,9.422726661456979,-36.08795625016581,-49.49570585981419,6.428564961599467,30.41313725131637,-20.344978393081554,35.560926612837264,5,S02
12660,-0.5552159833304647,-2.0235781025532984,9.267747742970442,-34.52172955348928,-50.394491994291485,12.999191537473326,30.37516639831273,-20.113822807324464,34.931992716932214,5,S02
12680,-0.6042836559626134,-2.151659219152977,9.376212656260098,-40.96109680925954,-62.189465505554594,15.571017482318487,31.983286051195545,-22.548376521840062,36.9589834688975,5,S02
12700,-0.34449895071610925,-1.9763560686653152,9.316602127184654,-38.58863747170507,-57.65670473688198,20.8248071369939,30.988326561999934,-20.927873068975632,36.34752544789509,5,S02
12720,-0.5162349754452419,-1.7677263997558268,9.75892509705356,-37.701017259674934,-48.91760426927303,19.308558260615076,31.40857949069815,-23.403012511614634,35.864614526152934,5,S02
12740,-0.18711730843818117,-1.570209056555429,9.680043338651341,-24.577511315758517,-43.999597966666,20.296491872945293,30.73520208441405,-22.378467611154328,37.292074214541785,5,S02
12760,-0.1498807243947618,-1.5191952811231413,9.634017747896621,-23.0196960319706,-30.689220719628832,15.061400236562664,32.585770950004076,-22.063367294573418,38.18470552616196,5,S02
12780,0.0009750879947809377,-1.034393394049197,9.756940799134913,-13.472453862293339,-11.039366976094511,16.99981838766848,30.271946549362028,-24.230696416448183,39.82568892445124,5,S02
12800,0.2284050936771847,-0.8633718254787961,9.9913468364019,-0.7573247316716016,6.1069602464436965,15.449213483566234,30.858297204882668,-25.749557420683,40.13744130369889,5,S02
12820,0.312422550392509,-0.7320712265158233,10.267052476542231,10.71271576699493,24.46515054063306,14.913998239140648,30.494328484705402,-22.896936949980294,40.79471906137542,5,S02
12840,0.6822273414452334,-0.5300393941245263,10.52208482775384,24.708482492709177,39.99217333531114,10.779438043698633,30.2191463613317,-23.594288283052464,38.531397614832755,5,S02
12860,0.8268630119145638,-0.32933179069538965,10.896202887753724,27.93209579360939,51.378559798360754,4.413206668040316,29.765468757524744,-22.2202526351693,41.08070796618393,5,S02
12880,0.851413447392845,-0.14534336163043507,10.916627926252042,31.694666268688653,55.9124084031047,4.712021419585438,30.55824245159257,-22.209446161173215,41.21018062084156,5,S02
12900,0.7334216798080924,-0.16073002195499708,11.0236978460244,26.20448811050647,48.960020890117946,2.6527808364132714,30.097729485324674,-23.973640641018207,41.18757881894368,5,S02
12920,0.7004881310441485,-0.018403458064423374,11.194075295190173,23.521295015784833,50.06875054767026,-0.3750065178187959,31.80415648571305,-23.05053308979707,40.40897386760472,5,S02
12940,0.8261633629907232,0.04327643594251615,11.223367089161423,27.0354631783473,42.247887874752045,-10.362652895851534,30.5348442303552,-23.857695543117696,38.67903613753523,5,S02
12960,0.5163120533230594,-0.07763877065053386,11.313822673671003,22.113431404896552,36.90227856560243,-6.625190097388583,29.346897755113094,-24.03843931422925,39.33174067119919,5,S02
12980,0.482968919380812,-0.1604898697397112,11.284535645901002,20.393879908824335,23.61196095089067,-10.702643302927374,28.595105626274897,-21.643207135056393,39.98230441173956,5,S02
13000,0.4658102746083266,-0.1281432556047816,11.342955767344964,8.889775744410294,21.969169447306392,-12.967497293593686,28.6118705849638,-24.123355045141075,39.27639523670226,5,S02
13020,0.31787649043087596,-0.26978820075597076,11.192377726478794,-0.8894291298445838,13.906749491505686,-12.549590800527787,26.37316781613022,-24.67144644752784,37.748405973699974,5,S02
13040,0.1532177764127556,-0.4289071885151241,11.263646326589916,6.259218086574886,5.012772086500775,-21.935704872185944,29.454152706158155,-22.726932376520622,35.785694067877394,5,S02
13060,0.24339524701733437,-0.6610433715371458,10.969583805932091,-2.8549207984363068,8.394915156328892,-18.72758044757465,27.206272470062405,-24.00081706788739,36.61625597584832,5,S02
13080,0.18662717301204207,-0.9356812504994125,10.742323910674724,-7.888897488688396,-2.408132612226132,-18.007578941109777,27.169480610749048,-23.16867581395533,35.05623040716779,5,S02
13100,0.07181666081843421,-1.0521147516599567,10.579365689153573,-7.091532643406525,5.665331790543562,-15.303203230033816,27.35367327220621,-24.587164072498126,33.59712908761435,5,S02
