timestamp,ax,ay,az,gx,gy,gz,mx,my,mz,label,subject_id
0,0.2528052669383572,1.4321460682094966,10.033827673049418,-7.400836770832535,5.1720717307968735,17.204533880598724,30.78712933792262,-12.180749843516482,38.13668483695276,4,S02
20,0.5408863196996526,1.726327590201103,10.25270644005437,6.618761592734246,11.201466617366567,10.158133801824194,30.16479915973179,-12.122184203691653,38.87662059550237,4,S02
40,0.46222989756015964,1.8737789479058378,10.646327424820825,12.054397374487362,20.561221438285383,12.894894926647183,28.833447811511444,-13.14163634786155,38.91138798831231,4,S02
60,0.6675900464600565,2.0746624483312837,10.786693053113297,15.132733256190281,32.02054697269823,10.978652511206574,30.93551009339256,-12.176959049696112,39.50725986815514,4,S02
80,0.6533451857225058,2.2953454815887495,11.076808738400201,24.90241784969022,40.73928687559601,11.271572413979557,29.766043287976522,-11.839974238020979,41.312862176532285,4,S02
100,0.7727799690341248,2.337842594114487,11.114455475890791,25.57847868528447,53.92576601692472,3.7165480091350704,32.234007674088616,-13.663013398607903,40.18380049105682,4,S02
120,0.5024657601369867,2.3233547567424035,11.479444516220163,23.565000001226945,48.16193010575053,-5.643040103335746,33.391690450462676,-11.938297877270923,43.361277810209,4,S02
140,0.5269840695643498,2.4736392101596523,11.495591420470355,26.98042742362821,45.03737743482007,-0.9672241072382298,31.206640728824226,-13.906423052742843,41.135043476179035,4,S02
160,0.584302836363828,2.649570873711146,11.593014600570244,25.380884846189605,40.034163230464316,-5.898418465385908,30.293073922726727,-14.723240177078575,40.7820055143172,4,S02
180,0.6312432991526168,2.5227088356209197,11.583791212737522,14.599943190581758,38.820565796547626,-9.457039467841561,31.93634050747254,-13.894557026259116,39.93174734710647,4,S02
200,0.3803211624642546,2.4187493585011075,11.36275338891112,12.669381543896073,34.70430356159022,-15.219850930545011,31.061051899330838,-14.723050621169108,40.390871169714934,4,S02
220,0.3861509556169319,2.2874348676157146,11.391145881821176,10.76555293820988,25.155680606857,-13.24233811864602,30.81525435545597,-15.079577963991332,38.6226716061041,4,S02
240,-0.07588195324778574,2.3964287600178076,11.154154768234545,3.742882861790636,16.060728821081767,-11.358237236148844,31.864772283434526,-15.995389223242354,38.44483994386833,4,S02
260,0.2533039416109164,2.1066973394317094,11.038264948101723,3.1242956583101993,4.973183263646168,-17.56935432683901,32.20119758653479,-14.176339425193525,41.7099835935454,4,S02
280,0.06840066195081507,1.780589332368973,10.796944152898691,-4.898219023388566,10.771434870216286,-16.763021128372067,32.68815249424873,-14.924225038984414,36.245856094250854,4,S02
300,0.11079117138481102,1.5883172885927486,10.557559193444131,-3.6046762005974764,1.4227925528846332,-12.217485644142013,30.649597044691646,-17.710640449495017,35.04610527467531,4,S02
320,0.0891538794725695,1.4038586345370556,10.289500941288294,-6.6858725246323605,-2.86650681939365,-12.264700976553957,33.45613304499658,-16.84996489999785,37.30126560662834,4,S02
340,0.03850999938041266,1.1512820767426537,10.23859425094586,-2.4785494131551755,-4.251529792865552,-14.152507066596359,33.66920651410338,-16.379237802085203,35.842927472071935,4,S02
360,0.05600658263658409,1.2827323102192547,9.99974471636005,-11.33683794293348,-5.073269897516479,-15.28053818233752,33.86151635272607,-16.821814313691544,32.689804314134975,4,S02
380,0.09683004275215008,0.8353819647885097,9.728807310224761,-9.01694132717855,-9.684067541170139,-10.39306437814261,35.12406169986685,-16.93806040851529,33.09181097220833,4,S02
400,0.08243017528292247,0.5273592207927269,9.334286613986084,-6.165052504560101,-23.266810737199343,-11.161773931956976,31.7752358791422,-17.559604315158154,33.22533441068167,4,S02
420,-0.04839632426386123,0.43362291241226963,9.309764816424174,-10.874385862628014,-23.360187974792883,-0.9716248509742639,32.351715214881644,-16.97918362092471,32.17335866215562,4,S02
440,-0.16918840221960776,0.25124447530103167,9.160713254903937,-19.11734332053347,-27.45705986017031,-0.8904965948215983,34.56074786479142,-19.87535893116336,32.40179521989765,4,S02
460,-0.5314870532993404,0.0553985440119919,8.900594564159793,-19.76544056748049,-39.731589198071674,4.150285155666711,30.748304533431916,-19.093701754579612,34.23020224719997,4,S02
480,-0.3909790788152835,0.2496801227802541,8.99390389373841,-30.283567283789676,-46.39398403597837,5.110837892592816,32.2124917318842,-20.813075473629926,33.75989718885652,4,S02
500,-0.4651092822241062,0.1190450450753589,8.856094271260622,-35.06083253867034,-54.60622959063516,7.3305246310643515,32.22184298839867,-19.625718849938124,32.95940768238043,4,S02
520,-0.47519339974106856,0.20508343579693522,9.061622783304792,-37.675949182733966,-54.7613454568805,10.766649343345339,32.50681195068846,-19.964608821985987,34.12786677530021,4,S02
540,-0.4065633400042513,0.5497002942629725,9.063889307604226,-33.79002124554017,-62.02044907867196,16.276064847231925,31.976575961796577,-21.330087018927742,36.47028856053972,4,S02
560,-0.37300326279384577,0.48337835467330853,9.087562426258529,-33.815073610756734,-49.11954754315508,10.328357883630146,32.89645627409426,-21.76961784469249,37.89613950648061,4,S02
580,-0.27560713741229326,0.6050982775735674,9.160178476817697,-30.425820886917197,-43.76839952539324,10.259260903797133,33.039289234985525,-20.235404258683452,34.351816240107176,4,S02
600,-0.30877279529034063,0.8392836864190287,9.22815640124592,-22.411752304447912,-27.760214669462638,16.57521706493548,31.752153994468948,-20.61386723524224,35.82398983728197,4,S02
620,-0.10124302686364736,1.1556511519498531,9.713786772939468,-7.356335761070425,-17.177785037881034,15.57666815263687,31.968067855054088,-20.827667056372313,38.73686494366402,4,S02
640,0.013582602160256474,1.3264781926009792,9.96879405967361,-8.770105099320379,-19.048517629574192,12.760643755498672,32.38599382099724,-22.910292473761466,38.9634977766272,4,S02
660,0.29834153105143635,1.5974012814719998,10.178478844654052,3.914229337685758,6.790908055406284,12.477234263464451,33.403828650609725,-23.840707055133784,39.05617042166158,4,S02
680,0.3895521518648596,1.8627417931484969,10.394552238344213,17.61513335243183,18.384751898501154,9.457426251445428,31.21528429031721,-23.216134236134963,36.88492367550963,4,S02
700,0.6503546037217434,1.8552775969665354,10.640053845592913,26.312368273560683,31.269387411983008,6.174993416617233,31.421359428571495,-24.879917534896688,39.79966891940663,4,S02
720,0.5291011934820194,2.3329961148278566,10.724288390464094,26.6939251348585,37.11382239821167,6.931769852961498,30.58485742874185,-24.304626826256865,40.42133092629891,4,S02
740,0.5072540741309669,2.204063228889164,11.273676725726553,24.27477690996302,43.255085213775736,5.060046765531093,30.237179176444833,-22.664254153033205,41.425379777619845,4,S02
760,0.839974414282369,2.4408443454906488,11.481572729324311,30.402910185567553,51.045233441953464,-1.6317302097287816,30.180249193025702,-20.934844081583712,43.301243592631316,4,S02
780,0.5318080392710846,2.582382462844751,11.52012656164261,20.46521427453165,50.02303609716537,1.1438684151793015,29.785000921076055,-23.412584714878594,42.465358594784256,4,S02
800,0.8676958975458601,2.441325182101102,11.598966464149843,21.783533147870184,48.01951158121642,-1.3948293664187172,30.142418762951092,-23.112212064701268,40.69221360669514,4,S02
820,0.41897580418147495,2.4667174453114105,11.618993438099386,18.374482050643078,40.71476848703837,-8.453054957819337,30.275887234248092,-25.863981170012334,41.75550981792294,4,S02
840,0.5492042155422847,2.606803406270371,11.737061740096848,15.162350770978982,34.65156232297075,-8.388488628527675,29.61912287665921,-23.943491943086872,39.658263698207854,4,S02
860,0.3102010427305092,2.520374857163602,11.464981430531497,9.0139476252834,24.936934451120425,-11.742806020571567,31.24920041348328,-25.399289742277038,39.66419052798017,4,S02
880,0.35215574227960744,2.2505299691489133,11.455802381686741,5.799180511646807,17.722537640249456,-13.676504371313523,29.040997844542076,-22.65327974589107,37.1853369155572,4,S02
900,0.2025132481893594,2.2292130341646885,11.1593497405745,-2.1873076898502655,20.70782169403845,-13.692364750254512,27.874760028632785,-23.086933023490072,38.08214746376017,4,S02
920,-0.02229746967687482,1.8924220140652837,11.056993465053761,-2.3473704520479606,5.431417999453814,-16.341253751685077,29.197256514838365,-23.784862657036445,37.15911765575495,4,S02
940,0.1316598272269358,1.8024546921444566,10.729736746850898,0.03856960728179448,4.666883528896029,-15.753559701858938,28.514574316329767,-25.791875870414216,36.332553098499595,4,S02
960,0.09144943329709121,1.5757556225926368,10.601600551722752,-11.362335043485558,-2.4093203280012583,-7.829554932911886,29.045407915360435,-23.299368640534965,35.51327303608144,4,S02
980,0.10811928689778855,1.36981584768635,10.202440302217493,-10.159465225612141,4.787608085879143,-11.38321020408013,28.46451602459382,-23.95090835758772,36.04032043687887,4,S02
1000,0.14498970806104106,0.9750891492438496,9.97925026089592,-11.296573500788249,-5.423328970872801,-7.019578115672403,28.25906063421344,-24.478864721161568,34.353356764204015,4,S02
1020,0.11213570374925591,1.1046530699206405,9.713131673017804,-3.82564072926915,-10.55244728649255,-13.011541722416462,28.29516768159663,-23.75689812738494,36.18254466068665,4,S02
1040,-0.04940241927588723,0.762709237436521,9.594024673050889,-2.004942200840463,-9.303742046617673,-3.4409339028310604,29.476422351050427,-23.56009156922508,33.03896638980312,4,S02
1060,-0.12947327399631373,0.49264353312217096,9.357321374852738,-12.366240450408466,-16.269429156796193,-9.786650901751994,27.78097646969403,-24.76396908391386,32.8130714558563,4,S02
1080,-0.0831997072538454,0.23823894640720694,9.171866560500412,-10.897604376324413,-25.32053579146782,-5.381812127049921,30.180712423939177,-23.727951164941334,33.18661150193133,4,S02
1100,-0.25651372539616035,0.1979506169549523,8.998731957090317,-17.827594973102993,-32.80797946037635,-8.037673664455074,27.1753940493599,-23.086004395169237,32.974783935787016,4,S02
1120,-0.3760309697280666,0.19237544850065996,9.057199730936267,-22.457097942727835,-39.13711029971338,-1.790334597143461,28.027356561003074,-21.87891216785847,32.99272912876535,4,S02
1140,-0.3808382239660645,0.3328147062007508,8.841568443213715,-28.076806918142736,-50.01011788194518,8.710971119895916,27.63376035385419,-23.94173760871191,35.21158682169309,4,S02
1160,-0.5210486376925977,0.2876852754593147,9.23797454785844,-33.31244081567916,-58.06836778152619,13.669584722300032,27.52743014631432,-23.593881142792956,35.41587350222044,4,S02
1180,-0.4157640080335171,0.27304694037031035,8.890220360571618,-39.01938406299107,-55.07238952711073,11.918938650327355,26.92593165541021,-21.452105363209554,37.528021566355065,4,S02
1200,-0.5400796367526645,0.3670015464984921,9.106319898254684,-26.36806307144171,-54.72336934382276,15.47418561158752,25.569963827787628,-21.245594210620517,34.54419336304115,4,S02
1220,-0.5700321392720772,0.6360285329172932,9.211083110653433,-28.61801096459788,-47.98081764183711,7.601777752233933,26.180056865297914,-22.765261659788802,35.03174248870868,4,S02
1240,-0.41733227200858103,0.7529336908395656,9.532741378379123,-29.078560693778698,-39.331099036409015,7.914529769822203,25.678312829138257,-20.623125939596548,36.52917326213766,4,S02
1260,-0.32070073398858634,1.0733937656180212,9.545248676650859,-21.696670783240183,-31.29031117410704,9.956238598607305,25.712591598132335,-23.859462349449835,34.89935560270406,4,S02
1280,-0.15947980750813653,1.332920681799422,9.643529228490596,-15.90089302521481,-10.349172890173994,12.741904409925398,27.417513352946585,-19.55010444428222,35.693070946150435,4,S02
1300,0.18633971653377462,1.5684042503636089,9.928754669482752,-1.3235047245883225,6.969584276203974,10.530172424606901,25.516357073225404,-19.74264266079917,38.96566703578748,4,S02
1320,0.2580050354364081,1.5604749918610943,10.221976506526369,2.130648583915338,14.800279653494115,15.073273667462063,24.350013801009375,-19.262903685776095,40.7454267365118,4,S02
1340,0.6211112490762032,1.8149865732975277,10.529584907834229,9.116951727947576,27.734576112616264,7.0298261819841805,25.263645867012606,-21.03410012389825,39.48670690598334,4,S02
1360,0.7270519164427157,2.0822637649377276,10.705175679684515,19.375308286665586,34.89645134288846,12.473256043747876,23.60125293348677,-19.24536311964127,37.74693679514048,4,S02
1380,0.6957960063292922,2.291582544798074,11.227908084463467,19.2899988198611,42.68662146686204,8.949767003589532,26.694042137016854,-19.766054508100286,42.452034183307255,4,S02
1400,0.6438150679422556,2.3554374377593,11.34364155390304,29.639371530507763,50.49148469080654,4.351006389870307,24.280583924948985,-18.47418266661412,40.88102038949607,4,S02
1420,0.5724910043463005,2.550490791974411,11.357544944631586,32.8856807789178,54.917150226077695,-1.9409106962274119,26.338020684991385,-17.06514110523755,40.91002723857129,4,S02
1440,0.7852628413394402,2.45084709479692,11.496775059573938,20.00123310393785,51.105505439997735,-4.0842841558016065,26.524754640523145,-16.590160049084226,42.26822971859361,4,S02
1460,0.5570004947195815,2.568579506213783,11.51303852892446,20.09612656679937,42.47949137193433,-8.912246653256311,24.06728278312461,-18.97044189644624,38.722424563098016,4,S02
1480,0.8888673319242176,2.441870457279525,11.589547396123438,11.638911070522894,29.086496622784342,-10.424623454377581,23.719434466555562,-14.942547101143143,41.7186101957945,4,S02
1500,0.3027890251893343,2.5806718888300266,11.669252823500532,11.054919069883102,29.840577030511223,-16.346234875769966,26.086031934489107,-16.479567020265545,39.77075668132246,4,S02
1520,0.41277167627592437,2.436835445408979,11.389499308951157,5.048191233154371,25.369954046676064,-11.71600747920931,25.291135952911958,-16.058727985640896,37.57372262854913,4,S02
1540,0.22581861230543912,2.152542908285484,11.284095990511199,6.39410756299356,13.13518536464883,-7.502611797725624,26.1285018650523,-16.455499515030702,39.7574357515863,4,S02
1560,0.13852398918434683,2.097944787894873,11.263761093655232,4.2887660552923785,14.867003347672036,-19.728996509097126,25.435753251477223,-13.365346248541595,37.87357488556796,4,S02
1580,0.09492292325901805,1.862283427196145,10.793109788096606,-5.077285926534282,3.501129921223484,-18.075292271661652,23.71657893805128,-13.88930139960392,37.53030778544269,4,S02
1600,0.10077903726264877,1.6408144939685643,10.457292963521226,-1.9313280295905257,-0.30654776074914847,-16.764656809822654,26.239873147767412,-14.714935784142206,37.35426552429264,4,S02
1620,-0.0007088830317201755,1.362107612296626,10.254905590224464,-3.53796608533134,-3.1351009351494934,-9.11662905059907,27.778869028836727,-14.934694057648777,37.328226294238114,4,S02
1640,0.0060679279739317415,1.1627398673939706,10.115792423432104,-8.80091972253599,0.1598983115535646,-14.200949638868982,28.350571477423266,-14.686067112641542,34.392559658743764,4,S02
1660,0.03383844652777013,0.8999499247216429,9.839915580223156,-10.32598956490039,-8.946060155102954,-13.693063804374804,26.07292489638754,-14.594740368843802,37.10409315807831,4,S02
1680,0.03626891580219731,0.8348839363228295,9.56836185621842,-7.319191351192208,-10.107721216926768,-3.9806533358923892,24.651743822594156,-15.043055307954697,34.20056192405275,4,S02
1700,0.0028822096021600824,0.6639227143173869,9.076632761387906,-12.078166073134447,-12.403418388156068,-4.521897234836149,26.103101658486242,-13.249023390009377,34.60468448932173,4,S02
1720,-0.20761769998573779,0.4549493488635193,9.288875402985436,-7.880510316929496,-20.973600874492387,-1.8034206876798278,24.833755165054235,-12.285126308419922,32.72076042135376,4,S02
1740,-0.19237965992367392,0.5288113904426484,9.123787578498058,-25.071062921734818,-34.99975050388791,-0.39555486740331935,26.139667841616664,-11.780695217557533,32.42182233061756,4,S02
1760,-0.44308922870445366,0.13237128148885616,9.030458059506856,-31.77928342082235,-42.582184006965825,8.684167518422571,26.78542281643303,-13.206781570461867,33.510130446895545,4,S02
1780,-0.38203233705156914,0.32252614509008065,8.809828947679064,-26.971922692848104,-44.92970433253166,8.09831472847231,25.910186108075457,-12.989902117823569,33.31186200151663,4,S02
1800,-0.5167629524365905,0.15281873541595406,8.938097420417368,-27.899169392239155,-57.715296789079204,10.485053474571114,26.764422608139853,-11.311362682785395,32.42355787007939,4,S02
1820,-0.4317464468163923,0.17418423464012955,8.880062521863872,-30.323201520426554,-51.16710901127782,8.70179153051266,26.726715927428017,-12.87691594700437,35.544261737245,4,S02
1840,-0.3894529611973243,0.4145959634518531,9.029408970971618,-34.55930537247363,-53.19883408453738,11.952924165371522,26.465414223819216,-11.508764415856861,35.7343662934842,4,S02
1860,-0.39770630016599273,0.4859074738281897,9.139659973049806,-34.22728236043502,-46.47280154077528,19.410374658501663,27.21315317398779,-12.663513525964243,35.70345875715582,4,S02
1880,-0.32904583475324656,0.7186373220947007,9.063481472911226,-31.713416292996815,-37.62102122971483,13.544273067660178,28.069507024621903,-12.928852914671948,36.66425835082708,4,S02
1900,-0.3058267438168416,0.8849045046266741,9.401970315532676,-22.395529838438076,-26.777259095171228,16.836620256663643,27.835637520059556,-10.84696875195589,37.122881328224494,4,S02
1920,-0.17945575830164148,1.0954709401583664,9.738284015429349,-20.289498350210074,-20.88738956489543,13.628546517648509,26.062648168735166,-11.803763366672058,37.90804425935465,4,S02
1940,0.04962779478996077,1.3048897507980057,9.783384673906689,-9.388573190903273,-5.991139399854494,15.753166043827047,27.951454045639768,-11.36555522846336,36.69222282087518,4,S02
1960,0.24238805391763066,1.7500938184232575,10.250628598134874,1.337895533485299,12.806538289185989,20.146125872264395,28.37779428442787,-10.702426690208505,38.32082636273502,4,S02
1980,0.5224759599395198,1.911089133889325,10.396237767113718,15.178331671463745,26.81878717904426,7.615167314639412,27.93529332900354,-11.172248732409336,41.12801355947271,4,S02
2000,0.7364632378361703,2.0816882812555084,10.572119669372162,8.675953597834642,36.843804111546866,8.905401241982256,29.301488917474433,-10.941499840624418,40.77606055282135,4,S02
2020,0.4720674425798923,2.059677109515806,10.849177037756672,22.76543183392471,42.5922756334869,4.846922853291546,28.04087948080877,-11.394868448984067,41.93980083143393,4,S02
2040,0.7697782811767324,2.396207935971235,11.263579772068333,26.03358582593477,48.56404212888985,3.982239459869306,29.16994583370201,-12.298038557614554,40.96385222850286,4,S02
2060,0.5239904391021735,2.4559431832557,11.385303557002686,21.11860906158014,47.69505951658647,-0.09852071260454798,29.52495994052058,-11.250961619842009,41.75091648781115,4,S02
2080,0.7373226978550622,2.448980890639633,11.366292529502077,22.33790713815654,47.699545907695516,-5.077450847740407,29.052480665273404,-11.537274146807881,41.198075682880116,4,S02
2100,0.6216722057385063,2.603642180270637,11.606280254227276,14.200296765453057,45.0358515462881,-5.835014526518123,30.005033607603075,-12.005725092496684,42.370867005537775,4,S02
2120,0.5578412446257021,2.5490571883801723,11.613927922730191,18.838163974239702,34.88824018677891,-9.532715128249672,28.650992685813875,-10.741164896213991,41.45797977608815,4,S02
2140,0.44943079159431154,2.496351847946254,11.62704591348449,12.147903144544312,34.224336193795466,-13.310357440450902,30.373005904892768,-12.753081560893428,41.54029233865178,4,S02
2160,0.3420332585506707,2.4297660412911872,11.484388028242149,12.019633760474242,24.58723020931767,-9.07132313697696,31.25785093225411,-13.683011836643775,40.33054878101152,4,S02
2180,0.2703173882945039,2.218004263541092,11.17589150898874,9.924825462824987,16.52771808827183,-14.321158964446948,29.975757539269832,-11.515691002848786,40.31648936231102,4,S02
2200,0.2611836773396592,2.1457495159316267,10.996695436754047,6.305315582057797,11.207081552681176,-12.37730718750007,30.204410085629764,-8.712282379335388,39.3952664726479,4,S02
2220,0.1628824615782681,1.9733120147548708,10.957249349644613,4.614379135922538,2.4649375783256575,-15.470802252963777,30.37088308752601,-12.106733161332185,38.48597286000432,4,S02
2240,0.2500493259674105,1.6422020817798701,10.80209004764723,1.9097090044048581,7.638879179160443,-15.019637261457843,31.11807245750102,-12.302262042292549,36.40521360303554,4,S02
2260,-0.006845013908579986,1.4141232388574008,10.49336848386302,-5.919462424796883,-7.366407264199271,-12.534150340746558,30.02819580965102,-11.948843465933361,36.72517585280166,4,S02
2280,0.129686548523604,1.2277484051683925,10.133884201174373,0.43191163395673815,-2.2044013336072608,-9.951070554539706,30.64645218537629,-13.109467182068627,35.39418092973827,4,S02
2300,0.21466268452778625,1.1769960987774697,10.009381883825961,-4.2714380706964015,-10.475651637088855,-8.399067578645258,30.518646015193458,-14.861961663015114,33.64027722001708,4,S02
2320,-0.17555943244381458,0.8113590124939767,9.691148883038396,-7.028079678973989,-12.99763095617343,-2.834279149863893,31.424120200383836,-15.512309278635378,32.60745599547603,4,S02
2340,0.012550302893638426,0.6915749963060609,9.434107988653341,-6.88058842243266,-15.967153544559247,-1.949485181126391,31.9908600441547,-13.461243301132264,35.731886147352924,4,S02
2360,-0.13773172969329212,0.22471991130784147,9.399368966694608,-13.959324039847413,-29.893732868906763,-4.228604772340537,31.35010687135465,-13.510880841095975,33.04178816617528,4,S02
2380,-0.25109650877556133,0.2358239456585579,9.017724101947794,-16.961267595568543,-20.934909078025495,2.589338533301577,33.492419725642385,-15.173988484979725,34.24300469449548,4,S02
2400,-0.2855774412935883,0.2793812515552383,9.065993129416302,-22.015333634040925,-43.81192764804597,-0.46310722010386185,33.5070605213688,-15.383056110506661,33.201234080904,4,S02
2420,-0.49647931399333267,0.19131224033184518,8.757777214852444,-30.795091480959705,-40.63996828479221,3.8888904177464263,32.0943644367319,-16.450986509595275,34.12756518437303,4,S02
2440,-0.36384960757698537,0.29833331026021903,8.970661488390569,-25.667757926464613,-47.45041651100116,6.439724433245759,31.366081124196914,-15.324765990696667,34.735318384825995,4,S02
2460,-0.4785197403348157,0.14542835892387362,9.14212187952606,-30.44986367939384,-58.067624969045845,6.628928116699804,33.703096481519225,-17.263820629222792,33.877146125294075,4,S02
2480,-0.4670967199575006,0.4559145304896212,8.949612449496348,-36.01924191500569,-55.558321455191226,17.748173289469953,32.58493428296252,-15.850182475078594,34.62826523017412,4,S02
2500,-0.4160279785067357,0.49752947893323424,8.973475192876293,-25.706150072358692,-53.577025402233645,19.477590004874077,31.5990471698708,-16.072082248367664,34.72144940046849,4,S02
2520,-0.5950800788489699,0.6051406190608293,9.316453209631678,-34.44894740626857,-46.61839367029522,5.312833059740836,32.87516417541735,-15.387834719556238,37.07673398007693,4,S02
2540,-0.22105997349125286,0.5305938878877607,9.49977527696763,-22.951369086388006,-39.447884866930984,16.95367964672474,31.34669950752239,-17.694164982722263,36.159597550306785,4,S02
2560,-0.09290364573679788,1.0336779109548673,9.579118432043517,-20.740248010659176,-24.923140902227505,15.364740436683167,33.74723409063698,-16.789436153947833,38.20479637158762,4,S02
2580,0.005527443991480391,1.1652039604956153,9.846725182611204,-7.906649051770842,-7.543229281974289,16.898902670659904,32.41730094604129,-19.428980118608784,37.20471332762918,4,S02
2600,0.22067507378371787,1.4079149792036676,10.155709500316842,2.722056816526578,0.7815695810407999,12.260333075017781,32.58716679868195,-17.603795175631923,38.48452281159151,4,S02
2620,0.5043173576456984,1.6997646066910126,10.258556201043548,9.872690773459084,13.15610971503772,9.3878145214569,32.72509066866548,-20.35949717606439,40.555177069532185,4,S02
2640,0.29821146281407307,1.8576415813104155,10.647327479843923,11.936328652068955,30.833358247265576,12.455566181460956,34.274965890598864,-20.439200815110734,39.95956950297738,4,S02
2660,0.6470848249359341,2.12410405742863,10.705606246110532,19.029868422704965,40.43006565403813,14.2030140420987,32.69973830677047,-17.79857734290366,40.30476872831789,4,S02
2680,0.5826571063739475,2.1827871813446134,11.096860691028406,32.14176378038324,45.66599442018327,3.2755274689845604,33.163628761037515,-19.335888425474927,41.40326737794584,4,S02
2700,0.7402676953420191,2.4073376336355934,11.23745695466347,26.65034656587058,56.44591446791256,4.039751867767171,33.44977075875232,-19.72264070674787,42.20596398754303,4,S02
2720,0.7433805252389523,2.5267218693995193,11.528759205970442,25.105855287504777,51.27368647935526,0.003239300466003403,33.32228931887967,-20.433910545621536,40.73432826702099,4,S02
2740,0.6605256221362734,2.5167595073155176,11.694967568590636,23.78643345526237,47.19435432786181,-3.835158633353195,30.887832349771163,-22.27569265294629,40.619955541347316,4,S02
2760,0.5293554170696739,2.6760851213657006,11.613755791741198,25.792466392752743,39.79163433109174,-2.7452989065483626,32.384280913235145,-21.23207051001058,40.816914007950786,4,S02
2780,0.5648982123106773,2.536218803955213,11.63318061242748,18.165375812717805,31.70941235082405,-10.151864032181946,31.661938594170184,-21.851383985349678,39.58982447934948,4,S02
2800,0.33709906541944207,2.684554667369016,11.505915307517663,12.588858006893815,25.398140819327327,-12.81643836638158,31.48254892060028,-20.894450271425832,41.582098971928076,4,S02
2820,0.23883081511937895,2.255057626097271,11.45741753345904,3.141799801031336,20.087406446587043,-15.316913936720159,31.75725534589154,-21.800636406884287,38.6962634558305,4,S02
2840,0.1442436936602802,2.1651540393175495,11.184951099879006,1.9494292628942054,13.69840583648887,-15.872944698094619,30.849212176952655,-21.89515983778579,38.756802014666114,4,S02
2860,0.16436347390861838,1.98775821651449,11.11274922015734,-1.2658631253766766,8.680501561406427,-11.011791113005332,32.53921951240757,-20.802518573322015,37.59342670327033,4,S02
2880,0.04969169202590405,1.8797130717734483,10.744707588214991,-1.776904681854202,8.411736042355866,-11.937770658411594,31.978508610569044,-23.14516622793646,36.708187345539,4,S02
2900,-0.0345365036270712,1.5894581097670049,10.681440482681547,-7.985010937360103,2.567632544457055,-13.739062734543833,32.61007086272622,-24.225114204055586,36.783934238094915,4,S02
2920,0.0699756864780359,1.3397632410877687,10.391825849653626,-5.873060817990847,-5.314230735410588,-11.783136079659675,29.479909713556623,-24.20142394523469,34.57930852432851,4,S02
2940,0.0534554691714631,1.2042288665426624,10.091967434645401,-6.24117872377182,-6.8619233392657994,-16.10118209870007,31.556167095908126,-23.951663142413363,35.195910323389896,4,S02
2960,0.12846188678046333,0.9043129817054172,9.963662487964568,-2.2388482263150156,-7.5202623079661794,-4.62785044165771,28.042404100014668,-22.904965576145035,35.05029717439872,4,S02
2980,0.12093630394211402,0.5904854983342827,9.729190947665742,-10.966298775853588,-10.65024018168514,-8.147229910578913,31.450133613552605,-24.006681957432807,34.524793314591776,4,S02
3000,-0.04044656603694044,0.6092964272154975,9.396950093618374,-13.464272025038536,-16.885578680009782,-5.870255475603267,28.192914304236293,-22.70053300285751,32.557305357977214,4,S02
3020,-0.07074270050178974,0.4679591184472474,9.263380500244937,-14.602771884398763,-20.740617432311545,-2.2940032568662216,30.46367604225319,-24.165164732724,34.8553722097875,4,S02
3040,-0.2660040842226691,0.34649229997236447,9.214830666767504,-13.589308217164547,-35.173018579196814,-1.8978423508254942,28.76143772904496,-26.105546712669526,34.90960572622579,4,S02
3060,-0.27140730358118736,0.053379972363221506,8.863779058608992,-22.32957486605686,-39.45546961797197,5.743319573543019,29.599158735131653,-22.74359344010984,32.36448628255917,4,S02
3080,-0.501641024978626,0.20620081826107262,8.946951637850693,-28.06950103970892,-44.33639638849244,2.428297781186142,29.723912894819627,-24.071929468111303,33.592715118226835,4,S02
3100,-0.2541852830948883,0.20487362915360868,8.657285501771225,-30.244771516485326,-45.22382247588173,6.33282668255692,29.176387319877918,-24.0755530174244,34.096683312332665,4,S02
3120,-0.48697956427392963,0.2567614442439112,8.885738123283199,-28.27409836647821,-52.45037157849666,10.551393402787587,30.103960042628728,-24.482216967903724,34.7289791208665,4,S02
3140,-0.32260081258231765,0.4431078948653568,9.04713101824942,-39.08029468259473,-46.14024476469685,15.502506046675633,28.53882465674379,-22.647278227317923,35.54266916507263,4,S02
3160,-0.47368431722948645,0.5191550550416173,9.136143284210254,-32.6652239719329,-44.59860572695672,13.052540935352152,28.002231363599833,-26.128309649991856,36.87617668543343,4,S02
3180,-0.43449496444028646,0.6899849727815108,9.347921181274714,-37.06476466911322,-40.3235961987344,14.81152540554501,29.410147909621106,-22.455987691168062,36.37910675513301,4,S02
3200,-0.25936921421568615,0.8688226534462318,9.56284869362568,-26.26166566279402,-26.28452816460581,14.87661604473927,27.88960693414555,-23.007793405554853,37.07977713400188,4,S02
3220,0.026751795991187682,1.2012864877081288,9.757721544928112,-14.518561180540932,-13.860723543632211,15.069309321017688,28.207507549161,-23.272016828939442,38.09730255103197,4,S02
3240,0.05723936258478058,1.1977983991356556,9.861094823148745,-7.249774497110587,-0.10523494163208302,20.004587072661277,27.066245600179624,-22.26626905911895,38.38027895377466,4,S02
3260,0.1953482269061349,1.517822424668039,10.126240557276935,3.8346336752502266,14.43421298467368,13.96788109700043,27.39836509200133,-23.160209478301326,39.15351960715095,4,S02
3280,0.4626373979797077,1.7518294717877083,10.328897059353894,10.855447641738326,24.206617622164742,7.558377412147364,27.071737781302375,-21.69767428454094,39.68292229280392,4,S02
3300,0.6877499134303213,1.8235897572506563,10.799149750367594,25.93054078744688,42.389813916698344,5.4225918804721704,26.98301923582906,-21.658351864546574,39.65807982581852,4,S02
3320,0.6446794373656725,2.3083987328471425,11.148787292802352,14.910202063512255,43.46206891194205,4.270514973489372,27.98682823598685,-23.677630486204613,41.08736232318127,4,S02
3340,0.7144338069095035,2.5260704547994606,11.156507112354934,21.431452530114896,49.2482341200659,1.2000964807345915,28.00744395319742,-22.625285695307465,41.60317642123693,4,S02
3360,0.7899265827411117,2.4948148451303123,11.340404652546683,23.547221682931056,46.682066911843336,-5.951430013319225,25.709484964094123,-21.116086325233525,41.598374220887955,4,S02
3380,0.7017389475482176,2.5858374957037378,11.42145661010368,27.322982255977767,46.17759287627455,3.3190267279155643,24.996333002360103,-23.323785299736315,38.560737918066536,4,S02
3400,0.5947101742003069,2.560376655875095,11.594327932817894,20.82489410450828,43.07871278995301,2.5865646941526754,26.63482586870151,-22.883691563678028,40.62610802277267,4,S02
3420,0.6002375736597505,2.588126567952932,11.79376997139988,14.06787748456222,44.133034959842206,-9.415195355757719,26.87186953649139,-21.133883749823326,40.29734562859991,4,S02
3440,0.5078540706164982,2.5113525567507975,11.464683177256326,11.664881908091775,26.480868191054086,-7.23350862981854,24.409225332970678,-21.106147665459787,41.22376937031851,4,S02
3460,0.1931992973650105,2.3121499910707435,11.49538806890163,5.585943124048735,27.30789763507451,-14.825743492036356,26.838025464502085,-21.395173133908138,38.284727943097444,4,S02
3480,0.32149117825818163,2.2662409073367566,11.197560560338,0.74239893557088,22.535448287611523,-8.902228828948234,24.565764573208522,-19.809902963256423,38.01351813006683,4,S02
3500,0.32578176824043403,2.2390162196125387,11.120866354453526,2.630527920700458,16.354803437888723,-13.771946461366769,26.065273219584498,-20.38414746154583,39.07869973924793,4,S02
3520,0.07395310186187154,1.9690683419113817,10.856275895813722,-3.663553705107524,5.179356020509389,-14.118875046365556,24.936695246471075,-19.718026805816155,36.495539903129334,4,S02
3540,0.12112246839721362,1.9257772771281516,10.535631525764424,-4.450536039632037,2.471235828752137,-12.44501870275935,25.907706081589374,-19.96101022681622,35.16795814597455,4,S02
3560,0.13460320243583224,1.5123214146550246,10.294711382121925,-9.559897321974347,1.8769783184789663,-15.640661428560444,24.744555492130974,-18.31564951545659,35.83291887487658,4,S02
3580,0.18858989616004618,1.276951374796928,10.237294678533424,-1.7460394954147134,-3.0442136439263336,-12.094912077289434,24.67698067042741,-20.07214767368651,33.88682985512746,4,S02
3600,-0.05988234765446654,1.0166751308880921,9.885273621177486,-6.125457643720855,-2.659124394404503,-8.662466540976519,24.725636884327116,-18.628970772087342,34.805915817011346,4,S02
3620,0.12346267187236445,0.7150832401141958,9.769055874702367,-13.580417042092119,-11.72876338022482,-1.940759566147983,24.514948835437984,-17.665281388251,31.569007443523688,4,S02
3640,-0.27642864873336825,0.5555446482674,9.357359007438278,-11.408826077108241,-14.595177524030234,-5.175345256653875,24.987106591321457,-17.96660469848532,33.87454769308207,4,S02
3660,-0.13190250694535968,0.4736360076173148,9.1327183242832,-20.808731435225692,-22.064646245496714,-3.0867110466372067,24.782688006796764,-15.548783337115456,33.056582293158186,4,S02
3680,-0.3763821379373755,0.16308457224257197,9.087603762350343,-26.351971522433953,-30.99685120955253,0.7144058744144987,25.58587992351707,-15.34461638005942,33.472091655405265,4,S02
3700,-0.21548925149295392,0.231119282535155,9.149201032758734,-24.3039478380309,-40.31288975641389,2.9741905010780627,24.960934516141545,-15.78080930930235,35.2035123776062,4,S02
3720,-0.30854389889980227,0.12013933240130725,8.893174276460869,-23.81498441425445,-49.70946049906361,3.047417994511451,25.635456569771762,-18.473743717781453,31.69881489906604,4,S02
3740,-0.3205810613246105,0.16275751136069053,8.83408895613345,-33.64801875973285,-51.21475165352902,8.949030422067642,24.79724787190073,-16.830517606934627,33.9193091445927,4,S02
3760,-0.46519748622558765,0.41168683028204617,8.901434940901366,-31.930443783266586,-59.260205808655336,13.52343598132405,24.33802910011489,-13.98367065461457,35.06459321880756,4,S02
3780,-0.4644788046138699,0.17339911583244907,9.046960936012917,-39.800333972970606,-59.80325089594047,8.49095322933902,24.881584859216122,-17.026558304093143,34.79910062727089,4,S02
3800,-0.556340637065479,0.4701683199877777,9.028028744031696,-39.07857858873412,-50.639992656330485,4.572157939475689,26.228711589534424,-14.200803886166703,35.382101050617095,4,S02
3820,-0.48253082869732156,0.7271495031139104,9.273729021261772,-32.24782523810053,-43.03174364076333,19.3267496341708,26.40451350195557,-13.763082327183923,36.17979779661557,4,S02
3840,-0.3935026841134771,0.7984867788596695,9.525941483245754,-21.29856805145892,-35.90363050012162,20.650608263831145,25.119219191615322,-12.367215217004738,36.69244916799809,4,S02
3860,-0.016817704335278502,1.144863316644165,9.708411910778027,-19.774163706131617,-24.684334212829967,17.643366335278536,26.04637570444138,-13.854448606282663,38.75926140149174,4,S02
3880,0.011778266959206321,1.4335878297328903,9.883518396254598,-11.775500054887587,-15.896350533391193,22.21160544652001,27.893303733391136,-13.27509506984293,36.9633158906943,4,S02
3900,0.25606456137688277,1.5145306647789774,10.011807064352784,-0.00500990241146404,9.299861036781445,17.270618614123023,25.570162776304187,-14.065568813479143,38.85074841192436,4,S02
3920,0.3917926002631966,1.6660424157886429,10.413145293117894,10.366048206972017,19.94455636308744,7.7959506664848295,26.11377603019301,-13.678427603290412,40.99299991865514,4,S02
3940,0.4616293022368333,1.8932863021962307,10.620829382245182,20.470614477334845,31.645626051239834,11.042503109294165,27.48063489415121,-12.921018802390403,39.883853504567256,4,S02
3960,0.8376027728465703,1.9190702439413976,10.725455283954835,16.818704385975106,40.99320881422024,11.758942984321754,28.00609888648594,-11.959413378188863,41.127714507172996,4,S02
3980,0.589170892225236,2.2331776049526915,11.107314844332924,27.23499871000567,45.09093702634914,2.0119200199306326,27.990411640019452,-11.44491152002606,39.655485621498094,4,S02
4000,0.6241432110059851,2.4414688775679387,11.210396389325812,25.53136723364227,50.00827072763102,1.4596918193069048,27.101020902725136,-13.788342434488278,42.30240426441934,4,S02
4020,0.9964749489492051,2.4429666427337686,11.459675526882588,28.84878793602132,51.50964860150867,3.411431251003321,27.963791150823646,-12.213971776214965,41.843795304484075,4,S02
4040,0.7096631129874776,2.6067835663870453,11.357142522277446,19.6834031989899,47.47916619878018,-2.005393113395941,29.380579440703634,-11.815533053828599,41.31311107226799,4,S02
4060,0.5740105081131226,2.5908492008351973,11.461876075435546,18.339403594796835,46.41247613021671,-4.957077396840528,28.802424059785302,-12.771517188990698,41.87580742224118,4,S02
4080,0.3700525561618978,2.569830206054734,11.530459098404945,14.318983160196773,37.04572286075816,-4.8457082356555485,28.156497401659255,-11.013515059115473,40.44404357973829,4,S02
4100,0.2887264441758898,2.5077166532125137,11.45222146801025,13.09223739614228,29.439167752727606,-7.7955840568211645,27.018832986400426,-12.078953957728213,38.81374423409959,4,S02
4120,0.0924589056154201,2.210106381966163,11.425458016216268,11.729464052542571,17.06185218420494,-12.111757372885588,28.549613580051474,-11.322711998398024,40.36662500635985,4,S02
4140,0.17554383494075168,2.152055282220823,11.151992028116556,2.3996347727011758,11.963827254825901,-10.952624630518502,28.028432639201785,-10.461537847014739,38.5362888921306,4,S02
4160,0.15054081552053372,1.9734986319248538,11.2385798411756,0.24689501747143883,13.236783703765846,-11.67444353419962,28.771791027424,-9.740787289168669,37.468353253953495,4,S02
4180,0.22450637155430225,1.9759809281443081,10.831585567423573,-0.2305975236673805,5.295628732866496,-14.43022137726287,28.633286952233753,-11.236399445001716,38.069571425355846,4,S02
4200,0.10321067748772537,1.7393758874575367,10.270936761913333,0.030714867029442594,1.7166797911942757,-12.775281699120901,28.3124431891378,-10.501369158123655,35.74352660124558,4,S02
4220,0.15534757169516109,1.3819947185787964,10.188272953276329,-0.8803514260107166,-1.3246429600606313,-10.721528121753325,29.371768099186216,-9.758072224431187,36.86519893756695,4,S02
4240,0.1779285201402811,1.0005388026588773,10.011226274732383,-2.505356662286196,-7.1960493911211225,-6.876927015622837,30.032889377765855,-11.247120693354805,33.08153969929977,4,S02
4260,0.12295638551010199,0.7780870679924989,9.962441036839726,-3.7025742970648574,-6.384105363850358,-11.748716448000085,31.503867552981568,-13.583143918838301,34.723457705982355,4,S02
4280,0.1582677869264244,0.612958022185498,9.623806141543625,-9.573676119212864,-11.586066523960524,-0.8951638364905007,29.740152197793112,-10.27493549483178,35.01085943698595,4,S02
4300,-0.31891915995559206,0.48419798506571093,9.303026386522614,-4.266237147153087,-17.411532887080785,-8.164277832340941,29.394574258768667,-12.306285996741828,33.8064624629239,4,S02
4320,-0.25076159062430303,0.5699299646288383,9.084928359554914,-15.944980469434313,-23.865543084040784,-2.9807650059301865,29.937166651211882,-9.290059174228126,32.676681477303404,4,S02
4340,-0.35402887313016573,0.4043772289905524,9.057005553128892,-21.427270930552417,-36.207650365925886,-0.9005080011137173,30.975936687229503,-12.358120304969592,33.82601106978204,4,S02
4360,-0.494807948714574,0.3404277121519199,9.033808461059678,-23.926829478548843,-45.34505974374014,6.8725207025208555,31.286962137268198,-14.043731313919611,33.94574564234958,4,S02
4380,-0.3894684931736794,0.11092928939442548,8.76111313032124,-32.716529145642006,-45.87021477851769,9.397014885297205,31.463234419603914,-12.603433620277999,34.859728824065094,4,S02
4400,-0.4715030465188268,0.07242916187395412,8.912742658468742,-31.609737007997953,-52.05001450047888,7.105968030104381,30.98089045335145,-12.46397734020527,35.12796301829627,4,S02
4420,-0.5431509111972689,0.2401466862738521,8.96690794753128,-38.34390952784161,-52.299698901755995,11.149615137956342,32.158636009044514,-13.79294241054841,35.73714973170749,4,S02
4440,-0.49646616207347816,0.396972397572378,9.105558033026876,-34.004557559135286,-54.93178130876983,14.396141937469768,30.933319790284273,-11.047600269067308,35.20255027772218,4,S02
4460,-0.5639945504252389,0.5968736544758806,9.354133782867073,-36.89824168421885,-49.48847659364193,14.156416330860294,32.08374312912367,-11.754068297629395,35.87244765469218,4,S02
4480,-0.41506271666903793,0.7514122585870517,9.315363053223665,-20.87515466068378,-37.38059949701021,23.806554655970643,32.13104245260093,-13.164176780164734,36.480330631612375,4,S02
4500,-0.20816365523888328,0.8692789432779409,9.754184681361298,-19.689007628565157,-31.402308541828244,14.258133462990266,32.189716338655955,-15.946121015972302,38.71414022609063,4,S02
4520,-0.16698937558630836,0.9903813266556589,9.588026674804281,-11.101958284336565,-14.734513937714327,9.502843045345932,31.487875637920705,-15.306046575464284,39.247105237021934,4,S02
4540,0.19229007711067286,1.3327750973691392,9.8510607663219,-6.2306604593895365,-1.1013122784648726,10.646561316534832,32.63507421991103,-14.187689628701047,39.95636595849637,4,S02
4560,0.20060004053145658,1.6030380960541282,10.401133064579716,1.9835405633431664,15.119574961286538,13.849507071712088,32.741468552847074,-15.673604247905594,38.71020623357209,4,S02
4580,0.4507717436027281,1.9856545438208328,10.417146434403557,11.695298545858638,26.370703342436954,16.326265652545235,32.72087459933736,-12.626797799558494,40.07648743582736,4,S02
4600,0.562809069034,2.001798541398556,10.702297307504313,17.550833749465387,40.16793320879506,9.545448408247141,33.530413706409576,-19.21799867641934,38.43254700972594,4,S02
4620,0.5854713505491798,2.2614223929220407,11.049169930318397,20.146507757373453,43.51499208824299,3.3456000179974423,33.62862337983253,-16.036282958678534,41.449991509979576,4,S02
4640,0.7312832928333199,2.4898945813484534,11.196502218007739,23.18560989553168,46.624672585715345,2.025927337527083,32.29716719095673,-16.491429961278534,40.64235908405649,4,S02
4660,0.7403607913825635,2.437637943088733,11.29190535508056,25.876311996817897,53.14470374461855,5.1347130093881805,33.73881212820119,-17.118373066148607,41.33743503301618,4,S02
4680,0.6942380880432875,2.6672060455298645,11.31717172102218,23.45889524616632,49.51759791936532,-3.3235238125408757,32.53825154648479,-15.604173808591403,40.32458284107296,4,S02
4700,0.671815567551405,2.4994790126374897,11.52410978531353,24.406305114958485,50.44181107371225,0.5811144784833665,31.14646571811394,-15.644944860883756,39.89318837709594,4,S02
4720,0.3702919110232843,2.434657735361094,11.680856823543586,14.22754524826167,40.45700416751212,-7.7158151021414785,30.441917092050932,-19.301660450960377,41.65909898101637,4,S02
4740,0.4392398672437544,2.636183845955005,11.49256514122061,9.661505614213457,32.68758809925154,-7.522550478615791,33.28379318071427,-18.27271985464368,39.79718469491249,4,S02
4760,0.4589189414381152,2.2864690697203987,11.500188042761216,13.090724432731225,27.67978766592408,-21.11681212049763,33.300558962217224,-18.68146423883238,40.20168196394309,4,S02
4780,0.38016255457307724,2.2691179481603214,11.427272843714556,-4.038650923398295,12.755756537689864,-20.755686588233196,29.707439733141005,-18.809074694401787,38.13978215026019,4,S02
4800,0.3274862363024026,2.025657833265676,11.1099614380234,-3.740752804541252,12.621118089637214,-13.071548424694727,33.634493692824975,-18.30475635685262,37.73702162457755,4,S02
4820,0.13365571945209542,1.8407465103973046,10.967493842144323,-5.158429425606272,5.542912202772288,-14.186825847391555,34.04035103066836,-19.612362866177357,37.821920831955445,4,S02
4840,-0.04914460229177228,1.563182024371308,10.48063533093158,-4.879999221505596,-3.6156163950078595,-14.53059922010166,32.76440540169182,-20.86603721027519,34.82258277861128,4,S02
4860,-0.010183781720190868,1.4529031757183009,10.380289165666172,-0.548802197825383,-3.2962808029175656,-12.866778351821525,33.70684494203692,-20.304880543149295,35.019877983259825,4,S02
4880,-0.030786957436962775,1.250498643290806,10.07246108927473,-6.48237516048233,-2.9990353886937946,-12.635387590003502,31.838097309495275,-19.577128260924738,34.68353637450182,4,S02
4900,0.12720920229279614,0.8138974402189163,9.742939526077851,-3.665359135495496,-10.59051637437867,-14.55217432401595,31.997103258767446,-21.398276413665116,34.803391901215164,4,S02
4920,-0.09724680746353714,0.7765146756124495,9.592290739498429,-11.689128096333189,-13.840808380693025,-11.616224525151724,32.01697498621528,-20.195100384116024,33.08088199000406,4,S02
4940,-0.0521338858369291,0.6148434160144902,9.371469660047927,-13.137748886593169,-12.926723827178215,-6.997463148497322,30.306789052644998,-22.563728248487195,33.062110731552416,4,S02
4960,-0.027597200357274254,0.4687186568056116,9.249070800055703,-16.247688286706158,-32.670122399421864,-1.1349762065256468,31.289365910193602,-23.607538706177415,35.955285102313134,4,S02
4980,-0.1126565743289542,0.3510639836749942,9.013058831925063,-27.062309407444303,-36.0549769958062,3.5191676107575773,32.1795170807091,-21.876475286488294,33.66647924929906,4,S02
5000,-0.18524743030703747,0.12635325233214742,9.03321833705704,-23.864707055679997,-43.32863972902912,5.5214716684002685,31.922773806935936,-22.625796089671297,35.80815670575755,4,S02
5020,-0.33822092895162903,0.22446000393375465,8.86664752475773,-23.58629739023546,-39.34750387794963,1.7422035836832706,32.783684939902685,-23.44756429727591,34.76346499238922,4,S02
5040,-0.43653949727993746,0.2800100149764124,8.831406690401511,-31.912588289985315,-47.524540789981494,12.513255802094914,29.663176805683307,-21.405093192351792,33.750629411571495,4,S02
5060,-0.4648840966241654,0.4179097774094306,8.962312581996937,-25.614976006381745,-48.69272340316634,8.423751850876743,33.01122542536774,-22.487095455764734,34.14320039711022,4,S02
5080,-0.6884810478899133,0.3128126016768571,8.950959924655226,-33.22588827726253,-50.01753707745441,11.495514147005718,31.038899673491628,-21.850748961164754,34.79024838006569,4,S02
5100,-0.6395318611644207,0.2781678598442835,9.039120872737934,-34.480443601853985,-49.63726111845693,11.73083371885762,31.069139171511388,-24.396901682848398,35.59359550664716,4,S02
5120,-0.4692779981006392,0.6628934072979393,9.3231647487083,-27.64047281873592,-43.77601743972541,13.290854038640928,30.9079409323003,-23.94441361887866,35.109000865952794,4,S02
5140,-0.21322882378829597,0.8813771548850275,9.48402682880487,-19.72511152264747,-34.17615419030616,17.67141561307097,29.178166445698206,-22.174992493117863,37.86024213079353,4,S02
5160,-0.3316131961106443,1.1020175620997956,9.634317179098801,-16.11157123154471,-17.836099463038263,11.66669606330481,30.254815234810344,-23.06087555248387,37.501398690090916,4,S02
5180,0.06201547013315058,1.459961690441449,9.86613517235762,-0.7878018943422038,3.544921991618038,9.706594633255412,28.51184250990355,-24.661478198013103,37.689481823290556,4,S02
5200,0.24043486996041957,1.4433303836233862,10.121323058442602,1.511220404666016,9.243527345577338,12.180892836855026,31.0108869783115,-25.559329286024354,38.08308548654889,4,S02
5220,0.580304685609984,1.8599531335082002,10.48526325801081,8.60041005420851,25.37537199992092,10.846092630831814,29.470808206813402,-22.387738814530373,40.557003953626335,4,S02
5240,0.5578192690931428,1.9884404942010339,10.716717500335763,17.708422535799862,33.57673242545351,17.16965225292607,30.50909280182227,-22.650390630286466,40.38597573841918,4,S02
5260,0.6203284331455755,2.1528976446862598,10.967314779359516,21.82898374585476,40.19964134259248,11.509800525034995,28.78668857018825,-24.091430977901748,41.437906473931186,4,S02
5280,0.6880668778693017,2.3254135351389054,10.893813322874715,29.0374129416716,50.45556320257664,3.9129119114971744,27.398247593874512,-24.218091362893286,40.81229911086504,4,S02
5300,0.6787137062815075,2.4685125096570086,11.29634199032582,25.810879001340478,51.24741791380112,-0.4358948250089544,29.880459476799015,-23.353969981889044,41.862425214188185,4,S02
5320,0.8304297352455501,2.5092444609688864,11.344726172642936,25.171672324054143,49.10892820756503,-1.1817265585110528,28.864065165301078,-23.351147269108022,41.931667312443686,4,S02
5340,0.6558889945954501,2.7034459726852975,11.536383313279151,24.13756921547462,43.65617181916071,-6.143055227806096,28.146515044400093,-24.599794678455012,41.54877932600231,4,S02
5360,0.7168577036528901,2.6957706373275627,11.533582710194361,17.35898270465692,39.6764875571301,-5.157386405000828,27.051263165283977,-22.773220839507808,38.7267368831371,4,S02
5380,0.41199347879920545,2.71155116929182,11.336935375909645,14.079578810960637,30.35062204003245,-10.19131151048221,28.408212786333024,-24.288030384305483,40.38347169310733,4,S02
5400,0.3929277711682533,2.407965461839799,11.507371769986216,5.395023654338661,22.997248891600048,-11.673092129893803,27.408764946423528,-24.205762998036878,39.60284028750059,4,S02
5420,0.24142422074774816,2.378610849314358,11.211892167963521,8.721360458158454,13.218328115390115,-8.041310198352216,26.47378776191947,-24.07545804819752,37.56755780229008,4,S02
5440,0.12601093175768568,2.0350387722680505,11.097220296582256,1.5015590766699427,6.083643403010032,-11.237165184021364,26.374454128521943,-21.687735806977646,38.884953411500476,4,S02
5460,0.2606516640146943,2.0612394424473863,11.101204543031487,1.0294058996074336,3.4190302313311713,-18.664853907473567,26.07044668033274,-21.218440933105036,38.5271824847896,4,S02
5480,0.02142808613295337,1.7743324159759593,10.755224408641064,3.0499809241936324,3.7759486801437987,-18.99349697833532,28.551983219061036,-22.094670997960662,35.629950797248874,4,S02
5500,0.21023968584224006,1.4229715514046326,10.497285247878052,-2.8113723143054807,1.0475469828240305,-5.656043501008774,27.363765764712085,-23.89949047081636,35.798383167363525,4,S02
5520,0.2101924137701153,1.1734993489121208,10.247576897485356,-6.6769682114774005,-2.1687813545261467,-16.704846034374548,26.445713888827555,-22.942620435052163,36.813412687773294,4,S02
5540,0.2661619387493086,0.927263656645581,9.952012395466538,-7.535511483549811,-11.77276993152643,-13.51624211336062,26.432354367216085,-22.503700802562555,36.02930117713951,4,S02
5560,-0.07119152604525361,0.9357850748443641,9.780735773082815,-7.79042305553281,-3.312278052940984,-6.896485128103292,25.645828058211812,-22.361329168511304,33.446518835962,4,S02
5580,-0.07791110214918479,0.7644014936794448,9.432825354275565,-12.30306257853088,-13.941004734813982,-3.6377169268329284,24.455617321112435,-21.092357145979015,33.22680319999428,4,S02
5600,-0.15721752221772287,0.5745383412928331,9.275441976010026,-16.68571042943809,-17.78143621288698,3.560452839767335,25.169551344324518,-19.655901710686635,32.68438981513696,4,S02
5620,-0.18845818217777108,0.35578407988444605,9.349820081724262,-18.991898498270537,-23.04660278574134,-1.4721364017193714,24.560518132646173,-19.371528486589657,33.408604340047965,4,S02
5640,-0.3750810560203547,0.11999626699526414,8.75672098139151,-22.08150401562406,-29.82735822167215,-0.38407175900077295,25.121870515225137,-20.369403478343877,33.729654538658366,4,S02
5660,-0.2135510802828928,0.2443343093166777,8.851072420800737,-26.07422469443251,-39.85643952170158,12.67642262042756,24.316972958485938,-21.50308899039636,34.14811190947731,4,S02
5680,-0.49751876191123257,0.2886084523821627,9.024628922806397,-34.131268518753735,-50.36131977068496,6.332309595383254,24.909585769174157,-20.063325984859524,33.379290910284226,4,S02
5700,-0.4479934372125466,0.3270497383333353,8.836027287614137,-38.5981069722792,-43.13102690264202,5.0815840922847055,25.87470764830259,-18.819993021088777,33.91872927639866,4,S02
5720,-0.4553398747790983,0.2150393283724228,9.004506197577323,-33.32962876018525,-52.24339003311463,7.028418165108663,25.953424003474364,-18.47272567785134,33.88224490936962,4,S02
5740,-0.3439022312146769,0.45665279087626326,9.266877212611327,-37.18283033131845,-54.90235313003578,12.491610353620192,23.12371997167233,-16.804731639566924,36.542199406344054,4,S02
5760,-0.4150786442184561,0.6957808705285213,9.203158926092417,-24.329797185010662,-50.93307786247249,9.934885408592528,26.339401530922224,-16.40724080881663,35.91088022091751,4,S02
5780,-0.3179845638791974,0.6142454905556833,9.410653035003456,-22.05159022109304,-40.03144583137654,12.495829512286699,26.438729019482263,-16.081485306403046,35.53210454070293,4,S02
5800,-0.28551942595986024,0.9941641089077018,9.432598864237752,-20.535897490691436,-34.336890347025104,23.88240083994167,26.439300751116786,-16.47473273871838,37.33844655761052,4,S02
5820,0.046400193316805456,1.1457859087486157,9.820980075137106,-3.835925634614342,-10.276512622864711,17.898428509375318,25.620502231563584,-16.280390238913178,37.939169020161856,4,S02
5840,0.1702554147471586,1.3892679030500579,9.827899454054284,-2.5780939463709798,1.3116085842906064,22.88516333341819,26.545516949683996,-18.88868572699996,37.312018410640704,4,S02
5860,0.2509067488462331,1.535224728257606,10.129731203830252,7.075409635594135,14.985777578065598,15.099981348071175,24.55515947022576,-15.649713135563813,39.629580737783925,4,S02
5880,0.3694980375770366,1.915061883805787,10.618948243828159,14.524806170763547,25.780163824567577,6.11094488530955,24.47232524864763,-17.66057868847438,40.61930941229493,4,S02
5900,0.6021031494512358,2.2655196701834432,10.63576664792033,13.032322410666865,42.208146892565644,3.2818128969548925,25.02731076846495,-15.964599689222371,40.73782655090771,4,S02
5920,0.7716508302478283,2.3037266901882605,11.057746426993987,26.455186839299945,42.83370951778507,8.995779351360293,25.246124050407214,-16.065023942345306,39.69772677406772,4,S02
5940,0.6584620656441578,2.2034212522948886,11.331687790919503,21.329718165144026,48.52559477840434,1.1947032673850693,25.50677598203128,-15.118013737109681,39.44940650779719,4,S02
5960,0.759493352707134,2.41897150405742,11.413577613241543,26.466310071059695,53.72157452627414,1.0357745524388102,25.60887891287845,-14.832098653806229,39.965462290930205,4,S02
5980,0.708779300649243,2.616319041501649,11.48999035229305,19.864027747826782,50.23875811184381,-7.757169554720635,24.86217115674236,-12.097097711088791,42.27415340855831,4,S02
6000,0.7529961275270345,2.580936558561752,11.580980283054295,25.01758444219868,41.05374887003212,-7.334073578087251,25.67467648915837,-13.685490729337427,41.36487705867961,4,S02
6020,0.4283647799664063,2.351150601205196,11.587177938987645,13.967226655527835,38.98573168941928,-15.488874175149485,25.751071192626004,-12.482181254719181,40.46673743442315,4,S02
6040,0.4067293407234377,2.416843156356018,11.38477297231773,9.935699316451515,26.509451174155764,-5.389144365358826,25.894881852791805,-12.155693082040749,39.92504170291787,4,S02
6060,0.31383366829024556,2.4763928100309993,11.433396437974869,6.245045416587737,21.49052815832306,-9.221154159418573,26.195902814898844,-10.96011385863089,39.63280190992049,4,S02
6080,0.18432960572298984,2.1692568971739723,11.208354802233801,-5.3024169588031524,16.29189215416335,-7.738883461677506,26.024118355517636,-11.420269906621698,39.28289599598894,4,S02
6100,0.29455213916616485,1.8926853399560173,11.189115928298184,-4.95045033460219,13.252329605933353,-9.232942228977976,26.876300116944417,-14.838026641487014,38.29214363697919,4,S02
6120,0.14534163413621393,1.9711126779150947,10.813360028055651,4.506491164932565,8.987623006263483,-16.024045197692015,25.11008672026144,-11.692382122307542,37.17806047878748,4,S02
6140,0.13053154964688546,1.554871809150377,10.537069929870862,-11.80906187882831,0.26868169990168767,-6.519274047234646,25.11578944325514,-12.154763671349663,37.346614100285485,4,S02
6160,0.20202567948983116,1.3835142077149187,10.312645136133625,-5.624269157144575,-0.4637289586691704,-17.42594439411229,27.564764104554875,-13.790218886747446,35.38691436892054,4,S02
6180,-0.036460580769426904,1.3969005454774974,10.243935904613405,-7.9097447790363855,0.009573170308551093,-10.501516818878647,25.789522869148378,-13.069657187051394,35.27577421051618,4,S02
6200,-0.015811005518349353,0.9214951964022149,9.706668164605137,-13.344074159922616,-1.5505612184969102,-9.589636870597598,26.19576494089257,-12.969432322042458,36.11237072636712,4,S02
6220,0.10625358907268682,0.7367992519081052,9.668474658212281,-6.525896904090815,-17.124870574214903,-7.529704384261327,29.763573208938382,-12.600808151294189,35.07102831445329,4,S02
6240,0.1597123376122246,0.5198642415292174,9.322601477330979,-11.436313278153538,-16.17660985664401,-1.8379566509344634,28.72561239970012,-10.658644840578823,34.661437003234774,4,S02
6260,-0.05094064131556916,0.4874258156761497,9.26394388093719,-10.135599466459936,-21.018095547849835,-6.025652856696706,27.76383089125264,-12.568736806545406,32.72479661074415,4,S02
6280,-0.3224804537576299,0.22487180033129112,9.098011138774721,-24.800806675765887,-26.061418061694727,-7.169659036614756,28.45636315479234,-12.89880740137377,33.0939705477531,4,S02
6300,-0.12681628694652317,0.29454584362915026,8.914504360105113,-21.248048108455556,-37.42313674943128,10.353093057689055,28.679408147533728,-12.412997635244901,34.71536351404382,4,S02
6320,-0.3428680129868106,0.24126945242253728,8.754177828709132,-28.277034438930556,-43.59829459780131,4.228802992718415,29.298683973617454,-12.48858633815789,34.01919166242629,4,S02
6340,-0.3610616940211273,0.1545630004041585,8.904548431503734,-34.39217987043237,-52.328703829330216,9.602983409154026,27.954216719916904,-9.284549942637804,32.67743828275261,4,S02
6360,-0.627407693936693,0.10322930984841328,9.021681012240625,-36.08022745012003,-55.38876544481248,7.342201349201513,27.943640941017815,-10.240257815654092,36.27724799713233,4,S02
6380,-0.4335046994150309,0.5216887396953525,9.168504690982001,-33.24353562829745,-53.2731978757201,17.331371244365492,28.898070775606186,-10.357100291181428,34.5346761377407,4,S02
6400,-0.4730959474051186,0.5676307940577994,9.16812878406363,-37.30736267322182,-46.47794842271349,15.118149322601322,28.94878066376471,-10.533742384278748,35.97421634578182,4,S02
6420,-0.4862647803677447,0.48836335969257466,9.161964671615397,-32.4643331990428,-35.0889003659732,14.990250707648652,28.11094771109436,-11.820378270732558,36.73141712416118,4,S02
6440,-0.4239364808577838,0.9299520859829096,9.507499494786527,-21.387972349701514,-30.943487018690657,13.954881685721924,27.78940328501847,-12.693690496168156,35.48861444384559,4,S02
6460,0.01067122332195336,0.929122084965649,9.5028278694094,-18.981939893159645,-24.50051121239294,14.782837731385436,29.20360040150087,-10.688666804036249,37.81473570100079,4,S02
6480,-0.1258940652630086,1.4019729837532875,10.057367146072774,-8.529374279913931,2.334071239463368,17.29541626005143,29.87590460359702,-9.96036577699965,39.05820166204646,4,S02
6500,0.26772224838189557,1.5428938649719415,10.414068559147458,4.0176136816996655,6.950855628340574,10.323540895708648,30.563586049559884,-12.833026707793156,40.13885865669421,4,S02
6520,0.3955271588990016,1.7203276083032901,10.468309356937784,9.982743047064403,20.803375554854114,14.283021920366147,30.685380273733365,-12.677801805181556,39.97269247136129,4,S02
6540,0.6258335594132333,2.0348708800850015,10.586792491481859,7.618999890368406,25.085084562853147,6.707510459749071,29.593720800520583,-12.109021988366102,40.37067039367946,4,S02
6560,0.4508105087594265,2.2960642957072475,11.103279712065676,16.72477171184354,46.4796384604679,4.971099156598664,30.353803649113885,-12.789108913785782,41.815870693035144,4,S02
6580,0.6173087008666711,2.3025686716092038,10.956437989306282,23.046375555748277,48.87655450039861,2.30270663080909,30.981029905503934,-13.167781969749043,40.6017729208452,4,S02
6600,0.8162923653299572,2.4586684966440915,11.380199924749588,20.70774356995731,54.0919770848113,5.318102760104564,30.853126584993948,-13.397580295958978,41.22849412780787,4,S02
6620,0.38241485114466733,2.7721100839514974,11.509037854463013,22.591389556408974,50.96898675086634,0.20806716066677422,30.518152900168033,-13.642445324520885,40.25181946910557,4,S02
6640,0.6027125697090414,2.461712241591023,11.562437791629712,19.72421717384061,47.06488301956552,-5.407082996796024,32.560383556917806,-13.537952681476106,41.14584723163151,4,S02
6660,0.5817106972468797,2.886020521243144,11.334176410964865,20.878371060800795,33.850433791917844,-12.473190459823622,30.959301657213597,-16.45878913825795,40.06328281949905,4,S02
6680,0.4129678575461695,2.6872793752711464,11.552696608533575,13.35981567936052,29.982064134994086,-8.363159467673311,32.2684160037704,-15.186389842909659,39.09442817030188,4,S02
6700,0.3655839276131254,2.4452075332962826,11.461221066735005,8.364465518735756,24.672862993532465,-18.520425829495977,32.99545660505105,-14.634026355222096,37.31151728000392,4,S02
6720,0.22925183106625163,2.1725568371500175,11.195342431628367,7.3656390768301945,11.993616167761001,-13.291317731563579,32.28833706280312,-14.29998729229029,41.01424945999963,4,S02
6740,0.20098413396966874,2.197421196133557,10.950260251147428,-1.1997509648648772,7.031570619516606,-12.269988236771606,32.74439204814183,-14.845176478082774,37.938531691735655,4,S02
6760,0.10337005242928073,1.8608756988408774,10.97914705657003,0.4891093245159359,10.010439747500119,-12.645277564251538,30.92686684536208,-15.536113371542228,37.07238141588524,4,S02
6780,0.3085526661368958,1.7881528330321357,10.71091425047559,-0.45031928813853384,-3.9348379865923,-15.60290684121018,30.35545938016507,-15.436703701988325,35.677531816460366,4,S02
6800,-0.008718679183034511,1.2498798785849818,10.443487213328517,-0.8194118386270715,-2.4721543652723854,-13.804528207150367,34.147310142872485,-14.456364100103862,36.42404179912828,4,S02
6820,0.05167780980927496,1.3141496374379114,10.409120765321312,-11.413323187059408,-3.3935014849244185,-16.39867501677706,33.428571066758245,-15.568273975761933,35.357304536765504,4,S02
6840,0.16555296738898806,1.1191536824683215,9.795411006655026,-5.911750219451807,-8.427201247447279,-14.661686846219796,32.324209578368766,-15.68279527397578,33.573910603336145,4,S02
6860,0.11256974411329952,0.8455439443072295,9.696190674318347,-3.415462727249378,-7.148544289518542,-8.886363590227605,34.05189058637356,-16.70033411889301,32.45878189739257,4,S02
6880,-0.0031520066606236657,0.8776174756488135,9.504162236183822,-8.976809080082022,-10.695279153625762,-7.11512399925297,33.70173684061655,-18.989838148328744,32.89438303560429,4,S02
6900,-0.0005471765967872272,0.4581983914990844,9.311088608881462,-18.16304031131954,-17.600238896409625,-3.076303871548889,33.03666078298946,-16.64594034744774,34.46952719867606,4,S02
6920,-0.28826998214535227,0.5077161923743851,9.100271568514637,-20.350628946930495,-27.628731586880246,1.2456517834397935,32.588804545601704,-19.56481866251174,33.530083635533266,4,S02
6940,-0.40406210312247803,0.19421570490630874,9.012300680277509,-25.605742934257556,-28.677611551328663,-2.6318907024342795,31.952072002913617,-18.46064854148358,31.887798872722215,4,S02
6960,-0.4294547740021082,0.11572015532160229,8.974246793197182,-26.672207029401218,-38.77240618389804,9.088908054503003,34.05219371682681,-20.14199749227121,32.64613644517702,4,S02
6980,-0.5533831335756767,0.022809855709582577,8.951807012920522,-31.3945459415465,-52.183133896561266,12.473638556933684,33.65281098417539,-19.427416265165597,35.09158418887701,4,S02
7000,-0.48204892724111303,0.1826958826209369,8.829077549355588,-32.519454843079984,-48.7648922145159,9.6300434402454,32.67510875476615,-20.783523654901032,34.55659465099208,4,S02
7020,-0.5885770809021778,0.3367883387322516,9.029483007571178,-40.373499394681794,-44.05912450590857,18.580350700405884,32.756668588960636,-22.514351652337083,35.639368473715905,4,S02
7040,-0.6506185341475862,0.4064058329989346,9.222956613023744,-34.30748519135727,-49.445486415327466,13.551992781644895,31.89884609372144,-20.874260086521424,36.016621211609184,4,S02
7060,-0.5025907129867162,0.45146497330715635,9.104440532960217,-26.42249501499776,-46.673508292460625,14.000165314213596,31.956011787615243,-22.289224716683854,35.99355790911613,4,S02
7080,-0.4232237618247092,0.8576102512793826,9.408780703184544,-24.71876468391344,-34.543116263742846,15.973522872623844,33.374112747513394,-21.245771429269833,36.70180745091072,4,S02
7100,-0.11663216041512789,0.8955648284066153,9.51563740189322,-17.108809593484565,-26.937880318938113,16.401914620386464,29.422206297082916,-21.90151224453303,38.59731789395475,4,S02
7120,-0.047890508774245916,1.2063281522676492,9.78527057748716,-19.187231914209093,-9.742354338137474,11.551442584972573,32.22681113514405,-22.044398104098512,36.426949481278236,4,S02
7140,0.12006613599570909,1.417071390358176,9.956364281969025,-1.1649523271703663,4.690035163600915,21.645897268165438,29.799040511984245,-23.028548851305054,39.88752849711878,4,S02
7160,0.2367039582875629,1.573017107126057,10.379765229028347,3.5007274322810673,17.056437843065087,13.38199238551799,32.492960394804136,-24.157833910453956,39.74595751098759,4,S02
7180,0.6140616889240084,1.9799648424162324,10.63621528617248,13.364888435422557,32.50528518365046,10.667753450293528,31.03378771778812,-21.328748503533905,41.65790588523301,4,S02
7200,0.4959898267244862,2.2368079613551486,10.845774705322562,18.592142878212094,36.3365192007342,12.817080619387477,30.17238559770177,-22.18025822806236,38.82043012109951,4,S02
7220,0.6797439964265817,2.206783322712088,11.096310636133428,27.13006446847547,50.29012899073595,-1.6174406034953086,31.135926149767226,-23.536303924220075,40.379614617808166,4,S02
7240,0.5896808413787201,2.3669216966492956,11.391034521199852,24.871878232423175,45.701307943742314,-1.1343111460507633,29.578175842418457,-21.547497783694734,42.98827243174651,4,S02
7260,0.8231890177572867,2.555357458108952,11.424248835194682,27.536937898627464,40.83065279562119,2.075513905072037,30.069583813262003,-22.585427908341835,40.957436209232704,4,S02
7280,0.4737992977092833,2.6487917149757596,11.58122188836515,23.661364681796023,49.33516676795279,1.1507138422540986,30.79000899328913,-24.53169520560479,39.86582339408847,4,S02
7300,0.7590359731415817,2.4192479863677736,11.592971236845825,19.523114038716734,42.56226467670432,-7.265486146009542,30.125074262527946,-23.28644770717779,41.07893964414225,4,S02
7320,0.5406056633717387,2.6457515802289486,11.450183441754579,14.800628942510372,40.72613186621577,-7.083637208792175,29.994915527689056,-23.649053158056173,38.67115139245268,4,S02
7340,0.2657938612853782,2.3785940514141135,11.44813927279991,10.088318062196397,23.465876667231083,-8.076848632332029,30.484310329186876,-23.69766296540083,39.92666848742654,4,S02
7360,0.2883241992621006,2.409029198002899,11.473934015006188,8.138289650716604,23.22273091902588,-9.911930396655503,30.383814223611118,-23.008522613283883,37.66828935089568,4,S02
7380,0.04240776935958844,2.2953899897223407,11.022686689964585,-2.145264356860655,14.10602609404949,-15.355214735193302,29.260087264611904,-23.6741110832419,38.22347541402021,4,S02
7400,0.12579755345752447,1.8348164850741076,11.128034025931496,0.09300888637639915,8.921756677598637,-19.416817703436514,29.774529164076466,-25.606803645014445,38.72737837417482,4,S02
7420,0.016373905629450805,1.846200278026766,10.736597760410357,-3.970004162438552,2.2740106611483615,-11.003268037666384,27.84935050194158,-23.406815643631976,38.15194276477602,4,S02
7440,0.15966372110998514,1.5179873259087013,10.633142070254383,-11.589897574794174,-0.6537493905861409,-5.665074066001866,28.85395733538927,-24.39828392298017,38.11045314987087,4,S02
7460,0.029622382220373944,1.304795230154955,10.384773679453167,-3.4819303844775935,-2.0386830631832935,-11.50496168417211,27.18672262251045,-25.293123332569017,35.86225122381128,4,S02
7480,0.244049142871353,0.9994936456173795,10.066412876356258,-1.575125207349798,-5.491019518697702,-5.118713485418555,27.580738446874612,-21.999244924915576,34.20921275490585,4,S02
7500,-0.011091630654691279,0.8089299575621838,9.665898714983268,-0.41847204273831284,-5.891160648461294,-6.8184003293848185,27.820639264374513,-24.49877369520011,34.519399908952245,4,S02
7520,0.010096553573086503,0.8889750114999981,9.564586175803283,-7.021471437715943,-9.836000460091508,-10.048631717665309,27.789675524069423,-24.476967721816425,35.84320338181239,4,S02
7540,-0.0573928657985672,0.48766771163346795,9.349251095720925,-6.2598434117561546,-18.180414268925546,-2.3950428338462513,30.144997797327527,-25.644361133310667,33.11041627422804,4,S02
7560,-0.1683808266961405,0.5241671187270529,9.206309088284042,-19.16928069367503,-27.518651309276148,-2.5664176306326434,27.689139839759402,-21.89168561699708,33.424322183089345,4,S02
7580,-0.3038153940052515,0.4594536212845938,9.152618644904448,-25.9407588205204,-31.534835701494682,-0.6272146253744623,27.19998202095069,-22.567710519905336,33.96204161859485,4,S02
7600,-0.3137775968630805,0.2689367342394695,9.108157788713045,-24.404286150203536,-42.1736256383973,4.074687554876942,26.553901581769388,-23.18098022657785,31.464895836916654,4,S02
7620,-0.19665215294780833,0.034838615168048315,9.030300292693903,-29.354702300298573,-50.56920819839936,7.454480106139528,26.25587233830013,-22.96889986324172,33.779584918878285,4,S02
7640,-0.40339839580165937,0.2622706333427197,8.897827459323237,-38.73266983042293,-56.74030372083688,5.84339251559582,26.45989214765821,-21.985490000438883,33.62896496869709,4,S02
7660,-0.41002206890998705,0.34829719646504725,9.095391838351082,-39.04801624916307,-54.37604042815364,3.598345526073166,25.30578343778967,-24.200124745467637,34.476041191548106,4,S02
7680,-0.5596645243638073,0.38274964111482507,8.931390342508458,-34.955454721535936,-50.99240812201027,12.607679009119037,25.94474307406671,-22.067155643414015,34.79013163562902,4,S02
7700,-0.42741210517385353,0.6828154861997484,8.94494036984347,-27.502553535907946,-50.76171968922845,11.301457201782208,26.785692750833487,-22.126258976458352,35.21278633389394,4,S02
7720,-0.35724901571480094,0.7932663741827866,9.35931392019561,-25.40744323444083,-41.68827880609918,18.190880059559376,27.039036904227974,-22.413776324821583,36.75620106551903,4,S02
7740,0.0359125705346041,0.8807882808610215,9.593316360845364,-19.831861438536823,-24.859592156882783,11.446783404232123,25.610439552746776,-21.979869011154285,35.753195645953426,4,S02
7760,-0.01143417223474677,1.0968999073417383,9.675783120704079,-10.871503893892775,-24.59109337038767,20.0285661193555,24.394087803271393,-21.922023077629383,38.80270578984547,4,S02
7780,-0.08265160133994764,1.3854064590450272,9.798597781239184,-1.4362415353798834,-4.595138959237305,15.092418350440385,26.298730532924044,-21.89197196952984,36.68499885985021,4,S02
7800,0.34338967146262633,1.4585718788209459,10.04986656876299,4.549242075348773,12.374106013409861,11.603569438752345,26.626182566897622,-19.707429571855954,38.77108898044995,4,S02
7820,0.3319305900109959,1.793927286570948,10.371230199439418,13.13867508383532,21.1991457391146,16.879484674506603,26.05918477882989,-21.83590349666127,41.28497090493291,4,S02
7840,0.7141882519044024,1.9156829019004176,10.785962435956728,19.896519210585502,42.03834564571694,6.791476186600457,24.837462921608125,-19.817784399787374,40.18794428324407,4,S02
7860,0.6741082517737648,2.149614758019943,11.063969823300164,19.460769693609173,51.50695032614518,4.944515994009933,25.7238128185168,-20.214560491155453,41.802729851228015,4,S02
7880,0.8724736795705121,2.2906936571198435,11.111056201287493,26.91158813457816,47.74171044938834,3.7283448144257996,25.887472860794016,-17.892808056151082,41.02311536038741,4,S02
7900,0.7614192543214263,2.3222481366271563,11.329935456882062,24.24919229427037,56.98061674289259,5.571889348384441,26.67992704782418,-17.531925086381676,39.19805790219085,4,S02
7920,0.8881982858545393,2.5233454098981984,11.519812594288844,25.960546592653095,44.312023170877424,-2.1599841933528414,23.820433277387483,-17.79040779310464,39.598066600466765,4,S02
7940,0.6880831788832662,2.6301756067155244,11.668069623231768,17.926070363198498,43.468190265921685,-5.125799458701858,26.057159265904293,-18.278904044695278,39.833594566920716,4,S02
7960,0.5362598653475035,2.5831544522268226,11.56389817118892,23.748853585880063,42.626926744416465,-7.002803314777769,25.23879317765282,-17.59185263984891,41.19078011295708,4,S02
7980,0.37407822113855116,2.636858326268184,11.434900238908694,14.709460071432211,34.19472071227315,-4.398369062370317,24.974451796330403,-16.20747650640557,40.12216997865824,4,S02
8000,0.31504352000229197,2.5254588060816716,11.470048697500228,6.73256151757792,28.54274020623879,-14.385208188787018,26.13874584741783,-16.080203020285566,40.06644576131783,4,S02
8020,0.24577295749741018,2.216721971784762,11.373066979554075,3.1200816768852278,17.608406749666806,-10.21581855147782,24.354005321740246,-17.607323724290012,40.1679798217436,4,S02
8040,0.427003672709364,2.0554626740049358,11.137633565267176,0.311914242078843,11.867404309170968,-13.929230492531449,25.635653448048423,-15.856195376676926,37.739246932136375,4,S02
8060,0.19719302604197395,1.845839177060258,11.093681603183871,7.088773217813176,10.085861241387581,-12.642198538013144,27.910964644450384,-14.756044560361014,37.53733232670353,4,S02
8080,0.04518699856945119,1.5615400190949222,10.938620334769585,-4.642733353232277,2.42816366264565,-11.959745791406311,26.96031141182447,-15.630259606429878,37.57213270779575,4,S02
8100,0.2024608170836541,1.6586369923570667,10.491210884280026,-4.920127753000554,-1.7388901714823948,-15.213305084323778,23.58233381096576,-14.134790052176282,36.21522981909247,4,S02
8120,0.24204551743184613,1.1875602754488719,10.35954768619439,-7.74352176132453,-4.051102856561779,-20.060439441134832,25.9068558435698,-14.669914593272301,33.675304211791925,4,S02
8140,0.0014721867195712918,1.0801512009204965,9.760517726678257,-3.976680994776669,-6.289142537200968,-8.234961729166633,25.292651732147977,-14.93865181297322,36.942343044987666,4,S02
8160,0.06992045449967596,0.8046245238359804,9.689024180793634,-8.28091606042597,-6.840021055784136,-12.573849548904924,26.837250747339382,-15.79049326615771,34.165346612511776,4,S02
8180,-0.04162015315390458,0.7390871297877011,9.553102236618175,-12.799386421916235,-13.496786973301672,-0.6544457457226468,26.661393745248056,-13.307559945024188,35.22134880943253,4,S02
8200,-0.11516391024821873,0.44649729815678957,9.033002734702986,-17.591022733296036,-24.114314994428035,-3.0257949451056807,26.83030415750247,-12.661785456861605,34.04541696053199,4,S02
8220,-0.3409264865012146,0.3508261406074375,8.981610301080716,-14.831381694084993,-20.71263803496549,-9.227781276165166,27.189564185890777,-13.704200949777533,34.110456140611866,4,S02
8240,-0.3750017731760795,0.2377180068592828,8.924314290188821,-25.01899721387566,-34.217256948672826,2.8047317413707082,27.23774853302257,-13.820882690384263,33.405553415562416,4,S02
8260,-0.30326602397688085,0.23176628884501527,8.984764333279466,-26.516069148936204,-45.29856707219301,5.176418752392429,27.192399690892696,-13.01657524105761,32.16012110548282,4,S02
8280,-0.26794737551246295,0.12747821434003478,8.993057326741516,-28.643649388295636,-45.80836253559048,10.046218751009036,27.123641181263885,-11.382314927072084,34.931071905346585,4,S02
8300,-0.5433431550018426,0.21903716489248481,8.864139005281032,-33.46996384893268,-57.676583214668916,15.603218375365818,26.142243919627298,-12.82980524484463,33.91552140144305,4,S02
8320,-0.5716435670435766,0.32888665500251424,9.048894544131041,-32.38170687947124,-51.22567241486054,15.1998785743393,27.44727715435855,-12.086347941573713,34.83527008260732,4,S02
8340,-0.6384401499249522,0.37996603552285,9.097236747609871,-30.924558547510962,-49.47683125096577,12.881058229243058,27.971063298479198,-9.495871131853413,37.99910420208366,4,S02
8360,-0.4368056060851868,0.6075796753288418,9.210279230707213,-27.324382500348975,-50.69109220371311,15.064342309610582,27.601435077883604,-13.553848879728744,36.190975907875334,4,S02
8380,-0.40763218989992867,0.9036385667322033,9.30914229331537,-17.385754714796708,-33.84256781528936,18.872300531983328,29.17051134486266,-11.39497903807063,39.00456639229677,4,S02
8400,0.04284448965116101,0.9477092546303996,9.717686975135086,-19.66172480260055,-26.07998839263379,14.569325203913246,27.471829404266316,-10.26904507873804,37.546970572114624,4,S02
8420,-0.07920569020973736,1.3564757604152582,9.821061022335357,-12.196064401914597,-15.244319019392274,18.474469472102285,29.76195369144565,-12.150762488548228,39.62060631140676,4,S02
8440,0.13296638332618058,1.5317727763999127,10.02394470984442,0.5596082342035551,12.52944418993868,14.894584787047863,28.254384826370355,-11.707386004861782,38.57894853295348,4,S02
8460,0.33529946985685655,1.7314648999074629,10.294253787634693,9.48316401029685,26.362725220508082,12.97853573082426,28.097647366096453,-12.304699633493867,37.65489706319303,4,S02
8480,0.5069036772199926,1.9070975465842048,10.604512883868207,10.549240731927,34.14311504369082,11.14031005068158,28.430326792561015,-11.377800768489882,39.337066428292005,4,S02
8500,0.6810795025222466,2.129741353835789,10.985452487417703,24.943585466322983,39.900397798081734,4.276666759696509,28.08187198864195,-13.368900376575608,40.916828572202725,4,S02
8520,0.703199582995815,2.3159966384123467,10.977598216880146,25.05273794030537,48.140356030021636,0.5050092383514405,26.830743731924475,-10.315594415994765,42.51630790661905,4,S02
8540,0.7113321349039842,2.4630628755438964,11.096110542623448,24.787238397218054,50.90524332407378,6.276136949896259,28.23784215229518,-13.48916342093795,41.2733028406157,4,S02
8560,0.6283471569440028,2.454595473938157,11.347984435170854,24.473383696849112,49.88204729504954,-0.5557498020137909,28.772674261067294,-11.638729111980002,42.82803002335354,4,S02
8580,0.5014280278767692,2.61609711718164,11.422416066552223,18.993292218749968,41.85690741027746,-3.2131309383037263,30.258966338131824,-9.58901544759585,40.315795340813075,4,S02
8600,0.5580763852069379,2.5856984280989157,11.544708052994737,17.43150505530846,43.590015684677844,-9.107432842347873,30.065524502035366,-11.697996211491784,41.268799641981104,4,S02
8620,0.42106208494540764,2.5138378333635316,11.697965879805931,19.279830949672835,36.78756777708408,-9.830144760522677,29.87411237901752,-9.925872790323417,40.08778028268602,4,S02
8640,0.39601493271644084,2.4179301317491193,11.589308030461192,6.49330935135288,28.29786223913886,-13.368299334631336,30.4270335037185,-10.73529028550329,40.55819090535959,4,S02
8660,0.24396425040391873,2.207944740822903,11.128717526489698,6.680060539466855,21.93642311329712,-15.153869153487655,30.168526051690034,-11.497510886779864,39.55452170945366,4,S02
8680,0.21370871125627194,2.2792841442951026,10.9971730459276,-0.5094540638629708,12.671752776723496,-17.34012053229134,30.721321788225378,-12.885709208194593,38.85671308659251,4,S02
8700,0.17255992372826479,2.2157003403430147,10.9407903905619,-3.5132771539545695,13.398680918113708,-14.837011694771897,32.27658366012675,-14.551020389753935,37.41526192582535,4,S02
8720,0.06870880947267886,1.8934573136010062,10.839539527847801,-3.7018391005845315,9.746862324878803,-20.670394982934173,31.584830821601432,-12.673846069836562,36.411689611548496,4,S02
8740,-0.05437508675703712,1.6315096273484955,10.51532943580955,2.795878255625957,3.1069254241132445,-7.382569905282532,31.041232907168414,-12.338035731767746,35.72970096265434,4,S02
8760,0.012824262860519312,1.2548015088281212,10.333324041874349,-4.331315273144495,-2.7266649433400008,-13.015476852600473,32.715768305858624,-14.682379194462612,34.93320166210041,4,S02
8780,-0.031827987462419965,1.1298296620308106,9.961649042711494,-8.190783097946875,-0.005806083681128227,-9.03055043126359,31.207439645124985,-12.272464559600417,36.88997924420415,4,S02
8800,-0.08723882499442709,0.8758451216457517,9.848381519148774,-4.642635628228439,-7.722433278190816,-8.750352402577235,32.06746272439142,-13.465129131708668,33.53989653556916,4,S02
8820,-0.231556466210153,0.6211328399477984,9.448237224163803,-13.483181316818854,-11.762497452005132,-2.7983477160668317,29.26040681357269,-12.196452876535172,36.00318192415648,4,S02
8840,-0.07062078455637058,0.634744537890692,9.311048845116453,-11.430421678529848,-21.342963638710035,-9.81009649322403,31.647538262200698,-14.71007990074341,33.78780692098582,4,S02
8860,-0.2969741150566363,0.21518116934888926,9.170798580968366,-17.182182735350434,-27.45321994654132,-2.801686212349948,32.69539888072054,-14.346311764219333,36.019397526477334,4,S02
8880,-0.1772161153322894,0.3124150607108279,9.029934186990962,-22.76151858371766,-38.970084161028566,2.8309345737831584,32.99788700412937,-15.40695495124202,35.5867104800746,4,S02
8900,-0.4093152535303769,0.2514139762357112,8.816302221686822,-27.655570865522716,-42.71642341723275,4.135879479431867,31.865045635178326,-16.534769662336004,33.62405449868055,4,S02
8920,-0.35652668429466916,0.17928218873657467,8.994632867207995,-33.63803684110254,-51.96526907595929,7.997085281791893,33.64428576722877,-15.58656650171006,33.138865474532615,4,S02
8940,-0.6994456582831,0.24066703238591486,8.935525724006537,-38.9797556343751,-46.133636750146685,11.901737270419687,32.95514954569049,-16.512325623059226,33.70767664180497,4,S02
8960,-0.7125660776508778,0.2162399290703655,8.909194185178452,-37.38222263249589,-52.67585199304226,10.36201387832517,32.38202132458647,-17.6441109282511,33.62814233773278,4,S02
8980,-0.535245358687517,0.3058010442235397,9.1172119110159,-34.15455478580298,-51.25313765390121,11.454097176987887,32.80632696265141,-16.49102999023974,34.969939921911276,4,S02
9000,-0.5042990881426473,0.6091910760094923,9.147262251695789,-27.54167432666376,-51.5330507386501,13.880784054742717,33.46843558866895,-16.646309854794584,36.340826424879985,4,S02
9020,-0.418553793176218,0.6602469994853704,9.34749730462091,-30.75361476247794,-40.10659686590446,14.754093819411981,33.49691605367584,-16.75850480668786,38.08295994394114,4,S02
9040,-0.29181799039187595,0.897842985842896,9.408518016790659,-18.77937456140564,-31.283938864643737,13.703078348832838,32.47028092990723,-16.668275373713968,37.26313320863813,4,S02
9060,-0.17666314081835924,1.0810172969344434,9.800608670166628,-12.118505821374288,-10.446113378360707,18.861708991565553,32.818279308866906,-17.972792486278713,37.453714146293706,4,S02
9080,0.005396931231762464,1.3979080518919311,10.122776234456358,0.805029238932712,-5.794240701330342,21.29272530943755,32.90098076132217,-18.76551534576238,38.57778880928335,4,S02
9100,0.2349524254410368,1.5168768393673362,10.156566925221812,9.219283812055899,13.707411722776396,9.188685170283822,30.459802525703537,-17.83278244576188,39.87280101618066,4,S02
9120,0.5217713720101841,1.862322256827842,10.624672378000717,14.899871366448284,22.236481182118037,12.849178875431015,33.501480730124854,-20.13809170277146,39.83393668702598,4,S02
9140,0.5902232204672812,1.9424630108135894,10.981589608966903,17.58366778490357,34.383572878421795,10.618857624138625,30.413609541694324,-18.37130208045069,40.814191356155426,4,S02
9160,0.7299842541360354,2.2983345961453026,11.172788443558524,19.180820948391464,46.306440813533506,-1.0578785371759127,33.02170797954695,-20.76242074614592,42.10394929574632,4,S02
9180,0.766090161748361,2.3912323371694204,11.34116104361787,19.087670149566783,46.06167111585964,5.3010515762707096,32.97769658163163,-19.47639651108676,40.06450949239911,4,S02
9200,0.892257441033617,2.5374725449509548,11.306806514921345,23.195145989903573,52.505031651002845,2.7228893654851456,32.38390961993393,-18.6414540811546,41.487545313570514,4,S02
9220,0.5794180676090459,2.487018466248164,11.599157442141797,20.945560125819615,46.99445099571504,-2.7461416471645186,32.28481898530951,-20.028590623326743,40.122174390453985,4,S02
9240,0.5099353606075785,2.7236046865489674,11.530038300006344,18.41859031651327,42.30170644896212,-9.637305067888262,31.63531459205134,-21.326930137839753,41.605326285977874,4,S02
9260,0.5283732921379315,2.671887866134197,11.521372780535968,15.5863164167504,38.78078507053758,-9.04018894744167,33.39328993733905,-22.906753938858312,41.62459646359823,4,S02
9280,0.27339031508153844,2.5039997575981032,11.33892944321399,8.511747585122677,33.22502045970156,-3.99610744106439,31.53127660684238,-20.990591977257118,40.64465182135636,4,S02
9300,0.3266845413293539,2.4707442762647083,11.43906547680176,3.3884380164245416,22.703912838545705,-16.444741140974646,30.636187515304098,-22.371844439997684,39.96707145490341,4,S02
9320,0.2903329967920171,2.122132490926623,11.321968571807911,8.781665398569302,14.86684282162469,-9.362241408291531,32.760297231799925,-23.047118142785973,40.164711973785394,4,S02
9340,0.3086032962585318,2.0524668659975664,10.958037641291106,8.35706974843492,9.491085041752125,-13.557106534985321,32.064337345898835,-23.32638525881105,36.304099540697486,4,S02
9360,0.0063977619006774095,1.9805159824522989,11.022163882718724,-3.3003682432687484,9.50164174237862,-20.364243818707738,32.094941080785254,-22.68193257715224,37.043880221643214,4,S02
9380,0.08029545144021674,1.59310350423057,10.615028249785581,-3.552191003526333,7.459076706146024,-17.00356749230011,29.97946385452385,-21.4217629018703,36.18341258030906,4,S02
9400,-0.04698562895767314,1.3654753096910377,10.342827583253262,-3.9849271978777803,0.713071575053849,-9.887446126572096,32.09710742859993,-22.944043914385205,36.51529146894736,4,S02
9420,0.19463366618577232,1.1947068545650938,10.130733283477408,-5.465817698575738,-0.4179691132498895,-12.640882103164094,31.674590055745902,-23.432470754205443,35.62571786161102,4,S02
9440,-0.1145485401266762,0.8491267446946256,9.924528001934277,-7.343678925216766,-8.94126867204884,-8.16827108037666,29.89620938408745,-23.751122840730716,33.7442079950622,4,S02
9460,0.004556984531152372,0.747084673745164,9.551827252679477,-12.29861590632904,-9.701500455105954,-1.858461552981225,29.987812772292074,-24.81850629911605,34.684697147122975,4,S02
9480,-0.10723926825347066,0.4903804522423722,9.438870511512757,-9.490221998497114,-13.86499716087577,-3.7373920490269366,30.228221765383662,-24.16539154965524,33.479535296978526,4,S02
9500,-0.08707789599646196,0.41133244221601195,9.217535553013738,-14.089865949349424,-19.14966349674853,-3.7087031901553673,29.016667693641537,-23.877886407586722,33.07023158768564,4,S02
9520,-0.13106406827668524,0.1022831183407992,9.096667236737666,-21.206610118138617,-34.03749132846583,3.867915207006909,29.55953858820956,-23.45036420526664,34.28783245354588,4,S02
9540,-0.2788907951176307,0.19334521569472446,9.108595047638406,-21.536575286488585,-31.242262670109337,0.567784574709404,29.291264000261386,-23.59985672723376,33.786203201696495,4,S02
9560,-0.3770776752609326,-0.010190369083762148,8.89845725829036,-32.213438078266094,-40.122374559930336,14.95381332308886,30.283229913701202,-23.54810208665882,34.22286081105687,4,S02
9580,-0.38224751799522827,0.18991290810266204,8.870054659665355,-32.82975402420556,-46.028520210572324,6.332269185668678,31.085147405138862,-23.44818748349433,33.56899585581546,4,S02
9600,-0.5739296491057053,0.2192645363457673,9.051200759466383,-30.12648298664735,-54.502750636226374,8.668345496370351,28.05291832043159,-22.446579074345493,33.63048857281107,4,S02
9620,-0.44380750469463415,0.5395570305717283,8.92747744862852,-28.84801262649827,-51.88234901538415,10.328247179530704,29.492450017965453,-23.953748569654707,35.60759158651153,4,S02
9640,-0.4135567731037526,0.5937926103474318,9.142502475315693,-37.28732572516484,-45.35336262115179,15.773363276960165,28.491524783125787,-22.491918190499497,35.072155979322915,4,S02
9660,-0.2202938985263078,0.6892744872179446,9.218253235932032,-32.30383136097059,-46.19871205173471,14.013566483251182,28.4376388966697,-23.82420541587039,36.693316902194674,4,S02
9680,-0.1843873699568345,0.7901695176611989,9.565597189424627,-18.147672061598307,-29.236903116743896,16.055487808073615,28.844093952374287,-23.379658075352776,38.087141855285665,4,S02
9700,-0.22107742010084455,1.2096537839038783,9.59504991304731,-12.93544881374548,-16.485452273020684,13.550359216071943,28.099137584812503,-23.730254227988908,36.20910536127357,4,S02
9720,0.007815322886308942,1.3485474992665984,9.706390285258296,-10.283040717103855,-6.7708946840689475,15.617296096377455,28.533751903637402,-25.001001410652083,38.07250876635206,4,S02
9740,0.1475005105429068,1.584440157364351,9.976645861567695,4.893709747226748,9.361859432046487,8.66747320115329,26.00349120918182,-21.720153623768027,38.45947698525921,4,S02
9760,0.36781979606758164,1.821877212776739,10.465506907038232,14.193462247005222,22.45024643408802,3.04783511115409,26.987316803289406,-25.067968555935835,39.37408269199099,4,S02
9780,0.4248283349647214,1.8576080263962582,10.763180398756553,15.060040704820338,36.46718486209077,12.833035614590143,26.11968112370908,-23.85441834575776,39.997255896022615,4,S02
9800,0.5688083852382989,2.1801608535404813,10.914941536924758,23.163610152929788,40.33201151384546,-1.2205371485630763,28.169226793509083,-21.091577953647864,42.25289679987119,4,S02
9820,0.9415888002398832,2.3729249691296235,11.22598038262318,25.56274046343907,49.916712106819496,2.8948738309427102,27.22964833037002,-23.952899864447836,41.59345881148634,4,S02
9840,0.5687714050847685,2.5724083617482503,11.260559927747137,20.854731357040652,55.0981383907656,-1.4183945122187853,27.019855028686635,-22.90715586020512,42.533198411906746,4,S02
9860,0.7454541283354598,2.385357574832192,11.417199265516835,28.009446185516023,49.23711675174605,0.07919694531745469,25.371967860357785,-23.40246913924602,42.97833947025514,4,S02
9880,0.7651167833111849,2.5287295689906184,11.444646403133703,24.882041711021827,50.855889638257715,-3.968362733849761,25.2027344387753,-22.46212062265023,40.730843005929096,4,S02
9900,0.678948766866306,2.5149564309849155,11.60881824655414,20.555387183640743,44.55900774259537,-11.918098442205213,25.751489074673515,-23.19409337851471,41.62459451641066,4,S02
9920,0.43788167718941007,2.581847517764119,11.43193837463542,6.409174505323974,35.08074540566955,-7.1958003724965955,25.69426798685492,-20.962611301278685,40.34795735834926,4,S02
9940,0.18339707917114506,2.476835113722253,11.58530313192478,13.460631683241523,32.78981984698498,-6.932523407061812,26.234531916678986,-20.99265919923042,40.040074194948964,4,S02
9960,0.34973038847765076,2.5064986527286903,11.257962168853014,7.187139332396778,19.94832324676418,-7.6970476331201585,25.535407148001863,-20.056386339884064,38.7721113285215,4,S02
9980,0.18968599988654017,2.1274219810318433,11.195531768945598,3.079581314271837,10.62664108245994,-14.072124878904996,25.507144436137825,-20.863410548578273,39.499090658446434,4,S02
10000,0.11608061744248102,1.9297462417485471,10.839365503183108,0.1364727320870891,7.257442572044181,-10.67050037221233,25.959802943645986,-17.722589697180062,36.71714393107788,4,S02
10020,0.3048549312206965,1.6911909735749395,10.515395327410825,-6.552791672346078,2.6655542129135545,-13.950229013963458,25.617560936448502,-20.043568447278265,37.15685855985057,4,S02
10040,0.2773971727602299,1.5001431233085227,10.523334074767854,-3.1503223437869003,-6.69678764754707,-14.907414070872024,25.05104609035528,-19.799254752721204,36.74992794597716,4,S02
10060,-0.03142271675282071,1.2614138089758817,10.460631605903828,-5.498355708208511,-6.0594218030305775,-21.176615756466177,25.506914303093524,-17.737200511934418,35.48792011769042,4,S02
10080,0.026132347877768608,1.192235630437835,9.823620108157481,-8.395661133736553,-7.1439120842011805,-16.200813728953577,26.0282577133217,-18.095583536624385,34.70604719435855,4,S02
10100,0.0055162690150238475,0.9321748732359774,9.670973414148312,-5.6569829102168185,-9.611363450303603,-5.762135496708041,24.58866525458099,-17.674153870366837,33.74299543171446,4,S02
10120,-0.030167261899068515,0.50610235405226,9.572493785106404,-9.546467656157919,-7.557860969456311,-7.586309134327367,26.34283822570395,-18.84539378345955,33.57428511962854,4,S02
10140,-0.11174367813336175,0.4814067425923562,9.290827104982222,-16.78827199375212,-20.45566037147835,0.7149056796107324,23.416622245497702,-17.79194351115902,33.68409935510073,4,S02
10160,-0.15616602379160086,0.4059752860184725,9.094740427834216,-17.97942126639876,-24.74789968701325,0.9439285653452393,25.938878069010094,-17.367048916961974,35.54988181823806,4,S02
10180,-0.2730285228073883,0.1995246737399764,8.872880405343988,-26.263499726875878,-36.08689402710012,1.6456103214854378,27.33460641287374,-15.830163831105216,34.274125012059514,4,S02
10200,-0.43177021120381376,0.23186288694699025,8.805799097476076,-26.761523424617867,-39.260715560704774,7.383598224880995,24.38015028300904,-14.80130944662908,34.32909431813303,4,S02
10220,-0.4278990553545985,0.1309526940447581,8.98025155159528,-29.739760186032278,-49.07873290066864,12.248250389223125,25.00073664158118,-15.615962537760202,34.52156892280757,4,S02
10240,-0.29661561471516307,0.41925262449372686,8.886449634614115,-35.43160480653952,-54.633510893498865,11.197150107401683,25.16686618586073,-14.754567792775696,35.16766013434971,4,S02
10260,-0.4510309958752574,0.4737310010334685,8.992836557772504,-31.121477034498874,-61.07215964340672,14.018776318900125,25.968547794944243,-16.268694157760564,36.612470934478445,4,S02
10280,-0.549269222049608,0.5839346633501672,8.999215090413028,-37.812123824225374,-53.02348763362972,11.181910631639798,24.53703386158629,-15.29386800545598,34.92342889232671,4,S02
10300,-0.37551646106699954,0.6890839106407929,9.283495654159296,-31.68024740075797,-48.360618533558764,16.454575678850723,25.293566179763488,-15.108427074237381,37.04612584183405,4,S02
10320,-0.27859412349210055,0.7028205894684241,9.355487918771752,-24.834208033019344,-37.82326111369936,16.73516305187414,24.344635281429124,-15.154505848517237,36.758301884271916,4,S02
10340,-0.27696809701513236,1.0589394476652432,9.597651266742375,-22.46655166236556,-28.981452083254858,11.898879064505323,25.82519306333463,-11.959357199600507,38.69538720135641,4,S02
10360,0.07945990477008184,1.1067404716432538,10.032736667800366,-17.049490825924938,-12.060650441599165,12.197530203653459,25.211601398051194,-14.490534197841717,38.0749437516458,4,S02
10380,0.18283185833576165,1.3435886588083428,9.930112967941584,1.744408777163156,5.2734975746373545,10.669069936234196,25.576113717544104,-11.346258634165572,39.403719685171026,4,S02
10400,0.11599539612614819,1.6904279337901715,10.238326006916099,0.3588634407615645,19.808867232234213,10.08694592952865,26.022784592083383,-13.588628760922585,40.256745445741025,4,S02
10420,0.3625215058991872,1.8483930531813502,10.506674351326073,13.437834861833768,26.646251668809725,13.878427688952137,26.06141506855031,-11.896715719572867,39.36591549292081,4,S02
10440,0.6140204195870073,2.0979770666514628,10.968865862510954,19.58478152806476,42.67493152665171,9.986748346639141,26.5949544134426,-11.49325763855915,39.54095490867033,4,S02
10460,0.6996497768802283,2.1312852893951706,11.166341059845209,23.16394500203455,47.15011399770483,9.359561755243838,27.80261983094862,-12.27184090155005,41.95214131758902,4,S02
10480,0.6566405291609119,2.413187565022387,11.223673715877819,28.486380017336007,54.81974564451017,1.3410360033837092,27.883908768061605,-12.302191018530898,42.13754949543112,4,S02
10500,0.6481139874985651,2.3702167436116945,11.510638522354663,28.478027472771938,48.750928259548175,-7.932527199784399,27.817305670874408,-10.365434076257557,41.88118324031579,4,S02
10520,0.7562549649090892,2.579829585150344,11.523663247482636,21.05041823977837,42.308041902523556,1.3801203098646084,29.196673662324773,-11.844373128255441,41.9390764918449,4,S02
10540,0.7636289599176107,2.543160875089083,11.563328130904551,19.391823144073786,39.554880649745186,-3.324896247065316,28.45446607853763,-9.655235400658274,40.6784955136421,4,S02
10560,0.361867718911428,2.6543000386337483,11.548548868166538,14.924248484259728,36.57235357136375,-8.021338546193807,28.12617267290119,-12.085072402357397,37.4107369282311,4,S02
10580,0.4214499300686464,2.458673135362476,11.516412248747026,12.134838691256501,25.139337815990086,-11.348203822814572,29.250102163737346,-11.344076513104746,39.863982445241035,4,S02
10600,0.44463118279346125,2.487431149295107,11.405436167506283,10.273668724380833,25.66275330390046,-12.377612286544602,27.28345342949157,-11.145737334418117,41.334875244254555,4,S02
10620,0.12061730900221944,2.133079333006244,11.107265598154797,3.7994610881117232,16.141633555779492,-8.594662115904063,28.72371571564326,-12.899515282351036,38.172002503341005,4,S02
10640,0.2913177875624515,2.020767170119307,11.078035137420917,-1.7882124572084663,12.425002324301634,-15.397410716453898,28.79870418527369,-9.749724834225603,37.4740431936332,4,S02
10660,-0.024142359497956734,1.797537393867015,11.028968759179799,4.4626416321839395,13.253937429409248,-14.231703112258042,27.875046589858634,-9.97812123041373,38.23272880148899,4,S02
10680,0.3072694164177312,1.7683353512038376,10.629079276447799,-0.6776211236596281,1.56916150336424,-15.050142256143173,28.738229185417442,-11.15048632392695,35.84004522884351,4,S02
10700,0.041421481232903845,1.3116462278418197,10.420099498488508,-6.517981871310951,-3.7110481646789113,-15.862880968802083,29.321038340944757,-12.806046334941584,36.60298491405579,4,S02
10720,-0.09453909169614186,1.109409104321744,10.055002163815606,-5.5836151883594605,-8.155342708790997,-12.936191235880191,29.297312715473534,-9.311713627044625,36.585479833087994,4,S02
10740,-0.026824869426442882,0.8693317554415092,9.764157673600833,-0.9501102178552108,-3.5078107875641606,-12.67024181211073,29.77879701928764,-13.22731388634347,34.55966178566559,4,S02
10760,0.1493288600487776,0.8402275082171937,9.681605228282095,-16.76811121603391,-10.382843184890955,-9.530136491258297,30.013503350487536,-11.209327455490651,33.15473354122847,4,S02
10780,0.016353282496455998,0.7632427509171134,9.198409166367906,-10.353220822312466,-17.183330414525646,-5.0699372393259265,29.00045022411274,-11.756479985156286,33.69129473202827,4,S02
10800,-0.09102184284881071,0.22307939093347273,9.39040833440106,-10.409532562359342,-24.33612441345179,-3.139197941393298,31.030953049211256,-10.611954837756176,34.33788580278717,4,S02
10820,-0.15941270039448455,0.16354449009920408,9.240780960001238,-22.24077713887741,-37.66747296653773,-0.7647862862880938,29.96767335950725,-12.392510656323317,33.10501286956579,4,S02
10840,-0.17783924245754804,0.25897506986882274,8.967748540409724,-28.59173819264625,-39.792544816021,5.880791269860062,31.02344744183502,-11.841698463999034,33.29188990925282,4,S02
10860,-0.26326140039853063,0.24837551508413075,8.914649231939677,-28.99220565814328,-42.73229076197148,14.094128776514928,30.955631020921082,-13.288503371355972,34.144402177304855,4,S02
10880,-0.5463840211778556,0.11370489635046849,8.866716348163534,-33.00620870130152,-48.284300216936934,9.720340760531744,31.43096120381359,-11.037884288779859,35.4057116859405,4,S02
10900,-0.5721011739421576,0.25551868306429976,8.9209239495251,-39.18361336711098,-53.92495329360933,8.688887870146571,31.810506546688863,-12.556993283560324,33.6659772430546,4,S02
10920,-0.5112490195327424,0.3515237078773115,8.978154396377997,-33.30380694493121,-47.759294442500234,11.762750478804904,32.01998645875153,-14.489409796697435,34.057151650775495,4,S02
10940,-0.4418126912350432,0.46359262941468,8.951241571087001,-28.891211486945615,-53.98028661256552,10.815438262351105,30.473743149094833,-11.66026036816485,35.43389361135617,4,S02
10960,-0.458886899596185,0.7348287041560775,9.250625410598536,-27.97724420006034,-46.48119395233117,20.665652732210344,31.23329214502478,-12.340508031721598,38.19795448038189,4,S02
10980,-0.052252198821830714,0.9901992005832514,9.416584813306464,-21.630622037889342,-26.89765654181481,19.875921211270384,33.178071536698056,-13.912504753001262,39.263601783390854,4,S02
11000,-0.007923263495221877,1.3142334580878137,9.641838841813536,-17.8824457749266,-20.207148072998926,16.361183922038524,32.68616606437379,-15.06920524563593,39.06402201700213,4,S02
11020,0.11743616801668522,1.2238942461641544,9.828657961525852,-5.2156551313645165,-6.989177905729377,13.915755838296628,32.188954274423594,-15.188399466085327,39.08613739845734,4,S02
11040,0.2619155023598253,1.500637152844571,9.996213439831411,4.419213500120855,8.745885052226118,10.988567859941986,31.826782181677626,-13.57026622368732,39.82067031792521,4,S02
11060,0.44975249423206987,1.6507049105172724,10.547993894815196,6.945727203402886,23.463331678008636,10.154034019985156,32.53379309510559,-13.012391866149764,40.12852393405973,4,S02
11080,0.5375788132976489,1.941574463995196,10.653665396888908,22.63901286117395,30.8111235354945,12.893320527072172,32.795624011423854,-17.310772991519777,40.48780272065089,4,S02
11100,0.5990950407974243,2.1422121321635226,10.991981678596613,20.527804328856153,39.51603964405865,4.0797761462430575,32.078525082022274,-15.203957826014921,40.91065688062741,4,S02
11120,0.8996993340922462,2.4131329980611667,11.068225182381076,24.732686148581184,49.83072731661447,3.8399402957477364,33.69425802661716,-15.903473644614813,42.64740277165707,4,S02
11140,0.6275276210569455,2.2318250202621366,11.514561369538274,27.838261932290127,51.94826853819158,1.1568030824620625,31.97996828790331,-15.488214549923919,42.07965904426132,4,S02
11160,0.5004924465599254,2.606720721539942,11.306071248040864,27.644871820672076,53.11738674708039,0.25231814864166047,31.369199670139228,-17.15736164306591,39.35849232993516,4,S02
11180,0.509040386097122,2.402547813672807,11.531368904434697,17.65507170871898,44.35051492856459,-6.550094518808414,33.16420328568768,-17.118303493442003,41.52128447643187,4,S02
11200,0.49194542258077534,2.6133706667562024,11.61967079862572,20.363173787796047,36.44994517598634,-8.034990785099293,31.548171838025127,-18.563510457023767,40.4668514264957,4,S02
11220,0.42501197966803983,2.6434289152292423,11.465719228385296,8.743423583398094,35.52353660394673,-7.290350063806004,32.03109920831795,-16.0489948265193,38.53842512307604,4,S02
11240,0.2173214780426987,2.5021682752429126,11.530751020446234,5.614353497404889,23.860707322829295,-15.702135303319464,33.31313463300885,-17.343936339506378,38.714101639897926,4,S02
11260,0.3483022811741192,2.1825138866871736,11.244223509114637,1.3657467232999991,17.176261195446862,-12.913740361264237,31.971993333138972,-18.093803447097116,37.119792751657606,4,S02
11280,0.17949480744053883,2.061029893845318,11.164687978140998,1.6240852720648054,10.700215444447783,-17.903913417326606,33.53296403096631,-19.048681252972987,38.83863101944963,4,S02
11300,0.2900073580152569,1.8983485720905677,11.208780899823433,-1.3133891154660722,2.631931706575063,-15.973099623019417,31.984493074071572,-19.3637150362781,35.717833289925395,4,S02
11320,0.11052207087886455,1.6555244197387688,10.624635632135863,-1.861040849814259,0.9684754810637146,-10.654258747729953,32.2286134075005,-20.946226812398596,36.77997473346911,4,S02
11340,-0.045157224481260916,1.4746543174128093,10.410364488678352,2.6492277722851325,-0.9282353581891492,-13.975655856679504,30.29230920187396,-21.12649824246444,34.62079044173116,4,S02
11360,0.015207670520727426,1.210185559222772,10.168390307534656,-4.641546675441486,0.3113428652938792,-6.697567722737592,33.174680959196024,-19.901655963653404,34.41912236184614,4,S02
11380,0.06960485924587895,1.0605993873543742,9.789301149191592,-7.933676810551654,-12.638992610536885,-17.952026216444168,32.66339670218926,-19.943104228511892,34.98962786285415,4,S02
11400,-0.06688589409239881,0.7859488028755552,9.595110822266797,-0.13442725138559464,-7.290645077684334,-7.729710726701915,33.394574403221654,-21.009556981664936,33.14893831454104,4,S02
11420,-0.008792670253405716,0.5470746700302704,9.610084576952252,-11.835327918107875,-17.71103306908004,-11.147487613588844,33.4507541394328,-22.91198642273379,34.75679316637039,4,S02
11440,-0.046901902050509675,0.3128375969538177,9.231059395208145,-12.908925971014892,-20.62027094591301,-7.357393028510344,31.222646257563653,-22.239247718385442,32.88185942141722,4,S02
11460,-0.1296602834643236,0.3221614256193215,9.14720272964959,-23.834281301716118,-23.103737425894746,-1.5822802791044532,33.16337955698947,-23.24186026275294,34.647064524300355,4,S02
11480,-0.39505194602356986,0.1379840033598241,8.944615933828107,-18.0526109563895,-35.423350507004514,4.454828038937489,32.79662301449824,-22.119911932031947,34.59965132867082,4,S02
11500,-0.3919885457989736,0.28556733178346344,8.906868586738899,-34.08027467309994,-39.67224941232203,1.150647946772691,30.134357720662756,-24.849717908487772,33.21360818460836,4,S02
11520,-0.587647020765622,-0.06098241892753886,8.90752279641298,-33.77760618772228,-51.585077314798156,6.937625153793408,29.18053121055688,-23.96376497602094,33.145162202915046,4,S02
11540,-0.4860095060162355,0.2680993841619738,8.82552345882656,-36.437466433569476,-47.25030328686705,10.027790973750156,30.47540523351625,-24.63739786221135,32.75993724955448,4,S02
11560,-0.4584322872260468,0.37437462328082166,8.929689853290684,-38.180425145157336,-51.76052754356616,7.115116387039571,31.24130321115226,-22.091364214443548,34.574764050163026,4,S02
11580,-0.3164087551067504,0.7215983095905774,9.029503974635794,-38.32550582154367,-47.269220184375634,8.675250152176377,31.495522806456034,-24.415306660502623,35.131574935897405,4,S02
11600,-0.4008897812562008,0.652300179864769,9.157723292158892,-25.207927143374505,-47.46707343073895,9.939288259457816,29.292082034461785,-22.015613407345825,34.452845985930736,4,S02
11620,-0.25400458843637197,0.7907594929390023,9.407803272372856,-28.634111697317135,-41.85658860333392,19.454530897161604,30.221841825906694,-23.00245369969042,37.77535593069087,4,S02
11640,-0.1241165772093071,1.1246222209511152,9.532172705709835,-18.529435714745702,-22.62445359375959,22.366930424765396,29.6935517509393,-25.648906210957207,36.54855701993766,4,S02
11660,-0.05005478479115466,1.482195106156247,9.96607802028466,-10.097724562093713,-4.41308206843522,11.609582169421946,30.17828911568948,-24.345268296351577,38.12336185968899,4,S02
11680,0.21299089813062963,1.4744598066150703,10.014575907760825,-2.7799826488260013,9.342115047393266,6.608124282796189,30.07872655524484,-24.083433339849567,38.143859479481755,4,S02
11700,0.3214199963138902,1.8139847346323628,10.40324132539607,6.2722560067812365,21.319072518020082,7.059481881365136,30.353077746780006,-23.932906521434834,39.79122133404224,4,S02
11720,0.5374568794516005,1.8409133299235616,10.701012583804983,14.830660852800882,30.334703676714984,5.638140188630448,28.964847141096367,-26.046307531192024,40.46200635184964,4,S02
11740,0.6000157808637208,2.1210254195407012,10.9521282033687,25.33141145789511,38.57859184652006,6.542931612864576,29.175254354524515,-23.725601205378936,41.27027220793448,4,S02
11760,0.5015342896442112,2.4501723577010277,11.0702590566842,19.17733315518954,48.55714886383545,5.835778910795247,29.831583959815497,-23.983155899581547,41.65802775162791,4,S02
11780,0.6710371527927926,2.4432545737367692,11.347630056738726,27.47387887791036,49.2877428172565,4.953070085962145,26.65662519733995,-25.05267967590544,39.187508888637,4,S02
11800,0.44761854644593624,2.2949736557825835,11.51983863786276,22.736028971463035,48.87378739938031,-2.972853214467614,29.084860246272903,-24.466910572094026,41.31168874026091,4,S02
11820,0.6809875951367756,2.596049188818586,11.301930666914444,20.190591389237344,42.54116240241873,-4.435606719380787,29.20089915406098,-23.828927754218352,40.71992768571027,4,S02
11840,0.6727056919399457,2.4800651075651206,11.698358323269336,20.626733440923875,49.168175870865895,-11.229899640526495,27.031190534242867,-22.362501002586228,42.85631454610518,4,S02
11860,0.5507063586343511,2.6402953142462526,11.525726647017816,21.447168153238533,38.95508800065505,-9.313162008367954,27.669913117309175,-24.001659201201132,39.201496305359676,4,S02
11880,0.34273865078543264,2.564750739373066,11.41590485423877,10.968948311719092,24.23655743585135,-10.221519460618378,26.298488143885695,-25.16365370821847,39.54692483254876,4,S02
11900,0.4243120025832756,2.3421696926909705,11.509969374716581,6.150029759913635,20.52288470470324,-14.778514830688433,26.206270757269905,-22.566022812811713,38.06400217506669,4,S02
11920,0.29996146389989825,2.197167481851953,11.171223753545043,4.934771604476288,15.39451515689412,-19.0202705304528,27.513577776930035,-22.571379516295465,38.57921334110136,4,S02
11940,0.3316650244709476,1.873434460121343,10.864996172237344,-1.686259088257307,13.189531251160094,-10.430413199424686,27.488224101804487,-23.918220301920698,39.02330665941269,4,S02
11960,0.1883717139155743,1.5389606501949205,10.798807235609289,-4.551166679687491,1.1715574496522294,-16.107433893047293,26.108258354097696,-22.59636122002582,37.1251476989466,4,S02
11980,0.0722577354528159,1.5917233232259973,10.49914638165997,-1.9099625318428375,2.530163735475357,-17.85888378183065,26.359836151060797,-22.05061838686015,35.84809692001224,4,S02
12000,0.0660674749560421,1.3330293024977273,10.317330398521573,-5.493877041180695,3.0960620488017145,-10.064804836600773,27.400321225632556,-22.748391645501215,36.853546119565706,4,S02
12020,0.24979613524192118,1.01192782122438,10.189405249385114,-3.9840269541741886,-4.776302018810616,-10.381026341833447,26.37477721931702,-22.136583133605733,34.762755654676596,4,S02
12040,0.12007466540492066,0.9263674677222433,9.793257131788492,-1.3048048904537488,-15.223849382047518,-13.810279917939885,26.691768539060433,-22.9439973037475,32.95240720129853,4,S02
12060,-0.004746595740799192,0.6363833272627928,9.615699738359254,-7.888441852604764,-11.157343736835925,-11.771088595447283,25.53996800725977,-21.996592764189167,34.56921813650567,4,S02
12080,-0.13767846017255003,0.5181369925496495,9.327674450811434,-11.635623525627809,-22.43152500834213,-5.0483733219095654,25.213044913829584,-19.788479607031476,34.47893665021156,4,S02
12100,-0.03475480668991998,0.3471286143957949,9.20947991788315,-18.890663691296492,-25.139482395140913,0.5953602574290179,26.03009112501104,-21.125573733330118,34.646675367717755,4,S02
12120,-0.4407912624565754,0.28410282647375856,9.161739575055352,-19.817665583499707,-35.01070136722024,-3.4402646505458505,26.044779129090962,-17.864141102845785,31.186949834525873,4,S02
12140,-0.32661974763211177,0.2037739707121768,8.997188551561186,-26.245756853300545,-38.87875543537179,-0.3456930996507658,23.931166373162327,-17.68002302116343,34.51928474300465,4,S02
12160,-0.3074557101092463,0.1846047194739665,8.999554703444222,-27.633511506391304,-51.87771122915295,10.420118126197048,24.81367180669291,-19.0493030283016,32.635104731604734,4,S02
12180,-0.7090706573773077,0.3025453336371654,8.906878905788288,-37.470044767028774,-47.83307308810455,6.552864348051241,24.870438177069914,-19.955310148427266,35.03910491104756,4,S02
12200,-0.590013710418693,0.34725207287418114,8.90648295508131,-36.55773288055045,-51.76680322296826,12.486290463338229,25.379209637898995,-16.086094163518233,35.46814155679087,4,S02
12220,-0.48559337693771387,0.1914801823697475,8.924475106935727,-34.398751421631644,-56.06235789106322,17.4769116644256,25.16894971367249,-19.605199782415234,36.770015407071696,4,S02
12240,-0.4171143354381581,0.5992371268646475,9.130525146074538,-36.57348683030681,-53.05682880946225,14.168193559784765,24.4910615834226,-18.620740623502595,36.35990728154795,4,S02
12260,-0.26601119097930515,0.791870068226558,9.386767177207188,-28.2619602860043,-42.774891384203485,12.920805025949416,25.606720174262126,-18.250975752997086,36.61544676590893,4,S02
12280,-0.31871307165339524,0.9049156417338928,9.481539264059327,-22.56938855998134,-26.338103888531666,14.533315671864022,25.292367187330342,-19.278460148059576,36.56758189263352,4,S02
12300,-0.0768982591739584,0.993603507514673,9.634440473215275,-7.867706177121647,-14.041643561290066,21.17933477494991,25.372192503959432,-16.535399168161728,39.77938717989951,4,S02
12320,0.10326751440467456,1.491757241297989,9.824574856666306,-10.167885672632508,-5.077202486544894,15.036075345746205,24.17381388137251,-17.55327790327553,39.62096170422874,4,S02
12340,0.22789768019580195,1.57123719226505,10.276054420538228,-2.21692430668878,12.873395353283989,14.687026233919404,25.58975561343665,-17.744278353172934,38.14143234733325,4,S02
12360,0.32965439041197686,1.917464339994611,10.532637494706536,9.312859670954154,25.125624522301365,8.836387368014575,24.73204558735627,-16.558111838061667,39.93916842293202,4,S02
12380,0.356900953286983,1.9997899404954336,10.807871081332776,13.86372739940002,37.724640131469535,13.825748253074481,24.251740691436193,-17.303671598021005,41.45253502814085,4,S02
12400,0.5988008426950895,2.0774934770448206,10.997754558695233,21.318546783629188,45.930355894144036,10.285787346373587,27.09607478135711,-13.344607314764414,40.988155861712855,4,S02
12420,0.45153141955389753,2.4710865626557013,11.298207384857713,24.776573662263853,51.893311570917334,3.5724687275840052,24.500868697697754,-14.524068788211055,41.418751462640564,4,S02
12440,0.6631859194974719,2.5943719837072625,11.507970384276133,25.438228493532733,51.827202432406935,1.7163840627358868,25.818623813907582,-15.327506050522768,40.67846201241234,4,S02
12460,0.7298356100980065,2.274592258869594,11.557000067492774,22.362305398880007,46.25645440641973,3.4348759129348734,27.108034678774043,-14.102032407131265,40.704262294656374,4,S02
12480,0.705271535271028,2.6611709790836158,11.598186242770806,25.863367087409475,43.48550095026286,-11.223507828937668,26.554466808058198,-14.937276412521623,40.36221034655635,4,S02
12500,0.5062486611998557,2.496798405542728,11.336271701145245,18.128082630023567,39.535925645329584,-9.605527480057875,23.77637766558346,-13.171585169502938,38.65131749336444,4,S02
12520,0.6649602159416047,2.765118100665353,11.300165205800853,10.871168565955138,26.782649063190252,-7.292348956783805,26.65019630117257,-13.48965515665609,39.68848525873407,4,S02
12540,0.6313337891555908,2.3718327518756093,11.533082365090333,8.18719974984483,26.837828306803598,-18.07283316409652,26.27998969510803,-13.043447170502933,41.35989817992447,4,S02
12560,0.3713823583375919,2.3803920407922177,11.164306087479748,7.149502060838665,22.22337604745218,-8.776367764942155,24.946111475595643,-12.124058207489334,40.14037268157623,4,S02
12580,0.4246908364695756,2.083302044113242,11.09223840248883,2.9982156310885326,5.025488722929497,-15.889865407347111,25.147862048483354,-13.25465858112911,37.625285434654636,4,S02
12600,0.33332491014222354,2.0147413370528806,10.799052448681811,-2.43785719254177,7.637688878140675,-19.739461409652094,26.469288485127723,-11.521998641505437,39.592564952932634,4,S02
12620,0.2661772413387483,1.787313306406753,10.902892401319493,-2.636836586360432,2.2239284302871676,-15.011170788149467,26.07646833600407,-13.884452566298997,37.247195071455295,4,S02
12640,0.23295447382266915,1.4530250423667186,10.401321004059902,0.05625091991391695,2.088817274660447,-16.241523478164225,28.28933745009277,-11.851785194801963,37.0995691870774,4,S02
12660,0.19317712277226695,1.1911101897917673,10.152704580132324,-2.850153457291694,-0.17977958828166885,-7.182579275987104,25.371594996526767,-14.075332192127734,34.50690937274152,4,S02
12680,0.017390224879511668,1.0359011981284891,9.7411315244665,-9.554784939522232,0.43221183859590817,-6.838741337898368,26.55948446981402,-11.868534879891694,35.24541150888,4,S02
12700,-0.0441498265846432,0.8247593549035537,9.679642411534763,-3.2381889502205095,-8.40291182690944,-5.231849543964746,26.707961816121635,-10.938130366067865,35.36861074018631,4,S02
12720,0.06475507513833831,0.5272183580585295,9.410921066036577,-13.956783863115913,-22.621582636054494,-5.488777472577318,26.56110502226695,-10.133965155571545,33.71997320887114,4,S02
12740,-0.14924401171688362,0.46272788888906596,9.234316209152528,-16.113456100703164,-24.122273399091878,-3.895859681687479,26.81088130255508,-10.767257827575506,34.58579219886991,4,S02
12760,-0.1054600218782856,0.4656767453015555,9.128758926135704,-21.115206572890095,-25.225587756380424,-3.2042476131137922,28.99523155412231,-9.992767375606107,34.106753071451664,4,S02
12780,-0.26289234005985174,0.28411475990567514,9.106816013303764,-20.17706379331755,-39.6688523826786,-0.28893314209434406,28.390180666536576,-12.419219161802939,33.48462393712802,4,S02
12800,-0.30497010416482584,0.2752676250818761,8.989318999220682,-24.46407769921392,-44.19485656935914,2.0333373457520705,27.507537837716235,-11.940900167556899,33.5998313308432,4,S02
12820,-0.3093793809033065,0.36178399010470824,9.158899774897852,-31.233996745024,-50.54191506564157,15.280774409222309,27.410762987423837,-12.916563657547398,33.66053153891782,4,S02
12840,-0.5492899238257868,0.18219887820265052,8.841146490547002,-33.61879630131454,-49.140088976285604,10.42119732170288,29.240984962446845,-11.276577447496724,33.94247575283586,4,S02
12860,-0.523285206195474,0.3691278830979048,9.069506539792236,-29.402126759761686,-50.45851760283122,15.050924823582163,29.570931198987953,-10.74300413116023,35.75092673765626,4,S02
12880,-0.3691823728888124,0.40141480094879195,9.210253869990684,-29.502767447632213,-48.90586852834833,13.981438645546476,31.46792180666617,-12.15617722928167,36.08703015468396,4,S02
12900,-0.47918422212131195,0.4669455575622989,9.390454070694368,-29.8461492842485,-36.60455662373038,16.13565644686905,31.04233412175152,-10.556639463018168,36.64081154716413,4,S02
12920,-0.2849456764732836,0.7505890462129776,9.626373801563263,-24.669417651098804,-34.9883812675098,18.570748137547817,29.626048399932852,-10.787577711246094,36.98993792861323,4,S02
12940,-0.2002774454223135,1.1741982098955555,9.534988598014385,-10.8016485177599,-21.76016880550327,17.41851969017249,29.53938656217829,-13.310529389845422,38.62551538475781,4,S02
12960,0.0050991443471369025,1.340229458893629,9.778071574409758,-11.253703096760983,-14.108587356799193,18.569723369689044,30.027235461149996,-11.839827342931407,38.03059952950948,4,S02
12980,0.18376378028947704,1.4157848188119597,9.950325865539682,0.6216388161907123,1.5371104385819392,14.531452133716117,29.883088737700024,-12.089964907428891,37.73040256722165,4,S02
13000,0.4801435344453667,1.7680855534217748,10.254153991877525,11.635721209789402,14.731581106227337,14.408022845657987,29.948223971871567,-11.527401230793506,41.92199971754859,4,S02
13020,0.4510341081156263,2.230428203228619,10.716393340698545,17.83726853809914,34.169483846055954,9.211009135622215,30.104605006140474,-12.31199011285813,41.075068433009015,4,S02
13040,0.6789918251865381,2.20625011224753,10.872394334330627,23.022816708025324,44.263079617230304,6.718403497946136,30.304672377933755,-10.643267854349485,40.661212208684006,4,S02
13060,0.9042405157316976,2.435958566164237,11.129880702346577,27.37599726388215,53.38202007161227,11.81220618037772,31.680529179587552,-10.773780077525972,39.80452652701968,4,S02
13080,0.6503767038407192,2.3926404372199643,11.174662294679765,24.94035797332363,50.605693409633176,0.16134832524966114,28.215772824361196,-14.2466413520136,39.27103035813291,4,S02
13100,0.5804758896449034,2.549487076686361,11.364565198295262,18.230027373812856,50.350111004311444,2.917442035517748,31.36107711991398,-13.549687644003539,43.18430950303,4,S02
13120,0.6062657676417931,2.610765849554973,11.431185985726795,24.536312350804916,53.45476324539489,1.7839420614601678,32.720667090103255,-14.57477476140064,40.23384788925925,4,S02
13140,0.6252814872637094,2.737132668483388,11.689171130904615,18.37486511173009,38.34666102917441,-12.051855634521111,32.54719270129702,-13.78862377137828,39.256593500013295,4,S02
13160,0.44989423646863436,2.643849968534521,11.661218954218079,14.596055409393571,30.836744794971917,-2.1452902078160654,31.504123564791737,-15.005477351960842,39.77248049483414,4,S02
13180,0.37034739683581963,2.292099027930253,11.617359953239008,8.957007305533196,23.600408389311255,-10.375465360433486,31.657704179937706,-16.553320260962273,41.80031622873933,4,S02
