timestamp,ax,ay,az,gx,gy,gz,mx,my,mz,label,subject_id
0,0.10850660840755612,0.06976173075952946,9.943457171361066,-2.9444947255234952,-4.840082457891621,24.86363316884655,32.622917651835266,-6.628260054498824,39.31249637260716,3,S02
20,0.8234385534507511,1.3928673527996431,11.329003154233174,31.21849549345347,53.65769099752273,15.00505325020088,32.212470321240325,-8.970181937503467,38.96232998836752,3,S02
40,1.2639558734250835,2.3973377070213338,12.171513245437664,63.03304351827859,98.80455707562953,10.638527173606565,32.057323242747266,-9.720375829163066,43.305591938238656,3,S02
60,1.4555988214588942,2.8690761593420606,12.709439454395246,68.1019506259413,111.75530895773788,-2.790839032720522,35.27287657959432,-10.125323424457145,42.049557491972,3,S02
80,1.3760817475237848,2.6441889073233975,13.103085001792675,59.99020666409575,103.32542621272655,-34.38914758498964,36.21533561827539,-14.984603173918886,40.65263753501403,3,S02
100,0.7053001755828554,1.9716823364684288,13.033828289308714,30.945579072634406,73.3567974554638,-29.478574800923447,35.847314890870564,-12.463873503397837,36.5919585292506,3,S02
120,0.46997490848424717,0.8829717067316232,13.038599626348304,17.425565263827583,50.702553273685226,-38.6955234488264,36.69318002726702,-17.14873541583734,38.231613988504,3,S02
140,0.3420070694395275,0.40837052539228047,12.39781843401375,4.520687263904272,17.676984812872085,-41.40237241945377,38.56440075696953,-17.266938251092313,37.39690681687088,3,S02
160,0.30404181799512753,-0.13214463095966608,11.907254263808438,1.315884441303834,-7.503508581484194,-34.59667700185807,35.81683960748169,-22.45419541809905,37.71811685284474,3,S02
180,0.11080661533754102,-0.20280845695724614,11.110611809541506,-12.001642938858271,-13.512748567521433,-21.781575397226824,37.6544830937494,-23.07099585273471,34.14375520248424,3,S02
200,0.07088516663933006,-0.8052906819596719,10.296399847226358,-14.266996372216145,-40.516512099279176,-3.591575190871908,34.78261629636171,-24.958011600717057,31.657975681069296,3,S02
220,-0.25746281168079266,-1.4004085635450314,9.779416961789966,-33.985212373504844,-59.49291113391274,10.889428616668567,38.31107762485765,-26.51821889570307,31.887578354723345,3,S02
240,-0.4397376865387318,-2.107671443542993,9.337314166354576,-49.41141311701581,-83.38549694145526,21.682935039024116,36.617568758027,-27.025635123199898,33.314662948042475,3,S02
260,-1.26679774421564,-2.6169012754808043,9.093667456618052,-72.92014411098866,-113.5392571898722,30.31564923574934,33.00536831429359,-27.20788041672908,32.06677260502566,3,S02
280,-1.489013655079688,-2.872979291681416,9.156055214276439,-68.76524334742051,-111.4310831510434,43.22520284330829,35.85755585704127,-28.02700244751615,34.25520966885162,3,S02
300,-1.006733237310626,-2.261043060227992,9.370556827325226,-69.43579640908865,-76.07996881989361,38.06252275818846,31.221251197020795,-30.008223112523517,39.994176053073645,3,S02
320,-0.4358533327317985,-1.2278372656134386,9.533518108259607,-37.87376859221018,-49.47300572322081,38.34230110724813,29.747887894866555,-31.31238013986395,35.057630647845485,3,S02
340,0.5150017878948109,0.3427716954029678,10.582507852327067,1.7882728528286966,27.162233177574134,35.8391606836589,32.3033240168352,-28.918452711351453,39.61769966699653,3,S02
360,0.969772621589661,1.7728855614447665,11.390032530076661,51.86190136278597,67.97059488786695,23.438449481091467,27.72233577710739,-30.39661977798041,37.14149123434272,3,S02
380,1.2543772802375988,2.742918864783186,12.481392077746074,66.7192186514696,99.11907279440797,-1.0149681350266566,24.23601299986918,-28.160041568538087,42.83617878450279,3,S02
400,1.2231627670534928,2.80703166588435,13.180010714957469,63.90839643560112,114.7972215372059,-22.796380195652524,25.443894369225053,-28.703901975664454,41.584546156586676,3,S02
420,1.2371854633585257,2.126474825632074,13.170322829595266,49.52917699354347,99.76823229212646,-24.375948035336183,26.312835858638653,-26.839624887261742,41.997558715462844,3,S02
440,0.6047715854154632,1.7511585524909543,13.467351732217747,31.17426616921193,64.69403847093133,-33.151951394466636,22.70635953252793,-27.695920148476983,41.16726984317896,3,S02
460,0.2585583716255981,0.8901272439002308,12.849236292468085,5.999727234777603,30.827071441368656,-37.69102683110983,24.15051391317118,-25.137280287438724,38.027364377550555,3,S02
480,0.23140522427192395,0.45990959042860174,12.293841593911461,3.154727070330398,19.551850785829554,-38.03697635165383,21.09025465743339,-24.967658403811345,34.6148538140196,3,S02
500,0.25294201644556547,0.028299958525878396,11.638409775303062,-4.2240976821149525,6.51917081507354,-22.696103922771464,19.745086114148855,-23.490311706816396,34.375494262698325,3,S02
520,0.03832285094908157,-0.4604689736085546,10.82782764658169,-11.317441182536786,-15.608550173319138,-20.854833947891517,22.98967015610355,-22.170504355822693,34.3328494207711,3,S02
540,0.01870178795953445,-1.0353323485215329,10.12540403214488,-17.064172995375294,-47.61652094105962,1.8537872044174057,22.785641465034516,-15.186122130686673,32.40087286129932,3,S02
560,-0.5027667867987302,-1.5660201968354495,9.551142711588742,-36.028963178785574,-73.62321432566,9.353382862756087,21.774883031586484,-14.61507436543824,33.37883922491585,3,S02
580,-0.6021736983840978,-2.396525025402844,9.516293707302918,-67.070769643681,-102.56669099064875,34.39483157209025,21.736343911152282,-15.880825236706842,32.809856981308755,3,S02
600,-1.267425298385124,-2.8248779522702483,9.278116782783625,-71.3958321841003,-106.0632152698003,41.768733961576245,19.219423051928345,-14.254092646915877,34.34388931475615,3,S02
620,-1.2213696411232726,-2.73306643958982,9.39204722851534,-72.94888786049617,-108.8530799101432,32.77435709297873,20.45862333057915,-14.5532847295889,33.63923798243982,3,S02
640,-0.5943713146208904,-2.084646207302638,9.533879448984017,-44.18120360510615,-69.25350297665693,46.144319096952394,23.739840519004005,-8.498874113600083,36.10877530707251,3,S02
660,-0.3284721582554302,-0.6515763671935124,9.98493789526202,-24.880390238149193,-13.48474883436918,24.94651382638917,26.56279714611033,-8.94681905395817,40.246545967165034,3,S02
680,0.5575476414983853,1.0534529548140632,10.854801263030593,23.02080685166365,45.21071900374466,31.608723189232457,24.13914193610643,-7.594861583888607,41.87908586289453,3,S02
700,0.9943400156187743,2.244623051971196,11.909296537357786,54.96570409928723,92.8690836398498,5.058444678090998,22.881484711305283,-7.480595990738186,44.71796468514442,3,S02
720,1.429745909442008,2.850600035038781,12.568609316110324,75.87136500195983,110.98437981716656,-6.791260329390642,26.296121245569783,-4.230448084851238,41.382287005349475,3,S02
740,1.1985123568920804,2.579028759676236,13.29443059457547,67.42168540241727,109.78512507909292,-23.470213459114746,27.873525633871786,-6.917981687014428,43.33634177241191,3,S02
760,0.9065003777652052,1.917074784196871,13.25957730982395,41.85110381448694,78.39480467203323,-36.30887089593819,26.568915318196225,-7.630424713459933,40.86208400406959,3,S02
780,0.2694334252562851,1.3631209083759797,13.097255519584387,25.955240196234183,63.857959185035455,-34.64560721627446,29.273794516451296,-6.133517206018521,42.608177578384684,3,S02
800,0.23075768442744998,0.7223087460691915,12.56438987825022,7.147257401646033,32.10014408228098,-34.35502064747042,30.028376157198267,-6.457678442328868,37.77442740061731,3,S02
820,0.13393461286974373,0.2885289018527515,12.040585258163093,-7.105397171475205,14.353871956655862,-32.57181946124262,30.224079669782217,-4.748718205987185,37.01280288684616,3,S02
840,0.14764083642155829,-0.2700442243421539,11.356590921991359,-5.55602582775149,1.4496272565858679,-27.664989854107493,32.39837510470069,-5.822463683528175,32.30052641047341,3,S02
860,-0.1158839778040722,-0.73624600675616,10.73845166385869,-17.677862672555158,-26.937493202076098,-6.393122597492061,35.14930063428642,-7.395926651144079,32.70216354266046,3,S02
880,-0.19813404143263982,-1.194228993418262,9.917552488620478,-30.543863647137858,-48.43876980185661,8.039813979736305,35.94799939411868,-11.520271818031024,33.308052371303944,3,S02
900,-0.7462054005869918,-1.9652940715474125,9.487808506389124,-44.375153182776565,-77.19415467711157,13.733984605141439,35.14804921341835,-9.550913772039873,31.404591320496152,3,S02
920,-1.051162849720216,-2.8364160380317287,9.149754229599075,-66.2376407747921,-105.81904473717138,17.49891002213246,34.79409326339106,-12.379745795271027,34.174586862752605,3,S02
940,-1.3995714961533288,-3.04687792562515,8.974162341090025,-79.34833221013369,-121.99780498592082,38.695711992992756,35.20097495367093,-15.571108622460631,35.091228516189,3,S02
960,-0.9394494850128375,-2.634447846542483,9.184878754919975,-66.37390977231624,-97.0673649873496,32.887066917550065,34.97522294027931,-15.092670086404297,35.10576109795764,3,S02
980,-0.553062639560617,-1.268704786325967,9.887048052033368,-38.17627690424165,-54.159025000327745,42.59015531759077,36.91409191699488,-20.421159429623188,34.69800190680346,3,S02
1000,0.2764767261091016,0.17443211505226053,9.937469578062247,4.409405473939315,4.486570296503722,27.925692576912105,34.76234770274483,-20.417667354455872,40.6599269741471,3,S02
1020,0.5887928348935959,1.6277559231620398,10.893945371236875,38.587919457584015,68.02068502176634,10.867364156942292,36.46600002808975,-20.74859265867488,44.44719824675123,3,S02
1040,1.2127122043324148,2.4001984058226724,11.844231093690361,59.286954143213215,102.81565783628568,6.888318466294279,33.123315566860356,-25.52380914313115,42.218460423493866,3,S02
1060,1.1995210178044247,2.7825924991519466,12.695159996127153,70.6148024254097,107.53360227177795,-11.503015630040784,35.95020510607384,-21.66630135498488,41.72081278142186,3,S02
1080,1.3150380469297376,2.4627720636158346,13.407046368165854,56.08504735245481,110.89275715380246,-29.28908365554672,37.48660830685891,-28.188108126987306,41.11095953472268,3,S02
1100,0.5945018216068638,1.8097972390319896,13.46614357072371,39.48780243981793,69.0203877945732,-29.86782462828559,35.546890708469576,-29.90759240710649,40.083661848843725,3,S02
1120,0.3578375995413109,0.7567106803539336,12.86759289524303,18.42875144051633,43.68172896951978,-39.81522532779107,34.47045293536688,-29.43899651937187,38.22847121993518,3,S02
1140,-0.008262108042055294,0.3353046173247466,12.533444640436834,16.74044923201366,23.608275502505098,-27.49635043189617,31.257161275339133,-33.61546275397889,37.4264764391927,3,S02
1160,0.06789286788243162,-0.15414665581850578,11.97023674239932,0.10322690057288941,0.5894885976947417,-35.42335680415521,31.548463370673947,-30.303799701373908,36.640409060142,3,S02
1180,0.013440149282017977,-0.26011264417570923,11.190907722450344,-9.807071277133279,-8.692789150121662,-16.097161882266285,26.942360168247262,-31.79000017154756,34.42206290416436,3,S02
1200,-0.022129123937554063,-0.6432001499471309,10.584109420552656,-14.576096352887628,-37.78393879541658,0.7717126225221204,28.30359884579499,-28.45752850340764,30.796383847144835,3,S02
1220,-0.36359884941638065,-1.515593845492479,9.416467249725432,-44.54348742271402,-65.20771482099882,10.850169706802669,26.33087653454091,-30.620334951147736,32.59171660232288,3,S02
1240,-0.7093488920688952,-2.316557292299846,9.384385218714348,-57.301552049693726,-99.6316900071618,22.448011467303804,25.395951615082005,-29.569188037852324,34.63761029473309,3,S02
1260,-0.9861337110238445,-2.828188277382803,9.010582753697443,-76.55217716984882,-109.20566931300213,31.73622556558709,24.232523462556646,-29.212598636298974,31.921082098626016,3,S02
1280,-0.9153177240507412,-2.9158493595361943,9.405761283465482,-80.1036911260066,-114.07809382635632,39.901553674949355,22.208476635424113,-28.76841871616237,36.39706575410119,3,S02
1300,-1.0935288555023932,-1.9272719888081626,9.65833802555695,-62.230361718825904,-80.46062516002003,40.589656243466855,21.686266587622786,-23.21207408931013,35.579880199278634,3,S02
1320,-0.14843434287126606,-1.0482312026017775,9.740560285619965,-27.813465150553625,-40.65314646635291,34.087189913835346,23.894357149396342,-23.202438214960452,36.72990781831733,3,S02
1340,0.25342215302584137,0.32577384060871656,10.613029206430939,18.671281606660532,24.694416865372663,31.766551750620973,23.083444664425883,-21.296607062276205,40.79804351008147,3,S02
1360,1.0622285894513923,1.8038518123323422,11.40969942059003,42.784869829334504,84.56586638873527,14.984034201724011,21.574168954521856,-19.263435939481447,40.92055825912582,3,S02
1380,1.3959245889136267,2.5982455080156437,12.238400431100509,66.58634985705007,99.8682646034425,-3.5445851627310847,19.66537204529431,-18.35653583697261,40.71781263389845,3,S02
1400,1.4584660529464868,2.707434417062203,12.924702133237105,70.8512443513108,111.93511425370203,-18.35630546432806,23.598436158146438,-14.529392344495523,39.66063910654742,3,S02
1420,1.182812479692449,2.158030593548872,13.33648064583421,42.1878714831672,87.77983265205957,-27.587734027514866,20.281478214989136,-15.403430701368864,43.44884419400501,3,S02
1440,0.7843113117532786,1.5995641340108446,13.441630766117125,25.395279447840515,65.97776996487377,-38.054447515755385,25.767475511426632,-13.933488587355939,40.97345180663469,3,S02
1460,0.3560683832846284,0.688452045240626,12.93859349453583,12.802560344999772,40.56232125448767,-38.73473290525713,22.140913826470594,-9.979205670965007,37.27199952342539,3,S02
1480,0.34348129235388364,0.02722045319671737,12.265872433729935,-4.911692450194749,17.223833042467035,-33.31416100157094,22.779744087321816,-7.698139940360541,37.383087658021154,3,S02
1500,0.1020118178168625,-0.09165547149944299,11.662577687466099,-5.392468030021847,-0.7181235838163949,-22.484852290715416,21.768977972308207,-8.434149368283839,34.88820220768062,3,S02
1520,-0.07740326872815759,-0.7508386259961322,10.821032024255727,-11.812898000116355,-20.378209400224534,-16.481155078698855,24.95710788411729,-5.010602101127209,32.225175729966836,3,S02
1540,-0.10668916848451948,-0.7887681676952871,10.165763738031387,-18.080550493239517,-34.15804501278317,-7.275344148533601,24.725285504074854,-3.6802702177506648,31.94829550246415,3,S02
1560,-0.44675149918210044,-1.8231386915029073,9.736297452625701,-49.419785330571166,-69.11216600957238,11.815375618161102,28.17636977769416,-4.580620280412662,31.989218788459613,3,S02
1580,-0.9872534530159546,-2.5826227484518802,8.962506771279832,-64.80628532818909,-107.67195860906037,31.1789311508333,28.604136909423676,-6.5638293546584,32.95082101179324,3,S02
1600,-0.986627157904331,-2.818158809715157,9.290086280205163,-83.85479750307042,-105.95387308607408,29.90145030333498,29.05709661032495,-4.346538281719335,32.460258463157,3,S02
1620,-1.2242736895865625,-2.5633967495002623,9.260696027076687,-72.24793703431696,-111.86421321634533,34.15289832104543,31.68538473549485,-5.089412237669148,37.14625950626259,3,S02
1640,-0.754779134326404,-1.6094447691579739,9.354578790652614,-55.81516993639068,-74.38495338162734,34.057468677553494,31.275420117424098,-5.888198192448045,36.696252113191335,3,S02
1660,-0.20247588539129732,-0.21250798574350083,9.89014944320513,-19.05163468818481,-13.3261150150239,34.532324847064274,33.71777171270743,-7.5103435374709955,37.99616090188,3,S02
1680,0.8198113102877411,1.123255027476233,11.255635207199669,31.883542266225124,45.3289267319291,31.69474406081146,34.058815517968,-8.562950119853774,42.24290195923673,3,S02
1700,1.0524636625123607,2.2003039049212685,11.971882316944429,54.706892065503474,100.28879212639107,8.199802793976998,33.59991546275845,-9.560629884814617,41.14903100114694,3,S02
1720,1.3352748663690674,2.811038874365367,12.59576090997168,66.49693348796657,101.97662649875754,-9.184743311721332,35.19727213329587,-8.288577530596921,43.18190597254246,3,S02
1740,1.2050773252166664,2.8512648241664267,12.913603951201944,57.81686683614382,107.74916181192573,-29.116010220289173,35.91476373848102,-12.930083052436311,41.334974429169044,3,S02
1760,0.832951624714536,2.094354580352488,13.46402755209084,37.98590616573088,80.96711655500528,-35.58539462602175,37.69167478543788,-13.918715100078764,41.74232202694569,3,S02
1780,0.6101108821195779,1.3706495969493704,12.853096239991547,18.326415719649823,55.34127415077044,-36.98809586447697,38.04168907417801,-14.822750410590729,40.09650169784633,3,S02
1800,0.2544742224381233,0.666177753720641,12.563853458431053,5.273102015904128,23.212181389429755,-43.954324031573535,34.97163909620393,-17.999530334872418,39.45321119048527,3,S02
1820,0.05576209193260921,0.1981395264931406,12.041876785073004,-2.0918603926518866,7.786645970270077,-28.51181233340176,37.973608951028865,-17.772403382699636,37.06674772446742,3,S02
1840,0.09299305507471821,-0.07662609239410134,11.29280469459128,-1.8637296890053596,-6.629906215970516,-20.861107638123144,36.08102709760555,-22.23932715476525,33.452089340568875,3,S02
1860,0.31701383521720783,-0.5851536667405937,10.670762578965522,-14.707179315132613,-21.308045895065373,-5.135200897366102,36.43508178145678,-24.681257574685972,34.45661298619888,3,S02
1880,-0.3040153903930217,-1.6057290002824338,10.119058899309355,-20.931893028514867,-53.94770903522978,7.194191684834685,36.47805172258188,-22.905608009248038,33.72733358461965,3,S02
1900,-0.9053905569674953,-2.1874794357982146,9.432693671330977,-49.88812503404015,-83.1843497626544,14.570455652690685,35.145858618655296,-27.088732544694988,33.788151002895205,3,S02
1920,-0.7252125379993255,-2.7202212128850576,9.22247510443404,-57.39948209910342,-114.99884369938265,30.50941012543791,34.281575313213516,-26.779570131931898,34.436309507812126,3,S02
1940,-1.310100931327793,-3.0354717133152724,9.09179061919027,-74.14796494740382,-114.63510655622484,36.982591993650246,32.50698919642262,-30.82887772121978,35.25425166768497,3,S02
1960,-0.776625191417058,-2.63418235038431,9.168961061705952,-65.55766148984151,-95.3647710415244,45.470497369674675,33.655715095377076,-27.28113809488534,37.907007031990865,3,S02
1980,-0.6172123181295756,-1.2500412205738214,9.799429856795525,-43.275060170053585,-48.763661248366105,42.060673177502274,29.741116883278114,-30.71515640088296,40.09776941062378,3,S02
2000,0.41690713334045937,0.07756172150493124,10.278040327771546,8.234259592516178,7.177026415055997,33.137096447975075,29.192312375390973,-30.367970183788454,40.10447970613578,3,S02
2020,1.0520949613760193,1.514890526813927,11.181969204679028,39.88745115515451,56.391178802915505,28.48920651215171,29.067081935296734,-32.18532136672994,39.59179849178518,3,S02
2040,1.4686219104627516,2.3176885917536407,12.55383740637161,63.44879091494916,104.95821504711475,7.60287494720497,26.926876917956825,-31.01628728931292,42.42755558015617,3,S02
2060,1.5634319994267307,2.6438519236936857,12.673059387937489,59.97294692170034,114.49075369696457,-9.305970197604836,26.46207400418915,-28.3268095773825,42.049998008184694,3,S02
2080,1.2199520347799397,2.7762589534964253,13.217293720025348,58.35359805527719,104.69590050181462,-19.44894927155523,25.845792318785673,-26.251655315513588,39.171646210132344,3,S02
2100,0.6159551086934606,1.9164155844257451,13.317405815706222,29.587850828460095,82.91445751849545,-34.50126223108938,22.394217229802447,-27.355223109510803,39.60660960594152,3,S02
2120,0.4324413449761598,0.988595487419768,13.028199768415128,15.692262508074691,41.64347155661979,-49.573114739329405,22.84556095429275,-27.191089798498034,37.92258600227155,3,S02
2140,-0.0029117399491363494,0.2587110965081497,12.420353176655832,6.024742370876528,10.926635774755104,-28.43109315394382,21.65102002189564,-26.45360609187411,35.41732166748905,3,S02
2160,0.1507379617355107,0.13864485691634837,12.02919923379913,-6.572069083280677,5.7651370189003455,-30.528684364846008,21.732568043714725,-26.087127290447068,35.12330362329945,3,S02
2180,-0.024466768999136912,-0.3413216417339372,11.019124264686306,-13.21471259359819,-15.367182601942275,-18.19469082620444,22.479306146224374,-21.301173100772857,33.25018792670805,3,S02
2200,0.05026626722256537,-0.7709502995350026,10.33598526456672,-12.875302666849556,-27.72651941007913,-1.5965949419715861,18.76548864799169,-21.1825095265879,31.91262179755691,3,S02
2220,-0.6022975668998835,-1.6190925066009783,9.690767970377586,-36.32646011223483,-60.39108848261394,17.557573836719726,23.389348717893363,-15.589823651575166,33.21319598178913,3,S02
2240,-0.8354785952550341,-2.4876925347522048,9.136011762113682,-50.49882293351443,-101.69498206562531,19.12151744573995,19.11003229008128,-16.422954414693884,33.572081703850145,3,S02
2260,-1.0362930168325724,-2.837934915750545,9.105683957416856,-80.63743497323289,-112.77886286801089,32.82883202858191,17.731629802414595,-10.754154762233789,32.814091423991464,3,S02
2280,-1.1474890307834789,-2.8527458942195287,9.21378142729465,-77.95577118557009,-112.1204747040929,39.33456135147563,22.29582225721843,-13.291948746636706,35.040196942024224,3,S02
2300,-0.9392386862566849,-2.2230163696235725,9.468555799219693,-69.44587713238045,-80.00789861579848,43.79738610464067,22.110073527690968,-11.303617190786808,36.99819556666666,3,S02
2320,-0.2768852711532379,-0.9997312908121665,10.048852003105447,-19.923850377935292,-31.29783839231279,31.79972840574695,18.65023954923,-8.080249412320999,41.686226874127755,3,S02
2340,0.4522453974525804,1.0037892365498644,10.721675114136367,19.98496992410151,32.252549285841326,16.027800587070736,24.34724037968578,-6.983137070304892,40.544445370388836,3,S02
2360,1.093575603340829,2.0424333350603794,11.528047625878589,50.75153423858405,78.50903119475504,4.404518100449987,25.271713072249767,-6.780412040547947,41.540159592545024,3,S02
2380,1.470761411448639,2.78837439017476,12.667084231242827,69.35825804899483,100.85710452901581,1.5972898479645599,27.73746253897332,-6.132606217682408,39.47453233344509,3,S02
2400,1.5958437435328556,2.6923416257470394,12.675575716578331,68.93254284442884,99.29914488060709,-11.421772590655104,25.337683884660137,-5.02749155094606,43.48043236586849,3,S02
2420,0.7506904174727032,2.205730423668903,13.16866778208162,47.097311649112854,92.03423112523332,-32.5091370095165,28.838314824282318,-3.7924697638268636,39.11799035507644,3,S02
2440,0.6859554908671267,1.339995406633862,13.2428108522935,31.45495423186657,59.72360283016735,-38.27703028238089,27.828972877725032,-3.51772667784058,42.57809730254295,3,S02
2460,0.3841026516018726,0.7815012890029789,12.815685534074168,5.802723645238859,36.94849684573183,-32.89346976394079,31.236650047587347,-3.1117648778512415,41.11295420420977,3,S02
2480,0.16971477029872456,0.12455056264304751,12.214358395506558,-5.504839401068549,5.08754740453493,-36.98793017965456,33.5848404972391,-6.405490243872201,37.10634225552967,3,S02
2500,0.17803683716467078,-0.05801504922126502,11.378974828592078,-2.9516995960429595,-0.893128266179376,-28.089459077583243,31.998043145631215,-9.081376845919623,36.31429922098101,3,S02
2520,0.04892219689631038,-0.37238010901432206,10.688442504034715,-13.952919951257162,-12.84707937408336,-22.328872310514797,31.510430485555226,-6.936241749013084,34.259755809577356,3,S02
2540,-0.2735817329265656,-1.0587128536164585,9.904668739179327,-27.920091738523887,-45.5217462975992,-1.798138526882569,35.566377923219065,-7.922549939800264,32.16728035635087,3,S02
2560,-0.5979135151852887,-1.8353959323597053,9.54854544619981,-41.569278656403,-64.62386142422154,12.290570299322228,35.050551859391604,-10.008308255095121,33.23034994012761,3,S02
2580,-0.9113170532795779,-2.498503904668293,9.304748161763893,-59.29155211631667,-117.12068419266933,27.263265512495504,33.92278739888785,-11.698500584630432,33.83353794004731,3,S02
2600,-1.0833976184297947,-3.101208573080834,8.993793470857142,-77.8978645203571,-123.63865599100448,32.019939013990495,37.18964881740373,-13.0420286246636,36.027981659786526,3,S02
2620,-1.0777020603222387,-2.622378099210129,9.26786537195463,-69.30571056306013,-95.10033300659451,45.36381801601934,38.453211995528704,-12.54011278358577,34.8337637141765,3,S02
2640,-0.8416724218462964,-1.706117291933694,9.889364296794376,-46.35232185576808,-63.508433624227,31.978234653337402,37.39875118719268,-17.933634647739993,38.431436459370744,3,S02
2660,-0.22453703412755446,-0.6564335897133979,9.982350504224408,-13.805890962876024,-17.242299838957468,38.10471910433477,35.890172885388196,-18.94203091903948,37.37138152238152,3,S02
2680,0.756167447825651,1.0269068486330293,10.897722402677118,28.484936778639838,46.9689153064971,17.850255997810972,35.61331205047311,-20.560813066100753,41.13519308457734,3,S02
2700,1.3877732373497818,2.266436047205759,12.012393821606278,58.74032063251001,93.66100506992197,2.806292138217993,39.43973509947331,-22.553727887254603,40.94314332823977,3,S02
2720,1.2446297736027594,2.955008571969339,12.780044745093523,61.411881340525596,107.07148242618102,-5.11288785117817,34.46167702264678,-28.047999116512887,40.37656269668987,3,S02
2740,1.2479145092797577,2.354196887486079,13.071092293382387,59.98886281258595,99.91710007215734,-18.037994525893993,34.161661979337715,-28.2461646280909,38.94194041414246,3,S02
2760,0.885820573412923,1.8941660933570486,13.34549822204618,51.55543433974125,81.63297115513788,-38.81716277760775,31.227616087318516,-29.42197007742678,38.88732753635018,3,S02
2780,0.30383867990428737,1.1890637858780253,13.32625734783411,28.496959124627924,54.86767265033019,-35.159912139082785,32.19497722347005,-30.206442454524698,37.77372869317732,3,S02
2800,0.2888225254676625,0.9568038610914726,12.597337850406117,6.647545854416161,23.271302097960888,-40.57756821007918,33.1335894705178,-28.955954407600277,39.88901614123885,3,S02
2820,0.2732495887817485,0.04973814260183618,12.063489534700835,1.3275035977635694,-1.4461157577072121,-40.11283309074322,30.811717303821997,-26.99537566191786,34.85761162304169,3,S02
2840,0.2656323136074569,-0.4845146999270948,11.376595220151117,-3.0773175050081005,-5.193740349176206,-30.57761784573514,27.888180777715842,-30.762548676650184,31.111277215344487,3,S02
2860,0.08717920725495959,-0.7650781387999348,10.41687101640261,-19.510127298353318,-25.033085890738743,-4.1695318250954685,26.785194736799856,-32.905792903322265,34.006224490713265,3,S02
2880,-0.06271949065511953,-1.2560145673965053,9.905944614348288,-23.753889792100342,-55.340872351363046,0.858745449082209,26.569894080090254,-28.688780306538355,33.06959517980819,3,S02
2900,-0.47473985693885956,-2.2167278819307628,9.233488692763428,-45.056507723782346,-84.95881347371332,20.451885206815582,23.994067330925077,-29.05131991622662,33.05323347138997,3,S02
2920,-0.9598217817116378,-2.6995671466627127,9.183537390336344,-75.5120632090455,-110.51875402681837,35.04989132967975,24.518719845505494,-25.108196443028422,33.69420375941627,3,S02
2940,-1.1708232614547196,-2.8378407153916516,8.97254163481323,-79.19062288013546,-113.23112696065876,37.97942195977727,23.689484273228217,-28.73429890918909,35.08762328640522,3,S02
2960,-0.8960468376998707,-2.300338921726869,9.508274914267622,-67.0075882337359,-89.7651661932781,39.6074783339279,26.63347195035025,-26.98634339983428,36.6356638360772,3,S02
2980,-0.43673028531020885,-1.2413981776225478,9.79494943907954,-38.884733809519766,-52.74744767022675,40.95055985497546,22.597436413296727,-27.371118262553793,39.57112258515885,3,S02
3000,0.06897368706000166,0.4265305211333937,10.514321817914581,-1.254166541674481,11.648214103846597,34.35909262370989,18.358857361511156,-24.267541516178156,39.9859159780062,3,S02
3020,0.9910902015618939,1.4441580901876416,11.550676556684605,43.18450090797805,73.37602563123997,18.95403108951477,24.689826067965978,-19.651558970557023,41.4476092028344,3,S02
3040,1.579937989818417,2.42900526403595,12.283475312476083,65.32637520765256,95.01827310746617,4.178032037993471,20.483975215952974,-19.12949751530041,42.585400365277174,3,S02
3060,1.3938009331485013,2.731201836655485,12.862079783699592,75.19360188681999,112.61406885293547,-16.164910346794436,22.723593442181663,-14.282965088012041,42.38094573446317,3,S02
3080,1.0696572733855663,2.3689463215873556,13.121808663904718,49.84146788910061,100.31969709651969,-28.810671838716598,18.446759753567584,-13.460444443309576,43.66071266350858,3,S02
3100,0.4360214912827177,1.4857823633952147,13.330943973148269,43.86385311578316,68.29278396566535,-37.68156690689289,20.98113134721346,-13.271143754617187,39.4049705128774,3,S02
3120,0.029794173875247937,1.022115268777417,12.736153491408325,6.284976217960591,39.86349097553639,-44.36993111510134,21.951003198892295,-8.568842445342977,39.2925083582096,3,S02
3140,0.1634783415248079,0.5571506977186345,12.663493387187824,-1.242108519521365,16.002993327290977,-36.29979002843245,23.90724059772002,-8.761631464552638,35.212825891044176,3,S02
3160,0.2131056050242089,0.10918775002440656,11.527262361544944,-0.5737081572066725,0.774469827918751,-32.785713193052544,21.862932427810275,-8.870264930908657,34.70195818667432,3,S02
3180,0.13613726123297898,-0.21592351935675166,11.023984381840707,-12.649636986459232,-17.043374136413632,-25.87122136294647,25.837616216090893,-9.49357460458603,32.27336069047324,3,S02
3200,-0.008359717124401422,-0.840514134067037,10.039462763689603,-14.497840281944299,-41.609934751131746,-0.021236445381454083,26.310073615067004,-5.721197699364977,31.269777624564565,3,S02
3220,-0.33900635893728104,-1.6176480143163314,9.441718021691281,-34.03254582829349,-65.46881413136435,7.904477103345942,27.161777335390617,-5.37402082107721,30.610703932410484,3,S02
3240,-0.9366350271100868,-2.648600430435728,9.318349212842667,-54.74706483188577,-91.64031362211708,13.137380973235583,27.939552272244917,-4.828671362439917,34.54454196694651,3,S02
3260,-1.0042013231962938,-2.889567403657837,9.12975926685196,-70.16618865699225,-118.96392485261121,39.54871232509902,30.073295263946797,-3.2454995951891132,34.111239369145196,3,S02
3280,-1.3149568479040927,-2.6262221096641025,9.207259016013436,-72.78481111527837,-104.42371064353667,31.057268478523014,29.546648363369034,-8.410186282011626,34.45692185805305,3,S02
3300,-0.5657587831005797,-2.2668730546765676,9.776670479891402,-56.229493849078224,-77.13205882388027,34.714339126083296,32.72401914197379,-7.90086767054061,39.46064504553204,3,S02
3320,-0.21393246334916574,-0.7316556636952616,9.931915646456341,-18.571098985468637,-27.60865497406224,24.974503615381185,31.120109858508787,-6.142674586320005,39.7523736963265,3,S02
3340,0.5519921995042041,0.7821939440873955,11.007062784098958,13.969678981672619,33.48098312793729,26.40209470341797,32.15453011626855,-5.59346593070373,40.868256741695525,3,S02
3360,1.1635320273723055,2.281714351115305,11.789086620462806,48.67131979884046,81.02024434027503,10.542804109427582,34.04525094473205,-9.600940950444913,40.75631523277985,3,S02
3380,1.3118630370229192,2.967075254058436,12.448363041379062,65.88699955111674,111.580649167629,-5.468273868737478,36.515347726444574,-12.973517319598201,40.632910344540186,3,S02
3400,1.3196906125875878,2.5346876940980114,12.642062929297008,66.63005205301499,115.13125203217322,-24.04261737070396,35.02835044608479,-10.157958282478111,41.653561396472156,3,S02
3420,0.942562660779188,1.7269425885995935,13.380093009946368,38.90540474874938,78.28706776914022,-33.98705808483051,36.47580754712267,-13.992990873478082,40.96303205981672,3,S02
3440,0.6694733180078661,1.2860322966067324,13.124798994546772,29.926187151039525,60.515535760566124,-33.30563710655988,33.63813829332538,-13.782092929629417,38.59843655860363,3,S02
3460,0.19519618847608494,0.7974036144859764,12.68263144179527,13.154990257785332,26.654382343339492,-34.3456455054994,36.81892129946307,-17.40946588725854,37.2870973048428,3,S02
3480,0.10128210827126426,0.0012734996843908053,12.262452838552617,-5.066851166766793,3.9871702687146415,-37.181949132294974,35.24722836620781,-17.936314112366503,35.268111784432094,3,S02
3500,-0.0007690850845532282,-0.16000787853729512,11.511334400645243,-3.24612971544377,-8.781555501679543,-36.62426669144502,35.84415667990223,-19.0357808076063,33.38629318099061,3,S02
3520,-0.11945293033094612,-0.6876252996660925,10.788279884195065,-9.12441405605717,-21.83036395714473,-22.470221668148284,36.93325528466143,-24.801206654658813,33.04157933147437,3,S02
3540,-0.1447882224363121,-1.0749310184016436,9.840626436598024,-23.246539887073546,-44.17404659972528,-3.3935585164401925,36.68481689212099,-25.044064234143157,32.758298255948205,3,S02
3560,-0.6617059721574852,-1.9671092999103659,9.785630399354037,-35.51865609019458,-71.9942326307955,15.19220109631386,35.553498689703765,-27.02918145881444,34.68901413268689,3,S02
3580,-1.002838694535127,-2.6216099882492734,9.191683784544063,-62.6679740620546,-110.07034758679366,32.17932487361697,33.623325269490884,-27.026366248961274,32.55349686670088,3,S02
3600,-1.0210420923002166,-2.618528749954569,9.006087331965213,-78.03863226182308,-116.08354595213319,36.35225445623671,35.73270144268234,-27.988016567142306,33.56178546677137,3,S02
3620,-1.4911039355266749,-2.7475561520012977,9.542916645717298,-72.07686438270052,-105.44282733140963,38.046758452016896,31.978855595762198,-31.601500928696268,32.993787678341846,3,S02
3640,-0.5505981907133208,-1.7063528143346283,9.604019117721055,-46.0626547629733,-60.04544693074153,39.486529161840565,29.630255244860443,-29.926844060336805,39.26777341738997,3,S02
3660,0.011140109025167724,-0.1342212167993762,10.070534488427214,-6.174839695455647,-2.448852240603914,29.47464051994059,31.38670422823016,-30.51462645541276,39.52693417635138,3,S02
3680,0.918913071948291,1.547079178709104,11.064485791284847,32.1703891931289,52.49758230405072,19.891147477494272,29.02494183562737,-29.71090407591878,42.256562001362504,3,S02
3700,1.4514415039605535,2.4234934119794915,11.840094439925142,61.7730235491767,85.39173358990513,-2.0382573127093475,28.256306076346235,-28.729739155922452,42.018235125104724,3,S02
3720,1.1820803800400927,2.595043427110032,12.832893069892268,71.23161814634844,114.30962764117841,-2.8643456798984697,27.33163710078542,-30.182867674618443,42.74496965638033,3,S02
3740,1.1464564699552628,2.49386385396596,13.152452195052565,60.91834031509724,105.25519607180284,-33.639867098970576,23.809844807874775,-29.025079131415527,43.409779119016136,3,S02
3760,0.7012385409036014,1.7636852123564706,13.248771643680703,37.8922241470498,70.69182291166537,-23.582717068601255,23.204113619962875,-27.697368484634904,41.176878073154974,3,S02
3780,0.36792074900634697,1.327738071956729,13.097526096017393,19.975865652784783,48.95679405045073,-29.657828493085958,27.48956550156948,-27.644691963760824,37.43708823878786,3,S02
3800,0.03508349077378249,0.492161004285485,12.439941145451087,-3.260179741027706,24.094069848368388,-37.0325578339513,23.967095176807568,-25.520261043501797,37.61928647634076,3,S02
3820,0.14362349284402762,0.1414968132231161,12.017122866389933,2.9535916296427676,7.895605454811608,-34.12030923235308,22.78800536938738,-24.75467295832955,35.22626781380499,3,S02
3840,-0.05402428334489506,-0.5165327723636529,11.263199898905803,-8.479309200455479,-9.091309528148647,-22.820635675847424,23.374507340716832,-22.404618191507346,34.86505497226973,3,S02
3860,0.12683892548364775,-0.6999755756879822,10.365220768892408,-8.148073977046197,-35.62766703213616,-6.284510491801651,22.446123313957965,-19.77869603151153,31.195700311602916,3,S02
3880,-0.18646646735735847,-1.532769616678707,9.79178432552264,-29.473929258428942,-59.01467881896587,14.042905972672267,24.58889811982887,-18.290614852818607,32.735494461872065,3,S02
3900,-0.8723823987793611,-2.3259248953707132,9.467475651642433,-46.62063953103116,-86.98537998763283,17.755948565022194,22.211072597236388,-14.509122252536166,32.88448386390533,3,S02
3920,-1.162384866347508,-2.859873285004514,8.95355621756066,-68.4553722473943,-110.99900327154819,29.308812966017722,22.215653597803524,-14.239988892957093,32.078241134578846,3,S02
3940,-1.2523394997015649,-2.801675266475137,9.206185094560691,-69.0650049897108,-111.36957381534837,38.23776490741571,22.46838758145128,-13.46707185856881,36.079910285193726,3,S02
3960,-1.0866642674044682,-2.3443554626278127,9.309570874320935,-67.51944264030014,-100.28499512134827,44.503258602829526,22.806190865899723,-8.746499531776996,36.33662595050649,3,S02
3980,-0.6481673880021682,-1.1744387943193209,9.868484370057049,-33.40675241764324,-48.11835771267102,35.1534641607559,24.627083467260725,-10.272676826781877,40.12296388982217,3,S02
4000,0.3566410944699895,0.45346142387179383,10.400957161569766,18.75942880902167,20.78903550809491,25.84763617573316,22.60932295747466,-7.798963012409844,37.3896264932778,3,S02
4020,0.9934767247581776,1.6455667720747997,11.551174369068526,33.174398661834864,78.1452839650422,13.418196833874342,24.659980864490358,-8.725113266788842,41.57710205656863,3,S02
4040,1.5632415058712719,2.8473330451343988,12.403695635136868,60.35597916553408,101.70285356974289,-6.488532627265492,26.120396375755522,-4.470356027553926,44.23071929923648,3,S02
4060,1.385403205914966,2.8430308669809654,12.952130316382146,63.59951014082331,113.27848518995393,-16.122919270747133,26.177102087528883,-3.5212142296755538,40.01110761277113,3,S02
4080,0.6865008265867781,2.1652513956410937,13.424904984893852,55.61185778533079,92.13168470441612,-28.14001764661953,24.97168078604485,-4.77801475323969,38.61102969056003,3,S02
4100,0.49670486927789514,1.8571370713216075,13.403112608611213,30.824418382563497,69.22378763245365,-40.1529430176585,30.05016155796544,-4.423848517597815,38.41495196726289,3,S02
4120,0.5320968365018733,0.814166512619668,12.899181538716372,21.044522454459692,32.89502920292715,-32.14327348004647,30.202318519822946,-2.8376562174060593,37.28856022329041,3,S02
4140,0.35113001644827424,0.2826872524758035,12.36604265962905,9.74588142190899,12.4152682892054,-41.977268608988986,30.835017733230675,-5.412941874469178,39.11609471112807,3,S02
4160,0.0234831063117244,0.08029890407624038,11.615343509768122,-0.3311467816706175,-4.4328068750581515,-29.17899523265029,32.35002152252554,-4.843786906658767,34.215986213663236,3,S02
4180,0.07327255228429988,-0.2684058766338654,10.72206280959662,-4.714337912681163,-22.11504127714286,-17.72234863249758,32.54585326846746,-8.397517309075766,32.722558066022856,3,S02
4200,-0.20698749917630035,-0.858642110324991,10.23132499046294,-21.390518592052693,-32.08453268958813,-3.4138299579596274,37.0759861844888,-9.769965325506188,30.133031578109602,3,S02
4220,-0.3490374435216509,-1.6614675464201174,9.5267520091106,-42.64015383088417,-53.76215902394401,6.264864045452562,33.444663352209005,-9.544828508283995,32.01859659605569,3,S02
4240,-0.8771563647473836,-2.4462694557152664,9.1312339380237,-69.98395333639284,-96.26345263846518,22.937922709923004,34.259954303302784,-10.98478988439292,30.85985362912408,3,S02
4260,-0.9155681090349818,-3.132144198004083,9.076521118775505,-73.11915192911783,-111.64952973091427,31.127463364618908,36.08473744149333,-15.621439279476855,35.60465804286703,3,S02
4280,-1.3460470787262127,-2.7957855049825873,9.30160400365234,-79.2004668773849,-103.86533233095851,39.227461419700276,33.319116570791536,-16.55359095226276,36.25450970953169,3,S02
4300,-0.9619276818725006,-1.8798200485782126,9.375019166115878,-59.75669581894688,-76.52037512320275,28.461336633162993,37.78795412487389,-20.982263225070476,36.67409249251927,3,S02
4320,-0.09451061054022117,-0.29726670978050135,9.888784837231887,-21.221322811179135,-22.647010861708466,28.87361997735105,35.86217394524772,-19.85740318624483,38.812372998986305,3,S02
4340,1.0208841824634636,0.8405029750497222,10.833223571669313,22.56729959092069,27.37491722603262,25.111038425798274,38.06126283762873,-23.08503599649725,41.29312779459963,3,S02
4360,1.0963331100322518,2.034011927983958,11.77933841144646,56.0900327872883,84.89860034091387,9.535537041450032,34.531096702098445,-22.565424833160446,39.208748476840036,3,S02
4380,1.393202550624311,2.6588839691871193,12.57222268044818,67.64268253972784,113.47666405918022,-10.678140883526332,34.83135052508605,-24.29971767307615,44.503523852575185,3,S02
4400,1.5077836512307727,2.5224060063372553,13.108146444716954,72.11024840169347,104.19578292429085,-13.299983053173031,33.67838556481966,-25.159323812795538,38.27873786782745,3,S02
4420,0.675672535388885,1.9220528552649538,13.465503486314823,47.1852509366951,76.42810876372394,-31.57905037672746,33.05614653506882,-25.942884616908504,40.76582137533632,3,S02
4440,0.49052757978247274,1.2008684291653098,13.172227830573187,24.721594011303285,56.7244491528535,-38.466741370287565,30.838027381903775,-28.30026055615319,38.72665610549394,3,S02
4460,0.041591305413632644,0.7598085049533216,12.912499934389256,10.206225004024095,31.178483210723794,-40.01427096139577,31.414573056661542,-32.46515287389441,39.08545901643721,3,S02
4480,-0.1143629279173787,0.09003246346505764,11.950352546210084,0.5999084926952358,11.277658366447811,-29.468418509568618,30.78978197490029,-28.226744598934463,34.715895046682284,3,S02
4500,0.05188588103666379,-0.20788149277154544,11.55002958841097,-5.359137253473969,-0.07353713144976104,-31.572431421588753,30.18559558840362,-29.769152658540424,35.55719022080292,3,S02
4520,0.2837436781692191,-0.5829489420667355,10.788753633107298,-13.705867022318994,-26.438757376347926,-11.120466082580409,28.6681220712667,-28.277806307471337,33.9286027852382,3,S02
4540,-0.24567935943833405,-1.3439820304666872,9.84966203328066,-26.82212470940424,-45.581039840044724,6.446673516117208,27.410289342064107,-33.170047597950756,33.26251039661663,3,S02
4560,-0.6111145132067748,-2.1953452165557583,9.612931084529079,-42.41278027022177,-80.55545597958604,18.54935131792182,24.351558434731174,-27.629050130272304,32.02522581683556,3,S02
4580,-1.1158959276866054,-2.8406676427256605,8.943071751108981,-68.85022662158974,-108.89537704789613,28.676855544418466,25.605331024311937,-29.278088710271206,31.79444749427769,3,S02
4600,-1.1092240052024362,-2.957924545912351,9.047319731636357,-73.78550532096955,-116.1718589204261,36.78291034540803,23.738472024947093,-26.25976524666711,36.13773339227469,3,S02
4620,-1.244712151110979,-2.7035506888697665,9.120135878523774,-66.93908441693677,-98.2614076823306,42.345778288788736,26.151112757551736,-24.181153321082103,35.474388697995735,3,S02
4640,-0.8837162949748164,-1.3540780491026339,9.944753916526826,-49.823140291649906,-56.87659986944292,33.39035719716936,21.764301069576195,-22.7659237389973,36.11411258951825,3,S02
4660,-0.1496726224223491,0.028892730959856103,10.168486215641568,-4.422898938098221,-0.4604412918508407,40.30859364905405,23.005507588572804,-25.290844046072788,39.68397569471317,3,S02
4680,0.776307903587632,1.327944675407249,11.05885195537846,37.75542086215204,42.439848601962474,12.863744697485826,22.017770698266304,-19.520668446772586,40.9219264205431,3,S02
4700,1.3161194282324467,2.288629277441871,12.012645580716244,61.0923093411091,88.69156084074106,0.9094862281232329,21.198027521304738,-18.22015734092321,41.7226020708809,3,S02
4720,1.4607680554993046,2.7207433184660994,12.85669589128858,69.61580749456719,110.24877325542599,-14.010590579594338,20.496331436429834,-16.637692045184693,43.06513693551004,3,S02
4740,1.3948662624697965,2.60949045002964,12.99906661290252,53.91549807030915,99.80572452190702,-28.50211151130756,21.62262020843591,-13.942992822836295,42.801676446552754,3,S02
4760,0.58819369832284,1.8675112230096693,13.066249089738827,37.31654394641109,72.59650760097621,-46.63968403772895,21.550617480010466,-16.390391927189786,40.15087565315485,3,S02
4780,0.45020776975550325,1.0987507190764523,13.052598301777559,12.603239767538806,46.60120018768328,-33.00536560060962,20.72128642207945,-8.552585464933383,40.720674923841614,3,S02
4800,0.3074744684985982,0.47417307824583615,12.687272821582903,11.52013313661282,21.584949774331744,-42.70807959592992,22.05896927097276,-12.815216882066956,36.78003172535019,3,S02
4820,-0.1694284288820007,-0.0010842799593741986,11.939606127987496,-12.359008376276606,0.3118635032901349,-33.551426980285065,21.124729783635715,-5.2668302572709464,36.57317895054961,3,S02
4840,0.058339634272258016,-0.47365253578606925,10.920875361564885,1.107728126383198,-21.93799959859105,-23.858106575069346,25.130751558666642,-6.947922410421819,33.83246140079385,3,S02
4860,-0.10680569511744703,-0.2644017295642187,10.664695395093128,-18.26417501396134,-34.30949319650142,-12.23114063899792,25.43466852942091,-8.222095275076374,33.51830792367008,3,S02
4880,-0.08962048819969598,-1.3480214717976873,9.723684723183025,-36.868449626476846,-54.853877150208405,13.135744878537833,27.599534499963895,-7.9178851105283625,35.054045769049864,3,S02
4900,-0.9959570112714292,-1.9860170149158296,9.336992705752454,-61.41968063397626,-88.53539759299322,24.207437030419033,26.824490239234176,-6.849441938680473,32.48192802356648,3,S02
4920,-1.2358279575791993,-2.835705719380308,8.962057233449578,-65.16042176457628,-116.2777342016259,42.807521344590675,25.865689007510376,-3.182359536642696,32.344453794378694,3,S02
4940,-1.0834948158209996,-2.9293698781733544,9.000098583743787,-79.56889238615743,-114.69388635817009,39.26549485104878,25.480534039022793,-5.7070470414207435,37.1803105820729,3,S02
4960,-0.7056565707946004,-2.470276841694337,9.396167134557892,-61.124223124017696,-90.09695314775416,39.967354283304815,32.11006843454817,-4.7589435062671885,37.54591635571368,3,S02
4980,-0.366461024749546,-1.3725916767314568,9.773263119680614,-39.332591975816044,-37.7101961005293,42.1527251437463,31.41875929652588,-3.325138692417909,40.61964186644418,3,S02
5000,0.2620255471108706,0.6775733649261675,10.461095822240795,10.078510248203678,22.342510788779865,16.613697044573414,33.21516991522008,-6.9115577011497304,37.4038188061865,3,S02
5020,0.9184614273407835,1.8275152069187919,11.479667734239074,42.18096608051102,69.46756801743334,9.118715199487687,32.792094574278686,-8.1410664900747,42.0624418715591,3,S02
5040,1.3590022625736924,2.6655827117519806,12.546014627718023,72.47642993050985,104.1613178929872,-4.5038666884416765,34.4468042343573,-6.74451215388269,38.89068679596395,3,S02
5060,1.219949997981296,2.6510092798513205,12.974582354893732,62.183510729011246,111.4802219922485,-13.11119521035983,33.942064255687114,-11.557043234466907,43.52715567791515,3,S02
5080,0.90375643620295,2.1767292048942686,13.300514446911219,56.08036094911755,93.30989455089865,-15.334797026010817,37.33608757866312,-13.963999108261142,42.59556906288164,3,S02
5100,0.4634024964525053,1.8226249330530322,13.630189406268167,31.71626755101457,59.457338614541726,-33.68732949217166,37.52552588741328,-19.49816925765527,39.222899411550245,3,S02
5120,0.37685683211293364,0.8127697308254729,13.1359573400099,3.7938956015333654,38.54486825728871,-34.167663426821456,37.00332179590103,-17.83712071395165,35.03225728802199,3,S02
5140,0.05299714318970023,0.19179113108656165,12.50475851920104,-1.8271737815482556,16.368619743471715,-39.81557783720119,36.44028253443723,-15.58290809472023,35.723760825809165,3,S02
5160,0.20055456191612397,-0.18165922171210308,11.587675815544152,-7.62002617158338,3.1258295288699873,-25.828742939502455,35.421838981913666,-22.372344014882017,36.000395374088725,3,S02
5180,0.04167388834009136,-0.5582969973565712,10.903187868930523,3.87956925508007,-20.747636673738338,-16.31456967237728,34.74845687304858,-24.406017477082184,31.890001948163526,3,S02
5200,-0.057570116310971975,-1.1222230688297419,10.387545692154669,-18.447671305574513,-43.65014485218075,-9.085481324716051,35.503443036859466,-26.22640032464804,34.93893688627984,3,S02
5220,-0.6976823083554937,-1.6380062183734752,9.802354988842856,-44.264231227281286,-67.96426337900816,5.464824631960154,35.77936961584752,-29.85953492844741,31.238859962961577,3,S02
5240,-0.8133709314115081,-2.526215919557419,9.196212973819842,-62.03313162693118,-95.22661865477662,29.106253650186286,34.63993023617102,-24.3483886619681,31.157901123874428,3,S02
5260,-1.0274586431243147,-2.972228560228087,9.195112166437138,-80.25790735971285,-109.36204768965236,33.21848350572594,33.903294071399074,-26.566782751943364,34.143844554966066,3,S02
5280,-1.241353452730914,-2.909057591987282,9.365916888688114,-68.21779051439783,-111.72087973480852,38.738530840394944,31.940877985122857,-29.124589262947584,33.84638926475895,3,S02
5300,-0.8029054172189205,-1.7025349177273574,9.434274895137515,-52.3113270603942,-79.14602215144444,37.12610089327437,30.677468612559263,-31.409830246293538,37.38956130496651,3,S02
5320,-0.16008051086957867,-0.7267656389635109,9.962873966292646,-19.118662065805918,-21.564730427982575,47.901226909774785,29.070706795408555,-30.139033147843143,39.68838752078276,3,S02
5340,0.4780861471990291,1.0564708345324603,10.605405154283877,18.433959279495337,37.153594743732256,23.114603598381212,30.85488975792974,-29.327662258793026,44.11139348880378,3,S02
5360,1.273101872493056,1.9076131867913073,11.974825048352432,49.06780166897518,90.78182561858074,12.570254231901975,27.326528775615266,-29.187433653354553,42.65789768165817,3,S02
5380,1.1384271823801635,2.6437198637469024,12.723314317705997,67.8392717092423,102.86070988781117,-16.099841615557935,24.874392162357893,-30.199235689796037,43.63083239205725,3,S02
5400,1.3973023176578419,2.6767294873727074,13.188227035130097,68.06864094983683,111.86177354882128,-16.149198365472976,24.653064162833118,-29.57020473822267,41.735869567001444,3,S02
5420,0.8610132758506645,1.9846689220996534,13.510828222627671,43.75056757582259,79.60645146238846,-35.553655098274724,27.150917124193455,-31.154470756872065,39.799212984363,3,S02
5440,0.6537410696926961,1.2606004796758803,13.36774425697463,15.041993187931208,52.032148847234694,-38.97853135105177,24.05980465514338,-27.08170018148518,38.236040199479746,3,S02
5460,0.16575117577150497,0.3816259727132356,12.574827896327106,10.895835170839,28.116399716453,-40.41682499422618,24.346845587708707,-25.64428538065308,35.95559479404904,3,S02
5480,0.15151327303811774,0.08364281525323755,12.188730363901069,-4.206737093369291,8.414793043246426,-37.3086461708885,20.93330323698836,-23.099089070091477,39.87346170823647,3,S02
5500,0.19302429495693338,-0.38237382069839465,11.338593116150784,-10.44661357390613,-6.694694783665054,-22.885976777908468,21.14409005128762,-22.653642470597802,35.49968672109412,3,S02
5520,-0.02975491278600642,-0.7654434173775035,10.171891342752607,-27.415749997883257,-23.901643697986007,-7.456611804456539,19.368695803090453,-22.627089554020188,32.08503128629255,3,S02
5540,0.11231464657783495,-1.4523645345652354,9.871053580794161,-25.94795897124205,-41.44211459986582,-2.1022070358086036,21.735380190548106,-19.547806197584535,31.998290331048093,3,S02
5560,-0.5420844830748509,-2.1902932349502495,9.321531232437785,-44.67819785326456,-76.08704596937417,19.589277502777243,21.929739825827575,-13.243943329294286,31.757490053103695,3,S02
5580,-1.149290787473259,-2.2384563239154494,9.313871919135755,-60.53440484242833,-109.5740077351466,33.86682852792939,22.311872179295815,-15.475382216950306,37.41578756724427,3,S02
5600,-1.301040033364867,-2.793151509141379,8.973133825741582,-75.75646712572068,-109.11066786320995,51.50496302141344,20.822009672179718,-12.475006648718672,35.15381899573179,3,S02
5620,-0.9799034008678248,-2.6318593292942025,9.31419679182237,-60.4910854199263,-100.87799111060365,51.372883433275895,22.139050974338417,-10.128739916265975,33.47844788864407,3,S02
5640,-0.7160624768916629,-1.1491516902014842,9.538464455085089,-39.33253225428274,-51.490318992055364,35.52649560824192,23.742736990070497,-10.79811587753344,36.16436204103185,3,S02
5660,0.31438619100137544,0.029369315821303366,10.313732162984216,-4.984395851609301,-5.498638328849236,35.206513201211955,23.226119491236723,-8.849179016806145,41.8742769456576,3,S02
5680,0.9155511937190925,1.438124502106294,11.088440649398697,33.61590458335967,49.74746900054168,24.5820673074143,25.505946255451562,-6.9221036369737625,42.67300979157539,3,S02
5700,1.2540761085505665,2.249412923970747,12.290850251069838,53.80947590321166,102.97546777336265,5.415023316871309,26.33641477010853,-5.723886523647387,41.35580948756043,3,S02
5720,1.1709409054041968,3.03062807431174,12.75366788749268,66.9135912835069,113.17687260933866,-8.871144111514068,24.996405223341313,-4.880521006805898,43.245663456970576,3,S02
5740,1.2439825297322067,2.790350311713227,13.053873779159606,44.122003825060325,101.0526012068212,-17.457488853773512,28.302335576009316,-6.042139107389518,43.833879295527886,3,S02
5760,0.48285366591821255,1.8932387645346902,13.113251333801584,34.174164679335554,76.5212786386521,-37.273713434991194,27.980014426280672,-4.910622811061716,39.79561853742045,3,S02
5780,0.4548000858025444,1.111594104192139,13.07107444389089,14.454913741753131,41.830136311876686,-38.39267223469396,27.28178400992216,-1.367292944571604,38.209193265399556,3,S02
5800,0.0377739624654361,0.40112958594698206,12.659889543201036,-2.7309694220582053,24.191433444536766,-45.13616965558552,31.04207959007009,-5.3706826939979395,37.42055049624548,3,S02
5820,0.17480648489550743,0.03551791393854696,11.67839587661616,-0.33952378763030566,-0.8405360894459093,-31.00008680504849,30.472578123006606,-5.487974443889135,36.6690368739173,3,S02
5840,0.12954036066508282,-0.576214607390799,11.152777639678224,-10.069330546984897,-9.659546201517024,-21.94161586159638,31.942164369054986,-4.450658538128144,31.103109121390712,3,S02
5860,-0.2247973234173206,-1.0145928920381804,10.20331308861372,-22.690488374416443,-40.56402673255911,-15.685839072872879,32.635511694634765,-8.744403578266175,31.91037366062555,3,S02
5880,-0.3838415069207721,-1.4703697614982656,9.642844307367422,-33.48931226288735,-57.60455125613072,7.788440739931213,33.54947691687436,-9.731082679726402,31.170214886210893,3,S02
5900,-0.7886054392037007,-2.2191839463770613,9.61081580859847,-49.29790025782039,-95.94470334278631,19.750704930799554,36.49705663089378,-11.525258406162553,33.26846976965443,3,S02
5920,-1.034745959445528,-3.110712024031152,8.951982497053967,-77.54197375591187,-106.08267907880773,35.83736855018477,37.04576626234296,-10.664878431252806,32.879072217079596,3,S02
5940,-1.297075305681319,-2.6277652584795006,9.407725881433684,-83.667017321999,-113.89672084227755,41.17633943219914,34.89812660665042,-15.68208552386721,36.57588863344489,3,S02
5960,-0.9660871345552483,-2.1395169033321397,9.526255671902923,-56.08270294472693,-93.43989779070402,40.332764255005905,37.454262063399256,-18.51516350545047,37.57305088563,3,S02
5980,-0.1904688404831766,-0.8836640510936025,9.86802153500497,-17.72222801112816,-35.39849653225026,35.5993338374478,38.07681893656196,-20.447847053882402,37.5107762624957,3,S02
6000,0.5081026548709169,0.532288377581789,10.371672940297442,12.38055405411064,28.238299875777727,20.744195845783324,36.15598465845022,-20.12400064261842,41.79864325089066,3,S02
6020,1.108948747390498,1.8536041919175512,11.901152509478493,52.86101328844296,69.06842863507897,18.553143320071676,34.89181349124762,-20.481683261394146,43.14345690649383,3,S02
6040,1.2225114711529157,2.413525775706538,12.215541565749364,74.37567180470391,99.36986164940959,12.195021161358344,34.778944412803995,-23.042210728710764,42.50406332892553,3,S02
6060,1.136852915161417,2.8853996728771425,12.993697227222922,63.7488849935271,115.83606140920385,-14.110083648706189,38.06041217752737,-26.022946699005175,42.70270996449926,3,S02
6080,1.0800208977391375,2.1762586584531762,13.472602694202463,61.37654231811554,89.53041742638268,-25.02099493337433,33.7461160241649,-26.598620569172187,40.923469275614416,3,S02
6100,0.5632929066312485,1.7461015568012124,13.18583339064423,30.724967786344312,61.71496146267141,-32.74662976014972,35.771315841794525,-29.61067917549311,38.346840357901876,3,S02
6120,0.40317306245465245,1.0106725820577669,12.905048319367843,11.610378832645004,38.65358477295669,-47.845774774864246,31.52945183957524,-28.502339229420745,39.24210885771987,3,S02
6140,0.1764951929103714,0.41872784173526195,12.417244950164406,-4.884618595248168,8.827184610916166,-29.286023143337893,31.050237475215916,-31.994020127338917,37.85705497277557,3,S02
6160,0.010769478172733368,-0.11092148304995533,11.635568069331145,-2.837313806334012,-1.644855770221964,-33.88435236434114,29.699252243368456,-29.198427557632403,36.141570014884586,3,S02
6180,0.04314956022833978,-0.5354442004073563,10.792676036510562,-7.478722174060991,-13.910839965329638,-19.850690937269153,28.630866949301527,-31.207816970860232,32.58810000085684,3,S02
6200,-0.3036678106129854,-1.0161074169117923,10.02870603485393,-20.80433274514589,-37.34487747980631,-12.602512939907037,27.63294711421621,-30.65473879694477,34.32090944766962,3,S02
6220,-0.2068773301786381,-1.7986033865792899,9.647184723404095,-35.51535857524703,-71.01613567078478,10.804762633133908,26.49694548307548,-32.02755299982552,30.768493836201525,3,S02
6240,-0.8478834805981799,-2.5553685941141455,9.232120724319019,-57.49184138945709,-98.49695301688614,22.859277640699048,23.862892889209217,-30.38802284692175,34.32117808053281,3,S02
6260,-0.9932679633723719,-2.9911779172299027,9.05623765359984,-71.2665345691572,-107.81144912253295,28.15446086745672,22.57829207565748,-28.51627051462626,33.98638742518649,3,S02
6280,-1.1592368455642301,-2.57949735507922,9.467942153526918,-71.55023867139784,-111.71438729939298,34.30816137718698,25.189424236384994,-28.175735562521012,34.33690873246216,3,S02
6300,-0.6467594149853783,-1.8894523035451538,9.54726251835335,-48.80751310475077,-70.82512647119393,40.30952562104388,20.86961294190968,-24.469575664041116,36.329561626124516,3,S02
6320,-0.2728652901802312,-0.5332512839368835,9.865637030674419,-13.509215758041243,-9.680492181340789,38.413291820673464,22.75518703993668,-22.525374997956746,36.38811949677459,3,S02
6340,0.37190257338022037,1.0437976277394199,10.834472063908756,30.62681768198524,42.261142482113726,17.973457245180125,20.583781162431297,-23.31777267561411,42.952343529798185,3,S02
6360,1.4760393257892117,2.2522506792945647,11.643013764556832,58.26237717502572,92.75347143116467,9.700616375267376,20.773726271101783,-17.952391018225313,42.54511059267934,3,S02
6380,1.2941015314608195,2.905717021790486,12.912999110285304,67.41777677589553,113.12278343315008,-1.3616304195670597,17.683591109500906,-15.323471969750932,40.83943017272598,3,S02
6400,1.1170029680563958,2.655653048487228,13.133363373157524,65.04730814870915,99.21378023760847,-17.971809039330708,21.09498418173201,-14.418607940141165,42.419565848795045,3,S02
6420,0.628027656889857,1.8801531339075672,13.412808153035037,47.20347637891889,82.35231474951232,-38.50744910663697,22.71848012001723,-14.599529943019323,41.25308413332317,3,S02
6440,0.6100272331794995,1.184303096418046,12.804190051620013,18.99716813124962,55.41195118419442,-34.63502697567083,21.976839807877205,-9.750984078167047,36.41882330150322,3,S02
6460,-0.030371452676611788,0.7131826035093844,12.804828749261565,1.771525139032617,27.944599948090683,-45.4893283535565,23.038909585871217,-8.987188388336975,39.09206872784931,3,S02
6480,0.08979364116531013,0.05959238635515021,11.989786006318873,2.3344109990685027,10.122830061026963,-37.54010775718265,22.390842377068974,-5.461189044290989,37.12102624513297,3,S02
6500,0.13793534559148046,-0.25186173522633226,11.209526816275824,-4.9320540430487565,-8.215040152274783,-31.624649733812852,22.63527264388988,-8.638838658990512,32.137604663698724,3,S02
6520,-0.25627390955503193,-0.7459579595631591,10.638554064954375,-10.21163679402079,-23.779457130087117,-16.7632728885084,25.155572785937828,-5.760348760487689,34.6099427783158,3,S02
6540,-0.3400383705141068,-1.3948144160420122,9.94525093311478,-27.79827268221324,-52.16373789608963,4.434202083907653,26.90403008869325,-7.216518671985482,33.3174793808916,3,S02
6560,-0.6553532755996522,-2.3044379063343357,9.392626202137457,-48.27471482401629,-69.06096299680554,26.198063581772942,26.040231595904896,-4.15999867738058,31.917202774670095,3,S02
6580,-0.9226197174518617,-2.762091950482076,8.792254262971156,-64.06691437293343,-105.89802587102108,30.623358720619596,29.423856777714093,-4.197147841456792,35.26195081485951,3,S02
6600,-1.4027338231863846,-2.7514955002184025,9.12302421063406,-78.24529061322632,-119.94426802494199,39.351564364920364,29.256583643336818,-3.2116165246606467,36.47568506729581,3,S02
6620,-1.0292760520549116,-2.36905140992618,9.402693446099555,-69.29489769581635,-96.19047933157404,34.522571734664396,28.535950790239333,-5.821495937833863,35.96031830053727,3,S02
6640,-0.3549516410349596,-1.4857924229585526,9.67455618173439,-31.03545566169602,-55.33914889187791,38.28708271781601,33.591431571006595,-5.283694683778265,38.98878870511921,3,S02
6660,0.3046187954127979,0.103104388236574,10.464286873135919,3.9379860063635563,6.194977072215927,20.986537509195024,34.42870873850606,-8.879581627663065,39.47811643572986,3,S02
6680,0.7143219089251289,1.5444495024510443,11.470382458420412,44.804844091102254,63.032086422130135,23.950196121075834,34.40162054136717,-6.913264857603737,42.26821539117279,3,S02
6700,1.2364325281139048,2.4211748243405173,12.332308086163678,67.69710129409324,94.16248909833432,13.143068817237598,33.026965278600514,-10.441961250090612,40.80881660405709,3,S02
6720,1.3628170605184593,2.7123868460149203,12.979822499109467,73.7265505468281,113.55693539220549,-12.879392604724583,37.99349270931575,-14.00903402639127,40.56351596159138,3,S02
6740,0.8177599365381625,2.5906634678863245,13.03585485759877,54.198724446404896,105.75162992305319,-26.04187359550476,33.699975038624714,-10.332983594685839,38.59906011103026,3,S02
6760,0.4950952657733644,2.0333115125442154,13.188668253735692,36.821947567648614,72.55545972031808,-34.7478590627758,35.576729874116026,-14.913028123936304,38.88180663000515,3,S02
6780,0.3831234614182514,0.8626326301128306,12.95233058349625,13.271669610232038,51.288886504744745,-45.73890940186026,37.89737628761871,-15.081559365865411,41.53265894804144,3,S02
6800,-0.053759483219058934,0.3916988749892184,11.944316616910633,3.213598766431173,15.08000199025215,-38.713026048895834,35.09445636261839,-15.805478436766755,35.665329890464676,3,S02
6820,0.3080726491514675,0.02980440863359922,12.030779270818861,-6.8809324668341265,5.414812783101897,-25.627111169670926,38.09073508556946,-21.136172567164987,34.85038963031896,3,S02
6840,0.05112030506785799,-0.2713058254655559,11.20651720819627,-5.746264565024515,-8.357471232076705,-16.447593697153934,33.36063082537224,-22.18777210236653,35.94708977504954,3,S02
6860,-0.1213718203895095,-0.6306300014016313,10.278420100399309,-14.155457762828,-29.767845945982426,-11.638060676027903,34.504598011640255,-24.63079264883052,32.87838749999255,3,S02
6880,-0.19515132988339715,-1.2519655863274317,9.830077015529225,-39.194917461867426,-59.16388479568555,13.942901408166174,36.08142559239951,-26.366966418201688,34.208433494108,3,S02
6900,-0.8328745719164964,-2.5074001884446226,9.227725400617423,-54.199839134598,-87.410108053604,16.999698924860652,34.85905108647748,-29.735469776276116,31.16777619576657,3,S02
6920,-0.9218791145082738,-3.011856064339496,9.112552306746476,-72.5859678754849,-116.65042748863974,32.579008444021824,31.6474097414635,-29.031593865168936,35.06818996207746,3,S02
6940,-1.5452041056110528,-2.877875801157433,9.375883353895011,-74.99662846811532,-112.16799206060315,41.077565338136,31.092206911481167,-28.338450292652293,34.83871006938309,3,S02
6960,-0.892634864832733,-2.2110665897917263,9.374670329593332,-55.72636056573092,-92.64829742816819,34.195729300652665,32.52640323996859,-29.436267167535537,37.667352965350005,3,S02
6980,-0.3991523314844846,-0.9041824633416842,9.842349849541177,-36.88816432454962,-31.50919720740879,35.84646707471931,32.41351888204378,-28.869678018010397,39.90890985119624,3,S02
7000,0.41340140457752694,0.3977154186896096,10.53226419707278,19.475302939731105,29.84458011011421,30.988657110302363,27.077441273802897,-31.72057636602126,40.36495417498292,3,S02
7020,1.4897236702753198,1.9578043170659447,11.719231561571824,41.697201556478674,79.47588180254337,23.83536514445459,28.87034256914208,-33.08801542749852,37.48676486514499,3,S02
7040,1.30960418404847,2.838710805744162,12.442336839273999,68.48261482253199,114.01650788757267,-3.5175525155329272,25.14314867759615,-29.712190079849293,39.396780556909285,3,S02
7060,1.151800094464596,2.735990304962975,13.018177888078787,70.07499738375883,116.45166943165736,-12.46097115461315,28.100391023442285,-28.504966729646103,41.232944062319326,3,S02
7080,0.607801246541682,2.3935001950154593,13.072295274995744,50.624850885086936,97.67054333840257,-22.73336371991242,24.27888996129255,-27.553134459424673,42.30746091727558,3,S02
7100,0.39275360417708305,1.461839555472854,13.102567590231617,20.121062882271016,62.60741806562831,-39.42575927419208,23.445855394711252,-26.461217038327195,39.87807120932194,3,S02
7120,0.22693235871841452,0.7577958835972798,12.968773750959336,0.24233632104250002,36.313596139166734,-45.0241459940058,21.473815432481246,-25.82806613781694,38.31475238417989,3,S02
7140,0.2878415992067215,0.2886731079047175,12.407285749779902,-3.14524315589936,11.6405272096371,-30.938129327353465,24.906201553145102,-25.726190564052395,35.187392331989244,3,S02
7160,0.2310054243762278,0.03536694149650653,11.252962379640056,0.5678595165946367,-0.6924156463581668,-29.643758388337222,19.819621779787255,-23.46760712755708,33.45186748337363,3,S02
7180,-0.029397552616691636,-0.240570417659549,11.021949727836127,-6.92064996160577,-17.913746987628894,-20.317937483227052,22.037708714245746,-21.294791497324056,33.84005849046155,3,S02
7200,-0.19256950051640273,-1.0145810332901148,9.821776334863555,-22.385347516612843,-38.692619542115274,7.84254975830709,20.508973646391443,-18.147066059630802,32.17309494448058,3,S02
7220,-0.6278865522302264,-1.7236903679927629,9.345442189772838,-56.69833688988505,-64.96270643112972,21.229826235855363,18.151462935259847,-16.602340008568284,33.948149951765274,3,S02
7240,-1.082460764499464,-2.5160004065500545,9.088937758916215,-65.17825081410997,-102.45600235536303,25.706495026234535,18.893712315274144,-14.059292285516282,31.9241877888202,3,S02
7260,-0.9105288837269986,-2.8639546742332325,9.158888064058374,-70.97605000206451,-106.43249264336683,38.75823803412061,19.63347886934865,-14.122201082398092,33.20205149440335,3,S02
7280,-0.9696054646571338,-2.607853670322398,9.382065867319325,-71.42728351844102,-102.70859003931045,34.83607952319472,22.203483813455595,-14.434345023372892,33.96002611633455,3,S02
7300,-0.6154851591494607,-1.6148241825040628,9.638207120501896,-51.43105291098444,-72.95898678224515,37.82824562466649,23.072502060095033,-7.527874477026535,36.02910175120402,3,S02
7320,-0.2259502662855805,-0.3166775668890966,9.979129243497171,-17.53607656344449,-10.76516609953541,31.316755349840886,23.139538855391926,-6.191108259765349,37.008302961824825,3,S02
7340,0.8102188704725221,0.9420263205109936,11.007576787292278,30.743502741599432,49.42238925670287,29.474932260078866,25.243917292534675,-7.478327509455803,39.529580761450966,3,S02
7360,1.2269132654900303,2.285946425466526,11.848045492568263,58.941550639020896,89.39183150880704,10.326802151297727,24.91049747223068,-6.340759546003022,43.06691324470504,3,S02
7380,1.2750436991850986,2.683919672382238,12.857316014796206,63.048876150244,107.46980831475845,-14.851294311636538,23.744101253192902,-6.81559734725854,42.62115277651746,3,S02
7400,1.4076534826091813,2.473901811345088,13.124117920980073,62.532423266397444,100.36322656286185,-26.24596863973063,27.285933475646548,-3.6608046809337544,42.30149975927165,3,S02
7420,0.730417882420139,2.2030923997445533,13.337058526323142,40.23201629548136,73.71714755795949,-40.28809153979642,27.70103884901982,-5.1049264776007,43.32458723603593,3,S02
7440,0.481054554074821,1.2534808454410753,12.942435095585202,25.06657724786573,48.9672563092899,-41.518153973357485,28.269178924722645,-2.158097721309474,38.79603040847634,3,S02
7460,0.24157552106447922,0.5311729368372231,12.67841099803291,6.834579334944569,29.769990165959623,-43.296633789516896,31.84142620450456,-5.441731999390724,38.140040887094926,3,S02
7480,0.17443670471804296,0.27677772121754507,12.00696920618066,5.8504032988871115,9.501127978065671,-38.85160621100626,33.14848659192498,-5.663131482872845,34.92486780207359,3,S02
7500,0.24540385040121698,-0.23722363919524098,11.321903387465085,0.5239629735144415,-5.766149778339168,-21.782292587964644,31.739286093476945,-6.531463465449793,34.11307659923483,3,S02
7520,0.08390390403742796,-0.5272656447492454,10.368229218040675,-17.168082650315085,-31.10581415799736,-5.3996486779462005,32.66351286847256,-8.653843891013985,31.021939283541265,3,S02
7540,-0.3035922915511584,-1.4483104679198222,9.730810755701327,-26.761117757562847,-48.95223151269152,2.949847544465064,32.34397457081127,-9.293616705019398,33.35938332902889,3,S02
7560,-0.6951612990748753,-1.7630193232743838,9.32778303138418,-59.27273017859717,-85.9570981141886,19.73372190961248,34.081128831682214,-7.752586690707224,31.618079768461747,3,S02
7580,-0.8537568802688262,-2.5481778898685024,9.097567626153786,-71.74408815914869,-106.8346174262576,35.35081556607677,36.025514856533945,-12.296378455909583,35.186845828571236,3,S02
7600,-1.072755145714402,-2.945494956738328,9.250385550585278,-75.48797656689683,-116.86313590381383,33.779642427122035,35.69574377680584,-18.121676572899144,34.4587301360024,3,S02
7620,-1.075420105623251,-2.3289794025327497,9.343469240466494,-67.13213606362639,-93.03304806793936,48.93138532305697,35.48562718239221,-17.71614978359493,33.802904764290425,3,S02
7640,-0.4822908702145865,-1.2261070412378972,9.69946865637916,-38.035891904249254,-46.5742522560411,42.69520449807463,35.73278794689931,-18.152935034774675,38.47466692510699,3,S02
7660,0.4106730889078988,0.3283599390167268,10.476391223545587,4.4150018353042,13.505350103644092,32.564955339558196,34.12178887198172,-22.6621892955462,39.67325365346574,3,S02
7680,1.100507856162968,1.6855042320390012,11.233034352457862,39.28637163790974,67.5955606589698,22.129942210075157,34.08461439476798,-21.535513660575884,39.308306858657126,3,S02
7700,1.3541311618197165,2.4146337345483517,12.179582410356973,67.22368158270875,103.07967862910697,-6.249168592766512,35.246955538411996,-25.06354454913406,40.93631034114126,3,S02
7720,1.4906110792344447,2.817091732738079,12.8044476138862,63.487203798689066,106.93721929247944,-20.76068624847987,32.58047634964353,-25.850642925529364,38.500915382190044,3,S02
7740,1.068631209484314,2.3824135008677096,13.527953759593982,58.75930714987063,95.94153646268443,-29.276073264518928,34.50161662374106,-30.08612815017808,42.25262324166844,3,S02
7760,0.754450798816103,1.9229267751464127,13.327081984662733,35.8270075551676,74.801675736235,-26.632004384039384,33.15357812643089,-28.91773808734899,39.619861642842274,3,S02
7780,0.34541450442353216,1.1155633453963203,12.890955977937779,14.77153385158671,33.95114173084502,-43.70654595438166,32.59321431216527,-29.995234800635927,39.005402940375944,3,S02
7800,0.013302985595236766,0.39355040314679623,12.536643151728851,6.965464187306551,20.57235774516611,-35.360492772188906,32.768753308484754,-29.889308502368674,34.526150191348464,3,S02
7820,0.15550747961993489,-0.08356506087460792,11.891124591130405,-6.481968183298045,4.998767104065839,-33.92876322584593,32.62824576412336,-30.93713674640517,34.45599720487671,3,S02
7840,0.16661632150098063,-0.25774595082876184,10.990688053676493,-4.182581904451421,-7.787841212223186,-18.254942545934586,29.271473704089843,-29.792036039157573,32.701007915759874,3,S02
7860,-0.43302179185225687,-0.6971082939743822,10.210523845130105,-18.786033486856468,-30.07139310770194,-9.255585794565347,27.204543843199392,-29.67702997261812,34.10654085831244,3,S02
7880,-0.13062491692792108,-1.4479818130072,9.431245047285195,-29.08607198934848,-64.2317456964763,12.534627350508183,26.542733373308227,-34.99677934640793,34.83189478700979,3,S02
7900,-0.6740206345361349,-2.3375218104328885,9.287909297408476,-51.85219428411018,-80.89217975094367,33.57611400064709,24.661861565431032,-29.366354487503934,30.975297352352193,3,S02
7920,-1.2891218747249886,-2.763201845478532,9.110543308257832,-76.27200867118823,-113.1637565771301,31.146173240036113,26.33428408146593,-30.23392415841479,31.896061174515225,3,S02
7940,-1.0486161859257346,-3.093769727173878,9.350267284743985,-79.50079700165973,-108.33422643510629,42.47107424969548,22.847303381211823,-26.798268540855826,35.32165282696435,3,S02
7960,-1.0516553240650885,-2.1315656459076706,9.479786466649129,-66.37733826438708,-73.58646595774516,39.43394401053761,23.634422720891752,-25.015570444423957,36.75888186938242,3,S02
7980,-0.07316708371461525,-0.9406257906238,9.847748435118747,-18.632907701212787,-24.764162281128456,41.12027433480535,20.618434364088557,-23.41765115183171,39.14339022579801,3,S02
8000,0.22234802710409718,0.810306367560127,10.71141135797307,18.004264800206162,26.522278752149145,18.894962045799055,23.10585384255713,-22.824307802039833,40.782452437762736,3,S02
8020,1.046633626882059,2.0133141304184456,11.679153465182084,57.27962322112911,78.14426016452724,14.50523785745849,21.688426703969302,-19.275729844947797,42.63206531523314,3,S02
8040,1.063768316326122,2.6830174288297473,12.654710819400703,72.1034743902746,119.5233142804452,-2.416128635352743,22.14829486285345,-16.80755347967967,40.62638009331234,3,S02
8060,1.2349449116657654,3.0098049126488866,13.21798730987201,64.94055635220633,105.39980568159096,-15.69709546172903,18.905206731059344,-15.36200468838528,40.217609841210006,3,S02
8080,0.820141802926476,2.3625416823253795,13.36245127444887,45.4131678767069,101.30181764256842,-32.08732425634248,20.325102592538514,-15.411635800862808,42.94900467461954,3,S02
8100,0.6373408555118812,1.3120119704592517,13.1771708383997,30.87815446745127,62.508920948520554,-32.6710931010779,23.578167843748574,-11.003762928274195,40.98905220736962,3,S02
8120,0.16729375486195538,0.9600998887247585,12.731533981793785,7.984426510526654,32.45781517997108,-38.75587011786987,22.597576405713575,-8.669334105153862,40.30374713950464,3,S02
8140,0.19258917745664259,0.14201663996660382,12.021778324691258,5.793684948241986,-1.3725300659967352,-47.871612880080875,25.387401137020554,-8.31796700889992,36.8174739994363,3,S02
8160,0.38944363660770087,-0.29974890909829077,11.482314579958365,4.623753706851491,-2.3946622464546694,-33.64612727414248,24.06604792819619,-7.304237166746895,35.585663198396446,3,S02
8180,0.06502665302807932,-0.6712775857961102,10.529396804502202,-13.194871848662448,-24.8187869636934,-15.641957665070711,25.593669891481508,-7.8161329250592,32.6309188573715,3,S02
8200,-0.17503163425534837,-1.0536926495575083,9.877789257841393,-36.07163225605908,-44.394556815103,-5.341308033336204,24.694869060771502,-5.431075579510444,32.03355999630094,3,S02
8220,-0.44404716498937047,-1.8491380654670644,9.438190917697481,-52.61299262113282,-76.68399416411819,9.048953927486727,28.2607882676889,-6.604213071063813,31.980922329189443,3,S02
8240,-0.9368182826087458,-2.7438549480252807,9.129943371173267,-60.272139016818926,-102.59981588513388,32.96678924405485,25.412186258368592,-5.20190034153698,36.45605713640842,3,S02
8260,-1.0635586522089895,-2.846526654413559,8.888528791486216,-81.75074623025634,-109.5232870857749,36.82676587578212,27.783093078054097,-7.540182131581674,32.69960499844544,3,S02
8280,-0.951098947084147,-2.9173876655734214,9.439216006917505,-75.35369539156606,-93.19285907677332,41.84407237866838,28.840622474404867,-7.289444841258064,37.070199013530086,3,S02
8300,-0.8508714938777345,-1.6224078845941206,9.576920740012522,-45.18605328980916,-57.26277606168493,39.66159863518219,31.55093081183474,-5.137788089591545,36.22810876364226,3,S02
8320,0.2714290368718205,0.09525201686130627,9.985116651893476,2.6038692922554194,-6.019129710651795,34.06971666675728,31.207239083853153,-6.527615699655844,38.64089858309428,3,S02
8340,0.7350297377130407,1.1428778764034477,11.112721478610611,34.97926355462146,46.03445279446339,23.798035235402867,31.854186658548972,-8.279363531794957,39.90958270351198,3,S02
8360,1.089995780621594,2.3593121064323817,12.107479041938152,53.32172528781052,90.98478873634717,7.132837791919883,33.374666680429854,-12.723373277674622,44.32705810197223,3,S02
8380,1.4568071291695954,2.7768500993939185,12.694865745682868,78.48640498693561,104.7883918286111,-17.24448588072194,34.63573644590097,-11.309300383774866,41.77402947127954,3,S02
8400,1.4583788637667408,2.4165626357192,13.288475063266922,59.0810588368492,104.73619412381328,-21.009434544803618,36.471728024841866,-14.24509292547595,39.50552594017762,3,S02
8420,0.8047105374730378,2.1467594888128123,13.283386374585913,40.37100531726631,77.28983591681678,-37.14723140146112,35.630110022558455,-14.755587553536952,41.385515923226855,3,S02
8440,0.38241200709846423,0.9688544021001959,13.171463838733672,14.941531081450282,45.290787836022396,-29.529318438067783,35.77391714294052,-16.135216822785605,39.24549729829526,3,S02
8460,0.19407908704226456,0.6879761234118493,12.657233560723906,1.4325878026599854,26.42105794787392,-48.32959580074872,38.25064625441294,-18.498675315653966,37.568333750319205,3,S02
8480,0.26474983980190475,0.1533985826853466,11.890639365320876,5.651094320458001,4.366305643944712,-29.31993900927069,35.95014358638099,-18.858839060773587,36.065757674186976,3,S02
8500,0.13175426486604838,-0.3647634679950682,11.198267228016663,-8.740140970440478,-12.760420561549402,-28.14725638137379,36.249727296044114,-20.12006223600539,35.61947161194929,3,S02
8520,0.22808389445211244,-0.6954906497664579,10.386467587903791,-11.839524406189579,-30.42160433253599,-14.83375657514332,36.365138841454524,-24.828483029328464,31.567175804146167,3,S02
8540,-0.2353011567384186,-1.3203810723350498,9.705858854131039,-27.30716243476536,-62.08386909234853,2.903153598806655,36.17197189468056,-25.309973465086237,29.497941752896153,3,S02
8560,-0.44424014417096336,-1.9413188453472237,9.338543702511169,-48.61942766985864,-87.96801275617172,24.608095980360382,35.339573215577985,-30.707223856908765,30.95822488972381,3,S02
8580,-0.9368714481713197,-2.8389931974879468,9.080181420328993,-75.2535592576177,-110.62771242837135,27.053172127429185,34.295329469426946,-27.215285796502908,32.039034549842995,3,S02
8600,-1.2312116913283606,-2.81130716842889,9.007591165533679,-82.01900641681839,-114.00223464171978,35.08998400952971,32.38504005549474,-27.39948616872324,34.05056904104483,3,S02
8620,-1.0729090062144007,-2.438535823304023,9.509672512222858,-72.86550254778615,-89.90010142274812,43.12239791353016,32.059763440982806,-31.34066769469225,36.38237735830677,3,S02
8640,-0.40394859031746044,-1.2971198111745703,9.64345266726157,-39.67691638528081,-43.553612084314345,26.60382596468941,31.820839572638057,-32.90064352858441,39.06522074484398,3,S02
8660,0.3350549404210088,0.3726030312496454,10.201584948439573,7.926076592352449,17.643566047812737,30.780982661217003,28.89458660779653,-29.952046225976748,40.05213797660726,3,S02
8680,0.6743759329664131,1.554947803427689,11.423944902736068,45.298489381630226,59.7087207111044,29.576515781306355,29.05800081860821,-28.474485248234082,39.92190117580087,3,S02
8700,1.0664481659676166,2.7010014540256835,12.277220804480454,58.0961937114974,98.57948740049433,-2.333325009494097,26.993442043699652,-31.99362681838352,42.23280045119541,3,S02
8720,1.6961566853127654,2.6745887448567873,13.088033509641294,72.49211316131834,111.77547202546418,-11.496567086084642,28.57192066766675,-32.21580463845463,40.99676039095628,3,S02
8740,0.9373162137934017,2.3373051111707137,13.162380718340007,57.551193809131796,84.81184228532246,-26.335793801484645,23.463689996737678,-28.704938624697228,42.72988898505522,3,S02
8760,0.2650644086331293,1.5043702461109267,13.23549387076884,36.51732206565189,61.642498564042214,-33.27724951977293,24.60487053360066,-26.626705048902057,41.39649820710774,3,S02
8780,-0.17613400361913364,0.9524486444740434,12.911584537222232,22.31769939278701,33.28911113509791,-39.749866889650725,24.717807084972144,-26.103923852779605,38.79564947317829,3,S02
8800,0.2006902607250714,0.2939383768181725,12.292328546844681,-2.129823637139721,15.502920863063018,-43.30833949513832,24.31557178347737,-24.299416066423927,37.35734489203806,3,S02
8820,-0.02100729602067211,-0.04787990106054555,11.461424940722452,-2.910894180909609,-0.5056828650882628,-32.791286471497344,19.496130056715515,-22.35402390807139,36.196104158354615,3,S02
8840,0.005318205731397338,-0.4411042114734535,10.97714296977947,-7.431692386140687,-13.155120678409787,-20.910262471722877,20.05350366665155,-19.44846948071516,34.72511605569753,3,S02
8860,-0.0682921356601342,-0.8446691576500898,10.244879120181048,-12.815331094795464,-34.10301103723464,-14.062040146748531,23.531203393350673,-19.867935201270484,34.17882049302866,3,S02
8880,-0.3798411749712092,-1.8479087390351534,9.807677435132987,-38.26789984159888,-71.70183126464444,6.011734913804238,21.415645334957944,-16.538464763587722,33.332865036068796,3,S02
8900,-0.82837774731265,-2.1890645915237914,9.383026196974427,-70.11485777486833,-101.19162756435624,17.60684145999095,21.085121932334232,-15.98286307836129,33.82125835633452,3,S02
8920,-1.1501774997855314,-2.8736484096181014,9.23230134747732,-84.08020652547084,-112.72971881842874,41.383220047644905,22.379690886465568,-12.050391279588734,33.62702753401081,3,S02
8940,-1.1572864991627243,-2.9797841056215697,9.001672926520135,-75.30028270926378,-118.85984074670478,37.01139514934781,21.28610674599163,-9.734695190395822,32.71888291304103,3,S02
8960,-0.8380587101132115,-2.2029899045426564,9.411518625256315,-49.28908438629582,-71.82312859145793,45.615882000776196,18.718867208435043,-9.877136891626016,37.3424820770305,3,S02
8980,-0.19822655343226556,-0.7900929706999453,9.62454745065338,-28.40804674111142,-25.09542542112064,26.562715154674674,25.320649361064493,-7.647748128123642,36.7061923741973,3,S02
9000,0.6479536772453666,1.0258284906973283,10.786355119782295,21.10326472906685,35.56705271926188,16.04864546791469,24.643957929797125,-8.110999808314176,40.68438679743,3,S02
9020,1.0256626841869523,1.9795939366278363,11.900064693338312,50.06279906712001,87.35662009415918,19.43110119273475,26.25048564099334,-8.269342403355513,42.221251559877395,3,S02
9040,1.4155213266643392,2.9521781545764365,12.745957664418702,64.14258162369626,110.68149411440491,4.217098209700459,24.439933293528863,-5.088115602521989,43.64060132204596,3,S02
9060,1.275522545026013,2.607471026656101,13.140123173580324,69.35327924745872,109.56036218607579,-14.148495633491395,29.773110544456348,-5.129032816640149,41.56874634446925,3,S02
9080,0.7925351077509956,1.8154758645379456,13.31539181156532,39.866628008305234,87.46324910138341,-26.214218125894796,28.630513303895768,-3.815161710756037,39.758810676739465,3,S02
9100,0.3259749412886775,1.348210922112564,13.067282260428643,31.32096827670502,53.445634668956515,-41.24876131770564,30.95970793106689,-6.053493132951804,38.47456590284643,3,S02
9120,0.05923518336409283,0.7535313887250947,12.643509125682987,6.408239970220374,20.343332391462525,-35.854842876603314,33.87623109413261,-5.092119418576241,36.844351759737634,3,S02
9140,0.23478793370444798,0.2811295038835921,12.312764511431597,2.1372005566837533,24.015952549854443,-35.698829617367615,30.505622808848486,-8.320195352960681,39.18748219725928,3,S02
9160,-0.09956919292041358,-0.3457564791947408,11.178665666686934,-3.5900047258174914,-3.8209386423710754,-32.740328211304025,33.063219178002704,-3.759504809322264,32.874208648143494,3,S02
9180,-0.03942418306948797,-0.3961837328952688,10.573714324830776,-18.599229674022663,-23.019019428432753,-15.543119295969445,30.125776933828437,-9.219393256234923,34.26701659598717,3,S02
9200,0.04108430966689493,-1.2257886811335732,9.898434640970494,-24.096735937999412,-42.91237113893888,0.36073521343248693,33.58569133854611,-9.358436523482528,30.193993992728643,3,S02
9220,-0.596987506266163,-2.010393485238767,9.386461158005803,-36.376100575183614,-78.60752835724679,19.418936324002328,36.82595247760333,-13.334471647241594,32.0234445934316,3,S02
9240,-0.9921382963007314,-2.7039351694199083,9.04165319493528,-71.03114926610588,-111.11720840836692,30.369022817520538,35.0129963679827,-13.624965069425079,33.87187450220247,3,S02
9260,-1.3061712448671952,-2.9332225254235844,9.117197008427505,-81.52963295546935,-115.04865482960462,32.039133865951236,33.937457422940454,-12.763079280934488,33.503038435230934,3,S02
9280,-0.9218957572533949,-2.3256227772850853,9.10521291945388,-74.46640484513317,-105.68962293035626,34.0408255829105,36.509111530251204,-15.447875875455086,36.636022638617604,3,S02
9300,-0.5066238705100852,-1.4964149140829666,9.473282213941754,-51.25910043954588,-65.14752829049439,42.9977408655888,35.30093851231357,-18.067965161488225,37.492342319856746,3,S02
9320,0.4061442976546952,-0.08759714069637742,10.245879113043562,2.3362275590052493,-0.7097413128068586,34.11242773748606,36.781504825102864,-20.041844961315324,37.15136306963109,3,S02
9340,0.6802071557980707,1.3427410347270026,11.165713529121952,32.23693656441441,51.56758204911188,24.34456582265817,36.17624656035953,-21.369457212854797,39.04662022015282,3,S02
9360,1.2337333237546595,2.4718127863168613,12.137949858002742,64.33857336281598,86.67408078811984,5.057996768971478,35.52359048799641,-23.938571714105205,40.574632214914644,3,S02
9380,1.4616420742672218,2.7603748202976868,12.54239874912312,67.18116430472018,117.43695202149718,-11.783977582636897,33.26074852808579,-25.40683965647801,41.080481679355806,3,S02
9400,0.9450002604384279,2.4915525098996363,13.054195599043457,62.59397678497605,100.46458810065286,-27.7267246282031,32.33844570234481,-26.507497151812295,39.275333374810614,3,S02
9420,0.7033788441592344,1.9330915241272966,13.435218902472693,44.80853233972902,74.66027565109715,-27.09603454769098,32.424977930357215,-26.81649708974223,41.105448812354034,3,S02
9440,0.6691674027042158,1.3373528814408737,13.19902122320742,16.119585388139065,56.15470075951586,-49.28006639848908,33.744085900621286,-28.69774817567841,40.8789320622584,3,S02
9460,-0.1547963001701139,0.6325133029210721,12.625385673348696,3.854059896147697,26.826739518281155,-43.09777246882932,32.304216282562535,-34.777005191536034,36.5190433082917,3,S02
9480,-0.013437221458953055,-0.14224668419825715,12.0326635487362,-7.753712340043167,0.3069535880398482,-34.770830627751344,31.63242199211635,-30.860491933274254,37.45885149823239,3,S02
9500,-0.05993273855026779,-0.41054071814223986,11.24211857412483,2.3665199634106644,-8.765364040814339,-26.743563221990442,31.21775220495349,-31.31019233740587,37.29960250002083,3,S02
9520,0.010234510476965622,-0.7083555409347162,10.350183828123754,-20.20249422093295,-31.98119632356165,-11.885264300988512,31.808482948344356,-27.91578608570953,33.70097761439099,3,S02
9540,-0.3174906512640825,-1.5271640646525078,9.68027732899471,-30.289742058999675,-58.96735936739533,11.181309201457198,28.444120182131787,-32.313240641770506,33.07158012964359,3,S02
9560,-0.7280872340507222,-2.116087641742429,9.176244718295644,-63.25771960841461,-84.20165626075939,25.51583770806403,22.392554025405403,-30.089201608367517,32.191729665208584,3,S02
9580,-0.9501055955387022,-2.545133833394861,9.04232883053085,-68.19925646387189,-103.54674760919619,28.642116182318876,21.62355347275775,-27.68268396406563,32.041041971574664,3,S02
9600,-1.3070566379701527,-2.6966366618457354,9.024528623809594,-83.5667395694472,-107.36948324503342,38.89404120835802,23.769196762564427,-26.663908889626356,34.12182251087932,3,S02
9620,-0.9338274468533622,-2.2706953479854355,9.499380121696177,-71.90285087368946,-90.05139578751488,34.51717025219527,22.22104643487572,-27.626641981083054,36.09794665633847,3,S02
9640,-0.45807899766776206,-1.1953204600937974,9.82710483380383,-32.80219090763064,-35.34805011451082,39.312760893375454,22.21082799668816,-21.65397680123091,38.95167590903904,3,S02
9660,0.2691367979625302,0.24973393991362253,10.562611695203012,5.775660956121862,18.85139607980218,22.69713078410313,22.29638675355522,-20.38447164253425,41.35717793454621,3,S02
9680,0.9304694833561353,1.706100375391209,11.485551038855228,45.21385133005206,67.26176746614273,23.44659447909526,22.75671813558227,-21.19707150932949,40.031517554081994,3,S02
9700,1.4386435544861387,2.434386610277344,12.374894027618405,71.83367409200045,108.90779359502514,2.303516701482491,20.872526026751757,-17.589079907659254,42.88717090446129,3,S02
9720,1.4846451715069688,2.778418384036184,12.865002486828276,57.42472645879626,120.774611484554,-7.308074433310046,20.533910101471314,-16.08618284566249,41.55756624112703,3,S02
9740,0.9450598026439027,2.309009274878745,13.357042782126689,57.05453091341672,93.73466976269597,-26.503799751574977,20.73601801557603,-13.323991332644388,42.86447589893559,3,S02
9760,0.7395038257878501,1.4673106925782278,13.251952927296749,32.95177517573888,70.85389103798487,-30.24475071988898,22.1984511615211,-11.153603029916443,41.12512986922795,3,S02
9780,0.054328790746479075,0.8594489417987476,13.066496625129894,16.71533726299192,35.06790096841792,-46.07295519402425,20.318109304858098,-12.243558247019406,38.22171515758131,3,S02
9800,0.17046381496880403,0.23260568017533279,12.196724528987955,-9.982171395761185,17.62166082356522,-36.26159043948683,21.904663840313326,-8.542606252558295,36.641305259637285,3,S02
9820,0.23578507766548462,-0.3273187545129617,11.440820028633569,-10.21667742647086,-8.742650777403798,-32.227851531410415,24.35768296287563,-9.04744372839791,33.74433846913962,3,S02
9840,-0.05790235932995175,-0.5632780787244738,10.968407504114744,-12.742576742649629,-6.138624602494645,-24.07932929540038,25.88630253415457,-7.170987790739275,32.47382871677047,3,S02
9860,-0.03550889355349468,-1.3712725278562654,10.312487144438998,-18.717764157278147,-37.62643550963838,3.890113111116302,25.668801679630548,-4.784631164949918,30.289223453684155,3,S02
9880,-0.2445846141725125,-1.6123396254335018,9.499000562921482,-36.58226191042601,-71.53796971361963,10.199165281333544,29.263268793335754,-5.250761867300232,32.78146976039087,3,S02
9900,-0.8091431286046593,-2.255483045280868,9.074737643441198,-58.520091812059036,-93.8108149893441,23.04083295699184,29.982686870586786,-7.462870409829064,32.39903077734519,3,S02
9920,-1.112146938292534,-2.678411702754938,9.043162943090291,-68.96467400113332,-113.35203951420291,34.85509923600323,29.392928443765342,-3.7149646303171737,32.36433831299601,3,S02
9940,-0.9856646591320032,-2.9851028910895057,9.15386903163686,-81.46147259242353,-109.65408323482426,40.80447166326874,28.68139955429199,-5.86438954673354,34.96441598143902,3,S02
9960,-0.9958058464793361,-1.958069742759844,9.505055897383615,-52.768514585369424,-75.11640832058191,42.554542287433954,29.661783345420304,-8.243967453307121,38.722983957210566,3,S02
9980,-0.2630373185379814,-0.9476598294339436,10.102637608051,-25.009512002075496,-18.976650648871793,39.26771051645984,32.06242364267386,-6.411421632896894,40.89957995244438,3,S02
10000,0.8584275749384067,0.8924729116057182,10.816243215153696,17.746954267054168,39.88121603891689,22.09511561260781,31.14514252680607,-6.352622162396479,41.24124854608279,3,S02
10020,1.0163696330881138,2.0177313051002397,11.727551219147719,52.433441862976295,82.61438352037412,11.602082368325185,34.23705726311489,-8.223716107422257,41.792837358809095,3,S02
10040,1.350432478667847,2.6454217402068347,12.775580656928659,70.67777956186639,114.63747033150261,1.2715876497242964,33.24999850720707,-9.68720000089569,42.669716979661644,3,S02
10060,1.3837041389212315,2.86377115518413,13.04182894542541,64.74198379829102,111.66308107911598,-21.529029985483053,34.10722489615578,-14.078373595355977,41.15163604825304,3,S02
10080,0.7820211351176839,2.079330287462489,13.117269597294202,37.832498095798655,86.49332760374834,-28.152955452167635,36.30863868716726,-13.64670019464521,43.829449532025905,3,S02
10100,0.5500438168851899,1.3128011270366726,12.946486902242556,22.713110059189162,60.16974831476425,-36.84440946917396,35.07743401783584,-13.968424863018663,38.84120968539766,3,S02
10120,0.27626484409249547,0.786996587721092,12.70899785340627,3.1100784792987115,33.62066393413468,-42.192349348718786,36.68691160983487,-19.080759922940267,37.00685125671609,3,S02
10140,0.2015701568265265,0.33975649238429556,11.959789195449595,3.582263665213257,8.038395118615352,-31.224168971470927,35.88011884140167,-17.869944774943782,36.71170542117398,3,S02
10160,-0.02916428828728715,-0.13265678986257745,11.4174317058546,0.6007432172900229,-3.9059163454799055,-26.156315755686116,37.97244472157124,-21.067932463514907,32.94804004511015,3,S02
10180,-0.13079100103482402,-0.3667903311199095,10.798938138031813,-11.268951646532418,-25.243002361880844,-14.14426515307756,37.48716122428237,-21.88579591245854,30.25517926897015,3,S02
10200,-0.07222428216758389,-1.05484669144128,10.162880192780914,-32.48578859534992,-54.85697982899797,1.0379959186457248,34.07879793778359,-26.2186186573368,32.71512876613042,3,S02
10220,-0.25574992041779165,-1.90683262695487,9.450252109901825,-48.387941490947064,-80.43090868004575,19.43692685033641,35.96559619623068,-26.984425081959035,34.48295780159598,3,S02
10240,-0.9552477183162179,-2.9455585273697893,9.09382187502361,-65.59669845860097,-105.64801009234696,26.216152931915424,32.53145862959907,-25.847785543111836,33.212589749064506,3,S02
10260,-1.1664190142612072,-2.7127138669397164,9.007653790862703,-82.42995877654518,-118.54304207576607,35.20096811137104,33.33677183813984,-29.775620840845733,35.05100181141685,3,S02
10280,-0.858698438177497,-2.370267075433885,9.389964148979628,-73.13389358255375,-101.08109829765858,29.635672002836984,31.21568350013263,-29.556138640727344,33.64664245794379,3,S02
10300,-0.9111576691700171,-1.4566289888403767,9.78031709579358,-41.01013825449637,-52.415164567774816,31.238516945547303,31.390857651539296,-27.86091128483696,36.96645631390349,3,S02
10320,0.20069004261858264,-0.17005631343122934,10.27299971060485,0.2154191726768051,2.437434191244791,34.70233149817225,32.58380399991551,-31.41206294648729,40.94167565769792,3,S02
10340,0.5315028802949477,1.2444491169071834,11.203086202539067,39.810176105606246,54.70701739324475,8.666056472703906,28.688776249869022,-30.303739742517898,40.229225223291344,3,S02
10360,1.289610018887537,2.6794925196837274,12.0855599657143,59.980084822651676,100.46258735630839,2.8138942438602315,29.398380542715078,-26.316086623233524,43.462868377064886,3,S02
10380,1.473556834760541,2.5578700772497083,12.711517725389967,64.03520419639412,121.4215054776745,-5.410449087880245,28.23289081370404,-31.599417450633847,42.27153703804389,3,S02
10400,1.2233987596772544,2.6121262816449886,13.186806635797602,58.22286449066133,97.1522286652015,-14.811758047875244,25.864780029990094,-29.646120781192433,43.597030846609655,3,S02
10420,0.7927513173795734,1.6905357795287945,13.26497202452255,36.71984621496887,69.48061949738518,-31.305545279268202,23.96115616906051,-26.589054006923103,40.17845945800915,3,S02
10440,0.4391719561437193,1.1490141077340297,13.203933260033699,24.801085081479226,47.84552198134473,-42.99368572387556,22.937422835340143,-26.28293945553789,40.44335795593668,3,S02
10460,0.1619447060427346,0.5129328826845343,12.911391610704138,2.265975474455601,23.63886302905766,-35.89359665087124,23.664547877683276,-24.239736030140985,35.533153668857636,3,S02
10480,0.03127764450722774,0.11841797075002083,11.709824608148521,-2.834437173013688,2.682666691544383,-31.76405879467717,23.847517316995173,-21.215124386114667,35.895342314846786,3,S02
10500,0.17828471411736596,-0.22581644922858182,11.398950578051064,-21.31183492138867,-6.760100049565645,-20.507561961850797,24.17223743833491,-21.634793280204097,30.595756563456895,3,S02
10520,-0.12935351273704637,-1.1672911732797957,10.254252484719533,-7.646110416198851,-27.96308551609894,-4.29361331216014,20.225585429722933,-19.374280566183906,31.855554060319776,3,S02
10540,-0.3893131621006506,-1.437631495683878,9.467838893572113,-33.3987005681313,-62.65661258720378,4.6539883594781,21.540421229604654,-16.817178585130048,31.84117275151984,3,S02
10560,-0.3216141879473301,-2.433540720192944,9.110793968829164,-64.49566770263513,-90.91090616217333,14.77303681230826,21.338099523830248,-15.314451259631554,32.98650448488483,3,S02
10580,-0.9580792001977095,-2.4798399682883603,9.053268939943733,-72.88174394803953,-112.59517992895515,29.102433217769697,20.35022981077975,-11.486866602052224,35.86784041076031,3,S02
10600,-1.1625240927891727,-2.911139983182936,9.283421498228215,-85.26301840797657,-114.4648900408462,36.6188222813775,23.040222444538774,-12.3402266775775,35.85599732478212,3,S02
10620,-1.2178500504960936,-2.1319149266262993,9.520602179535121,-54.731908630887325,-83.16802173646289,36.29084911559878,22.934255963696074,-11.244727919508524,34.885741765586005,3,S02
10640,-0.4208798737510838,-1.1067924519504706,9.741290908246249,-30.02102597184196,-33.498185616330716,35.493502386281634,24.260735389000494,-6.722538913491335,39.696759184235475,3,S02
10660,0.4073285160007256,0.6665882989548009,10.772483354484049,7.988979917674537,18.989537032302113,22.073575973315172,23.665869161719023,-9.456823800606566,42.51527087907831,3,S02
10680,0.8348940365913408,1.9777169711618454,11.660153347534065,55.189989274286944,69.20540457894731,22.55647699034111,23.719537380497307,-6.468940945013596,42.41373276459809,3,S02
10700,1.0184954271655642,2.77861878944478,12.176043858136726,77.46093313165078,111.30617741418773,-7.477188110345656,23.05040828809018,-6.681818262581367,41.934821590328916,3,S02
10720,1.0175682133091108,2.5842141172448603,12.989719598967119,74.650705025792,114.91352418941571,-18.49864755877348,26.517476104743263,-5.8072466407967624,44.118908210429915,3,S02
10740,1.074165377802693,2.2203202860325146,13.33448799225065,56.710596279035784,75.73245867999121,-23.37343249106739,26.79016612157596,-3.001498695700611,42.20234952423215,3,S02
10760,0.6227046331885232,1.2188823918831047,13.283352771374151,24.41955741147535,62.7782510800073,-29.55012940322102,30.578608557152073,-3.383983074205741,40.335677978508684,3,S02
10780,0.20946435048641557,0.77773033214858,12.806543179076986,8.217917171754522,29.690696971363735,-32.43678638447969,31.914181791766588,-6.447088691051096,36.47099661658023,3,S02
10800,0.034500360079654235,0.13666764501519169,12.370666024410964,5.771954086003272,12.771661993453726,-41.049229774287326,31.652198465738305,-10.151253867205135,36.43514150697552,3,S02
10820,0.08436997124008495,-0.26457767153058975,11.330850295969322,1.3716891145020824,4.438553988953951,-26.316462859274232,30.925091633609746,-4.5247982529742545,36.331040649530514,3,S02
10840,-0.0361424513412745,-0.2132801971693582,10.66527213419112,-5.824300164733348,-24.77194293390438,-14.79119872164924,33.63935616261387,-9.296069914100173,30.214299325425635,3,S02
10860,0.005728670849971362,-0.8001072374556408,9.942673804149209,-15.759036466348778,-55.28061221683225,-1.8233586091651142,34.546043636540546,-8.001715668711505,34.02193853441341,3,S02
10880,-0.13125790779064633,-1.5576558181481677,9.508151746516974,-42.18862294177515,-75.4118850983485,13.368455270238153,36.50254678025705,-9.548804638946432,32.8655516331044,3,S02
10900,-0.5973920646854305,-2.5310221143400726,9.150974046972168,-65.90151346877006,-98.81459219010051,30.752677954435875,34.07257582547484,-12.964543859088522,30.188671968490933,3,S02
10920,-1.0264543035626217,-2.8069831747412355,9.268972818792632,-68.23090376798768,-109.5683119973962,29.359890034345124,35.27357306642847,-13.755441355892492,36.730202955333404,3,S02
10940,-1.238010031312198,-3.056967044334346,9.36588366191149,-78.01729390207666,-92.8341699051403,39.28875387358243,37.15200337002281,-12.69759040356562,35.13688595722071,3,S02
10960,-0.8217259607893362,-1.712639156651006,9.328294427657264,-60.254205630638985,-75.5504817926021,39.61846425534948,39.400449806638406,-17.87782717286338,36.812379004426674,3,S02
10980,-0.08237629758155343,-0.2851772184559669,10.021463995383533,-20.550873165291566,-22.555237635547893,35.62396373049382,37.493161406463955,-21.53636344994981,39.51989501214832,3,S02
11000,0.6254093769688976,1.1251727905916697,10.526697478458157,27.15641008760201,39.06905500552656,21.269427881722798,35.95647416028065,-23.039724838091857,42.499052325124055,3,S02
11020,1.252630595559674,2.0472524746288414,11.80931082861383,56.660080250643205,85.01449882659972,7.159618288161655,33.7058666104437,-21.449800995729944,42.60198412392055,3,S02
11040,1.509012886140164,2.796856719460932,12.722829717376856,75.45088951500522,111.49070147404622,-7.940342022434576,34.06652163170622,-24.831661875720613,40.17520189173111,3,S02
11060,1.2048716047963,2.7022405466060104,13.1935835750392,60.36947631626795,105.19725672058406,-13.927603039851412,36.17513770939936,-30.09159442125622,39.68871852760323,3,S02
11080,0.8156826155022996,2.212653596206297,13.540250225347112,54.47653021774548,85.38730392982917,-30.923070894569747,34.61495002487335,-29.171467915115866,41.7734066239275,3,S02
11100,0.4825782770563092,1.1366151969624947,13.11474040930232,20.481848775479705,62.41855518373802,-35.278324006455854,32.1281231052011,-24.18429768168739,40.692538807136266,3,S02
11120,0.1993896509658112,0.6250069241988156,12.57015104155473,4.504811400420816,28.44059158034606,-38.64267103320813,31.627725421401244,-28.87841635902302,37.04034591608557,3,S02
11140,-0.14086318066033227,0.1168748139816293,12.361545164731275,-1.1637645102878507,-3.3994320292247933,-32.52878066239151,30.600060104939708,-29.341056735100423,33.251053492566896,3,S02
11160,-0.015106958701059811,-0.3145910764158052,11.177974068263364,-3.167169202394844,-10.46946752829603,-19.91805116584609,30.437355983220318,-29.049377039852708,33.29268980207782,3,S02
11180,0.16035451702323208,-0.7902039673357575,10.516752122141822,-17.48745923711147,-16.329771932123176,-11.042937743232118,26.808497148027755,-30.36543562912906,33.87558284201798,3,S02
11200,-0.2085824333990932,-1.3967835960414352,10.276982576205977,-26.863703974157612,-48.2218162823788,4.322184132139512,28.41467715175419,-30.90793822926359,31.532188511223712,3,S02
11220,-0.5016270362149398,-2.044428809101485,9.3168424124875,-43.427552680797696,-80.52781221932166,20.444075602424206,24.425075936955853,-32.86205635103717,30.397213787644656,3,S02
11240,-0.9404211076043562,-2.446134694235934,8.902506818122676,-79.87917194907214,-105.92746727350269,26.573515863678395,25.504294898388558,-27.375949808828434,37.317460390022184,3,S02
11260,-1.3215403613931214,-3.0024255790627685,9.000349884261063,-84.49332321504194,-108.5568272341629,41.08537591499278,26.715575722800367,-29.609534115554805,29.6346231181665,3,S02
11280,-1.0954282947565956,-2.683481179270474,9.392564798873682,-66.99545613971404,-103.89928706891922,36.74980607324217,25.94504565611745,-26.3632295597895,35.84487247208181,3,S02
11300,-0.6642027827706284,-1.5603195179493818,9.405302449593627,-38.264069943384065,-51.662571917317024,31.11168492258725,22.788433217840627,-21.452260176563748,41.24338056287213,3,S02
11320,0.062417514515718114,0.04809110282606002,10.081236751388882,-0.27988838799943405,9.986409203825126,37.03064107090159,21.224274269063173,-22.346018162852864,38.72805816362513,3,S02
11340,0.7525554935889853,1.4238128747559238,11.123920852530945,40.50493642067911,65.71133005889824,17.479657593580725,21.29068123282228,-21.092189818291008,39.209195716238035,3,S02
11360,1.4406667513814115,2.5307677909081443,12.07715310653724,67.85005392528747,97.323770195449,3.148228630174873,22.571467842513982,-19.639042111981627,43.24132272518606,3,S02
11380,1.8062049589962454,2.5976672332871504,13.059913201179679,63.24267481759834,111.25066833606236,-6.896068918404497,22.847802408781227,-14.684989059591622,43.61998007055602,3,S02
11400,1.1324571473659797,2.492952553261179,13.271435185492878,57.06845417767116,96.05102176549907,-20.916147267817912,20.950148048171876,-14.226014171899646,41.740296928380104,3,S02
11420,1.0104445169254401,1.9324392322791233,13.227677293176201,26.18517770058534,72.80077152731684,-27.339525384619776,21.51012691530623,-10.626286434770742,42.36531047087066,3,S02
11440,0.4078352422687932,1.1072255850278268,13.172583406966446,19.042706986979635,42.33964849147421,-37.833278753120425,19.679139829231403,-7.485537575483407,38.288775860601525,3,S02
11460,0.10199820592246667,0.4651190773510799,12.348647843317096,4.848301991973675,14.65253916907066,-42.60292342593395,20.804986970135943,-6.878944779341533,37.08718944331711,3,S02
11480,0.1696037856644767,-0.08319091910687078,11.55469681564222,3.21683034049551,0.8928213667323519,-31.69810393019953,23.384393679832332,-7.033429971075888,37.58847354155293,3,S02
11500,0.3189562691823664,-0.3771130188527681,11.121740057038942,-11.20791509018975,-6.606903047157554,-18.134748462761998,24.355685138870868,-8.475574330011712,30.92201529366533,3,S02
11520,0.16949652071773877,-0.8151689236089916,10.41412904981208,-18.267431488511786,-29.660546847219894,-4.747022224784826,26.180664789148196,-6.338723350981652,33.448154677167,3,S02
11540,-0.2998199817953112,-1.3577742999895555,9.823680685894638,-28.259376857007812,-66.72397689494763,9.484358050349002,26.116483293864903,-4.429297733631367,33.816923292614135,3,S02
11560,-0.8840822106735517,-2.1544438790469975,9.379043120284747,-56.34312917402267,-94.15627325667131,17.752976324204695,26.471354852994413,-4.800809146925523,34.85581800692908,3,S02
11580,-1.0537742647978992,-2.736856621006366,8.839611160043232,-70.71957772958834,-102.94462908468012,27.746087307166917,29.504870499812625,-5.906799428405682,34.16409923900335,3,S02
11600,-1.2218279803497138,-2.82967051250687,8.749183755268083,-71.20419022014048,-117.45103644919014,39.71297707140662,29.261162695523986,-6.047806598725647,36.944025564122676,3,S02
11620,-1.0242830807237044,-2.2652249674638667,9.444114857611803,-58.15654465230608,-82.66307226601086,29.71805022002253,30.27272475096485,-5.021496545819896,37.08914992253028,3,S02
11640,-0.47673176145152596,-1.0682343090811008,9.707536451911587,-31.40936249893512,-29.010112602264936,36.21714851446252,33.81772694220085,-2.629259249733895,41.892416502736644,3,S02
11660,0.32177707986936166,0.6098963004517903,10.941454131269348,26.22182722888185,24.443973817068986,21.07951867596256,33.794261048863255,-8.187739201272624,38.15674100881276,3,S02
11680,1.192984919813363,2.0278581693449627,11.262197595880812,47.79248775393514,73.77318316641762,22.52108946543379,32.71122850882875,-8.897183294429835,41.68521565491036,3,S02
11700,1.3313824018763847,2.8207006807777106,12.527557123329872,67.83913165566172,99.35668085309985,-8.645191906621074,32.717884832018655,-9.505369032126858,43.687366376651426,3,S02
11720,1.3422012091482831,2.809474854961061,13.163530867792947,61.11734276706767,115.192796081568,-22.5874490188749,34.56025135093178,-10.641429772320723,43.38636390167727,3,S02
11740,0.8406188424708405,1.8073496445653383,13.479074943837562,49.1348951284961,87.82772086842411,-22.628762354721157,35.567994792798586,-15.51431454509284,42.33358753071725,3,S02
11760,0.801589100139268,1.5245573089136537,13.044592154660885,38.8106625214226,54.06507493392315,-39.793379793637826,37.07969170083253,-14.700911280215253,40.58994996722596,3,S02
11780,0.3325576598471569,0.7123177005805175,12.86094767285981,7.586480177533203,23.642211888050074,-46.39770215462796,37.4065571178912,-17.716893888955425,36.14832061012451,3,S02
11800,0.09767993650426707,0.36752113387175495,12.30951572696358,-11.04656430024433,8.594272751409946,-35.171179356778374,36.926826886481024,-20.538222120192593,37.55392107876623,3,S02
11820,0.12165086690892715,0.004152335463059098,11.679247332951952,-9.65966691797011,-4.306873380747709,-31.950087967343237,37.108266156947394,-21.50645866803837,34.40757739099013,3,S02
11840,0.011778149548898775,-0.5687167970973441,11.02088340227941,-8.263108688302271,-22.69595804196341,-20.922961152041026,36.40956023229964,-21.694299522279103,34.84945558243314,3,S02
11860,-0.29238650964149904,-1.3500728731083742,10.25873390856974,-22.472703205005587,-51.98075763711405,-3.0917919899658024,35.199144122983604,-27.439721385178196,32.46736857849082,3,S02
11880,-0.7623160290681951,-1.6774569958896,9.459214434967045,-39.430488734646126,-70.4529482230071,4.503650372382779,36.12737232524419,-27.45539709860291,34.4240570320237,3,S02
11900,-0.8259722525270915,-2.493733837990289,9.31662723729195,-55.576973702516014,-106.89156201374452,18.71751052869506,34.28193765472671,-27.720173645924188,33.19322184788048,3,S02
11920,-1.0584238795999403,-2.8377573945851617,9.161251254686867,-77.74745315571894,-102.72923077280988,30.80940755170158,32.57425078491225,-28.319886376095965,33.87117404671617,3,S02
11940,-1.3932195726714636,-2.8841210429003734,9.322979920525636,-68.16866330291731,-109.36431551351467,32.2764336318259,34.69359385274622,-27.249505429641086,34.19561955219956,3,S02
11960,-0.52245616062634,-1.6985530522252426,9.514793615161894,-39.79708253591316,-64.53034972556192,32.03210274820731,29.21073760639163,-26.63041858813024,34.258974760271045,3,S02
11980,-0.21722227185113582,-0.1853348609373782,9.922862830865302,-8.58824918154227,-20.544306285340983,32.80814247382432,32.00467383635683,-32.52023869332319,40.96291609571625,3,S02
12000,0.6227849095249658,0.9411499111967616,11.024792383864412,20.687572611914987,42.211323551989004,19.871280303005296,31.51926235993823,-30.320244712411643,39.326268995735425,3,S02
12020,1.1702643540909825,2.474783282908135,11.93738295686528,51.65658196122214,96.28771990506883,10.404137883200333,26.33630712932553,-28.062142609616618,40.381897155782006,3,S02
12040,1.322469414378853,2.678912481949885,12.887971094712967,61.94765287461324,113.76156710851778,-8.226176608669553,28.319121370409817,-27.733263753076205,41.61313402115654,3,S02
12060,1.2665010763601554,3.042886145030144,13.624336640281461,50.97581076904716,98.22281852661241,-11.554279752149462,25.97303653580886,-29.611689206954303,42.3295341046544,3,S02
12080,0.8335724686028444,2.0521427889469117,13.54955622925519,43.079840460771955,89.59309884583732,-32.09878055110542,26.414111897163497,-27.892061721116225,38.79102667681247,3,S02
12100,0.3064853005640986,0.9949931986553961,13.319162626487085,16.72325547574758,59.78107064391084,-37.22225479450449,23.191243623624388,-26.121771574041926,39.53114653068162,3,S02
12120,0.29022087065588154,0.6191354729863128,12.629258694792444,5.986037028930569,23.091477480410372,-33.315174542740245,21.196422932710853,-25.927868878931395,35.772301483247944,3,S02
12140,0.06525278922987818,-0.14795630926572503,12.26938192428357,-3.1760818354260056,13.708282640365354,-32.408252293928044,22.62541876817189,-24.465050848046626,34.42569218716173,3,S02
12160,0.15489827618713384,-0.5364768544976588,11.165506662429237,-0.22741470317136514,-3.6659631538712976,-26.704914049965573,24.259679917701,-21.11809611366244,33.61917304127187,3,S02
12180,-0.008515198585482608,-0.763853354786346,10.41992562164956,-12.970714858843362,-22.800511293748105,-9.575821847465809,22.26716703641225,-19.494481862616652,33.57400681631307,3,S02
12200,-0.1282338351141653,-1.3136871084835586,9.43838630265238,-23.609636464400303,-55.042497039778645,-1.873541664505591,22.517142683520397,-17.614610695548055,34.529664700691406,3,S02
12220,-0.7989744318220826,-1.9727787570380182,9.593808230816753,-48.27681327101925,-78.92380470816563,16.4041216496933,21.78866055525947,-12.822870365361787,32.890847397939325,3,S02
12240,-1.1183004453031613,-2.587050588476341,9.042672160286104,-73.91387337417062,-108.10577854201775,34.75940025016353,20.02228835242666,-16.029856564834525,32.24583249979732,3,S02
12260,-1.2329125666734386,-2.7777498482320957,9.041034812531542,-77.21941345825233,-117.15109215420699,41.62426855644118,20.45335350846341,-13.170016697224787,34.919563470089415,3,S02
12280,-0.959487661014827,-2.323150456107798,9.320718844725043,-70.84638532046702,-97.09564142906717,40.61694299826348,20.29121941394715,-12.576784151532362,38.04334608647032,3,S02
12300,-0.522575995809404,-1.3505191302385617,9.900980904084067,-42.02308134649766,-45.10275054859199,39.79452806155267,22.507015757643856,-6.679066827724527,37.69264102034371,3,S02
12320,0.3906880319859276,0.17666881225356348,10.370092348498765,7.1792170789448795,6.811552821084216,31.17752144660214,23.87700769549805,-9.099871759802827,41.11337267974571,3,S02
12340,0.7149723426500048,1.8274636571159597,11.349947199980413,41.19900542578492,63.024755184081585,18.468663175558905,24.392174603291174,-8.10623356054116,41.458694986225076,3,S02
12360,1.28934652517395,2.369055232908791,12.317072090285404,68.78717102705983,96.67362120351665,4.7444741861519635,26.042806598979983,-5.624174353297456,40.30969491891037,3,S02
12380,1.2625019237922033,2.92277627378489,12.717323819305046,63.3516848507971,111.67610081831087,-13.025965243498362,28.406239357916267,-7.7783405255097335,44.076265593801665,3,S02
12400,0.9314202037833289,2.215860967532555,13.205248533399342,49.30850264932732,96.53558678732368,-23.26082129886842,25.0125471546881,-5.404862453832608,42.156691111792256,3,S02
12420,0.7872304266948537,1.674286149463969,13.215806489891845,37.99691460079562,70.56191722945137,-35.1420967768439,28.97021468486489,-3.973353222546981,37.811010674705216,3,S02
12440,0.22564004620761446,0.8841640088425449,13.03013611815032,12.027900479691592,44.15792838232543,-32.42648948709596,29.693440133828382,-6.943394229666932,40.12551703546653,3,S02
12460,0.3993055705963555,0.27627404357816704,12.811757015757156,-1.8471938699941064,15.70290253447494,-37.86920834662936,31.23791581021136,-4.8268226856865235,37.32929756826536,3,S02
12480,0.1291816615412155,-0.04011846446566185,11.62240536142846,0.1855221814658341,-3.688416568513536,-32.67135470036909,34.89367888522342,-7.3439977396486045,35.914694153360415,3,S02
12500,0.02328142336812704,-0.4233289176967473,10.816640909847797,-8.571055078431318,-12.388508454780732,-24.366651955580327,35.17596574751486,-7.200854926841898,35.31310576721758,3,S02
12520,-0.039048783022601424,-1.0731113999699953,10.456849355628677,-12.643597303726047,-31.660701213008416,-5.841159924091974,31.89551967864028,-9.739331681335873,34.67285819399099,3,S02
12540,-0.43917871094470073,-1.616061212046325,9.648798809986488,-43.173224983480985,-73.26718465157059,4.027139399918181,33.87525623131579,-10.301184926340337,30.265969636178962,3,S02
12560,-0.7358860955251478,-2.3960016557292882,9.608314800971892,-60.933360261682715,-95.7578033179828,16.17394771967365,35.44494788407577,-10.073007130285134,34.56558630029174,3,S02
12580,-1.0307554195736097,-2.7023616419747962,8.871182790197475,-70.16172107343695,-121.20575233383033,35.778214007240955,36.29753793866804,-15.263950733307341,32.54532922587022,3,S02
12600,-1.1529475076751234,-2.645601697777387,9.21730117429861,-84.25682005219697,-114.11710906270586,45.09791785498733,38.27138230816598,-14.624028330435547,36.9187653411887,3,S02
12620,-0.7762429099233884,-1.5950137923473122,9.324165804345038,-59.5490999138667,-76.54933309736819,37.543139287883754,35.498537335022604,-20.98198040190067,37.35853154362765,3,S02
12640,-0.6491608223213702,-0.6397934763165491,9.79398521698968,-22.326806845810474,-20.55396276943934,29.27373090669452,37.632215238668756,-16.827107545707968,37.69528369485873,3,S02
12660,0.5886096655898633,0.7961199706996882,10.97092255254108,9.563429697248,40.28987775416333,21.421918064421945,36.77845566449554,-23.54780121593042,39.45513644380708,3,S02
12680,0.9382563265429723,2.108830129985157,11.869704855915835,49.91999905947064,82.34550031150427,11.749888910536884,36.395520697815854,-23.990220884607805,42.88786993998763,3,S02
12700,1.4453877589409008,2.6504798984110933,12.395492955950273,70.51283632152195,102.97832012828802,-2.027611275510574,35.567255068364204,-24.359179295391424,42.101532091179415,3,S02
12720,1.1689967922427251,2.8511200161534447,12.887820228128406,62.40965308367255,115.01365082648705,-21.217833611668844,36.915861350426404,-25.070728446281997,40.87780332222369,3,S02
12740,0.9117807923449043,2.206083008262202,13.474970717926459,41.576583694983505,90.85967348630955,-32.1550455886608,34.80251745452955,-26.964683181991333,41.69791079328245,3,S02
12760,0.8865489599639669,1.4981854798907996,13.504264685076741,29.92090496334885,49.800587774773845,-49.01363723467321,33.66443144615108,-27.288694683991576,39.534797281680156,3,S02
12780,0.32301582587197275,0.6547589740095134,13.006123448515277,15.317334210508363,43.21993315184548,-32.329896251546934,32.189694212075295,-32.248247588918105,38.11868631813597,3,S02
12800,0.12260246505059033,0.17092195214895456,12.393123540638943,-5.785578846953151,13.858201599869856,-28.8113259862001,30.94571938630784,-32.29112208165613,36.88829697201525,3,S02
12820,0.0714484772889932,-0.2347332725226481,11.468824105233038,-5.738392651425518,-5.8186579153035805,-24.648690589904724,32.284808995362944,-30.53722660012276,34.3775936474944,3,S02
12840,-0.07277758751804725,-0.4809451246998799,10.999566314953821,-3.3283976772320765,-23.230407798298298,-7.64687796575223,25.40915288885065,-30.364882819549003,32.42837723986844,3,S02
12860,-0.09529139183246554,-0.9174374804339687,9.904183940157527,-26.175420317840423,-39.94340462387134,8.6887421626151,26.266127389573143,-32.59731080309464,31.388308967436114,3,S02
12880,-0.3649747534816158,-1.9623567143292031,9.470233858339274,-40.38017985287624,-71.62386327835759,15.483405774964544,27.932217324747842,-29.448362812301298,33.45260919539837,3,S02
12900,-0.7776384069663951,-2.3544554422710284,9.133136650261928,-67.20780327766828,-97.4280229227022,24.11360478687634,24.092683839258378,-26.50848908201796,34.74401070104575,3,S02
12920,-1.1236883233103516,-2.9830203469421326,8.964304096538328,-74.98250648137017,-119.72037453041965,35.27732045033894,21.641585679031085,-27.71875606470485,34.78147097737781,3,S02
12940,-1.1766586717681746,-2.501387188624636,9.187419094739834,-73.8105016557561,-106.41263959740483,41.52995088590358,22.735135902354827,-26.234964874450355,38.870422392169125,3,S02
12960,-0.8693621836786951,-1.6585036046868482,9.533833923144654,-51.926240270813075,-54.59358455154596,42.20222852902013,25.15912784168122,-25.3223280138978,36.167685221085016,3,S02
12980,-0.05436627640966471,-0.3151707813304074,9.98265040400564,-7.987899110929921,-13.630709453048762,34.61192352400048,22.28317661632414,-23.42100499079421,39.04789738612032,3,S02
13000,1.0614759297023035,1.0486176927278583,11.26353064116539,26.053466316618252,50.51670420153136,19.39680456438367,22.017048955733543,-21.491453852650764,38.14275015633029,3,S02
13020,1.1413528681580443,2.2172200706551686,12.15494110747141,64.7083623165867,99.10750941993865,-0.4389650841559295,18.687648281187045,-18.61704397357297,40.981526609739326,3,S02
13040,1.4480426688971493,2.620160939738875,12.76022228427797,66.06363463859962,118.98071812167863,-2.6877726810565794,21.47958452507762,-17.450589083735963,43.06120640309706,3,S02
13060,1.068904008743031,2.5450426657874194,13.09635342301499,67.79616404016632,99.3550062180471,-28.946518423532936,22.10810807829653,-15.658995990201166,43.293582630158035,3,S02
13080,1.0056711097895417,2.0778765425196393,13.52436558289807,44.83031337017813,71.48021870578737,-33.00340804180242,20.341091996204263,-11.844109466268897,39.5783301164124,3,S02
13100,0.3123636903928973,1.3424748398549307,12.954404972156874,25.030409852179506,47.32181512086655,-31.39627291847877,19.341661771171488,-14.394393240793244,39.49756294361647,3,S02
13120,0.1263766063089425,0.5892202364046752,12.719633836792386,6.517607431006792,27.46757177061811,-37.25358109614417,21.00383816269701,-11.34828435634377,37.532759459683476,3,S02
13140,0.24175946690445255,-0.016596071605328673,11.948256097719105,1.9937707715011364,7.40398672135463,-42.21073321356375,24.443124514227417,-6.864211058727491,37.41163940575701,3,S02
13160,0.20431242815752831,-0.05761109461464971,11.349787849805667,-8.23531752055537,-17.61987859449727,-22.387775433927544,23.259350150239026,-11.059700820197868,36.262602785814856,3,S02
13180,-0.29840111217679954,-0.787595689250457,10.54992131100023,-6.9908281157550745,-27.42454734128758,-16.05282409722453,26.741787187621185,-4.341870840823606,33.182418844299065,3,S02
13200,-0.1109316639626109,-1.4789392823482204,9.59025685610083,-30.778633303976587,-52.44299286255245,7.722781068324866,27.333572080560195,-6.284418570066557,31.29349223906361,3,S02
13220,-0.8354303103199876,-2.2105637589447396,9.334200130662778,-58.38237522210281,-81.75160226765139,20.52398313070384,28.12027240743809,-4.957543321868572,34.71660526738683,3,S02
