timestamp,ax,ay,az,gx,gy,gz,mx,my,mz,label,subject_id
0,0.10269001297625746,-0.06296269941885999,10.147557562190663,-4.275120820687562,-1.3622425495820896,-0.11456837962279431,29.199512630493505,-16.2315231981772,38.01350865699449,0,S02
20,0.10326169823917601,-0.06325474392131294,10.14683233270572,-4.244038052246286,-1.7860692139539118,0.7737817281683421,29.62593532123748,-17.20360405869169,38.724267297184014,0,S02
40,0.09358864518773904,-0.06691031730415344,10.147404069764248,-4.3062753348184195,-0.7183334708240717,0.6388348655477827,30.30936935708001,-16.928878338399024,37.58470552373987,0,S02
60,0.09591249299645875,-0.06176024091622362,10.147296482909951,-4.469147499770879,-1.2532211299901166,0.626231490157815,29.724974973922777,-17.012867401922914,38.358060793448445,0,S02
80,0.10185998888884724,-0.06457235774966925,10.155628411730348,-3.9848254722565604,-1.0658784393818976,0.709073704178532,29.75197046075724,-17.025024024407493,37.50110345700483,0,S02
100,0.10370680028655944,-0.07123425824729009,10.149019949119172,-3.735460586489633,-1.361407403799148,0.5383424116801898,28.765031216204672,-16.90060937043508,38.19458701828569,0,S02
120,0.09910611668766896,-0.06119157858402186,10.138563928971509,-4.0873812305582335,-0.8271243803647554,-0.02262428263507177,29.82791677157008,-15.657445344323838,38.66437179343714,0,S02
140,0.09170770295466313,-0.06698445409775951,10.140814675379419,-4.300282861594339,-1.408487978226474,0.5622273432747589,29.831921843685986,-17.657308384731564,38.4618195387899,0,S02
160,0.09873405896472119,-0.06730242851259147,10.14084830485596,-3.9704950530679732,-0.6823900877713306,0.059058602491832035,29.68195971991396,-17.269975138750056,38.79396392678146,0,S02
180,0.09929174836247068,-0.06526541700009711,10.15058602037943,-4.100276276990218,-1.066678185449307,0.49445488016519745,28.94855722213698,-16.597061481547666,37.458946797235654,0,S02
200,0.09261704053636195,-0.06792712384836755,10.147781920923675,-3.481016869226579,-1.9619071163027488,0.5493412731657531,29.669919860243223,-16.881524913088782,38.18783027387745,0,S02
220,0.10124318253373157,-0.05690333576791075,10.14576027054386,-4.229503225139914,-1.3678949995566487,-0.053770633855732,29.412977796810125,-16.678658769864505,38.48481645161308,0,S02
240,0.0983229279158111,-0.05552116205379178,10.14099153334315,-3.874740362685073,-1.073204258199858,0.49206455337126664,29.218721902055087,-16.20264256196642,38.17698300345397,0,S02
260,0.09921416794688744,-0.05582028094776151,10.157325517180002,-4.345914575149978,-1.3555529890596707,0.11727323326059813,30.004843604350587,-16.964364848192005,37.99526680189433,0,S02
280,0.10367383567641952,-0.053020668801719295,10.152208274977403,-3.918567318028021,-0.8319467701444933,-0.12319057559031354,29.334250200609805,-16.832269574696788,37.09883041672382,0,S02
300,0.09987602786543423,-0.05722069655273203,10.151475665237317,-4.555667512697,-1.1918289679877565,0.7590159213006652,29.4600075428772,-17.34911788402942,37.90870881227461,0,S02
320,0.09439872280262256,-0.05031300384382768,10.138897967629914,-4.040149732762113,-0.8638348546840835,0.7465138331222414,28.720862142231017,-15.304509355925015,37.75115637660778,0,S02
340,0.09114669436002784,-0.06847635277929456,10.14324635887242,-4.006688345111722,-1.482975372693223,0.7059147783379576,29.621351588807574,-15.904346350611835,38.38797302058263,0,S02
360,0.09947196935341056,-0.06027551383133081,10.13780789306028,-4.14366169276609,-1.1173655962894928,0.6135518933933807,29.841564586337093,-16.960865759536055,37.93613477223597,0,S02
380,0.10659803652465794,-0.05546283030132096,10.143815437004479,-4.073651542056398,-1.350411542241835,0.5465521656538442,30.280952749967607,-16.313792990014186,37.91499176500404,0,S02
400,0.10267203315598106,-0.04857833178716704,10.150455139839398,-4.312416580880801,-1.158401704791466,0.5485267313013735,29.842269239142457,-16.22241269574606,38.26333613174059,0,S02
420,0.10069508932602092,-0.0526383332069255,10.140664575747003,-3.5981324151732745,-1.0052682104375479,0.8600820308057742,29.589168063161864,-17.203198439045032,37.88366997288112,0,S02
440,0.09832531187319225,-0.05930842088030179,10.143389617928596,-4.605293578046056,-1.4369300466546977,0.595099297055949,29.752230411886607,-16.32140683474684,38.772381599016036,0,S02
460,0.0932373139022108,-0.054556213514094856,10.143413201535344,-4.261469272672131,-1.5951700398453574,0.2588828287883912,29.180006916997982,-17.692824678246,37.897643852839025,0,S02
480,0.08934635074709348,-0.054746813764252056,10.132516731873482,-4.221490680685891,-1.0063880937951972,0.9801768881213255,30.044507559257625,-15.966101915510716,37.90207712976524,0,S02
500,0.09909442093663401,-0.05154890223791181,10.153918884681419,-4.202360381218614,-1.3674996752204083,0.3780552639146558,29.21157723792487,-16.878334445632824,37.994585676348905,0,S02
520,0.09810365334654117,-0.05595118559558067,10.145420823948513,-3.839272314458474,-1.6173129159370951,0.5219527461219569,29.356596591506896,-16.664728675294022,38.00275217191886,0,S02
540,0.10870207316939987,-0.04989220919657049,10.14135246208859,-4.238426212738943,-1.255435884732211,0.9900145345231302,29.58541657912948,-17.455720476360757,38.110159578723305,0,S02
560,0.09716412729320512,-0.05267704089071091,10.143015547265659,-3.591840409192432,-1.3855926082520895,0.8045689795418096,29.76836216138074,-16.400898164060347,37.85997764318377,0,S02
580,0.10634512594084407,-0.04607481514488093,10.14394207670415,-4.059413325009963,-0.7849233483201237,0.6952554443712626,29.522860715923244,-16.667528885917687,38.307762930821525,0,S02
600,0.09461434890529279,-0.059019682531922246,10.139873829452272,-4.17991698135067,-1.1378353710098048,0.20272925877476783,29.681244141089618,-16.38441208823962,37.62999566333297,0,S02
620,0.10770249640303833,-0.04314046938973699,10.147587244466953,-4.444828603045918,-1.4146426499854647,0.6247896586672917,29.972287698311277,-17.078212112425042,38.506166019067614,0,S02
640,0.09095789815051367,-0.04783357599755961,10.148536101034296,-3.9820404674286376,-0.8871769976673024,0.5844088042540049,29.815044551906347,-16.437113416228662,38.72619971094786,0,S02
660,0.10834871498967483,-0.04639819992146625,10.144262408156793,-4.060099269417761,-1.0958447164353,0.27201681306689157,30.266360383089054,-16.650416241171605,38.23002406491922,0,S02
680,0.09645013130097346,-0.04776068279149023,10.150304883393131,-4.195381099731982,-1.2309106305715223,0.5701949316574294,29.460917368856357,-17.137362521419142,37.57320779986889,0,S02
700,0.10225937215349702,-0.05916660170732553,10.147153037196007,-4.0217453930934886,-1.4118929430820235,0.0978977794952266,29.544553776265957,-17.374515844758456,38.32444407798479,0,S02
720,0.10007881318490904,-0.04995267706569467,10.142104699201875,-4.000718339102715,-1.3605719206610216,0.5932186433093264,29.69280038018813,-16.99134949896498,37.84321318645635,0,S02
740,0.09820146378497699,-0.04421066623758843,10.145801239487644,-3.88834256676233,-1.1917362597921564,0.8113670327373836,29.070514238790757,-16.763203774745193,37.83565980610622,0,S02
760,0.10086409805216445,-0.05012215046124838,10.15624844628296,-4.4635371024410695,-1.6005349378738183,0.7403094192570996,29.918937716941205,-16.364613422749137,37.357684843760936,0,S02
780,0.09540204885724374,-0.05608427942122041,10.14394736087618,-4.473091103691437,-1.0824381919524357,0.009605102614929861,30.110440684427537,-16.352848082925977,38.03233416982362,0,S02
800,0.10548591036090879,-0.05279216863191996,10.145564426270758,-4.19094376425509,-1.1229740646986275,0.46720940789426574,30.09756709522844,-16.223272967465796,38.225036137316955,0,S02
820,0.10072622014516688,-0.05196313269391617,10.144738186945569,-4.591133667446461,-0.5263775278796844,0.4674828271623932,29.389662347901552,-16.07988104826658,37.634521828460045,0,S02
840,0.1024239430195593,-0.055223994743860694,10.150222356349978,-4.040747618779506,-1.7363482841184792,0.461732779523019,29.29296044384409,-16.5979531854027,38.18594959343315,0,S02
860,0.1057853470477535,-0.048785542411128806,10.140511035452441,-4.549423673409404,-1.3260750492552438,0.5414498134339987,29.707812649459434,-17.34584248770703,38.11089659218567,0,S02
880,0.10537985948388298,-0.04650784295889335,10.147841003315833,-3.8700258957349756,-0.8876818774615995,1.0068975183675644,29.719040411778547,-16.295178352382564,38.17048782722016,0,S02
900,0.10031173340244515,-0.04146880875856798,10.13914248650774,-4.094925042053754,-1.052846912165976,0.2753381516930324,29.70095185700059,-16.012774183246066,38.37782611960279,0,S02
920,0.09483947827154185,-0.050685423512698224,10.13884195232475,-3.9946666314406234,-1.6677045246961095,0.33315058054370283,29.916470486476985,-16.671507625610467,37.95716418594113,0,S02
940,0.10218704054744121,-0.059317948098274086,10.138585623597013,-3.944743155810921,-0.5549031769579201,0.38403075185707347,29.84563682220197,-16.58298724590398,38.007668521225206,0,S02
960,0.09796391957998236,-0.061009761159696974,10.139759954646143,-4.6467943753564,-1.0629147840572044,0.5370323826024352,29.74099819016532,-16.452712923664357,38.72936218446063,0,S02
980,0.09765695708805565,-0.054674573751877106,10.139871495306936,-4.257155094465386,-0.6926723810332938,0.6569332318162466,29.390195901745432,-16.841251814316898,38.08458236262199,0,S02
1000,0.09584508760455994,-0.058231174003394316,10.1482051629071,-3.4592199397824714,-0.7546074368146767,0.5454971734744622,29.14832169786805,-16.281096666209038,38.078201958322836,0,S02
1020,0.09923130360361904,-0.04601022163407375,10.14939471058625,-4.775140122264901,-0.8485171455975542,0.9328983745522577,29.992425070770885,-16.767245529380922,38.134353013160165,0,S02
1040,0.09792247332696248,-0.054241362157919484,10.153513815088784,-4.740227683463251,-1.1274890520798664,0.5301174792323802,29.34581587777404,-16.301830967076974,38.543784192810236,0,S02
1060,0.09770099951899354,-0.052283170695876985,10.148164642049819,-4.281959758706842,-1.1060102724870653,0.8635886121673614,29.889419479467264,-15.95925495839565,38.660730678200906,0,S02
1080,0.09580277252576189,-0.05574257219085543,10.152793568451582,-3.952612567902148,-1.2718131912206394,0.8220160376371042,30.19380584810215,-16.805350200848174,38.11669360359845,0,S02
1100,0.10901602591335723,-0.055058416166145666,10.145773767647338,-4.394778513563016,-1.414899119697096,0.6586002280207133,29.793637102666985,-16.37816361933867,38.16919703096196,0,S02
1120,0.10578957262012978,-0.057226027215797295,10.14584117565913,-4.109675127693686,-1.3344650815498407,0.9507179699541415,29.61243030727773,-16.115099760352997,38.31420920354087,0,S02
1140,0.09586960854403061,-0.05701626327109187,10.136069726168293,-3.8803958960870806,-1.3215391960984442,0.8406626883597802,29.638608568550225,-16.346232456341724,38.60593557642378,0,S02
1160,0.10442061460976615,-0.05908458956732625,10.147448267498817,-4.322763824191384,-1.3428646810885998,0.16846887540100564,30.013402890484326,-16.2541642620342,38.080523859519374,0,S02
1180,0.09487146140634306,-0.053347207162385335,10.140855266979512,-4.206922990114657,-1.239430291991497,0.551867743069122,29.336379271919316,-16.110783180351632,37.70906525412073,0,S02
1200,0.09456574911903123,-0.06415536342365313,10.144734878281065,-4.304715200238054,-1.3736657511778916,0.8026516652321114,29.202744464920972,-16.0142404674437,37.85778608334825,0,S02
1220,0.0991936907566499,-0.06025245143947018,10.141323193157547,-4.258956612976027,-1.0370492112705965,0.29125416005527,29.759491919568546,-16.198187553790454,37.645007322056685,0,S02
1240,0.09695652373841632,-0.06108471821336446,10.148100271690952,-4.12052740825888,-0.46402761748587085,0.49876009419949185,28.91176932314353,-16.997754907270448,37.616476745892435,0,S02
1260,0.10705970358016283,-0.05090491002401573,10.14145213036763,-3.906086325310151,-1.4792155446363275,0.7205255649358036,29.86083005289968,-16.29704231494477,38.36779909022477,0,S02
1280,0.09733798900445934,-0.054911920938613086,10.148742147173417,-4.210427093535075,-1.3912528842403293,0.5649302741141238,29.44307281370086,-17.257740657359363,38.57062724139624,0,S02
1300,0.0941903995066473,-0.059002221984992984,10.148587691500435,-4.073773325661663,-0.837596884172777,0.8728772539768905,29.665656516555984,-16.977433063208718,37.7652714687343,0,S02
1320,0.10046994804775221,-0.05760193430108773,10.146663733622386,-4.116518367979667,-1.167652616227449,0.8012404168805614,29.74959614829333,-16.517305004976972,37.70067643381634,0,S02
1340,0.09682978628210942,-0.05971227167096406,10.146383482619365,-3.5530855293772436,-0.637001933516768,0.5296916039125226,29.55329502254215,-16.451916573034556,38.45765675548731,0,S02
1360,0.09774345595379386,-0.059507790335504046,10.137693496205538,-4.259492318485296,-1.856991692626118,1.0906345360486895,29.138490758740968,-16.385224953221268,37.620636253446854,0,S02
1380,0.10205347052721388,-0.06284362318875554,10.144748410560206,-4.3110237124519175,-1.4345540008754467,0.3258938070337359,29.476579772802427,-16.251489804179847,38.27355583234203,0,S02
1400,0.09651158289946575,-0.06016755736959646,10.130931919051283,-3.8469098639041146,-1.662744213761449,0.9127300856372801,29.85535637597191,-17.050922724674635,37.830741452584014,0,S02
1420,0.09566193024006482,-0.05974502599793487,10.140446957246725,-4.300060035746062,-0.7144467353641824,0.30509943935282874,29.523700735380796,-16.285806054661954,37.612143847787564,0,S02
1440,0.09551637177723292,-0.06596660916623255,10.144167399247703,-4.540796220737955,-1.1730882022469824,0.42914902770944996,29.442232840463152,-16.464747812158663,37.34183260506262,0,S02
1460,0.10347979125584396,-0.05897203207027574,10.14663746587843,-4.330373254156175,-1.0063279917930414,0.7600457423738112,29.45495508031039,-16.743529313682668,38.902851054407165,0,S02
1480,0.09722652978920296,-0.06256207432326617,10.149673539223041,-3.8898168067385255,-1.3592918059737524,0.1991755093943383,29.681576074142697,-16.2512390895967,38.71243723066753,0,S02
1500,0.09789919309175935,-0.06463162832387596,10.151051918829921,-3.66665118153717,-1.4966187859161293,-0.3379100686615826,29.307196545211678,-16.5776693859227,38.01780209245379,0,S02
1520,0.1042000259169307,-0.0627705560707899,10.14507827596221,-3.73233910042219,-0.6456830869662258,0.690411781066065,29.763343560646845,-17.68057176399551,37.95963051501658,0,S02
1540,0.09701086800046589,-0.07089128579571692,10.137766558239278,-4.052420771238078,-0.9686591433121174,0.17883215859357332,29.759773265475324,-16.741279629847412,37.359442078744166,0,S02
1560,0.10247380453836233,-0.05850689377396467,10.142672230387106,-3.8560334836874106,-0.6664785749311202,0.7942546433864737,29.503521128246817,-16.714515162483973,38.014423747440325,0,S02
1580,0.09860430124694437,-0.07319615079554241,10.14832084675191,-4.394669666188662,-0.7967298168836126,0.835390440942111,29.669608198948417,-17.333093233499554,38.12310455336521,0,S02
1600,0.09942121912746749,-0.07669285241517763,10.145736705606126,-4.546415701852382,-1.3750134038312445,1.140298751002955,30.439050810746934,-17.025361526369736,39.15816921407466,0,S02
1620,0.09865914014713721,-0.06700287608280893,10.136052170661438,-3.6889986802755272,-1.7117082196994782,0.5003090775546652,29.045866348952618,-16.393053407128384,38.347238297489646,0,S02
1640,0.09933532874704602,-0.07642854251216015,10.139703350227599,-4.552655365266152,-1.022528566850069,0.13403180282589966,29.96199979942437,-16.663263493002503,37.96277963714471,0,S02
1660,0.09809195361129844,-0.06864226260023618,10.144390969509915,-4.577758256506611,-0.998944279162852,0.23332648143605517,30.441581860310407,-16.923539080688837,38.70092358531042,0,S02
1680,0.0936060976070144,-0.06637109104348754,10.144219131673633,-4.147128714840173,-1.2381242675791686,1.3574105591670684,29.837133625727464,-16.36405743598378,37.78094853805356,0,S02
1700,0.09714219408899435,-0.0782020210633632,10.13692828184758,-4.5272687753196665,-1.0548006521079192,0.2758622814563327,29.35897055282358,-16.187674888181895,38.51321224559938,0,S02
1720,0.10248625445346414,-0.07197707307947825,10.14383874842511,-3.8443521934681884,-1.2000292907876862,-0.3295738949593333,29.59868671406193,-16.956122088565728,38.56398984660166,0,S02
1740,0.09176814928325683,-0.06997007085021764,10.14723737058588,-4.018272462016474,-0.8231179648049305,0.5735847399137848,28.979060377492612,-17.18050202751774,38.422332666660914,0,S02
1760,0.09736843459395195,-0.07595962503376141,10.144290124794246,-4.654128502423154,-1.5216478962374467,0.44678590107135746,29.01156054104937,-16.846585142269223,37.6693258425013,0,S02
1780,0.1106610390668769,-0.07294802998347093,10.146524048542783,-4.1087144845646595,-0.7737335545211588,1.1198748522861024,29.90235755369297,-16.059692378817616,37.86248144330024,0,S02
1800,0.10070512318626315,-0.07542391857481782,10.140887338268678,-4.311857148488822,-1.2856068939759056,1.1754244138540275,29.439467583343443,-16.368127014007143,38.83169055673876,0,S02
1820,0.10240256940740858,-0.07230014355465783,10.14543832198879,-4.439715836563603,-1.1883938227981603,0.771821179056414,29.622536881398382,-16.446712864898554,38.006538692401236,0,S02
1840,0.09187417157554283,-0.06954099959614882,10.149260955915178,-4.149263358022019,-1.2172703504531952,0.3444983801213392,29.39044065024163,-16.62054769668291,39.01217426856536,0,S02
1860,0.10742308657050202,-0.087739026328678,10.150732384798454,-3.8524404967694004,-1.0247772356202478,1.0882684602553834,29.702251244691265,-16.035693475184218,38.472473662329705,0,S02
1880,0.10770812000776152,-0.08360528870678544,10.132524405203334,-4.342755055311588,-1.83814876198826,0.3740634695235606,29.179213561098027,-16.669729297887546,37.931149310120695,0,S02
1900,0.0957932767664914,-0.07815696796390914,10.143090545403155,-3.9458695026008175,-1.2853112854292892,0.8681109862783649,29.77335164143719,-17.170571743679673,37.351063579863094,0,S02
1920,0.10993720750099,-0.09026619902227945,10.148051525328972,-4.113949284106517,-1.2369767733909285,0.6460502677307235,30.552630683875314,-16.35786675960785,39.06669772930689,0,S02
1940,0.10615819609724877,-0.08218928722469865,10.15217479029709,-4.724223061688311,-1.2064120077973528,0.4271995934356858,29.424346708968844,-16.78453106415902,37.81476501236014,0,S02
1960,0.09756013378699278,-0.08374132550073161,10.15714096011946,-4.528196589825236,-1.095490353189805,-0.0784591276167188,29.444567144733814,-15.76561723759138,38.19528680399941,0,S02
1980,0.0974731892199158,-0.08199721501539763,10.142699581066807,-4.55060138102172,-0.8360957784190782,0.07983307311802879,29.821622579542204,-17.21359122069054,38.024897628710136,0,S02
2000,0.09676750598319561,-0.08250176446186983,10.142463695125935,-4.422724333414248,-1.2165899788494943,0.4404178629472279,29.300334847227262,-16.915056900263345,38.82950946155471,0,S02
2020,0.10442315760549467,-0.08511447880714669,10.141835086367696,-3.773468032438698,-1.2919099348519523,0.46689965131428135,29.768125980145676,-16.26766834505856,37.70432921926311,0,S02
2040,0.09701950184542542,-0.07955542364622234,10.1406522351827,-3.9283868306387126,-1.5922480038985067,0.5876609434725593,30.32709007384889,-16.4753677658028,36.96102346532564,0,S02
2060,0.09116540971524388,-0.08567632094219407,10.156262114200754,-4.05701596995352,-1.091227509117371,0.6548957240853756,29.676213496531883,-16.802139803575685,38.080419086053304,0,S02
2080,0.0972509255890957,-0.08542911771527946,10.144854974678374,-4.185881313972269,-1.4310612627047308,0.37387454273084725,29.387823377549108,-16.208522913200298,38.050451902906154,0,S02
2100,0.08562246996690996,-0.09514442703262116,10.14567799820607,-4.693933933260098,-1.391431897615718,0.7195867449652972,28.88614967737221,-17.063423403498156,38.0287911787609,0,S02
2120,0.09302099772708147,-0.09749230250460483,10.14618309040454,-4.3710436035174425,-1.352448339760783,0.8844207788373166,29.428936430371195,-16.235972574472648,38.0031035714787,0,S02
2140,0.10814923008042503,-0.0945921808971062,10.15127949475981,-3.9972326370555846,-0.99202649972299,0.4607361064871389,29.98551950811423,-16.063286680318996,37.84756505875096,0,S02
2160,0.09494991074749821,-0.08512717796384564,10.13471172017527,-4.438697864816756,-1.6835457367151254,-0.011650737668117084,29.454415218285167,-16.87001382191105,38.4858839152321,0,S02
2180,0.09406827147425066,-0.09809880784376876,10.150005312454777,-4.042472585893954,-0.840947490357044,0.8180801291383196,28.97628692127142,-16.365403094284652,38.683264342721834,0,S02
2200,0.10863280638398076,-0.08585898384063036,10.145807291206252,-4.131025620820137,-1.8376833559468957,0.5940943615954591,29.175120461695457,-16.79127311889481,37.22264422201804,0,S02
2220,0.09526439648124299,-0.08666764038527408,10.14292476719809,-3.960015166625231,-1.4759006317140402,0.6455136536319497,29.95511307884319,-16.76796027685994,38.29453424904702,0,S02
2240,0.10270288752483259,-0.08373101846822548,10.150190877281771,-4.578125617510278,-1.2325887823073638,0.8176730199426812,29.8910458932566,-16.98288697716299,37.71273886481304,0,S02
2260,0.10459929769140175,-0.08996350436722123,10.145336748872163,-4.39528910047582,-1.0068613868124858,0.5098443386177187,29.591486831469762,-16.797597625466462,37.806296941640674,0,S02
2280,0.10259604749157004,-0.09499323371158475,10.146184755086912,-4.345283891097839,-1.4437968445842158,0.1599093163169788,29.464035920643052,-17.135702730247058,37.76739167858513,0,S02
2300,0.10498612464481868,-0.09518565276930183,10.149928847906166,-3.7030348470566916,-1.1971838531607122,0.17339699878806786,29.85058976751415,-16.325749013825643,37.377527481187414,0,S02
2320,0.10514350951676861,-0.08577871647284349,10.14243377959461,-4.287830926286215,-0.7135989920122024,0.49831839420931046,29.570953238893118,-16.27995379091643,37.68676319673926,0,S02
2340,0.0975536050917124,-0.08233238788968372,10.147416497630614,-4.393316024828402,-0.9840466769999249,0.21438870734227433,29.99613423180668,-16.58725550199825,38.04922082969392,0,S02
2360,0.09939807311515574,-0.0909449685419167,10.136845046187558,-3.892814272638546,-1.1480712704075555,0.5031997736663069,29.3528271145719,-16.283185498013793,38.23040959802076,0,S02
2380,0.09451911443896152,-0.08924960444693364,10.142513711450947,-4.407496718121706,-1.0943560315697005,0.382840959682061,29.045911924879924,-16.12206073592418,38.7141230807731,0,S02
2400,0.09596925560492668,-0.078037040344095,10.148389123912404,-4.132109601103659,-0.8232948246257124,0.7988097859931831,29.58049217477777,-16.772794431277706,37.284810531180106,0,S02
2420,0.09613920798993618,-0.08954680676575578,10.146899139719899,-3.642073272294755,-1.2738199083285413,0.5972823723435701,30.32221200417051,-16.450077662659083,37.82421021489851,0,S02
2440,0.10391782341940331,-0.09399541358923286,10.160429393708116,-3.87801577185119,-1.4284308987380239,0.30160937800409715,29.31530449200069,-17.58296831189539,38.52941412136132,0,S02
2460,0.09587707886772501,-0.07622093990222972,10.150639089504631,-3.816232759630727,-1.3290462802784768,0.4662219460472235,30.189662760926232,-16.70595185580602,38.21106932128054,0,S02
2480,0.11096160326540856,-0.08208979357636939,10.149658283273652,-4.272816906274235,-0.7287715265146867,0.8193329035875669,29.45616124761232,-17.119223521123967,37.805777238055484,0,S02
2500,0.10158745879233486,-0.09249969800209373,10.146206807794064,-4.398989048067457,-1.4780987002267416,0.5343419681104165,29.94538757305468,-16.804258785397312,38.39795163252027,0,S02
2520,0.11213839603113189,-0.09546781872039573,10.155625569515925,-3.784822909940502,-1.672225714176835,0.5694700086072982,30.21621603326088,-17.491559202566314,38.123170082547766,0,S02
2540,0.10647931324430364,-0.0858231218361434,10.15262308228003,-4.5053808334538905,-1.1074312319664128,0.6479328838361944,29.44857179645287,-16.83377199755654,37.60388392878971,0,S02
2560,0.10197038469955325,-0.0911315853479754,10.139750287881245,-3.825787781614148,-1.3202147021171171,-0.13122865169334363,29.556597478490055,-15.70439149341182,37.55107558579633,0,S02
2580,0.10440422133270554,-0.09934035798258052,10.145042336939465,-4.116123230841051,-1.0160747817308287,0.4050522890610106,29.962877776362568,-15.834438210612253,38.003277108002074,0,S02
2600,0.09687242985689756,-0.09360343361288181,10.150812467013521,-3.830073736707934,-1.048947548170873,0.19146715385490076,29.318216174158312,-16.703256167495105,37.78541183894348,0,S02
2620,0.10264727066794162,-0.08897810403082046,10.146530471592369,-4.014872278932621,-1.1292042533749878,0.3444518832063968,30.351656855251004,-17.167073284432846,38.60404676107928,0,S02
2640,0.09862786146947021,-0.07913796109162582,10.148085187292978,-4.552549992354625,-0.7753607938573749,0.768678209265647,29.721578960169115,-16.916430695368263,37.242409843485234,0,S02
2660,0.100388634642692,-0.08709126028248963,10.149310014064445,-4.296583054071716,-1.014009943934948,1.0060024275386343,29.455449627247567,-16.719090340831656,38.58023989344643,0,S02
2680,0.09657215589904973,-0.08241637779077358,10.149026439308113,-4.537216540164887,-1.3302729707466585,0.8954360103548005,29.679462715080145,-17.41127485211891,38.34786795899255,0,S02
2700,0.09506446494265203,-0.0881369676163011,10.133584472139578,-4.233482113164128,-1.3072962925193086,0.660090349326485,29.551907461190886,-16.19197752323647,38.16691510808667,0,S02
2720,0.09677394487675955,-0.08118480796686652,10.139819709750673,-4.644425074651076,-1.260893259396318,1.1193501169870355,30.01905312916769,-15.506500850044747,37.961544904575945,0,S02
2740,0.10685266867523038,-0.09577092496965683,10.14936604305399,-3.9041675353454663,-0.9821444683954252,0.7437580213047912,28.98726889789567,-16.435023585087286,38.1206696466694,0,S02
2760,0.09936146084651414,-0.08518567792863461,10.139140073067882,-4.036316269618233,-1.199463330794773,1.0677156357117221,29.639011584737517,-16.618742061327104,38.55472443426552,0,S02
2780,0.09150421533564387,-0.08197449253572817,10.137519012788676,-4.121174154806207,-0.8558177677660753,0.49828255520621056,29.60884865076494,-16.673286245332953,38.70297766412808,0,S02
2800,0.09582839658196035,-0.07603135158752869,10.140044689257962,-3.455467860782111,-1.6808412671991924,0.5006241589221445,30.14679700157519,-16.319737239249307,38.247076690637954,0,S02
2820,0.10852689097151726,-0.08812300363891759,10.153238478567543,-4.257123880192158,-0.5290890114983094,0.4333554362188769,29.64108997987242,-16.707556905445365,38.57867457041811,0,S02
2840,0.11114962543462488,-0.07880318606896074,10.136079704840371,-3.6954082202157545,-1.3224113809248246,0.7308419637307095,29.125983043108967,-16.532794742293696,38.3779341050442,0,S02
2860,0.09685539442010618,-0.07802802209807991,10.149188855719165,-4.4930781676383615,-1.5724699557480528,0.24770726320587289,30.05771280871863,-16.980153103409283,37.91286726148406,0,S02
2880,0.09168525172397116,-0.07686498040433316,10.144859280598842,-4.408084519362284,-1.35364808473137,1.2417628980891804,29.837456522782023,-16.43880299816272,37.93886094654194,0,S02
2900,0.09860863657557922,-0.08490036382532916,10.13914138649178,-4.670791026659439,-1.3386773590730479,0.6089559425119394,29.451319189382325,-17.015728952243947,37.73735822415866,0,S02
2920,0.09418743360702862,-0.07278423731217679,10.146165669867685,-4.08673462096702,-1.091529467010668,0.44929073302897554,30.010076169622177,-16.416703684749223,38.42955117323588,0,S02
2940,0.11478713745421984,-0.0862040596435468,10.139818155418242,-4.688173456038104,-1.8471500893782702,0.5830102609365643,29.23721298006304,-16.81039823042568,38.17134316277692,0,S02
2960,0.10318659556423629,-0.08533543564438316,10.144669007028755,-4.045937226109253,-1.1846053853708327,0.5991500906722469,29.37915237048753,-16.35762445051335,38.5417657240711,0,S02
2980,0.10323865701806845,-0.08377217875827846,10.142380356113284,-4.962102541980588,-1.002458242254099,0.1914418430823211,29.358730947771438,-16.48557666874438,38.16330803379636,0,S02
3000,0.09913535894607382,-0.07981318943223965,10.152049836320067,-4.014127679868013,-1.4057608495258496,0.4823614085579457,29.485563919737167,-16.499464981099038,38.30225421992587,0,S02
3020,0.10296162554804185,-0.07821068403049677,10.140697514107494,-4.492025703471312,-1.2542356011197944,0.543574495116744,28.796835853084232,-16.636933489354945,38.19383285140135,0,S02
3040,0.10846920135478003,-0.07696589534264507,10.141057700553532,-4.2165474652896515,-1.0459050003143004,0.9153453063383709,30.21531387458492,-17.06849167619453,38.56508378529923,0,S02
3060,0.10322935566296264,-0.07642765573164169,10.141069951012188,-4.6370834838816934,-1.1630681242642937,0.9550083169628928,29.87116830671395,-16.456263933626964,37.535764724991594,0,S02
3080,0.09991935895853994,-0.078728195706337,10.146355662922023,-4.015534323345275,-1.4686286775487802,0.4598651404290232,29.441421726393877,-16.419036712546387,38.20481637008797,0,S02
3100,0.10360464034439316,-0.07715536289959371,10.14981926814607,-4.250146899988125,-1.3576796808867801,0.33900215391440763,29.933201127314558,-15.936249856896286,38.21057602574886,0,S02
3120,0.10814070250753174,-0.059975216304510366,10.141731339680012,-4.502073355193835,-0.8325518824748798,0.7496373155658752,29.292878894446364,-16.292400507524405,38.21177012603794,0,S02
3140,0.0997195768156985,-0.08130355899570543,10.150926457752975,-5.209293235860373,-1.3061688002104637,0.5898700828403891,29.687951912389142,-17.209508470347345,38.521457660852874,0,S02
3160,0.09955478727471169,-0.07661800888089607,10.140284154932083,-4.061933955179331,-0.9252717762112986,0.6744474212321516,30.21619880015758,-16.55630696918441,37.84555419429509,0,S02
3180,0.10205462941271186,-0.06901053343849714,10.149035097843468,-4.525685018805981,-0.6912697510648952,0.6031200942668977,29.635980423870276,-16.304289423998526,38.127134257865244,0,S02
3200,0.09627936177477882,-0.0746300342136325,10.142107463180352,-4.1427693803851176,-0.7714995455243668,0.40334758756332256,29.004511337115247,-17.46348907292161,38.02906371756978,0,S02
3220,0.10609953137870985,-0.060419815782733186,10.145193025042033,-3.856233760207211,-1.58930651349551,0.8766131665261226,29.433850696724694,-16.039082330819205,38.33185299604142,0,S02
3240,0.10899624955651634,-0.06581696527527305,10.143754338118372,-3.8360212124305515,-1.4836866113480762,0.9366537267787818,29.33822377244919,-16.398639681951654,38.892245500618905,0,S02
3260,0.0951778618842465,-0.06091091450270642,10.147883094288057,-4.076353612345858,-0.8602151817445944,0.35651856930044945,28.77849593452749,-17.552570465867475,38.32373700387634,0,S02
3280,0.1054528476370763,-0.06505509855762984,10.139635860666276,-3.9656785170956095,-1.0441728207682814,0.957855434325904,29.36563430946619,-16.860392370406736,38.001221917299404,0,S02
3300,0.09991812968971088,-0.07266977441466596,10.150631309548851,-4.309057331119689,-0.9976330805664815,0.7657250904851193,28.891113845846437,-16.057350899222996,38.732823752139595,0,S02
3320,0.10668586043672063,-0.06175216700859555,10.143579140386471,-4.4141848299284785,-1.0734572838790906,0.7691062225320305,29.942478635535817,-16.88856573706866,38.80243249334151,0,S02
3340,0.09395215410736926,-0.0663137800746422,10.138276143093234,-4.531269008230152,-1.0876305327466642,0.5604637301006639,29.563021002728046,-16.428136054032095,38.200356998917734,0,S02
3360,0.09308717971841506,-0.05949674768239557,10.138411354653837,-4.133557716732637,-1.1106040135367297,0.32082824741992344,29.699028213382853,-15.77888022420515,38.02490102149237,0,S02
3380,0.1105669435901485,-0.0593891500558198,10.148900340329112,-4.416329593790681,-0.8062225420718825,1.0519631046362032,30.445760416200674,-16.792285904313857,38.36182839681311,0,S02
3400,0.10226411541804467,-0.0715222687082374,10.149210038776408,-4.2543254986855,-0.8647623126133981,1.0290874990541974,29.414417522985218,-16.49401868478259,38.414974416833765,0,S02
3420,0.11347901876139757,-0.07072339717569032,10.138849841223987,-4.445987311510569,-2.0345297851659794,0.7014802206556301,29.758720100217396,-16.318620246089544,37.63635972288065,0,S02
3440,0.09520795378481212,-0.05730794795947545,10.151400497783431,-4.0529496415020105,-1.6309658555614768,0.6033180154925711,29.620806618267704,-16.34236113125279,38.1842668942806,0,S02
3460,0.09512883045320933,-0.06554887236361999,10.130704042852845,-4.162367905578855,-0.9464795553822115,0.9578269991538996,30.293327665975895,-16.459894230245986,38.49283937917025,0,S02
3480,0.10647899698190427,-0.06902859178559312,10.145960999762902,-4.455367021688981,-1.4852638715574005,0.6355347115931136,28.803348966890834,-16.448674521547787,38.2590304749533,0,S02
3500,0.10279932540507683,-0.057063289587512354,10.13683263956515,-4.364876282659258,-1.0204415964669347,0.7094365306084517,29.412203753933905,-16.42936930061491,38.3274302667308,0,S02
3520,0.09191938580223344,-0.049425914040472085,10.146917700332827,-4.16344323785195,-1.1127675125087844,0.4265276548089182,29.745567338156622,-16.03182593969826,38.19403871514524,0,S02
3540,0.10583206738560778,-0.06412280806539165,10.140763738599535,-4.013359440984552,-0.5934395077213247,0.6018590119966732,28.653853415564544,-17.07516662816819,38.4485919239505,0,S02
3560,0.10533721791128373,-0.05771184909086044,10.158217955774658,-4.211031801969549,-1.3492593750666757,0.43419875567565897,29.538539694583566,-16.120826178198495,38.06752480188534,0,S02
3580,0.10150946332830124,-0.05031108812242049,10.15609527644591,-4.062053951810699,-1.4667334026890755,0.46988136910235556,30.003373790353358,-16.57853257288506,38.97618292311548,0,S02
3600,0.09598988704410952,-0.06262921159857074,10.152674402495032,-3.8966884863662656,-1.8252814452671289,0.9660462334994849,29.44140798532305,-16.378441505534568,37.71343718207755,0,S02
3620,0.10197168895027503,-0.05943516410771299,10.148608848094993,-4.1782508222174455,-1.2012099839070003,0.8814181742793765,29.43959866406013,-16.39747914059108,38.29039392646604,0,S02
3640,0.09733785354393389,-0.052800589321715184,10.152001746446524,-4.280112772453912,-1.50396935031179,0.8112358057862912,29.361879049719136,-17.21826271087042,39.02079629355243,0,S02
3660,0.09345398525433296,-0.059239982896630676,10.149589039050113,-3.4275067499621477,-1.0581806791574582,0.14366851168278316,29.73273087867068,-17.313243111227997,37.91850279375138,0,S02
3680,0.09630819034747468,-0.05817368885728542,10.142091409192167,-3.6552145561840317,-1.169584348838676,0.2696140947919349,29.684262073164287,-16.598772741705424,38.615060476901874,0,S02
3700,0.10329058895626805,-0.052216742552010864,10.147496697544602,-4.042990352901831,-1.6248761939979446,0.07416632574952997,30.294716309965974,-16.489843384564605,38.03433480235095,0,S02
3720,0.09965158931342703,-0.04622496127173014,10.152568446693127,-4.4896081831217725,-1.263672761413013,0.11008474083927489,29.56054824391554,-16.331976548180712,38.067344785989896,0,S02
3740,0.089035606892909,-0.05089341622906098,10.135313558131342,-4.575320895399792,-1.5634403502685,0.5938630347757877,29.379312060036703,-16.37415391180874,38.659911790387746,0,S02
3760,0.09869806095189489,-0.05013726272750478,10.141546491146473,-3.8996513081921447,-0.7798917555317713,0.753057059160911,29.032244942786626,-16.49148650089527,37.6845107611622,0,S02
3780,0.09826612829937358,-0.04468939420473028,10.15030820564096,-4.366383316996473,-1.1675284386893168,0.44046446558567415,29.367965411836302,-16.017852691328933,37.81271184995937,0,S02
3800,0.09442586574189726,-0.049681639388348936,10.148534527879843,-4.503765819438515,-1.2271128216903955,0.6380693354882729,29.26398777838584,-17.042656418622105,38.28941091957639,0,S02
3820,0.10425937909020275,-0.05211982209129492,10.148808782158424,-4.360176429044063,-0.8071390811041904,0.39110311235608286,30.2924125947903,-16.63227867682963,37.91448990990741,0,S02
3840,0.09488362669860947,-0.05758333973184654,10.148822558067824,-4.380037410366202,-1.0331596366768856,0.39786801080679657,29.58666606896311,-17.520130277761048,38.88094033685976,0,S02
3860,0.10185099411082511,-0.053028397133072114,10.15269972026594,-3.6660641084937486,-1.0769614254811681,0.5545514981756464,29.26096179452954,-16.07852731253566,37.87989304490181,0,S02
3880,0.09447009305823827,-0.050446676827915454,10.134776024149428,-4.450210541547519,-1.1231910940065948,1.1104544076501621,29.718859404446324,-16.508744128740823,38.70900405034434,0,S02
3900,0.10978302838552685,-0.04606606385270947,10.151714687543944,-4.100605571794555,-1.240911915792922,0.875012347005342,29.031807095756275,-15.748262425481437,38.131451194887894,0,S02
3920,0.0912423158661094,-0.04479179120272822,10.153701527784797,-4.184021296721817,-0.9107020382450832,0.5318365899520665,30.082240800952253,-17.241056514264496,37.75760457779377,0,S02
3940,0.10758046932998944,-0.05534309718796466,10.151163272859037,-4.038559006085244,-0.8415599373808342,0.3227746413629609,30.074923093989153,-15.983367017750131,38.224355121910435,0,S02
3960,0.08786662224888825,-0.05156309632463335,10.140620780888707,-4.494585706723876,-0.8696769512013645,0.7651168315791496,29.283134930751572,-16.40977277325253,38.5462900178334,0,S02
3980,0.10274350506193768,-0.04865677547049348,10.146573997300496,-4.887344880732265,-0.9480355852220517,0.40626185183800545,30.102020985672333,-16.490750251400627,38.34621817439083,0,S02
4000,0.10947306624893766,-0.04726112056096924,10.153454975307943,-4.129959724699072,-1.632246081299348,0.9511915454945906,29.160236373704535,-16.841697571869368,36.941784256091516,0,S02
4020,0.09552611300206278,-0.04946224766589821,10.145566831129841,-3.895435101233627,-1.0897326515847634,0.5865014813443321,29.664894077216506,-16.96434202333543,38.18471127122704,0,S02
4040,0.089203694315108,-0.038699768956521254,10.1446950598966,-4.119362056300923,-0.8919568693914757,0.49011196159543363,30.226890996426622,-16.552052256843133,38.52363619352588,0,S02
4060,0.10090084937005749,-0.05020119827667814,10.133925796687612,-3.965004252774978,-1.3083691431773052,0.38019556504083585,29.617303227952977,-16.228197857585386,37.56451600257626,0,S02
4080,0.10479636508737089,-0.047807256370392875,10.149202620505484,-4.20154794156147,-1.0106509121413674,0.5372793554361842,29.95574624042625,-16.1512602542421,38.07811025952079,0,S02
4100,0.10108048376450249,-0.05700911543521337,10.149635743334217,-4.29303898766053,-1.2543554354900979,0.9174330758898527,29.56795543967695,-16.31831878711391,38.34713434831196,0,S02
4120,0.09458530601819326,-0.04881624585949038,10.138848522801721,-4.2514436808016915,-1.2405310017687081,0.7541759396470942,29.77768656194124,-17.029033336392622,38.690445201037704,0,S02
4140,0.09998320858244415,-0.05040016880173254,10.144511330769836,-4.211247690151025,-1.5363097080568595,0.2677115485096017,29.153856518116548,-15.917958696830162,37.72962865823305,0,S02
4160,0.09727425741573371,-0.04992368983822165,10.139775147223004,-3.8684399144300374,-1.1974271506980525,0.5742411964544302,29.28115071995366,-16.205658470741852,38.1858600275546,0,S02
4180,0.09912108114386753,-0.04559001828805881,10.142177558989935,-4.259209072355566,-1.2281186549568694,0.5203417669891865,28.961100283625715,-16.879223029290195,37.838880683478216,0,S02
4200,0.10906086125420512,-0.05355051324003724,10.144168480122577,-4.469302569377327,-1.036511707561499,0.35766701904732934,28.983673891515178,-15.906011887372143,37.928070512888794,0,S02
4220,0.09312389603048883,-0.054599193479802244,10.151407999233752,-4.418522280474759,-1.3030062477062467,0.05415514921192077,29.472691641567906,-16.960388502759574,38.74027165632663,0,S02
4240,0.09552302376597874,-0.04783859267991168,10.153926593053408,-3.986172117510631,-0.825918444346289,0.42961584346796544,29.339165990667205,-16.587806349930695,38.425140391107014,0,S02
4260,0.10431971086982308,-0.05821142249573967,10.14587058038243,-4.071500377548133,-0.9546720218282344,0.24765645712634948,29.91627445817916,-17.45822526103487,38.06031242276646,0,S02
4280,0.08988794923824175,-0.04929549012400218,10.139606189185033,-4.220225941001533,-1.7052283966715187,0.9833297444818555,30.04079427744751,-16.208200228067312,38.06593019570594,0,S02
4300,0.09133288410623815,-0.05697262379792821,10.15476310886439,-4.070785059001365,-0.8352362615646384,0.23080114125860757,29.5663697647047,-16.78969423098546,38.12613301017325,0,S02
4320,0.09272671612101968,-0.054262663952512294,10.150846500524677,-4.203727547428449,-1.7985073914032421,0.09018537225578893,29.97375683098259,-16.887861103053858,38.45721045666086,0,S02
4340,0.09193965257806021,-0.04800352441930554,10.145259715982496,-4.46820509813384,-1.1804584085463155,0.6100156010306317,30.19328891223441,-16.15605077624962,38.093902949234206,0,S02
4360,0.09514603526851625,-0.04925138378802896,10.140921083067129,-4.357558773152276,-0.5591981613169307,1.0581706520882421,29.914882941934597,-16.48734679190029,37.65898327535103,0,S02
4380,0.09994368598790535,-0.04987056539513837,10.144226978786008,-4.020701210707186,-0.8227417094812685,0.8062843073805852,29.84813599885345,-16.993118668381385,38.07377431975778,0,S02
4400,0.10118555286870215,-0.055713351749476205,10.143417683043896,-4.190735809296906,-1.6028788057559207,0.7789585348958677,29.560916100524228,-17.26686508695456,38.08590100310103,0,S02
4420,0.10144598479916925,-0.058237376714363145,10.143292601917457,-4.503325803908268,-0.7106996641468475,0.6457710626653443,29.929358521290236,-16.655649538791195,38.79406227662077,0,S02
4440,0.10390520025950088,-0.05173645266647338,10.139136665454885,-4.191349854101207,-1.1765717557330762,0.6004165971761692,30.162598543140565,-16.3897563269226,38.158462216699384,0,S02
4460,0.10360439042056915,-0.05728221959768175,10.146149542565253,-4.2271823245822935,-0.6041154659900942,0.4975719464690493,29.52803391772864,-16.338871828517952,37.941910630701074,0,S02
4480,0.09425429748386763,-0.06771001852304032,10.147570059303433,-4.487279375901303,-1.4271779479268314,0.9098890291155275,28.918560357685877,-17.08048992440901,37.82794783966045,0,S02
4500,0.10249458717901613,-0.054185479810800505,10.15389580636079,-3.7572814073181755,-1.1542962462823219,0.7433273093747859,29.988679129483735,-15.956211678995233,37.72991887285159,0,S02
4520,0.1039027975935011,-0.06166235735121301,10.148610784978587,-3.708058761743713,-1.592943777328975,0.5752067881831342,29.58081126061193,-16.039769434491582,37.90365731010813,0,S02
4540,0.09399708746953792,-0.054056829891453315,10.146408748576436,-4.126499354877706,-1.172381386300841,0.16535504983025628,30.086091947889617,-16.619601843982263,37.7382403462439,0,S02
4560,0.10018562135367833,-0.05918579398637744,10.151833348194028,-3.873949315812151,-0.8415928402130191,0.7101416465378224,29.641852733833726,-16.253422577186665,38.463424224249394,0,S02
4580,0.10343235000803377,-0.0572416952878421,10.143057260931378,-3.9115683614216326,-0.7367615761670263,0.2672932036301079,29.39304524198558,-17.00950683145691,39.180732599122486,0,S02
4600,0.09408890841186374,-0.06834629931942615,10.159561369583978,-4.452935825647547,-1.0018208123402061,0.8374037792631457,29.515133461174596,-16.59385167339063,38.931181500169885,0,S02
4620,0.09846495500407104,-0.05757766037537271,10.145022537431714,-3.752527738105159,-1.4049599639323556,0.6142680316403248,29.531474974894333,-16.682764182925556,38.38271893740628,0,S02
4640,0.0905249391096137,-0.06322425970970903,10.146433288943676,-3.9297414284823855,-1.1846595503829025,0.766308836584969,30.054613579547937,-16.805823210231924,37.754758776419145,0,S02
4660,0.10356757825730839,-0.06531940979240239,10.148609362841672,-4.5806980092774685,-1.0463504888168187,0.7455314742213583,29.880387317546962,-16.65186470874523,38.15158027344101,0,S02
4680,0.09695609228325872,-0.056891565414915204,10.148818828779145,-4.41990512406974,-0.8273163898533975,0.4971849641373054,29.942643823507893,-16.37470524779578,37.79238165645652,0,S02
4700,0.10622282090485277,-0.05836516837845765,10.143991419927406,-3.7848091600669043,-0.8266970690467977,0.012521796350861814,29.283002244554346,-16.679328753718416,38.220622421923615,0,S02
4720,0.10190051443427114,-0.054817708355087064,10.151736992440732,-4.7233865498125995,-1.4071046019000004,0.6106192722015825,29.148803454318333,-16.158413270890534,38.15353708487588,0,S02
4740,0.10290628853188583,-0.0739711563702269,10.142761278563288,-4.088863129156415,-0.6192839821183913,0.49754474266689086,30.042081627692113,-16.434185818277122,37.75048944077544,0,S02
4760,0.09878832061296826,-0.06545981353821446,10.143476067314209,-4.610950831917012,-0.8800476621399185,0.3642224886596327,29.528531872109085,-16.234494127322833,37.87449846735427,0,S02
4780,0.11064466926485042,-0.07479265518456316,10.152291900711143,-4.219526806143346,-1.507777333478829,0.3414704682812533,29.47681388951803,-16.283130793407338,37.414160155454844,0,S02
4800,0.09576055487661313,-0.07225847318347486,10.149334067019481,-4.323325686276471,-1.221350840122383,0.30806426991523467,29.42156810029451,-16.50315560499057,37.587469740622524,0,S02
4820,0.08873510969895991,-0.06501135597748697,10.143429426648547,-3.9422849656433407,-1.4891914088913025,0.14999741659253862,29.903453062600914,-17.076981135342514,38.065474069979366,0,S02
4840,0.09772554175981125,-0.06358129486245127,10.14097753365228,-4.208317581136733,-1.4029874520417298,0.40729394781857253,29.204597759549337,-16.44223813298582,38.360933787481784,0,S02
4860,0.104967897725936,-0.07503102593225286,10.141338087191876,-3.8070959817182204,-1.2821760213467543,0.4670581723710825,30.167611584188545,-16.9675452705987,37.36223585987074,0,S02
4880,0.09762279176534272,-0.07668902615777523,10.149123554430627,-4.8118463005198135,-0.9563253926409332,0.21235047238371674,29.951044654216567,-16.8711680048088,38.62247279863582,0,S02
4900,0.10435762873682755,-0.07227381619887543,10.146987666970448,-3.91161014888858,-1.3289067054326673,0.5837973100742304,29.601348671396497,-16.775806583513397,38.29720865527145,0,S02
4920,0.10834493333974846,-0.07165049655952974,10.147677640951436,-3.545614401821494,-1.1522825565913808,0.5674700571972466,29.407742933528773,-16.75846689722847,38.373057449145925,0,S02
4940,0.10022416624813156,-0.07295055586236514,10.145414426176266,-4.259779155503184,-0.9264835546336546,-0.02039691622529871,29.49799533160635,-17.46961342510648,37.9983672599729,0,S02
4960,0.09548131677097027,-0.08469677149927139,10.146913623413962,-4.256408262167718,-1.2154698812238367,0.6031021779062016,30.017405341476795,-15.93606199995748,38.03576214682109,0,S02
4980,0.09140871645887523,-0.062102438472335354,10.157663312033497,-4.15896780317802,-1.4987354629556906,0.6357178788623449,29.778957520347465,-17.49012256479501,37.89995594364815,0,S02
5000,0.10561156120910249,-0.07804406077007418,10.150495786390087,-4.151340911931225,-1.4638181339622236,1.2619130444642788,30.091568353703796,-16.388983944253056,37.627079682775275,0,S02
5020,0.10042490602685075,-0.07822620022912061,10.138461316967318,-3.929912676699454,-0.9664541356362127,0.6355731629965966,30.238868262358746,-15.944057613154287,37.714296232311476,0,S02
5040,0.09535459910503795,-0.0741256042884001,10.149795166192392,-4.112889587978672,-0.7959047573551831,0.744434426837794,30.019103970298534,-16.810110846447486,38.14866308971081,0,S02
5060,0.09282074121105967,-0.08173329354391265,10.1471626553212,-4.221531012566953,-1.5810902494981083,0.4126332594255646,30.055133765918356,-15.668634284515157,38.359558172417564,0,S02
5080,0.10376674226508736,-0.0804449433029461,10.150512744014396,-4.133057045197286,-0.9674672640160906,0.4653836457015939,30.107373547695822,-16.132904406036936,37.81817904232605,0,S02
5100,0.09904501098407302,-0.07869858481949261,10.137130211494888,-4.480620349913027,-1.016097500870218,1.0696154709035726,29.037782031467337,-16.286222723591827,38.20857914082376,0,S02
5120,0.09712888292527255,-0.08052638430994659,10.145070055007055,-4.181771607753662,-1.0781937944849054,0.521318830727798,29.773113135730117,-15.481087635233806,38.10832065757903,0,S02
5140,0.1027147022758133,-0.08366045448580196,10.144371157306868,-4.406737568850459,-1.2900952491276225,0.7608223182283904,29.693022351474582,-16.657620271475714,38.21640571988357,0,S02
5160,0.10683981908353977,-0.08443878328033622,10.146215107797422,-4.251358865932654,-1.1857926815805093,0.6433288735455532,29.488470275311773,-16.578139321424164,38.397325712633105,0,S02
5180,0.10044977781853591,-0.07226573677513454,10.143570214360341,-3.9558178112694424,-1.3195966188086015,0.7836395586945377,29.81909652972823,-16.226108362253907,37.84987153920396,0,S02
5200,0.09827966438849255,-0.09188037197189043,10.144900034035834,-3.946186897137418,-1.6087102469763792,0.6181631068939206,30.603560621522146,-17.288268947726397,37.432486611169125,0,S02
5220,0.10236742963031775,-0.07641609516009641,10.147339525454175,-4.287423441636554,-1.0002800975394661,1.0173363138435363,29.43334039656583,-16.19744719497831,38.04443890185594,0,S02
5240,0.0961288545782613,-0.08402032521936312,10.136777705810509,-4.192074685218386,-1.2193999683546668,0.7812352949468528,29.881370287475992,-16.29813648972805,38.156437830818334,0,S02
5260,0.10252251319637089,-0.09681890948280142,10.15171952026885,-4.065649554785831,-1.6202407419234133,1.291389764070452,29.371279313877505,-16.26539400577796,38.31846006434806,0,S02
5280,0.10770682731552854,-0.08501675292744776,10.149780951927287,-4.158823934025073,-1.2156387886080275,1.0670993138661056,29.205847121967636,-16.696628471850953,38.238409736558054,0,S02
5300,0.11185025045563983,-0.07779090344589888,10.147623175766851,-4.613441657978448,-0.2885372274865996,0.5919000914260232,29.821108940655805,-16.774406899711675,38.31989133029733,0,S02
5320,0.09683354569259618,-0.07920641440483336,10.151288916657503,-3.930437812412207,-1.1862356816073756,0.08284581609660024,29.995134947333167,-16.30734536881872,37.922402737131534,0,S02
5340,0.09694822895145608,-0.07611811540694838,10.144623339804902,-4.416109393617112,-1.0949592442759268,0.5065132064325187,29.345168125682306,-16.38941983739892,37.87418340039172,0,S02
5360,0.10776934841341243,-0.08338270252070712,10.14828380947681,-4.183544649896253,-1.1788099357077584,0.8643275854003936,29.636897758598863,-17.255729247671674,38.61714543121699,0,S02
5380,0.09824547706707185,-0.08485356202049815,10.149222186943906,-3.834291376791678,-0.7167901444267027,0.7995195764040327,29.58715550747503,-17.14867832277549,38.48803647877141,0,S02
5400,0.10263234972102597,-0.08260132485101894,10.141873510310086,-3.9262643002932887,-1.1165937698382018,0.3042688595990392,29.621609197124105,-16.536846006454738,38.42834847564559,0,S02
5420,0.11351083647790312,-0.0857372253680922,10.145843928811859,-4.102466178871717,-1.1242187355190372,0.4533247517100239,30.042556883637292,-15.99374911388147,38.435615006344264,0,S02
5440,0.10228868759874721,-0.07430701888823917,10.141676071236404,-4.492754194106842,-1.4131318309335348,0.5225163749884456,29.51447794356623,-17.480783491483415,38.508839217199515,0,S02
5460,0.10458576337435659,-0.08919154971585355,10.151333773540564,-3.958898195983469,-1.331063559858443,0.9401892533646381,29.6339281606203,-16.398511759404737,37.98531808931624,0,S02
5480,0.09932418875588601,-0.08841715929746467,10.1441324214995,-4.466820460073272,-1.7642754598617825,0.675930263914628,29.772017083605025,-17.45057831820149,38.68951426712406,0,S02
5500,0.09088017659789979,-0.07906501606113076,10.137474063788117,-4.400056958442171,-1.3752009705988653,1.024105278255275,30.1244741076638,-17.077097571629388,38.10576892890564,0,S02
5520,0.09827885690158047,-0.08163241652747676,10.159145145439714,-3.7429928716552356,-0.7929129492403985,0.6094864607473508,29.739852815522912,-16.29215493727596,38.295303129439624,0,S02
5540,0.1086377879890959,-0.0886276901090074,10.147982241759886,-4.5677858602037995,-1.5368736941594863,1.0343979124942433,29.028366215379776,-15.796430832047932,38.35274044628499,0,S02
5560,0.09854214473328103,-0.08751810969639498,10.141075554554245,-3.647880052490488,-1.3106919499764018,0.7451418766509941,29.545602496206687,-15.447585496911069,38.32311927681673,0,S02
5580,0.10239787161705248,-0.08629200153620617,10.15658737519787,-3.640439759915534,-0.9729278810972204,0.8821063879955163,29.875176967379737,-17.18750953987645,37.739229519246265,0,S02
5600,0.10227468350528345,-0.0940178173034745,10.146333783945174,-4.149150161726513,-0.8930740344663773,0.4587465787193433,30.08766691973229,-16.332411174518093,38.06765323137179,0,S02
5620,0.09932316494361919,-0.08906572167336427,10.149027580824661,-4.1555395852694,-1.0444994344455714,0.7239356472957514,30.316396074065732,-16.548709563117036,37.84845354061595,0,S02
5640,0.10676885404703713,-0.0858679581883563,10.141185818226736,-4.6216860869202785,-1.3149465680059516,-0.008983355799180304,29.561491564267225,-16.801033837505038,38.72932290937494,0,S02
5660,0.09246593779228797,-0.09789956267858682,10.137098502893753,-4.276214678578472,-1.2697395602852994,0.33374113541744027,29.477018129021687,-17.319444488331253,38.33314609437212,0,S02
5680,0.10339211262705914,-0.0868486385654409,10.142624840826459,-3.849984635219098,-1.1321898123958722,0.6318525353693618,29.60510040878385,-16.24064877419878,38.11044882431283,0,S02
5700,0.1046990985375791,-0.08117369801664075,10.14073191430749,-4.346870428851733,-1.642762293373251,0.9717775183840656,29.62972013565748,-16.008357548423653,38.07414738557873,0,S02
5720,0.09767368471382996,-0.0966293963700118,10.146546703973218,-4.26080796134283,-1.5694182739929927,0.728842573487246,29.174908715993514,-16.250543114432922,38.13695925318772,0,S02
5740,0.09360938529862128,-0.09396109165706408,10.144114534292106,-4.1008578795285,-1.460942235963795,0.6389926890014289,29.624832749760863,-16.974766768130856,37.96679243528457,0,S02
5760,0.10132573612904029,-0.09003194131514408,10.143544609216766,-4.202537965044589,-0.9742622947336866,0.3221745130747925,29.79160107183517,-16.540409441259705,38.30071028253785,0,S02
5780,0.09765760348662311,-0.09201086966703148,10.138128757319148,-4.037116581210913,-0.7783560437258646,0.4443200547482719,29.62668942110762,-16.418574929944022,38.54454946892021,0,S02
5800,0.10506413768926401,-0.09694681393153635,10.143758019470647,-4.25329839877533,-0.8005299771064608,0.5972602281352382,30.15324318466256,-17.176371946713765,38.239524769091126,0,S02
5820,0.10088565284299021,-0.09389296683879586,10.145620280502431,-4.208931578904374,-1.3531909368488708,0.6153478547751359,29.411547356426652,-16.49826787511161,38.42496759637653,0,S02
5840,0.09576438199754361,-0.07793327014624696,10.154385287959418,-4.284192523505704,-1.1567092631960871,0.8110123365869324,29.569941828684726,-16.78494200293229,38.22208264620437,0,S02
5860,0.09974009891154849,-0.08988246420692,10.144217641650084,-3.918089938696746,-1.1897822430882112,1.2299552225606223,30.06228335837325,-16.147383935358395,38.74341591625907,0,S02
5880,0.10550085549251528,-0.09294945248307711,10.141599695600117,-4.219199163645556,-1.0047547512825232,0.5186598519928208,29.78643802793117,-17.061557835902043,38.27084831310907,0,S02
5900,0.09854268372387087,-0.08507581606495739,10.130300377536429,-4.350624654025158,-1.7872830807939124,0.10722472114765458,29.54306380934949,-16.55433669523701,38.24845980169572,0,S02
5920,0.10256759812444068,-0.10068600692483919,10.14632046142294,-4.19123290575855,-1.1555011527046015,0.8874669342073637,29.135402701078192,-16.49840744141413,38.349439022276755,0,S02
5940,0.09248100834636247,-0.0872738267001171,10.14690413560258,-3.975692768640916,-0.8910772207318054,0.020002952235742444,29.213586246866864,-17.348081802767823,37.76941239654079,0,S02
5960,0.10531478672481416,-0.09134731074873043,10.144993085264607,-4.028269112553881,-0.9083894427370052,0.5683187565341348,30.058100173820836,-15.80214855738511,38.26475329040013,0,S02
5980,0.08839627207860262,-0.0885885173481687,10.141290778950513,-4.54229925270537,-0.7781029309782317,0.41385882188837,28.95997380905963,-17.052867398244295,37.23841702528853,0,S02
6000,0.10420568814321599,-0.0930533874030624,10.150001104321191,-3.7962111173877977,-1.1670696190113563,-0.15401247177717325,29.89614905672769,-16.939658012258327,37.74455896069264,0,S02
6020,0.10402932077112112,-0.09149211371914798,10.142507796114831,-4.2144583411945415,-1.4335589863847495,0.5771847581572269,29.87140209572354,-17.258619328972024,38.603393025706104,0,S02
6040,0.09395276369009095,-0.09553109736110739,10.145170059885148,-4.347518536179143,-0.9773029987928658,0.39398609455677047,29.23532185044481,-16.860093917651447,37.80861266339944,0,S02
6060,0.10519431792551019,-0.09073629225411857,10.143859131992249,-4.009280727597012,-1.500227737278109,0.3150254122073758,28.47722620121938,-16.794275486454232,38.29769446211081,0,S02
6080,0.09823744305828847,-0.08658232950291146,10.151523927871882,-4.439189662203515,-1.665041823679803,0.322001073741296,29.33671036359015,-15.927678761782888,37.689595917043704,0,S02
6100,0.10525033095313416,-0.08951876511678131,10.148610273661738,-4.157362804547399,-1.74063272980047,0.7199872721116334,29.66186354833623,-17.043131525412996,38.753842164617666,0,S02
6120,0.10466409847325314,-0.08187303721233075,10.149366926750039,-3.8686671596160545,-1.1848197559978653,0.866188994353668,29.488440286272592,-16.311981938891883,38.12214787051596,0,S02
6140,0.10551271190511369,-0.08643762444993572,10.148119789384534,-3.8904870142751538,-1.1232192672392278,0.6364860774779704,29.16049371207397,-16.38446810608723,38.06384849281504,0,S02
6160,0.10361398329637865,-0.08641646147918439,10.142937124037603,-4.201935600170666,-1.3289463922969946,0.9197531833126134,29.47560960582961,-17.59305087409767,37.94127072748653,0,S02
6180,0.08691531464157963,-0.0930464157373945,10.146555410973281,-3.6877499650605743,-1.5815168945550906,0.12784706319632438,29.73688961183563,-17.431099960142355,37.624960227616555,0,S02
6200,0.1097466468453939,-0.08361553538432134,10.144656317270442,-4.329097351597595,-1.4045395096606905,0.5734660865787924,29.33076277476241,-16.746429252048998,38.45206214053357,0,S02
6220,0.10305567221093652,-0.08755096512947658,10.140711681337693,-3.8725756530392754,-1.738772694124294,0.5043793599192234,29.11237748581091,-16.43603631219451,37.76772273749946,0,S02
6240,0.1073271241518583,-0.08044134498643304,10.142389327171157,-4.481252442699528,-0.8716280921391388,0.8217842055571026,29.853721765784666,-17.488078325584297,38.58996078747113,0,S02
6260,0.10298618009208046,-0.08500349109973014,10.149161048015896,-4.1563746711379554,-1.2286407486325532,0.7544324639632605,29.437591023275036,-16.220170192128116,37.790116315382754,0,S02
6280,0.1056961974002951,-0.08208791179939857,10.147261686521208,-4.396716552973634,-1.5438668206435864,0.14968612612585097,29.202790377289535,-16.894556298963494,37.823796683518594,0,S02
6300,0.09654735355071922,-0.0754650426162141,10.139630375220486,-4.072542014145137,-1.046312820284085,0.40268006858647265,29.723011072186242,-16.233246041066142,38.935254177779456,0,S02
6320,0.09736356537088288,-0.07869220973220373,10.145701939354316,-3.6360236023172483,-1.1301320592138508,0.6471289843634754,29.27242924564076,-17.448054174243346,38.287697199620546,0,S02
6340,0.09413627390467015,-0.07342089843731794,10.152189489341476,-3.7802825069343395,-1.1345090568601914,0.15912524670577016,29.516908975291933,-16.30261427065247,39.20055525487393,0,S02
6360,0.09404226811871717,-0.07449165837502532,10.148249023123954,-4.607276598390375,-1.0331834274718572,0.870422556771404,29.589625232955537,-16.466581486848643,37.698228012507684,0,S02
6380,0.10499684717649081,-0.07462550452434277,10.13824467370911,-3.962754166522287,-1.1729890637625222,0.08904270230609534,29.160728139201776,-16.94737622875476,37.58417957221743,0,S02
6400,0.10011684008931787,-0.07330600226062464,10.146666154427086,-4.270764714998127,-0.9770315595478345,0.8474536594392053,29.398414647300708,-16.017398511574463,37.730555891371765,0,S02
6420,0.09920748203216828,-0.06977169556019736,10.149855437077345,-4.078704092757901,-1.4251076993855931,1.2271075305747674,29.72209251456786,-17.194749534427427,37.4648705485402,0,S02
6440,0.09998880125718052,-0.07306092659740232,10.145648106177319,-3.8299952178943797,-1.4460534585485938,0.5359359816646732,29.345446222809638,-16.715502361709817,39.16579343363472,0,S02
6460,0.10034434184371414,-0.07331751373286728,10.146665913988365,-4.666455407263164,-0.9379926836131062,0.8441797973890957,29.18413120911403,-15.73460362923415,37.852452953848356,0,S02
6480,0.09962287657165422,-0.06768474129504999,10.146614704099349,-4.75029210846118,-1.0624763420267898,-0.13737210311757475,29.58966034738636,-16.858571054851517,37.623400971693755,0,S02
6500,0.09980183478687848,-0.06736886125648758,10.15046306878519,-4.105479064962291,-0.9165715921203437,0.26983568983108275,29.75953589391043,-16.018249236984932,38.610328627112644,0,S02
6520,0.096756627457843,-0.07766969929088376,10.150649274190307,-4.2645520399768095,-1.3456958875293488,0.5002531915733717,29.330223954889117,-16.982354122264205,38.32964879629396,0,S02
6540,0.10623136903520322,-0.07036982588799033,10.141846378258956,-4.030230987907107,-0.9519483737926924,0.7336612792311067,30.075566608095762,-17.00314978919644,38.396784682959435,0,S02
6560,0.09881409280328743,-0.06730572669781189,10.144006621375501,-3.9565776118675835,-1.3300575602334974,0.45734835654137507,29.936500013920412,-17.1427825385523,38.26875110675266,0,S02
6580,0.10248658268219371,-0.064129779864396,10.148833116480827,-3.92499123164893,-0.8015704568319505,0.33560732902795953,30.04453193594861,-16.540892553960283,37.62245771703113,0,S02
6600,0.10603127314404323,-0.0694525712549429,10.149506275167566,-4.105232355715881,-1.1860162443428903,0.8100849203808017,29.32522901252172,-16.558649876573,37.930205767289145,0,S02
6620,0.10004797695149888,-0.06769536467490374,10.138054451802459,-4.111584525879072,-1.0604841547978672,1.082207514929953,29.927664633930046,-15.875885631102518,38.0640766985229,0,S02
6640,0.10458339667904004,-0.06359161721994216,10.140646552966597,-3.690364951494758,-1.239170155360677,0.7351177511611875,30.10096624300233,-16.754436889576795,38.07999119444727,0,S02
6660,0.09374151653302143,-0.05691587916866382,10.136475410255713,-3.8916718099493184,-1.2577540496975084,0.9166209419859574,29.715297320809796,-16.348628828000074,38.344869529033694,0,S02
6680,0.10724619349599067,-0.06845858473588515,10.149694302447054,-4.19808480343498,-1.481780867976523,0.5506659546821063,29.471320926992174,-17.5579884459653,38.335246413511754,0,S02
6700,0.10092508095346941,-0.06602019491052737,10.15050146854874,-3.6676457499092656,-1.0242966761721384,0.09056459220634894,30.063389623325232,-16.37498860396257,38.51031311504206,0,S02
6720,0.1040674296027051,-0.06033938762350518,10.150898312429042,-4.203868109706797,-1.1067665643561877,1.057633332019908,30.0603943069116,-17.207595637261974,38.42025148404445,0,S02
6740,0.10529866864313318,-0.06001157704312761,10.144669992737645,-4.11593950802863,-1.3218246483422331,0.5907873243087177,29.979255703945338,-16.578867175642117,38.241263304272,0,S02
6760,0.10306755365362436,-0.06711029062112354,10.149847863804217,-4.633737802292964,-1.1609197966962541,0.7337817998095844,29.369614163884254,-17.015880588670527,38.19472993289162,0,S02
6780,0.10484646626897458,-0.05979925299728699,10.146804686835768,-4.5838083166782955,-1.06971755267457,0.47549408030453355,29.56962737927015,-16.85577337954509,38.010326748359745,0,S02
6800,0.09934522691376302,-0.07590502734538673,10.140556269182875,-4.273051324471963,-0.7975054599356237,0.6374043170935729,29.437969474915242,-16.456558786695187,38.193808419241854,0,S02
6820,0.09898272424228237,-0.06693706331832654,10.140257267733938,-4.646141988444555,-1.1999623656225404,0.5892953069790805,29.398225751679274,-16.463889561168397,38.22279969739332,0,S02
6840,0.09244722576060209,-0.06479868675644306,10.132952037009138,-4.554365586082906,-1.1967100123369248,0.5100978604803899,29.802411805342864,-16.615935258292506,37.7610180238928,0,S02
6860,0.10226479232448482,-0.05703976185902392,10.146024891681632,-4.662169365622086,-1.378829234149464,1.0093865276986405,29.358025720286708,-16.58031411858918,38.093557189175556,0,S02
6880,0.10560844210841945,-0.05529343136151718,10.138344604356726,-4.346078828326893,-1.2241395594054578,0.17078249340160695,29.563424728882914,-16.75779726636658,38.317048102770606,0,S02
6900,0.10180145999824333,-0.06753884950443118,10.149826426726381,-4.242377053187323,-0.6185961821783958,0.5567340805605654,29.505661118569694,-16.941462693513206,38.01827497702307,0,S02
6920,0.09424341961018186,-0.0627646389170193,10.13392323136474,-3.6526667213129125,-1.1458124882504297,-0.1609499043449698,29.712726695917134,-16.445257198307573,38.197484672481785,0,S02
6940,0.10206375236303955,-0.06256742083013532,10.146422995196218,-4.218745032703738,-1.1173995117371753,0.808006828608855,29.73751622054579,-15.778385775338428,38.568964543690036,0,S02
6960,0.10267727715454755,-0.05675546557370246,10.14544920649046,-3.636840174658186,-0.9249440437369081,0.30317292619581704,29.60236848511436,-16.28982371341658,37.70512044163422,0,S02
6980,0.09984837995985199,-0.05543596186403844,10.148652710011065,-3.860216151753817,-0.877070016056233,0.8834439369326812,29.1175384029875,-16.13144806740727,37.99512979031463,0,S02
7000,0.10658799513985344,-0.051423903857053574,10.143026168142484,-4.414347798153843,-1.1579340585909335,0.938993404312727,30.024620827305235,-16.395326938808388,38.35017083082193,0,S02
7020,0.0971752127485311,-0.06538628048305883,10.143845520316505,-4.206136328242731,-0.7750959379770471,0.7607751448931497,29.678455608368548,-17.172868773964368,38.23766874144133,0,S02
7040,0.1023290107550703,-0.047130479993733106,10.1524171814098,-4.974269207171313,-1.1852373586030365,1.128762343896649,29.503519871110424,-16.366785214421512,38.11579666099267,0,S02
7060,0.0981036125423251,-0.0534556215831042,10.14250870536622,-4.383639207682063,-1.9146527506292341,0.311240711338975,29.191989708645437,-16.69340757401774,38.56852656388204,0,S02
7080,0.09765977370143725,-0.06149576602464257,10.139960436847728,-3.964844310208034,-1.1605500377147868,1.1744407816301101,29.928829732727696,-16.22369422124443,37.86853897710883,0,S02
7100,0.10327497549911328,-0.05499311350862647,10.136724164188454,-4.191107195512242,-1.5135817027881007,0.07512138151116454,29.597955310738087,-16.95123499009187,38.32487009620356,0,S02
7120,0.09455293995787882,-0.05370275712615456,10.140211035836472,-4.79659782164354,-1.2467977424195307,0.5046618196700383,29.6693980581502,-16.788670075763914,38.28103749309788,0,S02
7140,0.0996169843060041,-0.05358289805728425,10.15236626941203,-4.2347402603027,-1.2117961662641634,0.3960521984078176,28.87280268590215,-15.96997545421457,37.97440431318825,0,S02
7160,0.09970017896468887,-0.05024078342888026,10.141353813739952,-4.1237662959100705,-0.9864450680733604,1.112150476102657,29.86542277531258,-16.984844307085147,38.282135451563406,0,S02
7180,0.10766496392615543,-0.05501284558083665,10.139028034054629,-3.926121491822495,-1.0889505008583344,0.6990839718305006,29.353934839103616,-17.000461704294146,38.2741501625729,0,S02
7200,0.10215894816059558,-0.05356227912336649,10.147961182964938,-4.407037647892097,-1.3201487353386003,1.1420181221833574,29.77334035127837,-17.589954506154335,38.36682106572472,0,S02
7220,0.0927232824916032,-0.05313447724417366,10.150101111837527,-4.159353127440009,-1.2074613930008788,0.3430459498409387,29.715994237867537,-16.808859775637053,38.05277884798625,0,S02
7240,0.09974013911518588,-0.054838115045299604,10.141730564851146,-4.335781900571232,-1.3229006847090095,0.6489785508214765,29.18808249304525,-16.292628235662537,38.553915066873984,0,S02
7260,0.10225394766939794,-0.04508065307658334,10.145909601562892,-3.8362071167812815,-1.640211227565795,1.028038857796587,29.364196541760986,-16.290904572863163,38.14517612555698,0,S02
7280,0.09323466976479759,-0.04629468897388035,10.145787260335927,-4.148122383751751,-1.2777883264972518,0.8764082493389695,29.613667052715467,-16.672199022095263,38.74427763004819,0,S02
7300,0.09295090992197048,-0.04956368029244897,10.12888979650485,-4.189172241895791,-1.239388226674323,0.32150975440700075,29.976685652207905,-16.209472888085273,37.86931336741314,0,S02
7320,0.09401801729001114,-0.052630776521593134,10.141569263500122,-3.7240672161632133,-1.0365245444807276,0.8109461880032425,30.644982490140613,-16.320032172376905,38.501796924368115,0,S02
7340,0.10165675548477948,-0.048419701434939566,10.144621862798026,-4.422260130644996,-0.9280415466443006,0.33609937132960155,29.5031260326042,-16.584284037554657,38.61883212363799,0,S02
7360,0.10091542608832735,-0.04916630479702898,10.149120593611826,-3.7061174822737444,-0.8486572858278296,0.9328941674113098,29.05778815894301,-17.349909768522995,37.60862054984686,0,S02
7380,0.10070128698940634,-0.04726905616469672,10.15551521313279,-4.675831798566678,-1.4425536065543723,0.52552766366319,29.725241639806264,-16.700877356679584,38.06571936595193,0,S02
7400,0.10272138341718737,-0.048438594354312865,10.153722342049566,-4.575135414830077,-1.364700653327998,0.67333791821397,29.224702555386045,-16.658682790010072,38.42645262312246,0,S02
7420,0.10402536791527928,-0.058245148286502825,10.145795569897357,-4.6160094317407925,-1.2189938901367703,0.7485781330947316,29.309554150438494,-16.93399619506495,38.29464375588358,0,S02
7440,0.10064078593537464,-0.05676000839618435,10.153023590972932,-4.387907722664001,-1.0077515791210798,0.5350112124328972,29.635792713035073,-16.78994818590762,37.853773575629226,0,S02
7460,0.09625305205178962,-0.03385866244285374,10.149382081185163,-4.537988525346158,-0.8309457754883254,0.1730357583635349,29.642205808600597,-16.02581351504263,37.92407024521545,0,S02
7480,0.10690451976676105,-0.0566093137984795,10.147667288723458,-4.180217939704841,-1.5442795086800074,0.8253123885826426,30.013879651478206,-16.728597321691105,38.273151823988286,0,S02
7500,0.09523727844020105,-0.05624922731590146,10.150525952748014,-3.8052466949907138,-1.431443019070681,0.4572896105013638,29.583537694520963,-16.2614327232451,37.95068953442082,0,S02
7520,0.09889402737344477,-0.04318426165710945,10.144128006343367,-4.868488271806353,-1.27282549915682,0.44912049221699335,30.11461209839014,-15.994134548352545,37.75551063210763,0,S02
7540,0.0963489147418487,-0.05022844107647678,10.150746462587309,-5.139303065740367,-0.9718323541138543,0.7646028306951391,30.096941800579177,-17.657491115371023,38.37814191113559,0,S02
7560,0.09790084450600303,-0.05412110864179356,10.148054644063556,-4.29026986303391,-0.9540100206098403,1.0727131242824042,29.34800367132737,-16.28221723706806,38.29257154386501,0,S02
7580,0.10188737055677749,-0.05250807498888739,10.147190237980176,-4.0765667369658365,-1.223584704678018,0.3494010785020542,29.429178570806332,-17.21456912181572,37.66409181879508,0,S02
7600,0.0976805658740941,-0.04143253880255013,10.144127143231971,-4.699243576711019,-1.28751693312392,1.1132923439727702,30.141800572741282,-17.052025773905903,38.35931862635781,0,S02
7620,0.10595353974822314,-0.051973747441663304,10.143693581609202,-4.044294999703818,-1.3657175803738386,0.4303512832690647,29.078891693546343,-17.092914852628102,38.43399060109395,0,S02
7640,0.10207452122205744,-0.055459215098398434,10.152030783859475,-4.099663810540374,-1.5663110650139993,0.22856620601726035,30.018112683105077,-15.907700552925938,37.65233722996426,0,S02
7660,0.10470305026705752,-0.05082829608089259,10.143714744940409,-4.393120588640688,-1.1126620472169038,0.8513699735043212,29.909285186584505,-17.317853207951657,38.222967348727614,0,S02
7680,0.09907594720048564,-0.05203171606844871,10.153565303246184,-4.309163935842687,-1.402363392916912,0.21254540173763276,30.04370513862651,-16.479703252963024,38.374833077893996,0,S02
7700,0.09185802250901226,-0.049489336661945244,10.147936403925344,-3.861699531710416,-1.1270286397066822,0.755081008263613,29.60926972145473,-16.750113104011227,38.36296838286169,0,S02
7720,0.0967117324000517,-0.055829606518500746,10.143409382819558,-3.8766691806753935,-1.175004008192364,0.5423252993281283,29.76728406649802,-15.872383243077229,37.53065879983329,0,S02
7740,0.0953233878237264,-0.05455957027676324,10.150274198694389,-4.49353235379571,-1.031997578668735,0.46262591406432735,29.01936700778065,-16.385414357794456,38.41441179265984,0,S02
7760,0.10515052879297206,-0.05449733775208203,10.14527078504936,-4.511095731320466,-1.312063448857593,0.9967811619945153,29.40750335116054,-16.92633977495887,38.905668799251785,0,S02
7780,0.09905150231392887,-0.04257445534817998,10.152348592811087,-4.20132315540159,-1.0748651298169232,1.359673464404947,29.762407795505744,-17.199773530022334,38.13613315667179,0,S02
7800,0.10165033268708255,-0.06674788844992656,10.157190567593027,-4.420223377375607,-1.2617235931383508,-0.1296728036291075,28.951548470944704,-17.06169739247086,38.32687056074771,0,S02
7820,0.09893981948683044,-0.050759121110469596,10.143344952019442,-4.620592013334417,-1.1002073953424962,1.184840268140397,29.880721968351995,-16.00771845101179,38.0803662774309,0,S02
7840,0.09885729588308452,-0.0682980339581789,10.153723606845684,-4.0228129181491425,-0.8863598687027363,0.24610116582261543,29.744742821206145,-16.61201346939209,38.21129481245118,0,S02
7860,0.09938504334445004,-0.059014474710288686,10.146740286766672,-4.765861759473166,-1.0673613084451674,0.9138237321984779,30.08578196427976,-16.3878581213632,37.80515320500862,0,S02
7880,0.10673483663794553,-0.05390937937396185,10.142927089858345,-4.103950984171265,-1.096533014392257,0.5702180674702553,29.474425317341662,-17.041979143611865,37.677039637146414,0,S02
7900,0.10139005669102459,-0.054701798421290485,10.142013214144347,-3.835934553313886,-0.6494535298156732,0.591548169437164,29.880898808700337,-16.407427148464677,37.77024665107686,0,S02
7920,0.09576743770688029,-0.0644566288414899,10.131181086177842,-4.228491796279649,-0.7850371955953963,0.12977903003871694,29.608876851093246,-17.070968102467035,38.445193621696255,0,S02
7940,0.10290119882083086,-0.06607323733503506,10.146765051198376,-4.486487833070521,-0.9859006591202374,0.29103347999989715,29.04430521561678,-16.791269148458845,38.35249653242922,0,S02
7960,0.10404060342525887,-0.06109294842752497,10.151396689588276,-4.644177113427962,-0.9840185179164167,0.4210510783179019,29.563980315103983,-17.320486941018086,37.93637847175531,0,S02
7980,0.09701123272733272,-0.06270513991806763,10.148378235195096,-4.085725310772993,-1.7818208444535046,0.5811003443473466,29.63702860330993,-17.307064462261483,37.76172256439793,0,S02
8000,0.10116606119834591,-0.0628849228755949,10.14599887862674,-4.036212200126009,-1.344067082346481,1.0329312240207855,30.054593516276547,-16.523101708779176,38.495406806826324,0,S02
8020,0.09332741877996358,-0.05472942015753663,10.145835562019577,-4.4579892017579095,-1.9091787166999303,0.6851861443833368,29.40687933563942,-17.270829502916627,39.028311009686,0,S02
8040,0.10615895404393644,-0.0691392521277797,10.140096474456035,-4.277514384242972,-1.4449489364059978,0.48760246826450443,29.55930592923159,-16.870298253268192,38.4639705527362,0,S02
8060,0.09725993720621512,-0.0658697108917529,10.140694593613405,-4.313125762475097,-1.4118555593930493,0.6075508925337697,29.962979169190096,-16.96764500439359,37.6721803363041,0,S02
8080,0.10094269350776237,-0.06661928652365276,10.148036483485647,-4.480316292839004,-1.2681803147462298,0.9890172678620903,29.65128391613658,-15.828252446436123,38.16324186897598,0,S02
8100,0.10181001983645296,-0.06199143407583847,10.148020874754126,-3.608823358011547,-1.4309793340781372,1.0465645799201724,30.0133185516639,-16.869730322227834,37.84539413358929,0,S02
8120,0.10303407134008395,-0.06357986766892793,10.141125970859754,-3.6528134656550124,-1.3192345616053436,0.7379497233825949,29.352867984311334,-16.63736629085082,38.04730524054548,0,S02
8140,0.09881598775082281,-0.06411374680570059,10.141333482506683,-4.253685691212537,-0.7240188570259602,0.53972639409194,29.287960680741357,-17.57523198862155,38.026390584675056,0,S02
8160,0.10235250076004455,-0.06714719373125484,10.151785392555738,-4.170760646525059,-1.4082213326045618,0.6915697258030304,29.171875495919522,-16.470210469332006,38.41559403993437,0,S02
8180,0.09322750188625463,-0.06645867262761607,10.149372188645822,-4.03695985492313,-0.9249440428124021,0.5605665489669398,29.7905998116837,-16.73253562353915,37.433819914458574,0,S02
8200,0.0906297758540293,-0.0783451299667481,10.149888586099953,-3.820885262437376,-1.3988377372540055,0.23210214482028235,29.760859663422888,-16.657097734207305,38.80304360141769,0,S02
8220,0.10595953535359617,-0.0648010444972103,10.147435477379693,-4.17565070093741,-1.4246886416504996,0.06597577846900482,29.816621584989903,-17.435049608389235,37.317932167373144,0,S02
8240,0.09759106626242203,-0.07700454773134506,10.14677883475032,-4.434528256706893,-0.7753309176239243,0.6500603963897315,29.955429226783302,-16.9842349122594,37.77547033977328,0,S02
8260,0.09663665673363428,-0.07836750266934298,10.140986137858816,-3.8677263135826343,-0.8337543984658107,1.1473047142237012,30.28932959701334,-16.28111455560297,38.367869048920625,0,S02
8280,0.09851607022687928,-0.06946383929621615,10.140118953188535,-4.321691343178435,-1.2326140690103378,0.3404583306173197,29.958520395979544,-16.457896667536616,38.86065306389932,0,S02
8300,0.11159461292266609,-0.07050763289278661,10.133193992946083,-4.276985533249779,-1.4119210426387399,0.7579660187398447,29.477263578998148,-15.781104240854743,38.50859972686938,0,S02
8320,0.10281247600722303,-0.08074315907759202,10.142611431374311,-4.362968824642656,-0.7699176892738382,1.068228684611734,29.87866123073352,-15.402600104215782,37.56143395520856,0,S02
8340,0.10411000676218862,-0.07210645803596932,10.14793001655339,-4.460562761419895,-1.6565341772291617,0.7610748397524718,29.970862197297183,-16.251852197999582,38.10226287308337,0,S02
8360,0.10486958249076068,-0.07680971611243657,10.150303233038509,-4.51811337013334,-1.053247741624848,0.6918117883532175,28.986738068342177,-15.820967409007565,37.89648433981411,0,S02
8380,0.09908433398607037,-0.06824770220306271,10.149350160528696,-4.4808984521241015,-1.047744837871449,0.802763948652474,30.304642104236823,-16.32292267318556,37.69727970429324,0,S02
8400,0.09196766609996009,-0.07803123040788766,10.146163338574548,-3.697891009876936,-1.279401231540018,0.6782050366516167,29.419048329543624,-16.61606064009785,38.65701446637274,0,S02
8420,0.10152216992302468,-0.08310893043099676,10.141995930665795,-4.241538196608992,-0.9582624394936137,0.2904247198468322,29.550742965021886,-17.098228896353724,37.89281157693751,0,S02
8440,0.0857161580559359,-0.07952983634194023,10.136780318811933,-4.4374309024378364,-1.4097834193541836,0.894762666904489,29.12666922240379,-16.424979205780375,37.91803335202907,0,S02
8460,0.1008817435017339,-0.07849234947009333,10.150559741197299,-4.202531166383212,-0.9573990352355602,0.26673111175528197,29.785133163526883,-16.443947810826142,38.82579324931102,0,S02
8480,0.09667846092718153,-0.08706839122822545,10.14022143793027,-4.451868622636764,-0.9873627319382894,0.6156664716431274,29.501440930589407,-16.775590728088297,37.876363227489406,0,S02
8500,0.10382590699871251,-0.09258557208807021,10.139942395494229,-4.019329314984166,-0.6327294569137973,0.31623456975064834,29.493326742207866,-16.14389203391037,38.022531866355195,0,S02
8520,0.09643206404409947,-0.07701683460599178,10.144973940604219,-4.249738165535049,-1.3551174629731626,0.47940143299188553,29.721702889534463,-16.145078072541743,37.8930384140315,0,S02
8540,0.10180090584636443,-0.0744181992800555,10.147260001005257,-4.911591660776899,-1.2978949966719888,0.722496252954493,29.457411720153377,-16.50976238126986,37.78934733247031,0,S02
8560,0.10071664048822052,-0.08171045748251093,10.141567814305867,-4.280968949656657,-0.9538461043666033,0.591391723542158,29.009275604001356,-17.03104776815495,38.45596387074906,0,S02
8580,0.10231234302458152,-0.07527113289585101,10.148566067614864,-3.882999065007694,-1.0684034740878339,1.0935713057521117,29.176987804438102,-15.89919548142505,38.734119840140586,0,S02
8600,0.0953633619535753,-0.08052208291564505,10.133165530885938,-4.433972244603583,-1.0688685813658154,0.9504699180943328,29.96284679371494,-16.75180940051669,38.77508079071641,0,S02
8620,0.10359335343892374,-0.08286315335221606,10.141591591835894,-4.951429317575389,-1.3565705400371655,1.0955396367706864,29.050068634258256,-17.2713250600942,37.935861331051576,0,S02
8640,0.10089350356287755,-0.0817060603519933,10.152855386226625,-4.2400900234810015,-1.4540387461362823,0.7641972829820566,29.517639510130813,-16.96333185641983,38.0100109207422,0,S02
8660,0.09730529209772851,-0.07709599677265942,10.148600290829178,-3.7477241962567494,-1.2809998145210233,0.6001374072747255,29.43305996927432,-16.89730105410128,37.91434915089467,0,S02
8680,0.0913892466765152,-0.0841323389149671,10.150444384849767,-4.882653634359675,-0.8499504925941144,0.17083529473778192,29.797900417310736,-16.43593231695324,37.56033010477499,0,S02
8700,0.08231276615095391,-0.08498529602692483,10.15017978019492,-3.9555742290292266,-1.273390371488013,0.45244802734446016,29.224715624659638,-17.18640218328238,37.13909699892724,0,S02
8720,0.09902892660667252,-0.09229171671914041,10.151970578966313,-4.700192602110643,-1.1653046075686624,0.8907909886187237,29.760936920369502,-16.797158106253487,37.902352664974295,0,S02
8740,0.09620243127971755,-0.0910828481073718,10.148048417382835,-3.8940130701554105,-0.8185568931022509,0.5040326034202677,29.068699369305815,-16.640581448578768,38.268975159376254,0,S02
8760,0.10571394812985078,-0.08868711547226701,10.14335009203755,-4.705699639167201,-1.7101371197133663,1.053996435544014,29.748294571161004,-16.556857385724896,39.029071707211116,0,S02
8780,0.10374065724163278,-0.08573566188507843,10.140728451442937,-4.318851620162145,-0.9126414349786589,0.6016954241829063,29.53210803527743,-16.58490853786141,37.869888833567764,0,S02
8800,0.09842741807102595,-0.08228787721253575,10.144009676426055,-4.225661787111913,-0.9500329081640937,0.7899991146885976,28.84463757948866,-16.8792531052831,37.85918611096094,0,S02
8820,0.09002407222483064,-0.09728534789680134,10.146870518794874,-4.297510374341665,-1.6665362458887711,0.40358848188674334,29.861198397595235,-16.85528231249936,37.79343946436646,0,S02
8840,0.11077505870162108,-0.08571829740598005,10.148836250261821,-4.249559472444505,-1.355592564524585,1.03807396354684,29.066298204842177,-16.485738722887096,38.478430986446995,0,S02
8860,0.10143569166875903,-0.09683949369952186,10.140853507196256,-4.174474266339335,-0.7712238746437677,0.6370063709713704,29.838090272416565,-16.08036934410553,38.25109255510584,0,S02
8880,0.09825606570834569,-0.08874144465963854,10.142004479158016,-4.05420608356046,-0.9993871008024756,1.1370059087881086,30.403035357927575,-16.068949977365442,38.75529658720195,0,S02
8900,0.09058626231584778,-0.08606018816892477,10.149020798707575,-4.345414977778885,-0.7436719380159108,0.37384714893945736,29.56600648299531,-16.44620050919589,38.29749838404794,0,S02
8920,0.10247153214107715,-0.08599143800740391,10.144464771609785,-4.0957230759413985,-1.077846625921321,0.6722598591636106,29.228699067920644,-16.8922590210948,38.3958823795473,0,S02
8940,0.09792276750816759,-0.09100276781370359,10.148055262445084,-4.347139296235145,-1.5681260984675705,0.9675055262507852,29.376796321218205,-16.800440786049634,37.91302057287121,0,S02
8960,0.107786617269699,-0.09139001981379932,10.154550859632598,-3.863956701479005,-1.3986724501134589,1.3130255684027168,29.837982084097916,-15.79309496243565,37.911933680145346,0,S02
8980,0.09766925072372655,-0.08453210151089456,10.141517155736008,-3.833929674213933,-1.0965002960145531,0.7437826211623646,29.548308616346777,-16.322310814851463,38.362278918687636,0,S02
9000,0.1080983509016202,-0.08903616029633575,10.150201988117956,-4.140463548565222,-1.2304286130121231,1.0985759953443832,29.934679356613113,-15.826175494340783,37.193160028409345,0,S02
9020,0.10004435213958632,-0.08955317081233932,10.143589827762103,-4.025709495383034,-1.3613421162739838,0.3823530211632628,29.549427536663103,-16.653886632138594,38.06189306431603,0,S02
9040,0.09505203872482208,-0.09136640587702685,10.150929833530574,-4.5485712318673865,-0.9768648881811874,0.5785481391916109,29.303745656837105,-16.537804348715383,38.17278341400299,0,S02
9060,0.0980048339843311,-0.09097081431728843,10.142067203312957,-4.213134274646007,-1.2843410150295098,0.2237186568414563,29.62446395349786,-15.979655782005718,38.8588430147599,0,S02
9080,0.10398989783848357,-0.08744708514893765,10.142460785064086,-3.8785061466604236,-1.0379462551231486,0.3015100796531186,29.561546316941392,-15.597408098289264,38.078756856302235,0,S02
9100,0.0907668967297738,-0.08634188622732789,10.145356937130753,-4.498815255474314,-1.0228527859535685,0.29144882896479524,29.301757911412146,-16.257810418924997,38.35047238405922,0,S02
9120,0.09930928721852522,-0.09919242140217696,10.138708246649148,-4.55199895399505,-1.297049155801562,0.9906590982375248,30.21151042236294,-16.371967965296356,38.93146303990025,0,S02
9140,0.10432789277902116,-0.08926414814056662,10.149260667718362,-4.373948343599236,-1.3652509970749476,0.514987987935495,30.00020811642272,-16.946704841917608,38.17967046173996,0,S02
9160,0.10176846829164134,-0.09260223133824771,10.147989564769427,-4.553192365516877,-1.2363390646666863,0.48339989851665555,29.894164932578054,-16.792577491219134,38.07015197431371,0,S02
9180,0.11668327690628162,-0.08541725239629419,10.152813052432188,-4.668030255346344,-1.103245281886832,1.111426647037805,29.304239067782458,-15.819171948945563,39.026976097642226,0,S02
9200,0.09953121478996517,-0.08913052532997198,10.146061353969962,-3.8671473056049277,-0.4767535969611243,0.5968157679475462,29.86544612865919,-17.04587175121067,38.01360543536595,0,S02
9220,0.09843542339571505,-0.09467899134382264,10.147570640178722,-4.894759302102909,-1.1320619111854366,0.4529115882929627,29.762811263577657,-16.705564161736394,37.63790582541091,0,S02
9240,0.0968208727880717,-0.09116139725994518,10.143079087688054,-4.216462145882854,-0.9400078856084577,1.196910219803578,29.739146844645767,-16.35218897943524,38.085276487405004,0,S02
9260,0.0998149136333347,-0.10322520156001,10.151322347392663,-4.15122070419935,-1.5450092929428756,0.6790912077988863,29.45963846194394,-16.28594668847603,37.73640477597651,0,S02
9280,0.09276739852064478,-0.09111767180514739,10.147008612601391,-4.340120489059327,-1.0071372428876855,0.5803889765436935,30.671721799766846,-16.772939800982797,37.862891208774606,0,S02
9300,0.09970240762511068,-0.08293219183725832,10.145322331340594,-4.001815911143451,-1.1033358331876701,0.45826809615192177,29.74347786670779,-16.527498998720684,38.09047656578612,0,S02
9320,0.08958193299050474,-0.09104276491092878,10.14619038330288,-4.044874694228932,-1.341757917132989,0.9939899005473365,29.054471920303797,-16.95457264460206,37.861686975516626,0,S02
9340,0.09711802201305766,-0.09359839365550865,10.14699366323719,-3.983839056039224,-0.9024558425220945,0.6390608710921061,29.335327662236526,-16.214566076644843,38.7289848431993,0,S02
9360,0.09806895351218912,-0.08626528848222428,10.150245313696436,-4.383072826700715,-1.1048470748417845,0.680579974783498,29.66518350217289,-16.532063858293395,37.73596411477056,0,S02
9380,0.09591912987121873,-0.08296730558247853,10.141151928753732,-3.9034637853111955,-1.429282830424852,0.7718895643361678,29.573526955902228,-17.0180879220225,37.781512213129176,0,S02
9400,0.10837886937004582,-0.08081759111129633,10.13899964933256,-4.1026774612182795,-0.9658167788718861,0.3051038107394626,30.089022449087153,-16.193783854610395,37.345513349900614,0,S02
9420,0.09723515229579255,-0.09136599753596424,10.149426664900169,-4.619032316660819,-1.1740053284986478,0.6382068217029394,29.5916325500249,-16.33090547328211,38.43653519306536,0,S02
9440,0.08790030187281833,-0.07636819911920655,10.143919018436307,-4.421485469406643,-1.5147725238799201,0.009733776221223622,29.487864752067974,-16.594884866623158,37.89879781037834,0,S02
9460,0.10566737777695819,-0.09143666430438065,10.14416825629751,-4.766177733606078,-0.9913615698980648,0.4485759613128028,29.248124295628397,-16.405465136914703,38.184337058542496,0,S02
9480,0.10024962274527928,-0.09135441668422395,10.146743266967489,-4.181633798314629,-1.252438670926116,1.0241203231987237,29.384302420154327,-16.493195725771614,38.205937470791255,0,S02
9500,0.10468279846894453,-0.08650401727919048,10.145621902534177,-3.7885068318671054,-0.7116193770646697,0.24026457992979988,29.55184464354112,-15.669276443033153,37.93368732915917,0,S02
9520,0.10502203456819441,-0.08623453547343612,10.157725613873259,-4.624389378680756,-1.0908352684207334,0.6810813033968005,29.181765581913172,-16.060857835153023,38.08239416066128,0,S02
9540,0.10220363449384438,-0.0820960189522678,10.144572425032738,-4.491969043533957,-1.098711131919638,1.0003570796034054,29.202545940686022,-17.541122169947435,37.96943736121955,0,S02
9560,0.09887081446878516,-0.08295032196390341,10.14324599577811,-4.2987391895878275,-1.2701022507412987,0.9201756007862767,28.866868022328703,-16.238341394269032,38.238919151960545,0,S02
9580,0.10192910620345812,-0.07971864013582151,10.146694896638605,-4.506211364786007,-0.9125160509001953,0.8055372323882759,29.781696292166323,-16.916870872259043,38.00396295787434,0,S02
9600,0.09568495782955733,-0.07358043635375112,10.148627331778737,-4.244789050674638,-1.509425359040546,1.2058960332897408,30.012958801231157,-17.1223418415671,37.360129729900606,0,S02
9620,0.10281764262462778,-0.07458531291641993,10.140980082767717,-3.731842333561996,-1.1552559208874833,0.4912818082834427,29.826916843540783,-16.31653639764189,38.63157189691516,0,S02
9640,0.09752561808765174,-0.07665128561141195,10.147099885253196,-3.7714115626249014,-1.1597693191144745,0.5199137694157587,29.097455339945903,-16.399207555916295,37.748552961437646,0,S02
9660,0.09640132075073941,-0.07989310936503898,10.145028725502776,-3.793493170689048,-1.2537018367958714,0.49792255184120104,29.185481846981013,-16.107687443744496,38.49498881091228,0,S02
9680,0.09842946032299417,-0.06758240534473457,10.141825704493883,-3.7359672821517673,-1.535023215627322,1.0901234790605847,29.668398735728445,-16.47795316223432,38.30218397520174,0,S02
9700,0.10387333178020315,-0.07184030488132129,10.144261641813744,-3.8597465834494518,-0.8580679273642112,0.6672043583927214,29.827625352803786,-16.872232765334232,38.04280886834606,0,S02
9720,0.09834789469520644,-0.07429943110946388,10.142887967648637,-4.191435249635654,-1.0256992321066658,0.5217791709206463,29.67114947358809,-16.6779666590687,37.12290723161607,0,S02
9740,0.09588550761351175,-0.07003184120709753,10.14521619835543,-4.330190962916247,-1.0276541781135082,0.32186402256897845,28.657844625960223,-16.38111137480008,38.706915205311866,0,S02
9760,0.09790952479098781,-0.07319784847999558,10.140812921704804,-3.625910775461202,-1.151857914453597,0.5185307421708731,29.388145419423868,-16.877441541170338,38.106702364569806,0,S02
9780,0.09495395252445517,-0.07797089891827098,10.150600272050688,-4.656666743726232,-1.1296822256932462,0.668085965138273,29.410835368457224,-17.110475764516522,38.43344237750937,0,S02
9800,0.10371322569416275,-0.06235695921382416,10.140892471825268,-4.264349127229719,-0.789517501747498,1.497888556260965,29.336087063130446,-16.51844311071801,38.858760289843865,0,S02
9820,0.10139688904242901,-0.07718643352385403,10.152306069111821,-4.23795284597124,-1.1847638934155462,0.41416050928896375,29.71161299224204,-16.403298879497832,37.890752144491124,0,S02
9840,0.09033867351853048,-0.07173744513924912,10.150294414439555,-4.474206537353785,-2.045067253391481,0.7795109285639628,29.658131152526572,-16.729247294543015,37.46770563484738,0,S02
9860,0.09563574889109304,-0.07093092941378842,10.148904839686603,-4.349204994029911,-1.0817216588928573,0.5254210730592014,29.446889574975128,-16.697723192827358,37.928222278437616,0,S02
9880,0.10517781164160477,-0.06549286373608862,10.151231022651945,-4.116536894939386,-0.6615743715287566,0.5816743854857224,29.859093026277026,-16.715708536646495,38.13073113977562,0,S02
9900,0.0976442515648637,-0.0736029795651579,10.144859428556614,-3.630409611305288,-1.0208569144540696,0.3690042773916022,29.81368034267712,-16.7138631787358,37.78461395916516,0,S02
9920,0.10124881532805993,-0.062438471775435475,10.140630341466638,-4.324475688378473,-1.2374642331674446,0.688318017027932,30.050724988747398,-16.3633548337045,38.52471418449546,0,S02
9940,0.10803568450342953,-0.06567785263609922,10.144230808924686,-4.386510699434585,-1.1434427409214987,0.12171887905033385,30.007451385719936,-16.704744750689244,37.908343339265585,0,S02
9960,0.10475669408959062,-0.06386910009069068,10.143680525901834,-4.14814555548157,-1.3282777386677318,0.5990468081034547,29.430669023754014,-15.9483616301435,38.01418021611003,0,S02
9980,0.09763285834929755,-0.0653762883642269,10.14421133432924,-4.254804418494581,-1.333729361420867,0.2566647867313044,29.623616440169297,-16.249665090950323,37.333261953378084,0,S02
10000,0.10132662448727948,-0.05658055527066235,10.145389712176595,-4.639841741704441,-1.5864911103431205,0.8710876028265007,29.621546489028255,-16.098805085284788,38.0375875190674,0,S02
10020,0.10129464300070043,-0.05994211244890116,10.148606686670943,-4.222560343725794,-0.9345771808553125,0.5714850926748223,29.581929145340503,-17.02654943336853,37.4535068549353,0,S02
10040,0.10306971717618671,-0.06489641845972972,10.145196440041865,-4.150520812853042,-1.8090585613366135,0.6226168235966597,29.3823927383334,-16.544058140321162,38.93780463149814,0,S02
10060,0.09221317398431042,-0.06477816712042692,10.136072545614828,-4.275846664795785,-1.2631241362447756,0.6912617168984615,29.63632795250741,-16.336050889039104,38.799782259623576,0,S02
10080,0.090065917686416,-0.058996179973229854,10.144336139441249,-4.667311314436027,-1.178862325359977,0.446512403478843,29.70065724975866,-16.047084292330467,38.684823708047645,0,S02
10100,0.09362503053807181,-0.06644143938317361,10.143587775928703,-4.476695646206324,-1.217163147313923,1.5805793532710104,29.311887543935807,-17.019801946107386,37.50600580772235,0,S02
10120,0.10703054450533356,-0.07092582543498288,10.142738960535574,-3.397678713634181,-0.7492923812211009,0.8276915517429678,29.549865354780042,-17.07554911488625,38.52458855800541,0,S02
10140,0.09946627950507551,-0.0621859059088414,10.14249420785191,-4.09698810601421,-1.3620084571421984,0.4030446659141003,29.54576287114995,-16.47931457474437,37.538128249179216,0,S02
10160,0.10470666211489331,-0.0616847879818096,10.137317758870115,-4.183445817917781,-1.688481566798126,-0.0693250869112012,29.361423705358213,-16.171819370058316,37.925135372853596,0,S02
10180,0.10616379011080836,-0.05647919637654905,10.135732354207335,-4.584750592326209,-1.218735609656395,0.34849257400129374,29.5682322994066,-16.645365626945228,38.1579042592514,0,S02
10200,0.09908633658585944,-0.04966981346405883,10.136202792938391,-3.872086621772421,-1.061839745916329,0.5987716402004459,28.833750194034167,-16.41163353095579,37.347384783710595,0,S02
10220,0.0993438657561318,-0.053211673378091184,10.147232466876483,-4.231293777063069,-1.077824118348481,1.0784240348320426,29.87555961195745,-17.095346020808723,37.97446981405458,0,S02
10240,0.09288709969377551,-0.06375330977043847,10.15307054162443,-3.8671211262848835,-1.1019726732661295,0.43668259807968224,29.83673506426567,-16.710919442397113,38.07585750128509,0,S02
10260,0.09924722225003502,-0.05664753786616573,10.148289258299553,-3.885253865349943,-1.17263464827417,0.5170761801033936,29.756665936829318,-16.05340473660239,38.18627363160161,0,S02
10280,0.09876237381048437,-0.051192632946906055,10.141422372487646,-4.503716628405356,-1.487715824800288,0.7479892267095207,30.42738730964137,-17.17457086553747,38.02927780374206,0,S02
10300,0.10187729867364737,-0.05542762553250355,10.143981696023609,-4.239236934889572,-1.0275098570948487,0.4634731153905551,29.48344965762342,-16.75007313093225,37.77216936770639,0,S02
10320,0.09999543046712334,-0.05219918686923415,10.142161577577664,-4.2734437615662655,-1.0409752987846945,0.31769314921974856,29.378710586595314,-16.44241418925948,38.58115378565146,0,S02
10340,0.10592317159407837,-0.052158362829613336,10.141015808072668,-4.081140474407616,-1.3730151421231744,0.8117720652955205,30.116388139170187,-17.17902066221388,37.63128310974574,0,S02
10360,0.09875846633066693,-0.04895554532480342,10.144087674637602,-4.5404571314198865,-1.1429372061953944,0.7262600383229466,29.62968839597703,-16.652732817886893,38.18517363966235,0,S02
10380,0.09516991700975781,-0.05401334854408654,10.133235006383005,-4.103765857569499,-1.3720832396921332,0.1447809628547183,29.633420915869074,-16.570080985022784,38.05825248158838,0,S02
10400,0.09775781501781121,-0.0499840705066956,10.141673012290031,-4.014051711087402,-1.247436048116631,0.7048793856116534,29.633162262438198,-17.198317751724474,38.053193759227256,0,S02
10420,0.10211115526676813,-0.04883573318854073,10.153494938434614,-3.8797076059565647,-0.917782898921997,0.5899478360688017,29.76197776299205,-16.224921971402402,37.90193957663955,0,S02
10440,0.10317618054746969,-0.04552717192089076,10.149258144913102,-4.319817568576678,-1.0894107968213804,1.0486636802730918,29.910223629688765,-16.714462521195603,38.5734524361452,0,S02
10460,0.09748013518043877,-0.050982579449133605,10.14754703686158,-3.906191903553328,-1.223172483035831,1.4189597960477918,29.41079074908396,-16.948980268933234,38.436055770722746,0,S02
10480,0.09673270497769922,-0.05369760293426967,10.142465588546644,-4.018957529762308,-1.2076540245063438,1.3538266225299438,29.321715489741656,-16.68841779417853,38.05491225310716,0,S02
10500,0.10681898199565676,-0.046906628747486454,10.145867371061742,-4.598622851478696,-1.5146514421671926,0.06719502387933851,30.109160067445316,-17.08457819785787,38.04889607379826,0,S02
10520,0.09369672508462357,-0.041090685254244974,10.145283459356166,-4.2501938326157855,-0.9344505810623736,0.5605901612950429,29.058821040047636,-16.376367622952664,38.15187005957014,0,S02
10540,0.09156885010365377,-0.05654546821226453,10.138664688180254,-3.7502941514202055,-1.4200173877151685,0.8531595232190856,29.208223104695993,-16.576097245440664,37.85755308680832,0,S02
10560,0.09523135909283903,-0.05980823039310622,10.143722314711763,-4.279832267081271,-1.2520743731896218,0.8312377015085775,28.747530431298156,-15.65805885033208,37.88455648767103,0,S02
10580,0.10496451462482723,-0.06354801544518929,10.141578980871433,-4.194228182359917,-1.5718886815712159,0.3810473749408285,29.149233986138892,-16.44415391060373,38.7730888563187,0,S02
10600,0.09701103463429185,-0.05072793579032366,10.1505400616013,-4.864945820968082,-1.1625830169654299,0.6464326785415517,29.562965428360172,-16.867441151925117,37.95200141144601,0,S02
10620,0.10599984348018673,-0.04761125696926706,10.147564708850094,-4.554699742772746,-1.1485090544861658,0.9519262291361834,29.278033234368614,-16.58649776768923,38.37896921077685,0,S02
10640,0.09544821857855855,-0.05223279554822299,10.142631514881083,-4.205289869021386,-1.5538970796883766,0.1209348571935952,30.122551675563997,-16.48468392336841,38.42795765694193,0,S02
10660,0.09513184457867653,-0.05422176348772219,10.147790598602109,-3.962932686533563,-1.374675559880125,0.2931278511412241,29.252313218273557,-17.084974773095315,38.224109586839404,0,S02
10680,0.09742367737015273,-0.046780562008216675,10.143712131759433,-3.854514442282511,-0.6163504845458565,0.6084747655189169,29.829191676017867,-16.8733518845376,37.665593677291255,0,S02
10700,0.10348128518594416,-0.044865020621480664,10.143829488523604,-4.709604730627158,-1.0534743790266574,0.4978540649612683,29.07590960171806,-16.809717761420927,37.15307517244655,0,S02
10720,0.09926594395151211,-0.048392975181348725,10.145591710280213,-3.691196002761351,-1.3788268394926895,0.6769340066670264,29.75264798063526,-16.523842976215,37.94540737969593,0,S02
10740,0.09823050884935978,-0.056995429934363434,10.159649232148448,-4.3895884381765855,-0.49533726041562165,0.6495855097108653,29.705991425459857,-16.04647337997531,37.41722921241005,0,S02
10760,0.10674014686661426,-0.042035534293541704,10.14387968233655,-4.534093314831774,-1.5548057754171445,0.716249280279335,29.709978979295975,-16.28500641846178,37.866130021339806,0,S02
10780,0.09970070829037775,-0.054925809251388895,10.147801368695122,-4.498397338241162,-1.1527900066602863,0.3186353262855136,30.5652777560962,-16.925846705414422,37.939950202796986,0,S02
10800,0.10683264914555995,-0.054311390900902284,10.139896017521522,-4.023971951979069,-1.282737962421025,1.1103260500508416,30.088377647918286,-17.041721466194534,38.35704036619231,0,S02
10820,0.09562352210465146,-0.05671060164127707,10.138919940861689,-4.176560490819012,-1.6001364665706892,0.7092822732512417,30.103044948666486,-16.86381342800726,38.220558062134785,0,S02
10840,0.09449980791338561,-0.039164229580135754,10.146176576006406,-4.364976078958995,-1.3301894936763146,0.8413473810185302,29.59992513424165,-16.359544909305136,37.928967334612516,0,S02
10860,0.10115965310390972,-0.04849455651950363,10.145423719233419,-4.485121009348146,-0.7982165386962664,0.29252987509509587,28.944828889330488,-16.89489644562817,37.89762881309477,0,S02
10880,0.11129956351770218,-0.05303274006453374,10.146286382063138,-4.357436393092016,-0.9125339755378903,0.8564444002604371,29.552817668554916,-17.53387387493767,38.07236462063025,0,S02
10900,0.09726486520935503,-0.05672766886169972,10.143545096173185,-4.537390929113687,-1.150856595422048,1.1921240588816286,29.642115045278075,-15.901764006099317,37.95882887718371,0,S02
10920,0.1017345419363268,-0.05185784038437978,10.142109079572494,-4.612008268624862,-1.018206701152663,-0.17826938552059046,29.909327760550045,-16.891770495265025,38.2588351188803,0,S02
10940,0.10789076772325261,-0.05674115723924115,10.153231787786298,-4.016535752064793,-1.175838850879113,0.3205983939261264,29.273703024605158,-16.640651921931443,38.80605496650967,0,S02
10960,0.10285243433502861,-0.053972392279767384,10.152759268566669,-4.202630840710013,-1.258167876512034,0.25636553885084407,28.91661801717555,-16.27849747973422,38.062085567207156,0,S02
10980,0.09123800243771808,-0.05243097490592992,10.14557335635143,-4.290384239139258,-1.5080534632754787,0.8130895363977204,29.338403499758893,-16.772430631551146,38.566769744892945,0,S02
11000,0.09562777693368604,-0.058368149518684576,10.146466319136938,-4.147466010096923,-1.1218241932175026,0.78436122744751,29.694520124996952,-16.801668838558307,38.126155874283576,0,S02
11020,0.09070631445645558,-0.052498213285243844,10.146849714719316,-3.889529574293174,-1.3843966582696132,0.8728780431783564,29.215439623763316,-16.5089601433571,38.14108140660298,0,S02
11040,0.10617310673599979,-0.05735138340175802,10.14145422823941,-3.7284804437560344,-1.304366213146822,0.7628520445791891,29.794468672606797,-15.793124158969853,37.726603829014714,0,S02
11060,0.10104637099190647,-0.04962236263225492,10.148836899488158,-3.8112717245800702,-1.1349710429049602,0.32220679629320725,29.191156247393533,-16.410939341925037,38.2491908273533,0,S02
11080,0.09605972859318046,-0.051567546520146584,10.145360263393961,-4.5251139409544345,-0.923003104095855,0.9865591291755855,29.613357791555273,-16.520548121203348,37.76305439470561,0,S02
11100,0.11071902691603146,-0.05409005925189783,10.144497238806965,-4.196439674061449,-1.2040884964372787,0.16549254292106702,29.402946136480242,-16.499602274711812,37.9391144169657,0,S02
11120,0.09540642801527514,-0.060497622013650075,10.159593243324569,-4.13592999119004,-1.4391411599957773,0.027526026312488905,29.261887796491628,-16.85589208772072,38.83795896713976,0,S02
11140,0.09514676915169679,-0.049495719232860655,10.156552424940468,-3.9022673521541504,-1.1058532195477582,1.2059641627586821,29.318613379235078,-16.902135959070566,38.13184329886656,0,S02
11160,0.10343520886963027,-0.05841047181542931,10.140366764153784,-4.275759113361042,-1.5331997029956135,0.6556074128938648,29.665182635128144,-16.173479306814297,37.229622127675235,0,S02
11180,0.0935473860040282,-0.06595161417366384,10.143077422417676,-4.676880418853885,-0.8261954155650731,0.19474525467890197,28.916545223908642,-16.881042157598397,38.66068399271582,0,S02
11200,0.10206739310592551,-0.0504412759359724,10.140674464664007,-4.233289453065631,-1.3660243254123903,0.3873369743873594,29.12587243331959,-16.061743162751043,37.56574612346508,0,S02
11220,0.09290693119302779,-0.0512053703698641,10.139002407439174,-4.548309980806504,-1.1089254229333738,-0.04890293482982899,29.983508018181787,-16.367599716954388,37.86193005332182,0,S02
11240,0.10388463393445543,-0.06031927584069439,10.145401097207724,-4.152578032852526,-1.2288108042904484,0.2853115839637452,29.485722888452845,-16.856306181372965,38.2535688322279,0,S02
11260,0.10473786571801495,-0.060526052976116865,10.141531037570896,-4.661968006316508,-1.8216496865266918,0.3619832049208995,30.100198404603738,-15.55547700059751,38.121141379024095,0,S02
11280,0.09800534949134841,-0.06167200203920558,10.14661036254835,-4.0505635486223595,-1.5396380871554682,0.32721409375208765,29.747760724215624,-16.071730394664705,37.6542939484459,0,S02
11300,0.10237163784037882,-0.057952381603119704,10.145784760768837,-4.306036740196352,-1.3681148296622396,0.7505755264974816,29.394443156938596,-16.288003197473294,39.006244025333906,0,S02
11320,0.10666091286956444,-0.06542934222851024,10.145696422489408,-3.8742530241673645,-1.5955489422033606,0.6351478789377106,29.368809143918142,-15.697233270726363,38.08627379021698,0,S02
11340,0.10836721311975463,-0.06377383980975058,10.14433229286724,-4.264631075698062,-1.6925122114235591,0.7559868350128882,29.62377581920754,-16.384697616156153,37.78336759412044,0,S02
11360,0.09953709244385366,-0.06219202165995773,10.147650007221696,-4.258675919667812,-1.1201509714971425,0.535785764652903,29.64965467364335,-15.332660667914823,37.61305975403165,0,S02
11380,0.09747191086579972,-0.0644319089908691,10.137321052222825,-4.321896831707312,-1.458808336202717,0.6532881163490748,29.835337558201925,-16.256571378744333,37.887733573628886,0,S02
11400,0.10293435061236403,-0.06690233875120073,10.14597853983212,-3.822066279883117,-0.9419231765812459,0.1508142192447256,30.629895099801722,-16.95912810621946,38.14915918743013,0,S02
11420,0.10268833421906634,-0.06549342980800968,10.144364542846608,-4.312715096022867,-1.108101357257624,0.5641561452181053,29.95674408900468,-17.015325868090034,37.97378351960296,0,S02
11440,0.10640336878156129,-0.07761680006740845,10.14463136492812,-4.524097063287807,-1.412136448273035,0.6631799174841141,29.85104902289581,-16.866750123310844,37.60171203286117,0,S02
11460,0.10432597817659744,-0.06884977504202935,10.14859417706575,-4.189144907453278,-0.8724795993479534,0.3158117586646798,29.81176287608168,-16.68969149137294,37.629777726232916,0,S02
11480,0.09467246933788216,-0.07293826209453125,10.14680336558815,-3.9256476776425044,-0.9443331294956713,0.7725330029102977,30.623522242767184,-16.792603579226444,38.05378580115591,0,S02
11500,0.09405798035437524,-0.06460854447454893,10.13485852712347,-4.1777529821391495,-0.4922401947609705,0.389364496512985,29.128145104620746,-16.68473042879315,37.96992540147475,0,S02
11520,0.09556807533199446,-0.07296893826678434,10.141183562222906,-4.2845913358992425,-1.269889711203562,0.47366535234598417,29.16706607241594,-15.702601275335983,38.37469932792627,0,S02
11540,0.09904417411257138,-0.07374407509240982,10.146777603289838,-3.8709955213072265,-1.4911488518229323,0.77355062665201,29.131046924794862,-16.922676595762656,37.59340953271841,0,S02
11560,0.1041022182654899,-0.060218731160998226,10.139106375605675,-4.667018246982086,-1.428621711455047,1.035006215965929,29.444310128822732,-16.722985866439828,38.41481702181311,0,S02
11580,0.08974353732783405,-0.07005699249709725,10.15009794577632,-3.1989225371382437,-1.1220473582034645,0.4380306959194859,29.49335756167351,-16.184878906340387,37.65091957661658,0,S02
11600,0.09953299118168255,-0.07252545845512826,10.147041030378288,-3.830208501996964,-1.014130755226207,0.45400434718150023,29.387785555615455,-16.538134678577546,38.515558535233154,0,S02
11620,0.09871943762280912,-0.07671263538065055,10.144154080836447,-4.33387641114404,-1.2172329421564139,0.648701916347836,29.643503170683957,-17.146570900976666,38.09938488872586,0,S02
11640,0.10242750124034881,-0.06444244726888816,10.148428683762612,-4.042207539111196,-1.3042425262162831,0.7761068455570558,29.584110395999865,-17.310393911561356,37.557114622891085,0,S02
11660,0.10413606003242913,-0.08037498324239037,10.139970512151484,-4.0377904764325105,-1.0758888642545634,0.741694622535551,28.49122484587242,-16.934211955595924,37.7697347889723,0,S02
11680,0.09346819787509648,-0.07753507822628936,10.14092753541794,-4.407221979093673,-1.6297160304273768,0.6611358495317868,29.809091444471473,-16.877590626091745,37.19156796030351,0,S02
11700,0.08976602161474985,-0.08159453062483206,10.14683776772606,-4.079884279466074,-0.872356108558157,0.4661789033540833,29.631339874600467,-16.549458786817386,37.920155198618225,0,S02
11720,0.10593546613361149,-0.08254509931565451,10.158446896515587,-3.9346225856310286,-0.7837081580987607,0.28361770347658044,30.018352789359234,-16.933893426634352,37.25678745288085,0,S02
11740,0.09798220536336834,-0.0807935982051431,10.14658309276669,-4.599257023391558,-1.0265235418354652,1.1041026405265004,30.372368288764743,-17.199955713243188,38.32875287743766,0,S02
11760,0.09469341750421481,-0.072649849514543,10.14826956183682,-4.167677480420833,-1.6613518838767352,0.8556215544123589,30.328739387848366,-17.522123735242147,37.096706624028755,0,S02
11780,0.10472283417364729,-0.07818797614259904,10.150773982507861,-4.187116614366876,-0.8696548483704989,0.5819158208467006,29.954642455412728,-16.83853311404421,37.673284641674186,0,S02
11800,0.09649393362465691,-0.08351917420147266,10.148393982435815,-3.7263250530294045,-1.3851585965940096,0.5595935701493806,30.1131042161634,-16.45400224171047,38.2736997635685,0,S02
11820,0.09821656163489971,-0.08336299113580542,10.14386392042007,-4.711763624472954,-1.3568775274591145,0.5017722130847393,29.228322620381615,-16.851407074177693,38.179281930840645,0,S02
11840,0.09315098064659114,-0.07486117129112246,10.131935803096125,-4.489001712447785,-1.6427607768869592,0.8231421918237349,29.977357428811054,-16.393582394185863,37.92273429898822,0,S02
11860,0.098263418365325,-0.07610714591645777,10.146811406340824,-3.387451161932246,-1.3736997423448756,1.232187113653126,29.572563889799515,-16.883020368038498,39.118807913599674,0,S02
11880,0.10833519818594559,-0.080444692422456,10.145398274262332,-4.437058971335775,-1.2715763894801067,0.36946337640229066,29.711632145088867,-16.607148262987987,38.197168690968006,0,S02
11900,0.10310750855149775,-0.08776219996431714,10.14955013855868,-4.279873820769793,-0.9274424317830057,0.10080909722288578,30.112485434086807,-16.65771990383466,38.675166091761106,0,S02
11920,0.09906789957333548,-0.0844378650582509,10.143750704793865,-4.674092102816281,-1.1072193893384747,0.8293440893279127,29.955455713966863,-16.2331349393749,38.53610258408526,0,S02
11940,0.10264147498071013,-0.08420274136074547,10.14993335003357,-4.269250312054368,-1.6505260220313724,1.11854289901613,29.22458634873749,-16.70547572151719,37.66279769702338,0,S02
11960,0.10545704426709561,-0.07992333031159715,10.147791430694463,-3.885259347139027,-1.7063811744778168,0.6754101894839085,29.030775444787153,-16.5163627312088,37.270487010589214,0,S02
11980,0.10522393589007256,-0.09239960410841963,10.148790196130323,-4.510046971210798,-1.4054713092167663,0.3612012450937424,29.026662624765553,-15.736195808921421,38.66129598575692,0,S02
12000,0.10264455372854125,-0.08923484345190394,10.151339914785698,-3.853043206412937,-1.8041615715962502,0.4762142349914687,29.965554151921133,-16.844261215881097,38.25430083983215,0,S02
12020,0.09815221623469285,-0.0866543270758984,10.141937052012686,-4.028150388246701,-0.8817695374530364,0.7630959352662137,29.262149478337708,-16.988470227407944,38.351307698945355,0,S02
12040,0.10295181531503697,-0.08509770124330547,10.144670867548117,-3.921241704404314,-1.2110262755699852,0.42814511608376404,29.7569125436928,-16.87998139557636,37.97609544324842,0,S02
12060,0.10181176175812719,-0.08723749304942162,10.147361140988986,-4.059072866855671,-1.2780841604383404,0.20885474668494713,29.7888362129561,-16.477490001815717,37.193621949958036,0,S02
12080,0.1067168702817396,-0.08633002741719871,10.147816407594858,-4.385589720677159,-0.7082481909460252,0.27682664359391795,29.50413591618796,-15.83713471432106,37.796943165799526,0,S02
12100,0.11103260307479096,-0.07706575244316535,10.151229924538073,-3.988093106844886,-1.043499939269908,-0.027394737740720543,29.52518956455711,-16.908014293410435,38.9752698520345,0,S02
12120,0.09885421777499076,-0.08829956181818696,10.144889678573968,-4.125984841791965,-1.3992901707263625,0.25692102462220706,29.409691946761235,-16.291849343043857,37.77169732572657,0,S02
12140,0.10577306062148337,-0.08366840184284084,10.156072491417678,-3.9520112373552396,-0.7924042916464467,0.4407531629185112,29.60667024061116,-17.098392595167898,37.90788124780031,0,S02
12160,0.09889074965725883,-0.08526302317308959,10.137932116569418,-4.078013596193834,-1.2375725224800567,0.4243359785830482,29.711018484847123,-16.25736505393604,37.52249665605004,0,S02
12180,0.10317615557686176,-0.08998593990600098,10.148973983610125,-4.589822458052551,-1.499289564158475,0.511329316365279,29.949322067180944,-16.984789819748453,37.980655780734644,0,S02
12200,0.09697974928271223,-0.08998489489520005,10.142020149088639,-4.749531115788886,-1.0415140494424635,0.4591450252992946,29.960558971174308,-16.845224963142506,37.917367702988045,0,S02
12220,0.09690093885088086,-0.08632970118432078,10.145892146699603,-4.361745103525483,-0.9696182800146541,0.4123075535160148,28.91740338586398,-16.319559145444877,38.256606838907636,0,S02
12240,0.09647866185157751,-0.09519663302503381,10.134550991908634,-4.155144845288616,-0.9177417223712259,0.9029109194913392,29.517456024832107,-16.669311695195532,38.425521111189276,0,S02
12260,0.09132372100897192,-0.08848541623905698,10.136746456439548,-4.233397985327067,-1.3135430570259572,0.5084789530761182,29.205868052911157,-16.59491447553253,37.98009205038269,0,S02
12280,0.0966055970744313,-0.08856220382113209,10.141205580020522,-3.935267147045314,-1.2698245241522184,0.9130184057903079,29.91764643025115,-15.303256076401526,37.81686649099393,0,S02
12300,0.09825930635223049,-0.0869119106915167,10.147418527339983,-3.8854408100290976,-1.359563770807753,1.167297646986906,29.640315525737368,-17.342359220698857,38.17224093765115,0,S02
12320,0.10161743006542737,-0.08789187247705404,10.14386357584583,-4.537003049184855,-1.01985024492519,0.9963777012174653,29.16663340545593,-16.681933863051796,37.751423523835534,0,S02
12340,0.09497646584850976,-0.0891538237194417,10.147905284112719,-3.8034208410332004,-1.0584073050550895,0.7439963193265182,29.214632195849696,-16.446839547474653,38.03342082798155,0,S02
12360,0.10114515624667136,-0.08182764055707964,10.144311392602216,-4.096777421969264,-0.9268236137344619,0.5070638915171162,29.946226798682343,-16.41863543400744,37.66344993571586,0,S02
12380,0.09817941989124401,-0.08555015575484329,10.152390288701602,-4.0898980799780125,-1.4237426062455942,0.15377716518662032,29.809161998375092,-15.852860415608372,37.87905683893229,0,S02
12400,0.09607726034065182,-0.08994397160421344,10.15889559115176,-3.662477736200732,-1.410394146075049,1.1578366015358246,29.70608764446855,-16.94693286688554,38.7795888774369,0,S02
12420,0.10037329005227398,-0.09475466741000549,10.144329985159205,-4.450015093256934,-0.928330635037051,0.07542946081000224,29.63059733672138,-16.308022696351923,38.22239539722971,0,S02
12440,0.10819915274267257,-0.0836492435216724,10.143127178944177,-4.261862375264816,-1.5361920946831464,1.0546058355532426,29.753245251448185,-16.679797638485475,38.28702011010942,0,S02
12460,0.10504931086196503,-0.08826223190283625,10.143554373963543,-4.311554588699018,-1.439284058512981,0.35398749056632495,29.61305012195658,-16.742929938916504,38.46919017635799,0,S02
12480,0.10550286034110651,-0.09127224093929744,10.148947162875507,-4.016316188298067,-1.4090473872417175,0.20823457043999738,30.125453163646323,-16.014478863012247,38.73328450089021,0,S02
12500,0.10619108627251139,-0.09314222929590026,10.148266340168027,-3.978978667236802,-0.7207660728664135,0.4934574867820739,29.699592266649713,-16.398006312381106,37.930044061092794,0,S02
12520,0.09906793629031782,-0.09070215154868361,10.144969952804303,-4.551536002495902,-1.163436539685957,0.23264871790099856,29.813257031365918,-16.668685128422766,38.24200320750757,0,S02
12540,0.09822600504722032,-0.09539240078368894,10.14313158744671,-4.150308756637235,-1.5037781204632754,1.1741754911078668,29.791674528978227,-16.952557261695254,37.902997627704025,0,S02
12560,0.09755794415731926,-0.08734256692688608,10.144008164918091,-4.540180537328975,-1.4826352036254962,1.0276120122956676,29.43662700595433,-16.287585019586047,38.197344268502704,0,S02
12580,0.10239297099159793,-0.08630863158691768,10.154625158412346,-4.181695410725551,-0.5635737998424288,0.30693700511395006,29.39149810016126,-15.812993948954366,38.06555003899923,0,S02
12600,0.10262516419538566,-0.09330215730716848,10.148625438834635,-3.5434747141484753,-0.7515792240253732,0.9268375680654508,29.357321897259656,-15.565246329418995,38.59662311023828,0,S02
12620,0.1045976584977351,-0.08343568689648924,10.145242357416391,-4.925532644379368,-0.9221346105234945,0.7535426412912076,29.70247399040064,-16.326620655638642,38.00773600033278,0,S02
12640,0.09492701197870651,-0.08254956847094033,10.151862063415548,-4.411723985122161,-1.3308536969275162,1.0029415494653622,28.658287915108676,-16.700240724594885,38.21652961282863,0,S02
12660,0.09354638735693924,-0.09022546003356785,10.146814165249427,-4.3825054778721775,-1.116975375785551,0.6705109240633547,29.16747349894161,-16.49238767347785,37.23361338276633,0,S02
12680,0.10320339187165768,-0.08593824098410274,10.13926384511716,-3.742126293222378,-1.5354968047633903,0.41479495041467374,29.937906771940824,-16.707567935847216,37.47290560481846,0,S02
12700,0.1058859001615796,-0.08426435343699905,10.14529179518751,-4.463928149721752,-1.2797798837616083,0.4831104093927979,29.615699499482094,-15.84874566662782,38.394838757616306,0,S02
12720,0.1003637853380235,-0.07455736908733127,10.139792840295444,-3.9121090574116955,-0.8674719621178886,0.21089189277960207,30.23709167029965,-15.370305805147424,38.76408913100895,0,S02
12740,0.1020566927781183,-0.08391306412592123,10.150939235978441,-4.434942033523663,-1.4460736556003084,0.5169147804509632,29.69099585006897,-16.694283505400954,37.83771134124597,0,S02
12760,0.10231335776725392,-0.09229555970110312,10.141353207544755,-3.9677293490997263,-0.831473432864763,-0.15994932915869564,29.26034416236658,-15.99883656753436,38.017186040653776,0,S02
12780,0.1019213979893939,-0.08243256488647448,10.143488767990867,-4.385729110120694,-1.1866035538923643,-0.11361699383514356,29.79157613531121,-16.846120819000397,38.402201954603015,0,S02
12800,0.10749224905428052,-0.08349487600263406,10.145131729033759,-4.498347845263222,-1.639767623626296,1.1150073480239753,29.785451375892944,-16.572604210673973,38.670352957370696,0,S02
12820,0.10405337407094473,-0.08595757370992203,10.145052249901156,-3.9351464558767653,-0.7294073485884898,0.7826027868908927,29.605064858304647,-16.465218299663043,38.109246670440584,0,S02
12840,0.09544689391941258,-0.0780465124861058,10.149231749331012,-3.934077721813076,-1.0563458424211007,1.1666888225251708,30.043087468229274,-16.675170139781162,37.93181923382538,0,S02
12860,0.09221136844425212,-0.08156135032197008,10.142110276831271,-4.320194876632764,-1.236506559182279,0.5344403003909217,29.670732171636903,-17.12135098808471,38.636451438163995,0,S02
12880,0.09333227890590921,-0.08352211219105898,10.14781409198851,-4.320520111360432,-1.75593187159661,0.0607970546659915,29.293395267263897,-16.34708448904273,38.65751638691803,0,S02
12900,0.09957585992765416,-0.0789423306789333,10.152097110313647,-4.470727516935187,-1.4197250277436688,0.7383257280061872,29.882010041086822,-16.882671520994222,37.767697996254704,0,S02
12920,0.095714996382609,-0.08029725465648258,10.145756821951888,-4.203424168157809,-1.1493035705165475,0.6108641016710802,29.42131439117845,-16.69830786735944,38.09729383606198,0,S02
