timestamp,ax,ay,az,gx,gy,gz,mx,my,mz,label,subject_id
0,0.1,-0.07,10.145759109311742,-4.2,-1.2,0.6,30.345665094251792,-16.6284508339832,38.1358620244358,6,S02
20,0.1,-0.07,10.145759109311742,-4.2,-1.2,0.6,29.658407673052782,-17.38448161693907,38.71663834683782,6,S02
40,0.1,-0.07,10.145759109311742,-4.2,-1.2,0.6,29.918354308164375,-15.732415838623766,38.51040791223944,6,S02
60,0.1,-0.07,10.145759109311742,-4.2,-1.2,0.6,29.50824802124503,-16.264941607870334,38.61967545696763,6,S02
80,0.1,-0.07,10.145759109311742,-4.2,-1.2,0.6,30.03222902509714,-16.97686500932131,38.09538792466644,6,S02
100,0.1,-0.07,10.145759109311742,-4.2,-1.2,0.6,29.75659999943073,-17.236173647084733,37.002811046762055,6,S02
120,0.1,-0.07,10.145759109311742,-4.2,-1.2,0.6,29.395497696242458,-16.75417206139953,38.27101297372199,6,S02
140,0.1,-0.07,10.145759109311742,-4.2,-1.2,0.6,29.68340278296199,-17.074201545508643,38.13793246036652,6,S02
160,0.1,-0.07,10.145759109311742,-4.2,-1.2,0.6,30.071979182660893,-16.67693611066086,38.07812652239725,6,S02
180,0.1,-0.07,10.145759109311742,-4.2,-1.2,0.6,30.47356487085958,-15.391140588369197,38.61232911780463,6,S02
200,0.1,-0.07,10.145759109311742,-4.2,-1.2,0.6,29.813280583077095,-17.860962179052073,37.943722296648886,6,S02
220,0.1,-0.07,10.145759109311742,-4.2,-1.2,0.6,30.090685305059008,-16.268845248677763,38.37151951790581,6,S02
240,0.1,-0.07,10.145759109311742,-4.2,-1.2,0.6,29.407209319652516,-16.398390603616562,38.12975762338164,6,S02
260,0.1,-0.07,10.145759109311742,-4.2,-1.2,0.6,29.28827840298621,-16.701657584141206,38.577677832257436,6,S02
280,0.1,-0.07,10.145759109311742,-4.2,-1.2,0.6,29.129802018859063,-17.728825548506123,38.830538199653205,6,S02
300,0.1,-0.07,10.145759109311742,-4.2,-1.2,0.6,30.2509528078715,-16.480405449697557,37.84704867635196,6,S02
320,0.1,-0.07,10.145759109311742,-4.2,-1.2,0.6,30.067552619665143,-17.141994225729228,38.45559319379437,6,S02
340,0.1,-0.07,10.145759109311742,-4.2,-1.2,0.6,30.16770645636809,-17.72184063064453,38.02540810048873,6,S02
360,0.1,-0.07,10.145759109311742,-4.2,-1.2,0.6,29.186290012308604,-16.991765586501955,38.67137517207956,6,S02
380,0.1,-0.07,10.145759109311742,-4.2,-1.2,0.6,30.361110325183216,-16.484688981112484,37.556988248410676,6,S02
400,0.1,-0.07,10.145759109311742,-4.2,-1.2,0.6,29.273179272817046,-16.471926218773532,37.87540700234831,6,S02
420,0.1,-0.07,10.145759109311742,-4.2,-1.2,0.6,29.583090978629002,-15.853360242616226,37.58611632177758,6,S02
440,0.1,-0.07,10.145759109311742,-4.2,-1.2,0.6,29.52244901271956,-17.03585685015739,38.231925699382295,6,S02
460,0.1,-0.07,10.145759109311742,-4.2,-1.2,0.6,29.326326584653525,-16.34523151881978,37.863821954963875,6,S02
480,0.1,-0.07,10.145759109311742,-4.2,-1.2,0.6,30.000197265845667,-17.20156882827746,38.527828364390096,6,S02
500,0.1,-0.07,10.145759109311742,-4.2,-1.2,0.6,28.944366452499235,-17.117433833172075,38.15061830501811,6,S02
520,0.1,-0.07,10.145759109311742,-4.2,-1.2,0.6,29.466510184645195,-16.257146109136187,38.50720702057959,6,S02
540,0.1,-0.07,10.145759109311742,-4.2,-1.2,0.6,29.447171943557443,-16.41888804836214,37.71470842852699,6,S02
560,0.1,-0.07,10.145759109311742,-4.2,-1.2,0.6,30.05798900385306,-16.01116680182764,37.682931476503924,6,S02
580,0.1,-0.07,10.145759109311742,-4.2,-1.2,0.6,29.950225068082002,-16.72133890431735,37.915705233471755,6,S02
600,0.1,-0.07,10.145759109311742,-4.2,-1.2,0.6,29.328634218265382,-15.140254879796213,38.31615586452827,6,S02
620,0.1,-0.07,10.145759109311742,-4.2,-1.2,0.6,29.767209125922893,-16.573817416828685,38.26052040068843,6,S02
640,0.1,-0.07,10.145759109311742,-4.2,-1.2,0.6,28.863107802426303,-16.52556539520524,38.12810975828532,6,S02
660,0.1,-0.07,10.145759109311742,-4.2,-1.2,0.6,29.860554855028333,-16.20081702497808,37.866048967818365,6,S02
680,0.1,-0.07,10.145759109311742,-4.2,-1.2,0.6,30.067316845185523,-15.872523055306978,37.72082251331485,6,S02
700,0.1,-0.07,10.145759109311742,-4.2,-1.2,0.6,29.14042849551974,-17.156468803611197,38.03671247257779,6,S02
720,0.1,-0.07,10.145759109311742,-4.2,-1.2,0.6,28.89977938750897,-17.216682161725487,38.1629615443259,6,S02
740,0.1,-0.07,10.145759109311742,-4.2,-1.2,0.6,30.186191868520744,-16.887706714621203,38.2287333927548,6,S02
760,0.1,-0.07,10.145759109311742,-4.2,-1.2,0.6,30.034808904987766,-17.01229165537965,38.24195622595173,6,S02
780,0.1,-0.07,10.145759109311742,-4.2,-1.2,0.6,29.425030667625126,-17.607326178866515,37.74704023559771,6,S02
800,0.1,-0.07,10.145759109311742,-4.2,-1.2,0.6,29.907284498013524,-16.714888408656954,38.018556630736555,6,S02
820,0.1,-0.07,10.145759109311742,-4.2,-1.2,0.6,29.475010115634156,-16.521070682925085,38.00418737528939,6,S02
840,0.1,-0.07,10.145759109311742,-4.2,-1.2,0.6,28.711725755513996,-16.424661052641028,38.597041093347144,6,S02
860,0.1,-0.07,10.145759109311742,-4.2,-1.2,0.6,29.80301418950945,-17.565714274948313,39.06731198231228,6,S02
880,0.1,-0.07,10.145759109311742,-4.2,-1.2,0.6,28.74780187257972,-17.056385280256755,37.624862178158104,6,S02
900,0.1,-0.07,10.145759109311742,-4.2,-1.2,0.6,29.99229781458847,-16.72672627736411,38.0371395723164,6,S02
920,0.1,-0.07,10.145759109311742,-4.2,-1.2,0.6,30.236027727419913,-15.745883684367959,37.76137710632897,6,S02
940,0.1,-0.07,10.145759109311742,-4.2,-1.2,0.6,29.48574112054207,-16.67858321634072,38.617295086255865,6,S02
960,0.1,-0.07,10.145759109311742,-4.2,-1.2,0.6,29.46860705618004,-16.496036112989827,38.0913977358154,6,S02
980,0.1,-0.07,10.145759109311742,-4.2,-1.2,0.6,29.693443469460306,-16.08226377847528,37.92371494269492,6,S02
1000,0.1,-0.07,10.145759109311742,-4.2,-1.2,0.6,29.502250077643627,-16.73567762426641,39.16334389855946,6,S02
1020,0.1,-0.07,10.145759109311742,-4.2,-1.2,0.6,29.907248908813482,-17.352111861237013,37.59589034644085,6,S02
1040,0.1,-0.07,10.145759109311742,-4.2,-1.2,0.6,29.559112081988875,-17.482006133273,37.68683325224329,6,S02
1060,0.1,-0.07,10.145759109311742,-4.2,-1.2,0.6,29.32641657614185,-15.87735583319495,38.26693503227315,6,S02
1080,0.1,-0.07,10.145759109311742,-4.2,-1.2,0.6,30.266640231607646,-16.896192735794173,38.04766972641486,6,S02
1100,0.1,-0.07,10.145759109311742,-4.2,-1.2,0.6,29.469937120178756,-16.86833897114932,38.18663381709175,6,S02
1120,0.1,-0.07,10.145759109311742,-4.2,-1.2,0.6,30.690285088059458,-15.572177386782565,38.71830766236545,6,S02
1140,0.1,-0.07,10.145759109311742,-4.2,-1.2,0.6,29.466407116956365,-15.908837379231638,38.44776184735426,6,S02
1160,0.1,-0.07,10.145759109311742,-4.2,-1.2,0.6,29.03872859619618,-16.251863486105414,38.72991804766498,6,S02
1180,0.1,-0.07,10.145759109311742,-4.2,-1.2,0.6,28.49644341915923,-15.941047444585331,37.69846815112805,6,S02
1200,0.1,-0.07,10.145759109311742,-4.2,-1.2,0.6,29.405076439368745,-16.88570080144427,38.663693677137765,6,S02
1220,0.1,-0.07,10.145759109311742,-4.2,-1.2,0.6,29.512249255926044,-16.20287559002672,38.58554374202812,6,S02
1240,0.1,-0.07,10.145759109311742,-4.2,-1.2,0.6,29.290635342622114,-16.301797455383635,38.090916797647466,6,S02
1260,0.1,-0.07,10.145759109311742,-4.2,-1.2,0.6,29.73219170496789,-16.699573927170906,37.7143720776012,6,S02
1280,0.1,-0.07,10.145759109311742,-4.2,-1.2,0.6,28.828498585524436,-16.10517416389058,38.609415212662604,6,S02
1300,0.1,-0.07,10.145759109311742,-4.2,-1.2,0.6,29.37432887345061,-16.690616183439843,37.817305765219984,6,S02
1320,0.1,-0.07,10.145759109311742,-4.2,-1.2,0.6,30.087641322306517,-16.02059108208859,37.89813410776172,6,S02
1340,0.1,-0.07,10.145759109311742,-4.2,-1.2,0.6,29.421308423665696,-16.857857763911948,38.34582921511053,6,S02
1360,0.1,-0.07,10.145759109311742,-4.2,-1.2,0.6,29.74991419148931,-16.028312499350342,38.100887456809424,6,S02
1380,0.1,-0.07,10.145759109311742,-4.2,-1.2,0.6,29.380279729957795,-16.331490056591512,38.46376147970504,6,S02
1400,0.1,-0.07,10.145759109311742,-4.2,-1.2,0.6,29.61870701443079,-16.81742998469332,37.472317281809595,6,S02
1420,0.1,-0.07,10.145759109311742,-4.2,-1.2,0.6,29.09193220478564,-15.80366983392085,38.35113226404764,6,S02
1440,0.1,-0.07,10.145759109311742,-4.2,-1.2,0.6,28.746878162312704,-16.639378001227733,37.92408206221999,6,S02
1460,0.1,-0.07,10.145759109311742,-4.2,-1.2,0.6,29.715796634839556,-17.52951063483384,37.90068807158965,6,S02
1480,0.1,-0.07,10.145759109311742,-4.2,-1.2,0.6,28.74235498871664,-16.623628777807102,38.1435319141897,6,S02
1500,0.1,-0.07,10.145759109311742,-4.2,-1.2,0.6,30.06222680566477,-16.6319145735717,37.65303728473293,6,S02
1520,0.1,-0.07,10.145759109311742,-4.2,-1.2,0.6,30.05757783729852,-16.024837575703977,38.24663625556156,6,S02
1540,0.1,-0.07,10.145759109311742,-4.2,-1.2,0.6,29.84652757685535,-16.73830254761463,38.072927003713914,6,S02
1560,0.1,-0.07,10.145759109311742,-4.2,-1.2,0.6,29.05480912496967,-16.91158281540735,37.456028801179535,6,S02
1580,0.1,-0.07,10.145759109311742,-4.2,-1.2,0.6,29.801920681533346,-16.00992623710251,38.14299329087759,6,S02
1600,0.1,-0.07,10.145759109311742,-4.2,-1.2,0.6,30.10701749474484,-17.185992433551764,38.64917877716785,6,S02
1620,0.1,-0.07,10.145759109311742,-4.2,-1.2,0.6,29.314223759809373,-16.380766522130354,37.80860294670816,6,S02
1640,0.1,-0.07,10.145759109311742,-4.2,-1.2,0.6,30.484624338173024,-16.472065166890033,37.18090641163428,6,S02
1660,0.1,-0.07,10.145759109311742,-4.2,-1.2,0.6,29.698771455825227,-16.603382391257483,38.07421055035345,6,S02
1680,0.1,-0.07,10.145759109311742,-4.2,-1.2,0.6,29.28170196031499,-17.057182300053853,37.90253855025797,6,S02
1700,0.1,-0.07,10.145759109311742,-4.2,-1.2,0.6,29.21012459079215,-15.97892278541672,38.82369960968319,6,S02
1720,0.1,-0.07,10.145759109311742,-4.2,-1.2,0.6,29.791403399477996,-16.473064025541724,37.98976152233976,6,S02
1740,0.1,-0.07,10.145759109311742,-4.2,-1.2,0.6,29.41758472084384,-16.095411576882785,37.77726988984365,6,S02
1760,0.1,-0.07,10.145759109311742,-4.2,-1.2,0.6,29.83422675505244,-17.19657357731695,38.514297822206586,6,S02
1780,0.1,-0.07,10.145759109311742,-4.2,-1.2,0.6,30.186267877238013,-16.336214679341886,37.67649905329075,6,S02
1800,0.1,-0.07,10.145759109311742,-4.2,-1.2,0.6,29.162726967509585,-15.573806976372909,37.34806622778517,6,S02
1820,0.1,-0.07,10.145759109311742,-4.2,-1.2,0.6,30.028560623102962,-16.771981119019188,37.89483428190245,6,S02
1840,0.1,-0.07,10.145759109311742,-4.2,-1.2,0.6,29.8338121378665,-16.72715753518997,38.195797350671455,6,S02
1860,0.1,-0.07,10.145759109311742,-4.2,-1.2,0.6,28.910783131918542,-16.429072763980265,38.05729922446442,6,S02
1880,0.1,-0.07,10.145759109311742,-4.2,-1.2,0.6,29.007858961607656,-16.305086825241226,37.85615548356743,6,S02
1900,0.1,-0.07,10.145759109311742,-4.2,-1.2,0.6,30.438692099152075,-15.881746333040843,37.45474081755532,6,S02
1920,0.1,-0.07,10.145759109311742,-4.2,-1.2,0.6,29.680440878087683,-16.52787426673672,37.94201993703782,6,S02
1940,0.1,-0.07,10.145759109311742,-4.2,-1.2,0.6,28.679989411359934,-16.36498861401109,37.674499068682884,6,S02
1960,0.1,-0.07,10.145759109311742,-4.2,-1.2,0.6,29.974168711854,-16.815122299663038,38.25049823640279,6,S02
1980,0.1,-0.07,10.145759109311742,-4.2,-1.2,0.6,29.0562976205639,-17.06571468559537,38.158154178966235,6,S02
2000,0.1,-0.07,10.145759109311742,-4.2,-1.2,0.6,28.776178929392955,-16.363379510049008,38.10176819002662,6,S02
2020,0.1,-0.07,10.145759109311742,-4.2,-1.2,0.6,30.21821547959096,-16.019078852331887,37.875186037243985,6,S02
2040,0.1,-0.07,10.145759109311742,-4.2,-1.2,0.6,29.44974998546998,-16.17138175292027,37.30807377266696,6,S02
2060,0.1,-0.07,10.145759109311742,-4.2,-1.2,0.6,30.009351294810696,-16.57061308177751,38.18009817362353,6,S02
2080,0.1,-0.07,10.145759109311742,-4.2,-1.2,0.6,29.163108560020447,-16.2954050492308,38.34039354226808,6,S02
2100,0.1,-0.07,10.145759109311742,-4.2,-1.2,0.6,29.54464977114156,-17.49606198144388,37.771632855715865,6,S02
2120,0.1,-0.07,10.145759109311742,-4.2,-1.2,0.6,29.53456295140517,-17.828495269215516,38.100866528408396,6,S02
2140,0.1,-0.07,10.145759109311742,-4.2,-1.2,0.6,30.32075576588666,-16.66463923495072,38.60590648469155,6,S02
2160,0.1,-0.07,10.145759109311742,-4.2,-1.2,0.6,29.924991261384378,-17.1131820984017,37.08492382076989,6,S02
2180,0.1,-0.07,10.145759109311742,-4.2,-1.2,0.6,30.317533987655754,-16.049465406086636,38.55988248810049,6,S02
2200,0.1,-0.07,10.145759109311742,-4.2,-1.2,0.6,29.246468521605916,-15.423699922404916,38.63284995414315,6,S02
2220,0.1,-0.07,10.145759109311742,-4.2,-1.2,0.6,28.98690854261356,-15.70924240222637,38.60101384583479,6,S02
2240,0.1,-0.07,10.145759109311742,-4.2,-1.2,0.6,29.519852895132537,-16.129265258527344,38.588695210052,6,S02
2260,0.1,-0.07,10.145759109311742,-4.2,-1.2,0.6,29.481264646219504,-17.17670048105476,38.182395753732166,6,S02
2280,0.1,-0.07,10.145759109311742,-4.2,-1.2,0.6,30.38283423032414,-16.971193395291703,37.9989047196577,6,S02
2300,0.1,-0.07,10.145759109311742,-4.2,-1.2,0.6,30.116094742306952,-16.56497962054894,38.516962774246295,6,S02
2320,0.1,-0.07,10.145759109311742,-4.2,-1.2,0.6,30.047602897648403,-16.715215371164437,37.794860637886565,6,S02
2340,0.1,-0.07,10.145759109311742,-4.2,-1.2,0.6,29.400851873691984,-17.811830508073484,37.538607733971,6,S02
2360,0.1,-0.07,10.145759109311742,-4.2,-1.2,0.6,29.670389872045604,-16.71610128214933,37.89575706408667,6,S02
2380,0.1,-0.07,10.145759109311742,-4.2,-1.2,0.6,28.756053252905446,-15.898581224471657,38.4300384182586,6,S02
2400,0.1,-0.07,10.145759109311742,-4.2,-1.2,0.6,29.441231172162283,-16.200505784868675,38.306933051447295,6,S02
2420,0.1,-0.07,10.145759109311742,-4.2,-1.2,0.6,29.88024437621547,-16.09845035182763,37.66801049094657,6,S02
2440,0.1,-0.07,10.145759109311742,-4.2,-1.2,0.6,30.442016519696953,-16.824618609120016,38.21526634277776,6,S02
2460,0.1,-0.07,10.145759109311742,-4.2,-1.2,0.6,28.756633586966174,-16.405284542085276,37.85146827929091,6,S02
2480,0.1,-0.07,10.145759109311742,-4.2,-1.2,0.6,28.73514749541669,-16.705540897153664,38.541094312310534,6,S02
2500,0.1,-0.07,10.145759109311742,-4.2,-1.2,0.6,30.243423650035158,-16.848572970227853,38.6510693523925,6,S02
2520,0.1,-0.07,10.145759109311742,-4.2,-1.2,0.6,29.35796448813864,-16.592236575814944,38.462502953019076,6,S02
2540,0.1,-0.07,10.145759109311742,-4.2,-1.2,0.6,29.82667861946127,-16.618438975180105,38.29611238281001,6,S02
2560,0.1,-0.07,10.145759109311742,-4.2,-1.2,0.6,29.708596898208878,-16.409625025135497,37.42915116808997,6,S02
2580,0.1,-0.07,10.145759109311742,-4.2,-1.2,0.6,29.04414861722294,-16.88114188086999,37.944920343481506,6,S02
2600,0.1,-0.07,10.145759109311742,-4.2,-1.2,0.6,29.714199123491497,-17.770147373971895,37.698756513496996,6,S02
2620,0.1,-0.07,10.145759109311742,-4.2,-1.2,0.6,28.7538705508412,-16.758381430042867,38.02871758465928,6,S02
2640,0.1,-0.07,10.145759109311742,-4.2,-1.2,0.6,30.26069699156979,-16.122818194390995,37.89846561607713,6,S02
2660,0.1,-0.07,10.145759109311742,-4.2,-1.2,0.6,29.903235087458008,-15.923819341007501,38.79523244670687,6,S02
2680,0.1,-0.07,10.145759109311742,-4.2,-1.2,0.6,28.96894958370236,-15.872853379740821,38.55074670837984,6,S02
2700,0.1,-0.07,10.145759109311742,-4.2,-1.2,0.6,29.667519384735556,-16.297787771646497,37.87100626618572,6,S02
2720,0.1,-0.07,10.145759109311742,-4.2,-1.2,0.6,29.707448462852323,-16.755987141555384,38.122453645437005,6,S02
2740,0.1,-0.07,10.145759109311742,-4.2,-1.2,0.6,29.882547525711196,-17.4056625836686,38.3254507164663,6,S02
2760,0.1,-0.07,10.145759109311742,-4.2,-1.2,0.6,29.354594605984296,-16.39594269633895,37.75332694429173,6,S02
2780,0.1,-0.07,10.145759109311742,-4.2,-1.2,0.6,28.445452492505662,-16.932053379322248,38.397154510634735,6,S02
2800,0.1,-0.07,10.145759109311742,-4.2,-1.2,0.6,29.170801701130518,-17.559925747728524,37.68950432481824,6,S02
2820,0.1,-0.07,10.145759109311742,-4.2,-1.2,0.6,28.75002924510509,-16.47664867280708,37.97473751274473,6,S02
2840,0.1,-0.07,10.145759109311742,-4.2,-1.2,0.6,29.60155027222835,-16.89849158492003,38.50448608840698,6,S02
2860,0.1,-0.07,10.145759109311742,-4.2,-1.2,0.6,29.7978775176356,-16.15360527805989,37.65739514553142,6,S02
2880,0.1,-0.07,10.145759109311742,-4.2,-1.2,0.6,30.341602351728582,-16.26477739707083,38.16724080674039,6,S02
2900,0.1,-0.07,10.145759109311742,-4.2,-1.2,0.6,29.997223759120217,-16.474215858270945,38.13262181921502,6,S02
2920,0.1,-0.07,10.145759109311742,-4.2,-1.2,0.6,29.143594351661932,-16.325967791932513,38.88515269655354,6,S02
2940,0.1,-0.07,10.145759109311742,-4.2,-1.2,0.6,29.62248352561092,-16.168974307829668,38.5045672272817,6,S02
2960,0.1,-0.07,10.145759109311742,-4.2,-1.2,0.6,29.257739460532456,-16.62467808384936,37.31287019751154,6,S02
2980,0.1,-0.07,10.145759109311742,-4.2,-1.2,0.6,29.443400602776187,-16.65157701370981,38.43460510886261,6,S02
3000,2.112072434607646,3.8982539682539685,8.62754048582996,145.8,78.8,0.6,29.272232699381213,-16.454311491032527,37.84446754576115,6,S02
3020,2.0139425040255814,3.7426565045727114,8.7159546554895,137.06468003763732,74.89835396005712,0.6,29.14629694717904,-15.665024032079273,37.74080500657181,6,S02
3040,1.9205984266317093,3.5931601047088724,8.799219984741159,128.83806550757365,71.18699344287676,0.6,29.679510603595343,-16.683215156710318,38.42438607943965,6,S02
3060,1.8318067936117863,3.449525542528403,8.877636318707584,121.0905317116908,67.65663811400462,0.6,29.48913887520249,-16.472224920935897,38.37896932051608,6,S02
3080,1.7473455796337662,3.3115229720881403,8.95148604089086,113.79417915998302,64.29846024623855,0.6,29.50552970330309,-16.468296295021762,37.841166974221686,6,S02
3100,1.6670035876688227,3.1789315598332615,9.02103509005812,106.92273310225768,61.10406264571239,0.6,30.70776653073084,-15.314061296483462,38.284253662909116,6,S02
3120,1.5905799208887685,3.051539131216482,9.086533917908353,100.45144891065465,58.065457654537425,0.6,30.496735064033004,-17.384228746456024,37.78032599030665,6,S02
3140,1.517883480319343,2.929141831173514,9.148218390969044,94.3570229722585,55.17504717749707,0.6,29.19798273994992,-17.835002726073007,38.47739084285176,6,S02
3160,1.448732486993238,2.811543797911472,9.206310639970434,88.61750877092112,52.42560368285115,0.6,30.08148173899143,-16.16629124742169,38.20491735403448,6,S02
3180,1.3829540274079948,2.6985568494882184,9.261019859756088,83.21223785609844,49.81025212974186,0.6,28.98919036189391,-16.464471975630765,38.83212499671332,6,S02
3200,1.32038362115218,2.5900001826811088,9.312543062610285,78.12174541410397,47.32245277701067,0.6,30.095341881180552,-16.84375896739662,37.77228978998945,6,S02
3220,1.2608648096186854,2.48570008366326,9.361065787715033,73.32770017375488,44.95598483043893,0.6,28.910073309723906,-17.118044914327292,37.66910878486619,6,S02
3240,1.2042487647767133,2.3854896500243687,9.406762769291541,68.81283839399575,42.70493088752212,0.6,30.28687254088785,-17.13292940342143,37.406550981925264,6,S02
3260,1.1503939170241773,2.2892085236912476,9.449798565832152,64.56090169578353,40.56366214088128,0.6,29.542764611006454,-16.747821248088616,37.85637284030953,6,S02
3280,1.0991656011899589,2.196702634320694,9.490328152688644,60.55657851436196,38.52682430331276,0.6,29.722387281312564,-16.27359395692543,37.88051245889271,6,S02
3300,1.0504357198008345,2.1078239527540736,9.528497480150913,56.78544896108986,36.589324219281174,0.6,29.577066111783765,-16.37536980765266,38.410895463416736,6,S02
3320,1.0040824227710696,2.0224302541390817,9.56444399902564,53.23393289626681,34.74631712937772,0.6,29.987982208262636,-16.684382209399374,38.11166508816519,6,S02
3340,0.9599898027137358,1.9403848903396408,9.598297155607675,49.889241025961745,32.993194555898135,0.6,29.559783154035586,-17.014450420679516,37.87716866456878,6,S02
3360,0.9180476051118694,1.8615565712697288,9.63017885782651,46.73932884674086,31.32557277924793,0.6,29.500547976869612,-16.159194563315197,37.81565766479326,6,S02
3380,0.878150952624751,1.785819154801227,9.660203914246502,43.77285327244559,29.7392818763601,0.6,29.45664936215509,-16.768505234652693,38.61578152736222,6,S02
3400,0.8402000828399242,1.7130514449096093,9.688480447501718,40.979131786830315,28.230355293715387,0.6,29.160113833159862,-17.185487314628258,38.17212384063402,6,S02
3420,0.8041000988152018,1.6431369977344432,9.715110283654194,38.348103974965554,26.795019928892426,0.6,30.254238840394944,-16.0171038790948,38.071025589401195,6,S02
3440,0.7697607317868803,1.5759639352443704,9.740189318877759,35.87029529487755,25.429686695846364,0.6,29.439141531027996,-16.274813628626248,37.974734049575915,6,S02
3460,0.7370961154508114,1.5114247662083893,9.763807864787818,33.53678295896347,24.130941550324263,0.6,29.06370524631135,-15.916160279228091,38.409296793071626,6,S02
3480,0.7060245712519158,1.4494162141869527,9.786050973660748,31.339163802318264,22.895536952976173,0.6,29.15939608012729,-16.235521730179183,38.018236531622016,6,S02
3500,0.6764684041452517,1.3898390522676283,9.806998744713923,29.269524022264473,21.72038374881521,0.6,30.08226494032751,-16.798683981325922,37.438067132445106,6,S02
3520,0.6483537083179327,1.3325979442808735,9.826726612549447,27.32041068011471,20.602543442721007,0.6,28.803942799289498,-16.180740635885847,37.931794601176804,6,S02
3540,0.6216101823860996,1.2776012922418218,9.845305618800179,25.484804862542198,19.53922085167132,0.6,30.036285452328787,-16.607716508204444,38.28110966639384,6,S02
3560,0.5961709536048421,1.224761089773966,9.86280266795636,23.756096405911496,18.52775711532852,0.6,29.46046487079831,-17.196092644313737,38.927936417829976,6,S02
3580,0.5719724106515044,1.1739927812801798,9.879280768294032,22.12806009254953,17.565623047503813,0.6,29.775884533987583,-17.822363604637047,37.982647662283455,6,S02
3600,0.5489540445642451,1.1252151266357227,9.894799258772895,20.59483323323798,16.650412811874386,0.6,29.88873326032629,-16.69111329699092,36.95354750209656,6,S02
3620,0.5270582974381148,1.0783500711867087,9.909414022720652,19.150894555199596,15.779837906139445,0.6,29.96649613173201,-16.586533199603252,37.88087769727616,6,S02
3640,0.5062304185003127,1.0333226208460085,9.923177689073356,17.791044319552523,14.951721439572431,0.6,29.756777184644058,-16.35047800537891,38.33643452217545,6,S02
3660,0.48641832720473666,0.9900607220867077,9.936139821896418,16.510385596633924,14.163992689660331,0.6,29.279000319765515,-16.184517664805526,38.4034931072253,6,S02
3680,0.4675724830034903,0.9484951466410947,9.948347098868787,15.304306631763886,13.414681924218774,0.6,29.96159989060473,-16.621564910833015,38.30692639612589,6,S02
3700,0.4496457614697086,0.9085593807206607,9.959843479373003,14.168464237947287,12.701915476035612,0.6,29.19878542804032,-16.25011289121779,38.28712430333596,6,S02
3720,0.43259333646194476,0.8701895185798483,9.970670362796463,13.09876815570938,12.023911057726924,0.6,30.021017352949166,-17.198227994996465,38.779947388727706,6,S02
3740,0.41637256803546807,0.8333241602532251,9.980866737613932,12.091366323743696,11.37897330509021,0.6,28.971473014750917,-16.754034770009355,38.600069445538935,6,S02
3760,0.40094289582019127,0.7979043133024395,9.990469321788153,11.142631007330621,10.765489537810806,0.6,30.361941918321417,-17.145969057960585,37.22126862815682,6,S02
3780,0.38626573759861893,0.763873298415733,9.99951269499419,10.249145734573954,10.181925726921088,0.6,30.385030560635478,-16.76337898163061,38.88710533633153,6,S02
3800,0.12664396223985805,6.566416188943186,7.353462684592177,-4.2,-1.2,0.6,29.85386283543051,-16.74055747142657,38.32394169763962,6,S02
3820,0.2439357797000071,6.776754384828717,6.959176866255507,-4.2,-1.2,0.6,29.811128557356103,-16.99902152208647,37.38533234525046,6,S02
3840,-0.0719285880960786,6.583911150985528,6.957317766287377,-4.2,-1.2,0.6,29.68320762899247,-15.582788933607482,37.508242953346965,6,S02
3860,0.11439408779186536,7.026503199324171,6.855456061073331,-4.2,-1.2,0.6,28.80981042758567,-16.800303305576485,37.890315590868475,6,S02
3880,0.3936046097781951,6.566154866751745,7.22527304524379,-4.2,-1.2,0.6,29.573972470050006,-16.354196966715236,36.879127652827755,6,S02
3900,0.21329090490196784,6.844809191365979,7.064919022928341,-4.2,-1.2,0.6,29.53525098045143,-16.877857173661734,37.95088718169183,6,S02
3920,-0.14921647082277698,6.765509829353877,7.323447802821679,-4.2,-1.2,0.6,29.189816212103093,-17.052090617601323,38.59107342402608,6,S02
3940,-0.012186007273678426,6.930429308951177,7.345216304273747,-4.2,-1.2,0.6,29.827940752427303,-16.10034789447957,37.309434068022206,6,S02
3960,0.15645990881149227,6.676215751177538,6.989393269289006,-4.2,-1.2,0.6,29.883571831778347,-16.970279322547874,38.05581275218352,6,S02
3980,0.01356068160468489,7.18833460251387,7.3396222538169225,-4.2,-1.2,0.6,28.92519535108222,-16.604391191915838,39.139982513633186,6,S02
4000,0.1659520653009439,6.744318177330452,7.125651717002734,-4.2,-1.2,0.6,30.463529269120592,-16.096520376439535,37.78054903094777,6,S02
4020,-0.10291864692803449,6.670094181893473,7.202174875889196,-4.2,-1.2,0.6,28.949579468851617,-16.56506724201558,37.98396190419858,6,S02
4040,0.19888515582179145,6.969680677128799,7.266053475264152,-4.2,-1.2,0.6,30.037720806137624,-16.522484763155106,38.253697919634426,6,S02
4060,-0.11271671513085643,6.913948110673366,7.1163959249839515,-4.2,-1.2,0.6,30.29020649422239,-16.115999739851766,36.96348866230933,6,S02
4080,0.3526482388943879,6.687816284828119,7.167683534156569,-4.2,-1.2,0.6,29.685261695852336,-16.8394762024123,38.21058474360883,6,S02
4100,-0.192615164876674,6.688817442436467,6.85498766807541,-4.2,-1.2,0.6,29.28992936326953,-17.66560208940726,38.09612315593758,6,S02
4120,0.07151096722028903,7.071412125605051,7.247225165117367,-4.2,-1.2,0.6,30.083944274764324,-16.742374137017237,38.81900268501239,6,S02
4140,0.08639878158562382,6.487615217716662,6.95581094261826,-4.2,-1.2,0.6,29.665383519022697,-17.405632290151193,38.2539703413327,6,S02
4160,-0.08215687595224608,6.871565830267067,7.273552028060375,-4.2,-1.2,0.6,29.285134981862978,-16.037775585643644,38.02881625867257,6,S02
4180,-0.038420391558467104,6.82771583176019,7.001680387113953,-4.2,-1.2,0.6,29.488684568170115,-16.73008710185347,38.615265825953244,6,S02
4200,0.0274017951350137,6.9403749601387155,7.28384642645714,-4.2,-1.2,0.6,28.915896658565,-16.60325876987849,37.87631161057477,6,S02
4220,0.3399001745451409,6.713077277038579,6.973434304593138,-4.2,-1.2,0.6,28.55545247340501,-16.837147883063373,38.186816762249194,6,S02
4240,-0.27848528523553784,6.827834572108244,7.293452540505336,-4.2,-1.2,0.6,28.835358994510337,-16.620923749713718,37.69752304306304,6,S02
4260,0.14282185719795845,6.557664274657794,7.127734752792213,-4.2,-1.2,0.6,29.14454706213242,-16.23586293788977,38.63352140861645,6,S02
4280,-0.1667296308657942,6.747627524044626,6.768689060688193,-4.2,-1.2,0.6,29.843441048071124,-16.788370709751284,37.29366242643484,6,S02
4300,0.052166833462413895,6.524731134998688,7.357673612934777,-4.2,-1.2,0.6,28.43820834213984,-16.448542900478266,37.95537008129262,6,S02
4320,-0.03848423933620698,6.573508849406269,7.1397485261744364,-4.2,-1.2,0.6,29.14748268359494,-17.361912562878267,38.426866723182464,6,S02
4340,-0.25506338607869483,6.573379799162753,7.070275645193581,-4.2,-1.2,0.6,28.514382534494537,-17.40738534406581,37.83841174270095,6,S02
4360,-0.1760940324899322,6.82574630788349,6.982072645633121,-4.2,-1.2,0.6,30.00803911342434,-16.33037322312428,38.541408392878594,6,S02
4380,0.10181996760049172,6.587384733764916,7.008100510800708,-4.2,-1.2,0.6,30.793319176115205,-16.606202704324936,37.73849416073847,6,S02
4400,0.07345536411585468,6.883829490939593,7.486928175420821,-4.2,-1.2,0.6,28.468162510978516,-15.49055903151213,37.978432269270584,6,S02
4420,0.2937683182367452,6.871887326989921,7.176447120493976,-4.2,-1.2,0.6,29.802801862661116,-16.020376937442034,38.549558300998925,6,S02
4440,0.12605412980160094,6.4159220162131385,7.544164195132899,-4.2,-1.2,0.6,29.572643442068294,-15.811336735505826,39.293672548667395,6,S02
4460,0.13911446613602038,6.764736223075161,7.242841530065318,-4.2,-1.2,0.6,29.888816227565336,-16.312577692147215,38.086895072193386,6,S02
4480,0.06269498292762564,6.491486491988224,7.149777344242539,-4.2,-1.2,0.6,28.533529216175168,-16.321459954889548,38.081861124116166,6,S02
4500,0.31740890031690083,6.9000908553199505,7.330195541371573,-4.2,-1.2,0.6,29.121360920190444,-16.077010382279674,37.95469839681688,6,S02
4520,0.21053269266357638,6.286753673121038,7.446285578958865,-4.2,-1.2,0.6,29.344621737952057,-17.003677489142262,38.542572502582644,6,S02
4540,0.060853687960311466,6.892629752791085,7.069991617078668,-4.2,-1.2,0.6,29.11400487798856,-17.14208720184493,38.25797563716097,6,S02
4560,-0.09843419590369823,6.413498273934478,7.112573439659369,-4.2,-1.2,0.6,28.64842353215442,-16.913804477733045,37.573897149585385,6,S02
4580,0.10859478287455597,6.629244125719279,7.435963877553427,-4.2,-1.2,0.6,29.989205861461823,-17.373375580059985,37.502635824010476,6,S02
4600,-0.012833564956287166,6.6814456220854685,7.115753656315275,-4.2,-1.2,0.6,29.996095069232574,-16.333114479993952,38.10591204447436,6,S02
4620,0.12262335115896085,6.450484442081011,7.116572893306833,-4.2,-1.2,0.6,29.301768515599164,-17.124441777663133,37.699894403723455,6,S02
4640,0.10565965507082577,6.437219119542611,7.203074262175182,-4.2,-1.2,0.6,29.96568604579947,-16.974518056321283,38.38575834413323,6,S02
4660,0.2636619036709158,6.954598178828609,6.902098893315503,-4.2,-1.2,0.6,29.654722606102453,-15.565664190466917,38.14118324575513,6,S02
4680,0.2199850527287298,6.679524888326928,6.9050175238708995,-4.2,-1.2,0.6,29.339476472596502,-17.164498070603962,37.886879510445695,6,S02
4700,0.26358304674778643,6.52029315561291,7.3509182281540015,-4.2,-1.2,0.6,29.92227048977691,-16.09394700455647,38.58680592964684,6,S02
4720,-0.012693633987673938,6.551590715696171,6.8367472713905135,-4.2,-1.2,0.6,29.318667354775457,-16.00763772383094,38.36009966197707,6,S02
4740,-0.0765848699433043,6.8871499933896505,7.699060974289256,-4.2,-1.2,0.6,29.593208014551298,-16.959052411047285,38.48919887558519,6,S02
4760,-0.10969883886908063,6.94381972317995,7.120875451471899,-4.2,-1.2,0.6,28.641385955626937,-16.509837491192265,37.305406432487985,6,S02
4780,-0.18013576331395278,6.7480574870006285,7.416587905259356,-4.2,-1.2,0.6,29.292994144187524,-17.70001863921533,38.20585792182057,6,S02
4800,0.08819214509251694,6.721486519429614,7.166312298611873,-4.2,-1.2,0.6,29.61842719298618,-16.549414261731158,38.19444646954055,6,S02
4820,0.12558021885100135,6.744604413642389,7.15284846377112,-4.2,-1.2,0.6,29.40921224822368,-16.96151592205289,37.84534092198247,6,S02
4840,0.10158281695897982,6.772251092124418,7.195579683570179,-4.2,-1.2,0.6,29.545228377295356,-16.39217885921353,37.76403608510232,6,S02
4860,0.10292334217949567,6.752439879658184,7.156778902382524,-4.2,-1.2,0.6,28.75319896565726,-15.917925923569149,38.40437129649463,6,S02
4880,0.12033429917321169,6.735060594261453,7.162765108881107,-4.2,-1.2,0.6,30.604624665509657,-16.737786363448386,37.952342950445924,6,S02
4900,0.10244103043718479,6.729239903210194,7.172948535067965,-4.2,-1.2,0.6,29.551044642807337,-17.168820744681973,38.071318493488064,6,S02
4920,0.03873614466301583,6.732269251689507,7.153300163993443,-4.2,-1.2,0.6,29.957310961193865,-17.020533490173975,38.20177600864903,6,S02
4940,0.07779695562811001,6.728508675929805,7.149576615225542,-4.2,-1.2,0.6,29.700048967501814,-15.71670944059345,38.618514817365806,6,S02
4960,0.08669370119871367,6.729911917178928,7.159855184819473,-4.2,-1.2,0.6,29.527375701220574,-16.59130785654439,37.98637252452733,6,S02
4980,0.0983184339104467,6.7252112539251545,7.214674077190188,-4.2,-1.2,0.6,29.583358237547063,-17.03933477433992,38.211732112465405,6,S02
5000,0.0704509070006416,6.733716664043294,7.1672589440179255,-4.2,-1.2,0.6,29.267020212132106,-16.580955249363424,38.11425196893679,6,S02
5020,0.09836364872280605,6.761679824737248,7.146936983523806,-4.2,-1.2,0.6,30.219707731677836,-16.751432113284196,37.63395119960673,6,S02
5040,0.08124050957275522,6.775934497432617,7.16839286460721,-4.2,-1.2,0.6,29.30665570081983,-16.805421776003925,38.04589067298208,6,S02
5060,0.06722191510212197,6.774030488952839,7.21991731176452,-4.2,-1.2,0.6,29.2888084092157,-17.021973269149782,38.494998894263865,6,S02
5080,0.12054410829437877,6.737969397467199,7.164189066574889,-4.2,-1.2,0.6,29.873103013585236,-16.442262237963106,38.24221213914093,6,S02
5100,0.11193546997352477,6.740108123005121,7.182977943112216,-4.2,-1.2,0.6,29.40378406647947,-16.38760183351192,37.60742121725717,6,S02
5120,0.10936449552124727,6.731810024708126,7.156186937934069,-4.2,-1.2,0.6,29.38214795921953,-16.48526455841284,38.45314071004914,6,S02
5140,0.14169335276936226,6.7431986435537,7.157886222745706,-4.2,-1.2,0.6,28.960727052088277,-17.480133656390798,38.120673271270384,6,S02
5160,0.10731162362465699,6.732476380593292,7.146486049809805,-4.2,-1.2,0.6,30.117223367161046,-16.559221399134664,38.904056866352825,6,S02
5180,0.10936990913374584,6.7167757972237245,7.143558035443698,-4.2,-1.2,0.6,30.136092431482417,-17.149440626327284,37.361389074784185,6,S02
5200,0.08891087964937232,6.735298889881897,7.1971108421641175,-4.2,-1.2,0.6,28.32797421546322,-16.804531346197155,37.722845908167315,6,S02
5220,0.05228646515969014,6.766547393943623,7.1649693258849005,-4.2,-1.2,0.6,29.731247652885347,-16.567001110738534,38.96200960283278,6,S02
5240,0.11597208612569561,6.7061603389381155,7.191880679547771,-4.2,-1.2,0.6,29.786056044567886,-16.25493269458527,38.05102720932785,6,S02
5260,0.09841025011431868,6.722539651817672,7.154392993762182,-4.2,-1.2,0.6,29.517606661253467,-16.438959519820532,38.25528023161454,6,S02
5280,0.10111506807893625,6.714111108286715,7.193348616967659,-4.2,-1.2,0.6,28.74085490989708,-15.900355581251823,38.930756444560174,6,S02
5300,0.10099213642845668,6.748199632967909,7.1857068942121645,-4.2,-1.2,0.6,28.8320532834297,-16.402217957794353,38.96802143903278,6,S02
5320,0.13283543994350672,6.745082497175133,7.183102454061663,-4.2,-1.2,0.6,29.117891129154497,-15.702819203994876,38.42369977728286,6,S02
5340,0.08330096091225765,6.7398037628075915,7.15791547417842,-4.2,-1.2,0.6,29.070496775854174,-16.667132858478396,38.87780848397728,6,S02
5360,0.11774044427871592,6.730674971837305,7.172845778567487,-4.2,-1.2,0.6,29.463708145413598,-16.60457986560072,37.214369959759665,6,S02
5380,0.08921188118022627,6.757643884252859,7.158482748249301,-4.2,-1.2,0.6,29.866236310885526,-17.086436994511047,38.5442195712215,6,S02
5400,0.09048228131286074,6.747548629600838,7.165175400233593,-4.2,-1.2,0.6,29.24326807624943,-16.0766060381996,37.66565698160547,6,S02
5420,0.1297887144081992,6.7185548812722775,7.165255546310731,-4.2,-1.2,0.6,29.458592073002936,-16.38945864997241,38.200904262863986,6,S02
5440,0.0920671827450587,6.781276221554349,7.137509689333956,-4.2,-1.2,0.6,30.085372042573375,-17.270314159766585,39.0694053397252,6,S02
5460,0.10313691724275238,6.762796406465695,7.130609400776878,-4.2,-1.2,0.6,29.35331171221813,-16.501904556042053,38.29803134485764,6,S02
5480,0.14070582716909083,6.734374494911343,7.161567528639973,-4.2,-1.2,0.6,29.950278383625168,-16.445376494377243,38.04954903719564,6,S02
5500,0.09502003309785173,6.715189614667961,7.173945579454476,-4.2,-1.2,0.6,30.050608843372817,-16.375280370698384,37.71657343218522,6,S02
5520,0.122715887825094,6.710944365670008,7.160694458401163,-4.2,-1.2,0.6,29.78015726504284,-17.371113041802296,38.41855983788328,6,S02
5540,0.13396378329179348,6.733580989427442,7.158047011876688,-4.2,-1.2,0.6,29.604755562173825,-15.683478936716128,37.948880908315225,6,S02
5560,0.11611960152970972,6.739620831663015,7.192799789213417,-4.2,-1.2,0.6,30.07615826628065,-16.319232069294845,38.639227289187374,6,S02
5580,0.05245647243717702,6.7170202715699325,7.173958171760704,-4.2,-1.2,0.6,29.79466196151791,-16.09276391097786,38.24271101574598,6,S02
5600,0.08036197902469464,6.75941627525881,7.155414353930505,-4.2,-1.2,0.6,29.552326761824872,-16.29759467100859,38.735905179732775,6,S02
5620,0.07883080732361766,6.72165868739288,7.178906308708752,-4.2,-1.2,0.6,28.92524778938418,-16.327319229465267,37.29244066002145,6,S02
5640,0.11902327712347742,6.732742055791158,7.180838500795604,-4.2,-1.2,0.6,29.484697048281763,-15.426478155645048,37.94334170775284,6,S02
5660,0.11164316064129874,6.738678168840489,7.1931901483987115,-4.2,-1.2,0.6,29.521594771294076,-16.335980437689035,38.77890647540189,6,S02
5680,0.09574427409843882,6.73295594476154,7.145569840578189,-4.2,-1.2,0.6,28.94431563365959,-16.725220488600705,36.91134051393193,6,S02
5700,0.07504262869512096,6.74075670520768,7.1893269352629545,-4.2,-1.2,0.6,29.414407951388874,-17.137554394184797,37.40428034773094,6,S02
5720,0.08370373967997492,6.713417274914779,7.159476817337241,-4.2,-1.2,0.6,28.841716053694515,-16.620469120106282,38.6481211073559,6,S02
5740,0.08250197058513031,6.746329347052299,7.189978438995131,-4.2,-1.2,0.6,29.260659501209492,-16.21968694555915,37.69508818816086,6,S02
5760,0.11561244265630974,6.77773057931524,7.188786748308313,-4.2,-1.2,0.6,29.92785934025177,-16.635861857803636,37.45918509786293,6,S02
5780,0.09412294510435376,6.732397228866699,7.142505197485141,-4.2,-1.2,0.6,29.84770771826523,-16.293071331026376,37.651898435100826,6,S02
5800,0.07323400633248503,6.764683612125521,7.13933338489533,-4.2,-1.2,0.6,30.823867074696196,-16.98820414533647,37.95104804826753,6,S02
5820,0.09419399687077862,6.743012962964807,7.164059758250954,-4.2,-1.2,0.6,29.698497991171557,-15.98878225347055,37.56005487443366,6,S02
5840,0.13558042264652484,6.761015837656322,7.187401759484695,-4.2,-1.2,0.6,29.020231696745896,-16.063712737588325,38.39980669519982,6,S02
5860,0.0939321492478593,6.76205062177566,7.191635313060897,-4.2,-1.2,0.6,29.13076233670592,-17.107683396701738,37.31008965827075,6,S02
5880,0.10820221373101027,6.70028217494022,7.189117731873282,-4.2,-1.2,0.6,29.668586687937065,-16.367512907787884,37.581802819416524,6,S02
5900,0.06300546403245738,6.734871450397256,7.183775873330354,-4.2,-1.2,0.6,29.45158661745207,-16.774883768984377,37.88848006435626,6,S02
5920,0.0944910711157999,6.7414944545490165,7.149917323071248,-4.2,-1.2,0.6,29.655238190599135,-17.113819026838655,38.19738408302035,6,S02
5940,0.08720069677250589,6.748838431659935,7.137482839946805,-4.2,-1.2,0.6,30.25187538988091,-16.598714522869788,37.95513214801975,6,S02
5960,0.07739328782220596,6.72876843279207,7.17774283104705,-4.2,-1.2,0.6,30.86232310033393,-16.056083009707947,38.07603584746198,6,S02
5980,0.08653439385765607,6.710947786286659,7.208149330234572,-4.2,-1.2,0.6,29.422107239403807,-16.543463197499626,36.531665460660314,6,S02
6000,0.11708835112267706,6.735748683899622,7.1493092732240315,-4.2,-1.2,0.6,29.67680802622206,-16.564099833552277,38.00931512383294,6,S02
6020,0.1128389047574803,6.756967253788216,7.174985657237396,-4.2,-1.2,0.6,29.788090100959177,-16.92368120094413,37.93716674517498,6,S02
6040,0.14336745456283528,6.751146008875939,7.172039614534417,-4.2,-1.2,0.6,29.36092878710756,-17.26026085481186,38.57856766169044,6,S02
6060,0.10864931390325772,6.745281590368842,7.166377430788965,-4.2,-1.2,0.6,30.273801754149535,-16.594687753454494,38.79207781858914,6,S02
6080,0.0926063260136867,6.739970437824194,7.151775038148581,-4.2,-1.2,0.6,30.432467786195346,-17.44117457908,38.98129749408561,6,S02
6100,0.11810676708397405,6.750017922910191,7.1682464200901235,-4.2,-1.2,0.6,29.754152942119106,-16.96397287770822,38.927943065614,6,S02
6120,0.14690453552867894,6.743050424493259,7.135473983152891,-4.2,-1.2,0.6,28.86482482853337,-16.669135178319248,38.80533674074176,6,S02
6140,0.10693695742290289,6.743988843769274,7.179680939976843,-4.2,-1.2,0.6,28.81947280318829,-16.577622960945888,37.221315731999546,6,S02
6160,0.1086786199960641,6.764818466101596,7.160155572259801,-4.2,-1.2,0.6,29.333743218924113,-16.4928401276406,37.71716344082152,6,S02
6180,0.09275310796520299,6.760353144856025,7.135745013257218,-4.2,-1.2,0.6,30.355755112747755,-17.39691184704867,38.629482465852675,6,S02
6200,0.13363706974719256,6.718095916683503,7.153752238716615,-4.2,-1.2,0.6,28.998881282995683,-16.07453711318558,38.57976953263421,6,S02
6220,0.08770399047759517,6.754613810599096,7.171829567810068,-4.2,-1.2,0.6,29.118862746823215,-16.137513100835477,37.470710032605716,6,S02
6240,0.09963292694029735,6.72257790115248,7.167013472978777,-4.2,-1.2,0.6,29.09014115718215,-16.569253555931517,38.000100303697685,6,S02
6260,0.07776808004956243,6.769701492973152,7.20771560153678,-4.2,-1.2,0.6,29.351930913076764,-16.543309416318884,38.49969045610182,6,S02
6280,0.09829997656471247,6.730329321239482,7.179985540095088,-4.2,-1.2,0.6,30.28606626126409,-16.995298383626555,37.805796933855355,6,S02
6300,0.07561627849251905,6.735853268570275,7.148390865603486,-4.2,-1.2,0.6,29.24046618619676,-17.128643294961453,38.69252446591898,6,S02
6320,0.11951166432319192,6.743197870284515,7.153476499913162,-4.2,-1.2,0.6,28.923767592473144,-17.703349467571456,38.64343730848713,6,S02
6340,0.1026399742154079,6.7057683700015325,7.196285000139005,-4.2,-1.2,0.6,28.827828364301332,-16.68085935490693,38.62780434557808,6,S02
6360,0.12258873964728936,6.766641668206569,7.158105496449557,-4.2,-1.2,0.6,28.955738730929873,-17.670819189645684,37.888083237714866,6,S02
6380,0.10562643491513399,6.759487150599352,7.168011656193595,-4.2,-1.2,0.6,29.61622601552321,-16.753307348007056,38.655008338603324,6,S02
6400,0.09404158498348195,6.730602977425005,7.153025583821537,-4.2,-1.2,0.6,29.699666893490438,-16.470860087554836,37.981578701653675,6,S02
6420,0.09606698812660504,6.739457590269666,7.175182842557899,-4.2,-1.2,0.6,29.77176668804604,-16.119186994375127,38.889018162973116,6,S02
6440,0.07697547224089758,6.713228731145852,7.177126391842949,-4.2,-1.2,0.6,30.212264786246152,-16.06241368650668,38.15808039695985,6,S02
6460,0.10838998823483563,6.755533368921738,7.205015665604718,-4.2,-1.2,0.6,29.082973795950913,-16.864934973320224,37.43037338507434,6,S02
6480,0.08476505335205381,6.724657518990997,7.188444701661602,-4.2,-1.2,0.6,29.63796347312696,-17.50497713320939,38.27540067867845,6,S02
6500,0.10363561067034806,6.71445348263473,7.180125190915793,-4.2,-1.2,0.6,30.098705308107174,-15.647755456281779,37.83490470260299,6,S02
6520,0.13038330145468324,6.711083069486622,7.169452143793444,-4.2,-1.2,0.6,29.123139517391298,-17.563221762515003,37.46427917837768,6,S02
6540,0.10817464602537841,6.737081587984423,7.198302589447447,-4.2,-1.2,0.6,29.191079121694038,-16.081216048747127,38.38199996288642,6,S02
6560,0.13316844341858575,6.714288048571028,7.134742366167181,-4.2,-1.2,0.6,29.26749030163105,-16.719466311333584,38.84084644681741,6,S02
6580,0.10749473391174641,6.7222351455082405,7.196014438247499,-4.2,-1.2,0.6,29.880522322052755,-17.101862349059168,38.76385467210781,6,S02
6600,0.0930935919664675,6.736723240580466,7.205326891067729,-4.2,-1.2,0.6,29.567271790128817,-17.189892916906103,37.687301518958286,6,S02
6620,0.10371722140299709,6.746870400368214,7.174795749239587,-4.2,-1.2,0.6,29.761201743283774,-16.251040262141444,37.87962583796579,6,S02
6640,0.1035028785720407,6.725558701934529,7.172273820780477,-4.2,-1.2,0.6,29.7311908316044,-17.12313777947525,37.24374249885776,6,S02
6660,0.0995041881346261,6.7684793334715065,7.180907915557078,-4.2,-1.2,0.6,30.046244960974747,-15.506730234196421,38.11498430908829,6,S02
6680,0.10685577632863133,6.696047177266506,7.171845525062782,-4.2,-1.2,0.6,29.412474133566903,-16.38311707140553,38.34849158687746,6,S02
6700,0.09880020159980524,6.734525656818735,7.20126869795144,-4.2,-1.2,0.6,29.0180708806647,-15.951354787183098,38.307701258984274,6,S02
6720,0.09041537684850404,6.756461174234373,7.163759476691997,-4.2,-1.2,0.6,29.49337174119134,-16.05939545298655,38.468706511639624,6,S02
6740,0.1444432899597909,6.765588412530656,7.1852344782960085,-4.2,-1.2,0.6,29.683501999218183,-15.965633036800533,38.72722654227919,6,S02
6760,0.1005172045505555,6.70425250606245,7.221272086642138,-4.2,-1.2,0.6,29.039979243751528,-15.757166095343209,38.50690950587825,6,S02
6780,0.06716299834979944,6.735111038693685,7.162008091989017,-4.2,-1.2,0.6,30.04217950982415,-17.267649612125602,37.94816560147735,6,S02
6800,0.0817220597922065,6.703915222723672,7.163301321912702,-4.2,-1.2,0.6,28.80583117711719,-16.776685960397607,38.255058380595116,6,S02
6820,0.09847411739561752,6.735756605616539,7.124343462484302,-4.2,-1.2,0.6,29.56773096242511,-16.24212203273528,37.18090461358856,6,S02
6840,0.11147749915898586,6.732244562470473,7.173597904296747,-4.2,-1.2,0.6,28.518158104771675,-17.15267811481035,39.26952693684965,6,S02
6860,0.09559520883438774,6.724090317433156,7.178907768658859,-4.2,-1.2,0.6,29.71805740765701,-16.102105707493358,38.04928781256538,6,S02
6880,0.10308762333548967,6.734906629090682,7.162069244386199,-4.2,-1.2,0.6,29.903160423471693,-16.340169707042588,37.89889964141841,6,S02
6900,0.13238042120689072,6.74223558508126,7.1768047563334685,-4.2,-1.2,0.6,29.71767635424516,-16.29394892645532,37.900373006036176,6,S02
6920,0.13660524924933287,6.757944747910423,7.175808733087556,-4.2,-1.2,0.6,29.587797751087507,-17.268353011395906,37.95246660799123,6,S02
6940,0.11893495056892958,6.716736488577182,7.189109931094288,-4.2,-1.2,0.6,29.64893743024726,-16.14045719302148,38.094965495780094,6,S02
6960,0.07972642413744688,6.7521677325654705,7.175993871610467,-4.2,-1.2,0.6,29.520020391414317,-17.02338854798395,38.80506649675638,6,S02
6980,0.07791154558032251,6.74916666108891,7.165697698925975,-4.2,-1.2,0.6,30.05824146852317,-16.618278599947185,37.960576747258024,6,S02
7000,0.15549326418571863,6.743824656895296,7.164532079934515,-4.2,-1.2,0.6,30.870014754385483,-16.84543071820236,38.68215650023909,6,S02
7020,0.07092794973140328,6.739810576150899,7.163269683543353,-4.2,-1.2,0.6,30.386492089761983,-15.985073155871694,37.954596925533444,6,S02
7040,0.1121988459965729,6.71634603678032,7.185032309428733,-4.2,-1.2,0.6,29.201233171581787,-16.654490659128044,37.85690803197279,6,S02
7060,0.08906897003227339,6.749586186775132,7.135440856514902,-4.2,-1.2,0.6,28.810869129846306,-16.515214222843998,36.935275753930995,6,S02
7080,0.0780620288579375,6.73300029200332,7.15201586856463,-4.2,-1.2,0.6,29.86808690427721,-16.877234071788166,38.828379249769576,6,S02
7100,0.06979891645166937,6.763520597605947,7.172956358600907,-4.2,-1.2,0.6,29.654256495265848,-16.374874328639585,38.276968975970654,6,S02
7120,0.09515997958332972,6.761360545213945,7.114239636229259,-4.2,-1.2,0.6,28.974487890295592,-16.672195749373582,37.491544158239854,6,S02
7140,0.11025625643658521,6.725960818817997,7.151542669003873,-4.2,-1.2,0.6,29.302129559091075,-15.846232843351844,37.81126423143231,6,S02
7160,0.11228616624139494,6.7380411890537575,7.165873687386262,-4.2,-1.2,0.6,29.922751629198203,-16.615965204139393,38.52464312428422,6,S02
7180,0.09461330952706976,6.686461305769304,7.164151213713516,-4.2,-1.2,0.6,29.36984129684482,-16.797613291148938,38.1821619872394,6,S02
7200,0.10976528352889926,6.732574549196755,7.164828720360707,-4.2,-1.2,0.6,29.897484089338256,-15.912478712137796,38.340131713722684,6,S02
7220,0.11374901414339968,6.7456016807099495,7.14408286825652,-4.2,-1.2,0.6,29.20426759496525,-15.846444572680399,38.52371274579748,6,S02
7240,0.06855222237082981,6.7310248261251875,7.1729000898295014,-4.2,-1.2,0.6,29.37689365346788,-15.380972703154233,37.83604887294752,6,S02
7260,0.07286849370459526,6.755721554470776,7.169559554389733,-4.2,-1.2,0.6,29.375847105207843,-16.41949824439857,38.00392547533943,6,S02
7280,0.10040626409756824,6.722046117575368,7.172716940383836,-4.2,-1.2,0.6,29.36044764023364,-16.930854129296144,37.27097566701778,6,S02
7300,0.16410900549529334,6.711563545642571,7.174512766859613,-4.2,-1.2,0.6,30.577735858216645,-16.77989900895369,38.83036575373431,6,S02
7320,0.09385072425841898,6.75617179953813,7.192841851513769,-4.2,-1.2,0.6,29.72241353300229,-16.86734954576929,38.08552240206145,6,S02
7340,0.09266329347159837,6.713077558800074,7.115562593539789,-4.2,-1.2,0.6,29.348345537790465,-16.840137320577565,37.83168087243812,6,S02
7360,0.1130088524922384,6.759907332754986,7.149243660472223,-4.2,-1.2,0.6,29.625550476291096,-16.517128981243218,38.87774440200652,6,S02
7380,0.11864234040096867,6.746804980219946,7.213802727519081,-4.2,-1.2,0.6,29.680047413428593,-17.12206268902893,37.70192013779244,6,S02
7400,0.13218056912879964,6.726598505968644,7.179347536716963,-4.2,-1.2,0.6,30.08207141040562,-16.05360081577553,38.819198681233246,6,S02
7420,0.08963325945438898,6.758351123360705,7.180928223628568,-4.2,-1.2,0.6,29.008048682306566,-16.430355265744993,37.89437450005095,6,S02
7440,0.09231279463426104,6.753786250396111,7.135757644555817,-4.2,-1.2,0.6,29.34370924047334,-15.55052252149323,38.11760576244703,6,S02
7460,0.08861372737801793,6.760336112907073,7.178074697962927,-4.2,-1.2,0.6,29.351491469088337,-16.35945928139732,38.40275099737483,6,S02
7480,0.11498357491765013,6.746465418162173,7.165695715742732,-4.2,-1.2,0.6,29.369063290965386,-16.87445171715539,38.047027067462615,6,S02
7500,0.08000713570054534,6.752887400049118,7.1728420775949955,-4.2,-1.2,0.6,28.652491904263425,-16.255411087453503,38.41654205409406,6,S02
7520,0.10737843753223594,6.750391391235818,7.165442186119518,-4.2,-1.2,0.6,29.06308659951681,-16.957944414321712,38.30666553576947,6,S02
7540,0.09760908234906081,6.731671457261772,7.178468695401362,-4.2,-1.2,0.6,30.02376550780127,-17.45696348403269,38.31295784137662,6,S02
7560,0.11184035782390972,6.731941099004431,7.180270501369571,-4.2,-1.2,0.6,29.52265013555713,-17.177112659478396,38.03712567200097,6,S02
7580,0.1008755652807482,6.715367251846671,7.170618413745078,-4.2,-1.2,0.6,29.403643173428797,-15.846483794207582,37.45778167348237,6,S02
7600,0.10314880435013558,6.6920928390887475,7.177785522465906,-4.2,-1.2,0.6,29.740713561907224,-16.83927382069463,38.189229843935244,6,S02
7620,0.12039058013564263,6.727961320441611,7.139151823309716,-4.2,-1.2,0.6,29.73158431629115,-16.6226151643067,38.257486045599094,6,S02
7640,0.107756029192491,6.752310950200526,7.15215306442069,-4.2,-1.2,0.6,29.382793613868014,-17.27045159282396,38.872372592237475,6,S02
7660,0.09287655490220337,6.755419979743046,7.1320642264268646,-4.2,-1.2,0.6,29.321033476075264,-15.660975473495897,38.45123897986325,6,S02
7680,0.1262818359746254,6.751685873201116,7.161428526407719,-4.2,-1.2,0.6,30.26780702824642,-15.98278688315305,38.396057536819555,6,S02
7700,0.13767277214330137,6.717247654340451,7.193623981390134,-4.2,-1.2,0.6,28.996421810214233,-16.84919535297246,37.71710717834081,6,S02
7720,0.10673439497462024,6.736113183935209,7.181454441388022,-4.2,-1.2,0.6,28.852199432194137,-16.013599875261882,38.185612511938565,6,S02
7740,0.0797527749758587,6.718365044346279,7.16886214466031,-4.2,-1.2,0.6,29.400639529151373,-16.89035894007607,38.56427793418483,6,S02
7760,0.07760322724323306,6.7436000200395165,7.142273769379761,-4.2,-1.2,0.6,30.482161707478987,-16.19392967885336,38.18768906145574,6,S02
7780,0.10505573327779424,6.7631871589573676,7.167499755358926,-4.2,-1.2,0.6,30.62126637293148,-17.07410750602011,37.951111686278054,6,S02
7800,0.16778657028030253,6.744445724789441,7.193176723677018,-4.2,-1.2,0.6,29.02657664084419,-17.03785259103146,37.99217418255435,6,S02
7820,0.07685932266789738,6.729616429763149,7.158187672825136,-4.2,-1.2,0.6,28.847009553963545,-17.192737458471825,38.1222646993569,6,S02
7840,0.11014440457098991,6.779204973235398,7.185617362010856,-4.2,-1.2,0.6,29.095077415332998,-16.49648970397177,38.22998523225519,6,S02
7860,0.10926699209788604,6.75345877538767,7.160796822811591,-4.2,-1.2,0.6,30.0738783548731,-16.151365477786456,37.545941063488186,6,S02
7880,0.1198399850658818,6.74894628420558,7.129465437909124,-4.2,-1.2,0.6,28.894229768936633,-16.161970062588697,38.462968807771695,6,S02
7900,0.11244796408601379,6.725895374764646,7.191232926675767,-4.2,-1.2,0.6,30.226190524553306,-16.32872538020605,39.12481475442009,6,S02
7920,0.09931917101206478,6.720062953788457,7.150747476000358,-4.2,-1.2,0.6,29.730781617011345,-16.937225343173132,37.13528545624518,6,S02
7940,0.08812091301095269,6.737454461621541,7.1637561757952115,-4.2,-1.2,0.6,30.281880852079695,-17.188070638023923,38.11701882918131,6,S02
7960,0.08846524723486392,6.722613810038083,7.174092656477319,-4.2,-1.2,0.6,29.62184822474089,-16.098656849909773,38.179700677910766,6,S02
7980,0.1065300494208986,6.749661996994907,7.160501906927286,-4.2,-1.2,0.6,29.610895504284553,-17.37236834897155,38.828841842112205,6,S02
8000,0.12788787268672303,6.723858829123339,7.156546274157544,-4.2,-1.2,0.6,29.25650598455557,-16.50052790841385,37.86395047933963,6,S02
8020,0.08085883447638337,6.721042898701669,7.176992642027169,-4.2,-1.2,0.6,29.114234985156273,-16.380697336802445,38.022930663551136,6,S02
8040,0.0844218231604973,6.733261747375407,7.1667264281600405,-4.2,-1.2,0.6,29.937818701229276,-16.295420579548775,37.69408817639246,6,S02
8060,0.11257970017416441,6.72239494211114,7.148450517301633,-4.2,-1.2,0.6,30.07448805002595,-15.99870904057394,38.201978198616274,6,S02
8080,0.084881824702987,6.754072833233321,7.136664482864962,-4.2,-1.2,0.6,29.354727814365322,-17.08472564077274,37.26849141946875,6,S02
8100,0.11848311855309977,6.728725660231963,7.151546892730807,-4.2,-1.2,0.6,28.820376878509038,-17.713745841685192,38.74977925154434,6,S02
8120,0.08677445362752466,6.734631371706467,7.181864750606087,-4.2,-1.2,0.6,30.581182074797702,-16.120797379105746,39.08805297849281,6,S02
8140,0.11906020225294245,6.745392792252641,7.151261739534638,-4.2,-1.2,0.6,29.69035216564932,-15.678306222339682,38.736418173106465,6,S02
8160,0.11018743187430141,6.744339509092082,7.145668121891523,-4.2,-1.2,0.6,30.075074605273027,-16.075770213980377,38.1183336191179,6,S02
8180,0.10232003538077583,6.755671935820471,7.154582331425219,-4.2,-1.2,0.6,29.987922133658135,-16.846988830339168,36.94466741191731,6,S02
8200,0.10102883185614481,6.736597738179717,7.154722554008544,-4.2,-1.2,0.6,29.594793324426508,-16.51102030003869,37.11739691508741,6,S02
8220,0.09818042264307703,6.7615683197457095,7.160457528501343,-4.2,-1.2,0.6,29.16458597765411,-17.47157856975297,37.80705069362027,6,S02
8240,0.1262375017018377,6.748383741361154,7.147897790598386,-4.2,-1.2,0.6,30.024806085187823,-15.727291913587694,38.55559464542912,6,S02
8260,0.05941905785579442,6.745203023020473,7.171995809288389,-4.2,-1.2,0.6,29.77384608994264,-16.62339978010165,38.40457308480266,6,S02
8280,0.11457149923565325,6.769312902623811,7.180273048653367,-4.2,-1.2,0.6,29.79034458355397,-16.299634689085124,37.6267570698078,6,S02
8300,0.07590045485646112,6.736587073865848,7.1405167086339345,-4.2,-1.2,0.6,29.51088756066784,-17.195675894387996,37.57943453296675,6,S02
8320,0.08794118599946277,6.7228629559572655,7.1971851765980155,-4.2,-1.2,0.6,30.042484353903077,-16.837645158786064,37.867438699909506,6,S02
8340,0.08551025356913232,6.717522978756733,7.1517508720355885,-4.2,-1.2,0.6,29.081815237519244,-17.145241347262598,38.86943984461798,6,S02
8360,0.08612171859005356,6.74422698661499,7.144054600284543,-4.2,-1.2,0.6,29.620902206053938,-16.873155206445084,38.20724872548778,6,S02
8380,0.09400119808249892,6.704460886932329,7.180514164111693,-4.2,-1.2,0.6,29.677580314762324,-16.960923287836117,37.78330745533451,6,S02
8400,0.08647531692959828,6.708005211107763,7.163466312673509,-4.2,-1.2,0.6,29.69057712551446,-15.712976346016667,38.10560624285971,6,S02
8420,0.11723495888560663,6.742678576156518,7.143082966644482,-4.2,-1.2,0.6,29.951136554908004,-16.108633050599742,38.3834317759205,6,S02
8440,0.09282935140912522,6.732024285936535,7.185606028170623,-4.2,-1.2,0.6,29.747993222770152,-16.873449863328453,37.95217202186533,6,S02
8460,0.08527335538632347,6.756956512709893,7.143529829817088,-4.2,-1.2,0.6,28.983487216117897,-15.692685480818685,38.97733156986445,6,S02
8480,0.07271304896098135,6.733419717469195,7.186411779883476,-4.2,-1.2,0.6,29.09445853670856,-15.565427980211997,38.70678208719287,6,S02
8500,0.10936215477553612,6.718580411816454,7.198815857999437,-4.2,-1.2,0.6,29.176807136712434,-16.495512182381514,38.500049216302244,6,S02
8520,0.0740094044120592,6.786006068273994,7.185332911514513,-4.2,-1.2,0.6,29.956743913780006,-17.498510563302716,38.137497116077235,6,S02
8540,0.11908347943508268,6.74776305284221,7.180787430105991,-4.2,-1.2,0.6,30.102391134760154,-17.2141435946357,38.87483782800587,6,S02
8560,0.09201681658229964,6.788388890439227,7.1599295006154655,-4.2,-1.2,0.6,29.879722111295397,-16.803143484656076,37.97072945011402,6,S02
8580,0.08681151609458526,6.7437648576776725,7.185113548164956,-4.2,-1.2,0.6,29.776962364540086,-16.43901515546395,39.17837231904315,6,S02
8600,0.07724471662284517,6.751910042096577,7.162792442855987,-4.2,-1.2,0.6,29.473917974338907,-16.231629810787506,37.83498044611645,6,S02
8620,0.07667103148330022,6.7541719617080265,7.177443837023392,-4.2,-1.2,0.6,30.04970237094672,-15.561702442080957,38.37608324840671,6,S02
8640,0.08761219147287434,6.7629925895761485,7.1941086177710885,-4.2,-1.2,0.6,29.26704386487707,-16.306320337931265,38.6343573532157,6,S02
8660,0.12326017155668106,6.732074432730246,7.163997270937368,-4.2,-1.2,0.6,30.472077620651774,-16.88099358586977,38.49412708986372,6,S02
8680,0.11143098639948269,6.721323042564515,7.162660871757389,-4.2,-1.2,0.6,29.3530098092801,-16.513274496411007,37.87723660189844,6,S02
8700,0.0509436704676841,6.757620201286645,7.177873015259951,-4.2,-1.2,0.6,29.48666451046161,-16.840963723906,37.94387508033082,6,S02
8720,0.09793499966143926,6.733283195690609,7.167415821915743,-4.2,-1.2,0.6,29.244023203456635,-16.862656850104997,38.23021790823468,6,S02
8740,0.09957005128680305,6.734509817102276,7.181208860633302,-4.2,-1.2,0.6,29.363482659702576,-16.000394050344198,38.05676965227571,6,S02
8760,0.09641428473674099,6.744086008493715,7.149140558615471,-4.2,-1.2,0.6,29.634987008979913,-16.48376763992514,38.15016634355035,6,S02
8780,0.10561887246886083,6.7418188745402245,7.1677027992192714,-4.2,-1.2,0.6,30.132827568360884,-16.427201141347112,38.275509790523266,6,S02
8800,0.08499053850797744,6.7266638706355835,7.150190811135939,-4.2,-1.2,0.6,29.557107020525518,-15.723990095727224,37.96452083441113,6,S02
8820,0.07674140611599109,6.74979173439835,7.173511795625027,-4.2,-1.2,0.6,29.017325599355654,-16.113606234741816,38.38596868884043,6,S02
8840,0.11519025251007446,6.726234203518466,7.139984844019529,-4.2,-1.2,0.6,29.24376413074138,-16.890381201082974,38.24198305224126,6,S02
8860,0.11820673860359558,6.739831144497087,7.166089827730799,-4.2,-1.2,0.6,29.469218910041487,-15.707770659428876,37.98478170390385,6,S02
8880,0.0927137423429308,6.792037970463953,7.145934199884177,-4.2,-1.2,0.6,28.96888269941259,-16.48453117977907,37.91782035413845,6,S02
8900,0.08795865535276803,6.736153776055995,7.168862330255281,-4.2,-1.2,0.6,30.415618191848562,-16.42178253814303,38.58522175415608,6,S02
8920,0.14424727588099043,6.747721675413838,7.130863503840214,-4.2,-1.2,0.6,29.68491109326751,-16.356705578791768,38.239079227397156,6,S02
8940,0.11928260255154806,6.739793757929769,7.194059917278065,-4.2,-1.2,0.6,30.012896891628923,-16.085029799504944,37.58736939147995,6,S02
8960,0.11307199079333954,6.722491455191907,7.185136913421091,-4.2,-1.2,0.6,28.95685326598744,-16.59226077404263,38.265580791769246,6,S02
8980,0.08932736909770499,6.742003137795148,7.134709767008705,-4.2,-1.2,0.6,29.462076999692222,-16.64511358199608,37.49814002107938,6,S02
9000,0.0911882277616563,6.736605091146407,7.154759576928438,-4.2,-1.2,0.6,28.803558883700177,-16.249990138455573,38.33466033928098,6,S02
9020,0.10095422183479909,6.76640895125671,7.139116476073872,-4.2,-1.2,0.6,30.344426272540456,-16.483844242307764,38.10579682409194,6,S02
9040,0.06582235271925505,6.7263793184672815,7.163585276833523,-4.2,-1.2,0.6,29.22948336898604,-16.09025866566976,38.23492779567329,6,S02
9060,0.08887559207194495,6.703045608628495,7.153562824178088,-4.2,-1.2,0.6,30.136802205052295,-17.02838049772017,38.361954096818955,6,S02
9080,0.12819765935847116,6.720275322634734,7.1444766659725145,-4.2,-1.2,0.6,29.919045315393863,-17.443016638448917,37.945525762363815,6,S02
9100,0.11360015737040857,6.735488330930311,7.16276711627636,-4.2,-1.2,0.6,29.624591876630085,-17.586247339581007,37.82693928797059,6,S02
9120,0.08181297560951123,6.740039110972737,7.14851968215988,-4.2,-1.2,0.6,29.90912821402386,-16.62701819892234,38.08182307429212,6,S02
9140,0.07931425746007066,6.731554506482493,7.168606153849713,-4.2,-1.2,0.6,29.454567850633737,-16.177830100801028,37.62857155120441,6,S02
9160,0.1360383672217653,6.738977679317989,7.193222211505403,-4.2,-1.2,0.6,29.906172765829297,-15.727209276783947,38.63685590842765,6,S02
9180,0.09311731502480856,6.743112960001561,7.174219357961275,-4.2,-1.2,0.6,29.054506484401163,-16.18134744858398,38.57952976486142,6,S02
9200,0.07028552007588489,6.72732272833055,7.1490131049902494,-4.2,-1.2,0.6,30.39753409991868,-16.981804003605404,37.793267338339696,6,S02
9220,0.09035887894551721,6.762382473396719,7.154313507690994,-4.2,-1.2,0.6,29.64766786187512,-16.11308632175379,38.219839525554505,6,S02
9240,0.08804428746254471,6.772834436189082,7.14376157669193,-4.2,-1.2,0.6,29.922818206572423,-16.434129163116836,38.770459157551336,6,S02
9260,0.14026587390915934,6.735037394252498,7.180297067285785,-4.2,-1.2,0.6,29.268965642519614,-17.483165275314647,37.70970497540342,6,S02
9280,0.11302235854186411,6.7438408086362465,7.191828166940259,-4.2,-1.2,0.6,30.129418705761516,-16.723410287625384,37.831970508570365,6,S02
9300,0.08120354728136298,6.740148990642578,7.192311590214508,-4.2,-1.2,0.6,30.539745322572596,-17.026684999191364,38.30894987916565,6,S02
9320,0.08752909755679808,6.704734686862094,7.174508137115448,-4.2,-1.2,0.6,29.896684051230046,-16.38811946570724,38.212584001147476,6,S02
9340,0.12027758696041085,6.7365964319960545,7.184989001397992,-4.2,-1.2,0.6,29.61588584601249,-16.06938676526807,38.0125966351339,6,S02
9360,0.09141242738518482,6.732647262326042,7.1763349749140835,-4.2,-1.2,0.6,29.25283764855342,-16.978279804047027,38.51697684538958,6,S02
9380,0.11733979108999443,6.723808340029757,7.148928467760872,-4.2,-1.2,0.6,30.276047962931393,-16.50815972106078,37.495142039430505,6,S02
9400,0.09545147230231117,6.753448319534643,7.138866941161096,-4.2,-1.2,0.6,29.36818606979302,-16.341382843929104,38.359257010422176,6,S02
9420,0.086350121389112,6.762055660017212,7.173988365511102,-4.2,-1.2,0.6,28.600701768043795,-16.41942363395823,38.27874604902829,6,S02
9440,0.10305034128557705,6.704691076900803,7.159044147614683,-4.2,-1.2,0.6,29.381623624851247,-16.575394699922242,37.75598262368223,6,S02
9460,0.09824817316135734,6.748016693441025,7.172597186508264,-4.2,-1.2,0.6,29.65220423059005,-15.357825618894017,38.95577112527581,6,S02
9480,0.12084881558332566,6.75394664405534,7.165779798427394,-4.2,-1.2,0.6,28.236201965826528,-16.499592564579203,37.61850941528927,6,S02
9500,0.11901858490780819,6.763015105076306,7.134042260433632,-4.2,-1.2,0.6,29.160922835212418,-16.14610833681133,38.38196260633572,6,S02
9520,0.13433629808047431,6.703095719670328,7.159073286188651,-4.2,-1.2,0.6,29.230997714373697,-16.866684554833093,38.13144755279957,6,S02
9540,0.1326255108136521,6.758227715400701,7.188768021197185,-4.2,-1.2,0.6,29.67771853665421,-16.76482573691689,38.423770842186954,6,S02
9560,0.10238491555827836,6.7554994101471335,7.182171359573476,-4.2,-1.2,0.6,29.722961231261785,-17.394717566806033,38.07436390511655,6,S02
9580,0.10629634627035059,6.736409239370576,7.140891423235423,-4.2,-1.2,0.6,29.040011478708507,-16.47058482152155,38.67135963281111,6,S02
9600,0.09337403301929346,6.730653947674032,7.175208515090297,-4.2,-1.2,0.6,29.822701266812324,-16.613708785280807,38.66227543674637,6,S02
9620,0.10721828473624936,6.730297019875801,7.189864257955738,-4.2,-1.2,0.6,30.842249646749973,-17.08512762887098,38.56582028380669,6,S02
9640,0.07695805224037144,6.718097176601544,7.149571553040615,-4.2,-1.2,0.6,29.24462883839018,-16.433774729617163,38.45593058362639,6,S02
9660,0.09824170317146257,6.763844841927488,7.19018734696539,-4.2,-1.2,0.6,29.23964138169028,-16.52681006473505,38.099485241758444,6,S02
9680,0.0743603577667455,6.775157830194517,7.146261922077993,-4.2,-1.2,0.6,30.23032081164556,-16.621314598257,38.41552417512856,6,S02
9700,0.11980601484694815,6.743110164382912,7.152093180499014,-4.2,-1.2,0.6,30.480949811791987,-15.337905234618372,37.512986081602776,6,S02
9720,0.10349510653496852,6.751900202147029,7.17008959327766,-4.2,-1.2,0.6,29.185365713064456,-16.323548202561604,37.88456369348981,6,S02
9740,0.13980151008441805,6.732156119007073,7.1551314948975175,-4.2,-1.2,0.6,29.353012657788543,-18.373411050145897,37.72465671489483,6,S02
9760,0.09781968420036122,6.763398774930309,7.142030676088276,-4.2,-1.2,0.6,29.255526909509253,-16.753570229824994,37.755719896991444,6,S02
9780,0.11926331151204844,6.757129973153726,7.182095896365594,-4.2,-1.2,0.6,29.604088753242564,-16.420013689517702,37.59197459892922,6,S02
9800,0.08540697390868543,6.791014169105449,7.19263963323394,-4.2,-1.2,0.6,29.380038429332004,-16.64898680402309,37.85107654490821,6,S02
9820,0.10642687117435515,6.73866937225967,7.150716501957723,-4.2,-1.2,0.6,28.91156901442802,-16.541091228612828,38.20242276194551,6,S02
9840,0.09951784712732581,6.74363774225849,7.141016763922908,-4.2,-1.2,0.6,29.110925817799387,-16.996785214341596,37.99690904916447,6,S02
9860,0.12065139023728566,6.728066380563596,7.175884023091204,-4.2,-1.2,0.6,29.2242752742757,-16.549195323451883,38.85581545460731,6,S02
9880,0.09378455578331579,6.762981878329221,7.1716202805645715,-4.2,-1.2,0.6,29.57514143889227,-16.389967329256386,38.022609462125224,6,S02
9900,0.0945248611752648,6.762399705892592,7.182279158593766,-4.2,-1.2,0.6,29.643496128617944,-15.869447636843743,38.14993340456671,6,S02
9920,0.09534270339743615,6.759846843468046,7.15498615936545,-4.2,-1.2,0.6,29.670672820664475,-16.006630052272815,37.80048175162227,6,S02
9940,0.07593744676410513,6.720184144116529,7.129499142869366,-4.2,-1.2,0.6,29.64272176195145,-16.719043136040632,38.64769853930192,6,S02
9960,0.07579714036508847,6.736413694545594,7.1875514565947665,-4.2,-1.2,0.6,29.64810287429537,-15.723315179069001,38.16878673081189,6,S02
9980,0.10860334779816527,6.721723589662047,7.192144827454479,-4.2,-1.2,0.6,29.78069497236954,-16.354010127298988,37.980029002169765,6,S02
10000,0.10645164917112782,6.74542785684737,7.17526271352045,-4.2,-1.2,0.6,29.19619735480771,-16.37960419924771,38.4003114481473,6,S02
10020,0.12220632694310757,6.722971210169133,7.1348011774854925,-4.2,-1.2,0.6,28.667268866917425,-15.952904918347738,37.39335148922708,6,S02
10040,0.13376629494371012,6.765474425531001,7.201984990439626,-4.2,-1.2,0.6,28.522172636335362,-16.25145815206356,37.671020495633044,6,S02
10060,0.11280905134360643,6.74637438240751,7.188162977428353,-4.2,-1.2,0.6,29.637538699469975,-16.324137243560266,37.773402151176164,6,S02
10080,0.09141478661889041,6.710866739647802,7.176282422951005,-4.2,-1.2,0.6,30.710989800795474,-16.85240050334842,38.857677775135905,6,S02
10100,0.10892071706679991,6.743086165103875,7.142725925909431,-4.2,-1.2,0.6,29.28658622494352,-16.40431146959273,37.57576811529816,6,S02
10120,0.08618895565670316,6.736300096603059,7.1976978285956035,-4.2,-1.2,0.6,29.166277895049756,-15.283443158596015,38.05282325384022,6,S02
10140,0.12215344512911053,6.719768148239662,7.202298581784457,-4.2,-1.2,0.6,29.543563665344045,-16.45258650072457,37.62290388562242,6,S02
10160,0.10627003781628605,6.701536319655674,7.1380503027840145,-4.2,-1.2,0.6,29.189044901262324,-16.401378957695567,37.933667723028236,6,S02
10180,0.10077380243389054,6.779216525159579,7.147693626224699,-4.2,-1.2,0.6,29.884316753376414,-16.777051004005642,38.251965796608545,6,S02
10200,0.052322335454072576,6.771111591379309,7.191968427706386,-4.2,-1.2,0.6,29.059823060724703,-16.169701481539416,37.49685045357174,6,S02
10220,0.09096878211942806,6.76236882629139,7.186822048016474,-4.2,-1.2,0.6,29.605634966889376,-16.966523165892283,38.28022614936277,6,S02
10240,0.09875438352051938,6.743445372110811,7.171915589068435,-4.2,-1.2,0.6,29.543366373733008,-16.74954376290519,38.769687383959095,6,S02
10260,0.09949491504855461,6.709528631554002,7.175690717788211,-4.2,-1.2,0.6,29.539837182160852,-16.782706736618273,37.694563672548675,6,S02
10280,0.07053919809069448,6.750510847622536,7.174723304314797,-4.2,-1.2,0.6,29.08829842762655,-16.082661198821892,37.740775352403,6,S02
10300,0.10851227255383616,6.724684828734876,7.13822080297726,-4.2,-1.2,0.6,29.207880827240103,-17.37695456919536,38.16891854759165,6,S02
10320,0.08635722416423673,6.7051086798833,7.154333365536125,-4.2,-1.2,0.6,29.841184106189793,-16.26765119847702,37.78759602077893,6,S02
10340,0.09933604133519654,6.722155471581393,7.1516701983347755,-4.2,-1.2,0.6,29.571372096499026,-16.48753496247734,38.12067956998993,6,S02
10360,0.11711980639593612,6.730093277389163,7.18917798204832,-4.2,-1.2,0.6,29.46110300866666,-15.724760199698643,38.02212930704262,6,S02
10380,0.11179866768761806,6.711615290281517,7.146746521331601,-4.2,-1.2,0.6,29.351352250218813,-16.78406226405643,38.19843258655463,6,S02
10400,0.1277659698818328,6.770322247096641,7.143122029011731,-4.2,-1.2,0.6,29.47939207900735,-16.364993683781094,37.95960257381884,6,S02
10420,0.12542318897988602,6.754491491303726,7.197226742042732,-4.2,-1.2,0.6,30.42284863369965,-16.499784609101123,38.66991727134861,6,S02
10440,0.11332829686408777,6.755693022539129,7.192503178602384,-4.2,-1.2,0.6,29.783770763154305,-16.447394338601534,38.398113749405574,6,S02
10460,0.07943373362725571,6.771330033876435,7.140663309005383,-4.2,-1.2,0.6,29.290695374276627,-15.388992437339398,38.19314157991136,6,S02
10480,0.1245993140131194,6.756762645457004,7.1486834227784115,-4.2,-1.2,0.6,28.415572874472087,-17.25488411507562,38.13955257745983,6,S02
10500,0.1287185921454724,6.749195025746599,7.177684166956726,-4.2,-1.2,0.6,29.75584200808829,-16.231950590433044,37.558852284305644,6,S02
10520,0.07947174224371073,6.741407377236519,7.183652213576724,-4.2,-1.2,0.6,29.21729856766504,-16.235428235915542,37.70634923133333,6,S02
10540,0.10313910212962793,6.745571407849783,7.1763621812962155,-4.2,-1.2,0.6,29.63236499810835,-16.720215617166275,38.6870383230008,6,S02
10560,0.08949761644686002,6.714716014651474,7.148521061799835,-4.2,-1.2,0.6,29.277945893279227,-15.90038652420995,37.98320148229993,6,S02
10580,0.1137048778990622,6.741176826893526,7.203785305811444,-4.2,-1.2,0.6,29.59053855203853,-16.59485849188797,38.16513696479177,6,S02
10600,0.10482749257528078,6.735227642262547,7.178591180211115,-4.2,-1.2,0.6,29.303861070599837,-16.420457528578495,37.6820265708018,6,S02
10620,0.1025778097938212,6.734251900487261,7.164729628589749,-4.2,-1.2,0.6,30.08572930211345,-17.20454792307367,38.212457509746194,6,S02
10640,0.0813228422721213,6.75363449182802,7.17135873241128,-4.2,-1.2,0.6,29.22215393771255,-16.934056605968863,38.44476665210197,6,S02
10660,0.08603577594378305,6.757579740119155,7.19522276502205,-4.2,-1.2,0.6,29.20991919693097,-16.96073509309933,37.61002707387696,6,S02
10680,0.12463545028639192,6.786898560775812,7.1757687154221035,-4.2,-1.2,0.6,29.463506837750945,-15.825021880034953,38.20587080822884,6,S02
10700,0.07293475609143628,6.755952512312102,7.147115242043194,-4.2,-1.2,0.6,30.062364683862626,-16.212076185967263,37.6465510490079,6,S02
10720,0.08733778277541293,6.728053489950186,7.178015730630367,-4.2,-1.2,0.6,28.96834447528849,-16.630322297598752,38.71732297128966,6,S02
10740,0.10201030918615506,6.750972034453162,7.165865796190404,-4.2,-1.2,0.6,29.53881681137984,-16.443033702409,38.37943009634989,6,S02
10760,0.05545601228859863,6.739998443564848,7.161794870927216,-4.2,-1.2,0.6,29.109829303897712,-16.689330912613947,38.47660249015468,6,S02
10780,0.10622280606350173,6.747108113631463,7.1247961298383125,-4.2,-1.2,0.6,29.595654085794756,-15.60542026239866,38.770942363875406,6,S02
10800,0.1388384658582594,6.749452197907552,7.1753575762327495,-4.2,-1.2,0.6,30.181832434898404,-17.743970682449802,37.85455832451307,6,S02
10820,0.0906869607851889,6.7416711741820645,7.175420018969517,-4.2,-1.2,0.6,29.7294401495611,-16.627651374824403,38.903716565112674,6,S02
10840,0.10389010740320924,6.760021150377477,7.1417432937843435,-4.2,-1.2,0.6,29.94722483827423,-16.492297806425945,38.49048439328736,6,S02
10860,0.05909413164678864,6.7388002761363115,7.172212826585138,-4.2,-1.2,0.6,30.268873803497847,-15.716902310505914,37.85277932805888,6,S02
10880,0.10215360279758703,6.783997796697935,7.201580783555217,-4.2,-1.2,0.6,29.559443186823454,-16.01849823956259,38.29401353561659,6,S02
10900,0.09701570374517163,6.733395109785376,7.149504413133464,-4.2,-1.2,0.6,29.6507524107706,-16.481337460155718,37.142231505876616,6,S02
10920,0.07697898689755582,6.759203796162709,7.2153409948431975,-4.2,-1.2,0.6,30.246596821698052,-16.503260009755138,37.174982673447744,6,S02
10940,0.09491327620421985,6.729916276936479,7.1938817672847275,-4.2,-1.2,0.6,29.554973910036136,-16.515015598147272,38.11246028405021,6,S02
10960,0.12082542004681104,6.734197482645188,7.150013600442159,-4.2,-1.2,0.6,29.672600714065105,-16.896452185960865,37.918043104692046,6,S02
10980,0.07099065874199584,6.76679040725672,7.149277791536934,-4.2,-1.2,0.6,30.310052112470547,-16.072955069229803,38.06603820900318,6,S02
11000,0.10701445397999423,6.747645531486702,7.189676414924139,-4.2,-1.2,0.6,29.82110716799244,-15.83564087274794,37.48577903675037,6,S02
11020,0.0745454239850537,6.70538701615471,7.176124347606493,-4.2,-1.2,0.6,29.00370982014264,-16.999652433140778,37.71522839026134,6,S02
11040,0.11186498697772063,6.739990105534119,7.172641524955641,-4.2,-1.2,0.6,28.867296997997652,-16.019972504819023,38.505717439549,6,S02
11060,0.10673914559192928,6.73488790220738,7.171414874002853,-4.2,-1.2,0.6,29.258477807516424,-16.528094800915113,38.5566112416054,6,S02
11080,0.08891352702633513,6.732950669975626,7.207904676594415,-4.2,-1.2,0.6,29.082622585321452,-16.755959941050286,37.81272915728083,6,S02
11100,0.07467186092379137,6.740844062896807,7.209802708653379,-4.2,-1.2,0.6,30.072087095423107,-16.581632572580645,37.51101066212398,6,S02
11120,0.1344213235301677,6.749173985929713,7.195095586250283,-4.2,-1.2,0.6,30.372596149202298,-16.636591748629378,38.03008929993571,6,S02
11140,0.08076599589197311,6.737742806192814,7.1513854821978615,-4.2,-1.2,0.6,29.517553479940634,-15.390620330389101,37.406555565618966,6,S02
11160,0.0909432081306945,6.717847196857893,7.140009101271587,-4.2,-1.2,0.6,29.26593075100237,-16.33357415410333,38.37383266137981,6,S02
11180,0.09327922049158308,6.733985236206965,7.1699046575850645,-4.2,-1.2,0.6,29.522864273476337,-16.435784714931124,37.73245507918023,6,S02
11200,0.09570504602806228,6.7245089207055395,7.154988531333122,-4.2,-1.2,0.6,29.605236926858957,-16.075157787362862,37.81636605603773,6,S02
11220,0.09908499320411197,6.757230886511811,7.178173716286433,-4.2,-1.2,0.6,29.161917101872557,-16.38120897088317,37.73753136511593,6,S02
11240,0.08228266351204967,6.710667842808197,7.195006637079374,-4.2,-1.2,0.6,29.724800744166707,-16.289919311430722,38.10822295734721,6,S02
11260,0.11210974376390709,6.743455625912614,7.189344760477293,-4.2,-1.2,0.6,30.359832286518916,-16.919790183537984,38.17874936547075,6,S02
11280,0.09426419175016154,6.739377900798948,7.146663704031519,-4.2,-1.2,0.6,30.101314168491143,-16.495003577074364,38.44208172258999,6,S02
11300,0.08138992574393956,6.7566774415081134,7.1613548887773595,-4.2,-1.2,0.6,29.66918530217989,-16.440432506981956,38.298840288555475,6,S02
11320,0.09553510114671185,6.7092702928876555,7.165107687812404,-4.2,-1.2,0.6,30.457859811082862,-17.238537561155653,38.45607334808304,6,S02
11340,0.09320802321196996,6.728239588531975,7.186638497601713,-4.2,-1.2,0.6,29.728675752462777,-16.325002814713244,37.91903334461369,6,S02
11360,0.10466330636966178,6.734498556980515,7.155544195844587,-4.2,-1.2,0.6,29.358878264284304,-15.602105310996988,38.53790719036728,6,S02
11380,0.12192506938080971,6.6892239005532845,7.160361150984882,-4.2,-1.2,0.6,29.099188694176604,-16.78971781294028,38.61741384053185,6,S02
11400,0.08073239088066761,6.710436003257606,7.173530422809734,-4.2,-1.2,0.6,29.43867634668414,-16.507613370719035,38.45729755977264,6,S02
11420,0.09025719095191591,6.764783948694485,7.174454865124951,-4.2,-1.2,0.6,30.0990298367445,-17.00960908583731,38.13444035295666,6,S02
11440,0.0866819690614194,6.706621088342623,7.175435459820479,-4.2,-1.2,0.6,29.576342332376814,-16.649526418363706,38.28619423503794,6,S02
11460,0.0980189661415402,6.751052331294988,7.18208523757411,-4.2,-1.2,0.6,29.629392603666542,-16.923365560634725,37.29339936826513,6,S02
11480,0.10028349865843961,6.741466947180205,7.17565664531803,-4.2,-1.2,0.6,30.2250946913487,-15.247237360503961,38.46424915268339,6,S02
11500,0.09507021979502621,6.727362315644486,7.187444231230097,-4.2,-1.2,0.6,28.960656787329114,-16.172791561980667,37.13463864875302,6,S02
11520,0.13292312064950407,6.762643434515081,7.178370679871712,-4.2,-1.2,0.6,29.849902124009823,-16.407592509970183,37.69333560950491,6,S02
11540,0.11284666779371483,6.7347558343657905,7.177189417558939,-4.2,-1.2,0.6,30.236470310785656,-16.730061240159284,37.55847762069695,6,S02
11560,0.10156203653920814,6.723831109791478,7.138367645962713,-4.2,-1.2,0.6,29.354262107139984,-16.516648546039885,38.64355440773185,6,S02
11580,0.12029625961337846,6.756336387603933,7.162899474640891,-4.2,-1.2,0.6,29.45660716791445,-16.983239085363163,38.065576662756186,6,S02
11600,0.08779263315105836,6.764710150294735,7.169603286453283,-4.2,-1.2,0.6,29.55167899812117,-16.928500519487116,38.33273746004363,6,S02
11620,0.09275641762676996,6.74545523893476,7.211619152827166,-4.2,-1.2,0.6,29.486948840183008,-17.015926873982313,38.02778142660406,6,S02
11640,0.04983617097141552,6.7294872493382245,7.201203302868481,-4.2,-1.2,0.6,29.29110777709432,-16.638139298253023,37.728708481281124,6,S02
11660,0.06593179803563612,6.747848739960445,7.1803080989359005,-4.2,-1.2,0.6,29.40378030308683,-16.63396690848569,38.41234284925127,6,S02
11680,0.084617670266758,6.748662675131872,7.15712461824184,-4.2,-1.2,0.6,28.766765225898208,-16.574254855901486,38.588066850586124,6,S02
11700,0.07494700564511447,6.76151837806629,7.173620064613202,-4.2,-1.2,0.6,29.689769673897747,-15.92179210385887,38.01700733190758,6,S02
11720,0.10495529863980137,6.742725788966834,7.175121350633452,-4.2,-1.2,0.6,28.97638787235022,-16.625942359895646,37.72218433854133,6,S02
11740,0.1161690695469677,6.735290869308457,7.161070052043261,-4.2,-1.2,0.6,29.494001052236392,-15.151808323949945,38.13785948215759,6,S02
11760,0.10649341335533834,6.729242409511461,7.174342317677915,-4.2,-1.2,0.6,29.443812007474595,-16.586925641484942,38.36314256820852,6,S02
11780,0.09036335670823793,6.733038523496995,7.154248301334724,-4.2,-1.2,0.6,29.566202026056768,-16.782047179768437,38.722340256595636,6,S02
11800,0.09747030430843728,6.738015882813377,7.1781729356546915,-4.2,-1.2,0.6,28.805693820324723,-16.234873927231888,38.23693656241919,6,S02
11820,0.11501346453010375,6.75297788521769,7.185289291531525,-4.2,-1.2,0.6,30.303641871148884,-16.65479583267144,38.011258845362555,6,S02
11840,0.11664820829965436,6.7893503844808265,7.159807109036338,-4.2,-1.2,0.6,29.901828888730222,-16.667676179652453,37.83290999977815,6,S02
11860,0.1265279203372703,6.7073743682056595,7.1815024120313184,-4.2,-1.2,0.6,30.27072610227188,-16.923571397728324,38.18101410399787,6,S02
11880,0.11135935668575461,6.725283117975865,7.169778612488865,-4.2,-1.2,0.6,29.145483495130378,-16.393494969913448,37.773368732812166,6,S02
11900,0.09770824626852391,6.766793166100541,7.152358820243886,-4.2,-1.2,0.6,29.472135957350293,-15.515968530621759,37.675600958063725,6,S02
11920,0.12559577263850266,6.7586070230667135,7.152324063752177,-4.2,-1.2,0.6,29.017959525797316,-16.731175953727053,37.715502468858276,6,S02
11940,0.12974339956008146,6.696379227064696,7.161761614951204,-4.2,-1.2,0.6,30.3694570591976,-16.73481943489114,38.03869733929383,6,S02
11960,0.08015833816531098,6.729356381310953,7.176403796079472,-4.2,-1.2,0.6,29.076651820581404,-15.677993099178835,38.40155530355419,6,S02
11980,0.10099775770349367,6.717910298325255,7.190274956353956,-4.2,-1.2,0.6,28.929759087632466,-16.281012733973554,37.99101230741207,6,S02
12000,0.1190943168732824,6.770888729232528,7.185813345196386,-4.2,-1.2,0.6,29.813048506465172,-16.666966171347944,38.7875710935138,6,S02
12020,0.10946343391277619,6.704775986015822,7.179081091293777,-4.2,-1.2,0.6,29.72311873404999,-16.240196625950315,37.41360734631193,6,S02
12040,0.12028194126876104,6.7406556856258,7.189401978438776,-4.2,-1.2,0.6,30.257402058070404,-16.734101209447086,37.76234150377598,6,S02
12060,0.09516251535933555,6.719764068828024,7.117884388957198,-4.2,-1.2,0.6,30.553855518398148,-16.336134504080064,38.0879084410723,6,S02
12080,0.08145414145574889,6.745470862930006,7.1724380475690275,-4.2,-1.2,0.6,29.1947525496907,-16.59223208510742,38.77399975852434,6,S02
12100,0.11220441447307374,6.723059503998677,7.134064694892972,-4.2,-1.2,0.6,29.399627821835775,-16.48943012023316,38.455811091748366,6,S02
12120,0.07350442308253918,6.7578103442986865,7.193942307841613,-4.2,-1.2,0.6,29.519157174324917,-16.883540634823962,38.30776166163852,6,S02
12140,0.11436838982326979,6.70799999553588,7.178355930731279,-4.2,-1.2,0.6,30.272219693910593,-17.928848542388188,38.28703149879798,6,S02
12160,0.08367372593817979,6.7338807090663035,7.171911741376887,-4.2,-1.2,0.6,29.27376533323365,-16.64985696196235,38.158179581305504,6,S02
12180,0.10112447734132124,6.707801562410205,7.151383414471812,-4.2,-1.2,0.6,29.85978274540901,-16.854093086389298,37.58351541194046,6,S02
12200,0.11715683602103008,6.723088262171965,7.134993956032637,-4.2,-1.2,0.6,29.885458818681695,-16.28213929124488,37.83745691267182,6,S02
12220,0.11687144725222565,6.729206214342784,7.164673790092717,-4.2,-1.2,0.6,29.947448321211123,-16.555938221572227,38.23942877343695,6,S02
12240,0.11576164668705548,6.725874859742695,7.19791992059861,-4.2,-1.2,0.6,29.87458184300794,-16.605171615270038,37.27309061364834,6,S02
12260,0.06310394708499473,6.730979732552781,7.150725616597626,-4.2,-1.2,0.6,29.63804294953002,-17.108287074364213,38.14829762796401,6,S02
12280,0.09074894899940936,6.705224955585054,7.1482228467596105,-4.2,-1.2,0.6,29.048506555454892,-16.640495548986237,38.72233058435964,6,S02
12300,0.09187860406523903,6.749561788198693,7.15044539995489,-4.2,-1.2,0.6,29.21326179231278,-16.573437795973298,37.4853461579763,6,S02
12320,0.1309006530218422,6.736612663530006,7.169086796252894,-4.2,-1.2,0.6,30.369775020782967,-15.866287714128099,37.25364138746936,6,S02
12340,0.09265350929110996,6.745858890493091,7.1990655336878415,-4.2,-1.2,0.6,29.967032710266718,-17.531022515513023,38.17612415725145,6,S02
12360,0.1091657801177099,6.740425291083183,7.154280646818397,-4.2,-1.2,0.6,29.99827318372558,-17.095774982328248,38.53603274565103,6,S02
12380,0.09473315513796242,6.7216956063379945,7.16237861140018,-4.2,-1.2,0.6,30.105072349068365,-16.23882443306126,37.760926596368456,6,S02
12400,0.10405282738601243,6.751368142019885,7.136502711099775,-4.2,-1.2,0.6,30.031997651756477,-16.21785086707901,38.58237739541899,6,S02
12420,0.11828864913029782,6.771761594050146,7.153213458909014,-4.2,-1.2,0.6,29.633997570718183,-15.682445220961949,38.304867768290784,6,S02
12440,0.06478049968198299,6.71307330230193,7.173614647937286,-4.2,-1.2,0.6,29.420035033490937,-16.84423775081599,37.796057256612336,6,S02
12460,0.07329421748861506,6.75773843303699,7.16937908991429,-4.2,-1.2,0.6,29.151386764557706,-16.33828880870439,36.9590545764101,6,S02
12480,0.11439395364874419,6.695882104206172,7.166250004916647,-4.2,-1.2,0.6,29.722364768689964,-15.953569624529532,37.37013862066806,6,S02
12500,0.0836931193913518,6.724229804793403,7.159101100528961,-4.2,-1.2,0.6,30.009630200830248,-15.827512047239983,37.388921051792224,6,S02
12520,0.06381635091655558,6.710561171193679,7.155442050959938,-4.2,-1.2,0.6,29.394032433947718,-17.07226667060125,38.117747652754986,6,S02
12540,0.07165323751678318,6.724976890877083,7.174365341354419,-4.2,-1.2,0.6,29.685383889955506,-16.232142008577313,37.29068011833587,6,S02
12560,0.13969903104016446,6.743245596153818,7.136848386887449,-4.2,-1.2,0.6,29.6935308882525,-16.2876664144543,38.39913281010122,6,S02
12580,0.07977414251072082,6.725543560220302,7.164124092908878,-4.2,-1.2,0.6,29.296503054642486,-16.853818741891008,38.677035823508916,6,S02
12600,0.11661785500571539,6.763310354188988,7.153816680524461,-4.2,-1.2,0.6,28.692626552525233,-16.113605992034948,37.89547879274905,6,S02
12620,0.1066458595750917,6.755523112137954,7.178203974822355,-4.2,-1.2,0.6,29.934404988585552,-16.610237290454634,38.824076061973905,6,S02
12640,0.09296514547859416,6.719555209503603,7.14009174802774,-4.2,-1.2,0.6,29.62650722635173,-16.644542263451157,39.05260836435285,6,S02
12660,0.13920851790414784,6.717512003957361,7.193821033804006,-4.2,-1.2,0.6,29.816499010903957,-16.19049171080481,37.80091156549055,6,S02
12680,0.08118500462941394,6.748538569640502,7.145578856804858,-4.2,-1.2,0.6,29.62393584037405,-16.7024410942418,38.36206024675645,6,S02
12700,0.12256606058908279,6.72581305873035,7.182813768641392,-4.2,-1.2,0.6,31.100700679872403,-16.8939242461795,37.9793693717617,6,S02
12720,0.09364576470785937,6.780626903733833,7.189508505157696,-4.2,-1.2,0.6,30.037054929297433,-16.630219107554005,37.80068668249868,6,S02
12740,0.1326870313873077,6.748134407919339,7.172898522959416,-4.2,-1.2,0.6,28.978762509369467,-15.392237399430797,38.47438010992423,6,S02
12760,0.14083058530023115,6.75858301931119,7.170603013447233,-4.2,-1.2,0.6,29.909484567379415,-17.286350511450014,38.39708390531986,6,S02
12780,0.12127763158882451,6.753449606932933,7.139585364465347,-4.2,-1.2,0.6,29.526688817727628,-16.18374203088779,38.857094608701416,6,S02
12800,0.09909924544562841,6.738847712480191,7.189704553748851,-4.2,-1.2,0.6,28.77926677432386,-16.431051963579492,38.531840710163685,6,S02
12820,0.0867967254760702,6.739379958071586,7.171205841549969,-4.2,-1.2,0.6,30.32871241598999,-16.885391407021814,38.51496485271611,6,S02
12840,0.07631015571530177,6.730479204773335,7.189051902582084,-4.2,-1.2,0.6,29.809293370181376,-16.581424160543254,37.68990423003492,6,S02
12860,0.08458181630196242,6.76951087536892,7.175691219889619,-4.2,-1.2,0.6,30.10401478390404,-16.502977254482673,38.694728025019636,6,S02
12880,0.09588642556141949,6.708026425008926,7.1655353669822865,-4.2,-1.2,0.6,29.47477918416796,-16.75125561660397,38.60299563637884,6,S02
12900,0.11949812515971431,6.769972720987467,7.186188180804859,-4.2,-1.2,0.6,29.454544714887174,-16.005260134649635,38.268417578304586,6,S02
12920,0.0946279603708523,6.697043357631717,7.187395498258978,-4.2,-1.2,0.6,29.53733554018733,-16.552568339258997,37.99639069307149,6,S02
12940,0.12725425249896566,6.775557613607179,7.158851980783421,-4.2,-1.2,0.6,29.946489940358575,-17.416064814528927,37.67608550031016,6,S02
12960,0.08800373151604649,6.746144892675884,7.16285950459554,-4.2,-1.2,0.6,29.006857377356646,-16.633403707951068,37.79351553334208,6,S02
12980,0.0532644986001623,6.726141038548578,7.1650612504826485,-4.2,-1.2,0.6,29.736043035771985,-16.78003733767889,38.33449600314769,6,S02
13000,0.1215510531828028,6.709807980718065,7.136891607758352,-4.2,-1.2,0.6,28.651659024043123,-15.693578169842622,38.313468571059275,6,S02
13020,0.09295763097109772,6.7620989643746805,7.1537846347446,-4.2,-1.2,0.6,29.68387121067119,-17.0614446065293,38.37437064296833,6,S02
13040,0.09133287441070684,6.744700379595311,7.166282955043943,-4.2,-1.2,0.6,29.796881415377413,-15.550071751980381,38.1310155905295,6,S02
13060,0.09510016040222341,6.7450683919894,7.180106287422334,-4.2,-1.2,0.6,28.985798604999545,-16.952249168869063,38.27320403417615,6,S02
13080,0.08031166050573062,6.759032181505321,7.1634079345057105,-4.2,-1.2,0.6,29.250008122971266,-16.5107719727427,37.93718218147175,6,S02
13100,0.12124889317017104,6.743771509825808,7.139162240647354,-4.2,-1.2,0.6,29.578451586734037,-17.271565403297878,37.98098452643361,6,S02
13120,0.06905948083868692,6.7275247249790135,7.19156488607321,-4.2,-1.2,0.6,29.447092417555965,-16.625670930912143,38.492474700440034,6,S02
13140,0.11363167833655477,6.711797550719661,7.157794503962972,-4.2,-1.2,0.6,29.53556383567341,-16.801070118027756,38.320513464711425,6,S02
13160,0.09926833396523982,6.729332841525155,7.19067946322261,-4.2,-1.2,0.6,29.71541216869862,-16.737261261352074,38.23955115814867,6,S02
13180,0.12899662145135232,6.719215843799306,7.1659015900240846,-4.2,-1.2,0.6,29.862542261553035,-16.33165344060489,38.27041308291908,6,S02
13200,0.12519164873074234,6.717478011185326,7.168651473792386,-4.2,-1.2,0.6,29.23872830220085,-17.36677754482141,38.181452987749694,6,S02
13220,0.11672092460628661,6.753573733367462,7.135794413524132,-4.2,-1.2,0.6,30.64993601844657,-15.555070092662227,37.70621336163278,6,S02
13240,0.08316259431703027,6.764134917655098,7.191543437126037,-4.2,-1.2,0.6,29.99843664051456,-16.503637221203327,37.7555143122144,6,S02
13260,0.11186492088489246,6.7260113273028885,7.140008678459974,-4.2,-1.2,0.6,30.36488429292048,-16.153769493042297,38.29389192441005,6,S02
13280,0.0958341088512938,6.723713960397589,7.176488617607301,-4.2,-1.2,0.6,29.414877071355267,-16.38092720555253,38.569095938808644,6,S02
13300,0.09223408472820979,6.739536906477262,7.139552752853689,-4.2,-1.2,0.6,29.808714442584577,-16.539250112769505,37.38150348266831,6,S02
13320,0.09990518445351579,6.742099071245105,7.154162885139878,-4.2,-1.2,0.6,30.954410184612826,-17.00200809876393,37.70099632372513,6,S02
13340,0.12169004684094394,6.755949114951238,7.201616334015606,-4.2,-1.2,0.6,29.60892806470402,-16.323602915796837,38.53678171966309,6,S02
13360,0.12904746846038123,6.753793620235806,7.188455727903149,-4.2,-1.2,0.6,29.00427210167985,-16.14940054591755,37.65247187545211,6,S02
13380,0.099490141756971,6.779708337277811,7.226200460485197,-4.2,-1.2,0.6,29.448955440766724,-16.996085576429056,37.697116309892756,6,S02
13400,0.07420043071419798,6.718973440146831,7.183073323421685,-4.2,-1.2,0.6,29.53300473531615,-16.576056969106418,38.21451742983111,6,S02
13420,0.10699318849556713,6.751596042101395,7.139272281859601,-4.2,-1.2,0.6,29.42513425165819,-17.329126978091836,38.22026579500971,6,S02
13440,0.10454686657198478,6.73421578090494,7.174405270494717,-4.2,-1.2,0.6,29.741033771477102,-16.380395292004287,37.60887978642687,6,S02
13460,0.07203632180476265,6.733997753890481,7.177166671598715,-4.2,-1.2,0.6,30.42623205952469,-17.06669430541779,37.899936008140294,6,S02
13480,0.10511782376080785,6.767028149473777,7.166707672444932,-4.2,-1.2,0.6,29.738747248664968,-16.318287010665827,38.37251666707759,6,S02
13500,0.0780535024338741,6.744621858572834,7.158794721438732,-4.2,-1.2,0.6,29.206563160089527,-16.71262666731503,37.98644553883469,6,S02
13520,0.08547951642130756,6.746666653322004,7.157702449547393,-4.2,-1.2,0.6,29.91189042444487,-17.135193188608127,38.3038347671446,6,S02
13540,0.0799067780574002,6.718701508934367,7.144529268605915,-4.2,-1.2,0.6,30.904964419193387,-16.673092329368103,38.74522496340611,6,S02
13560,0.09420792015937429,6.708009952000444,7.156654267818084,-4.2,-1.2,0.6,29.03549136572311,-16.368715530109824,37.998160029739516,6,S02
13580,0.10775549846928614,6.725269993555052,7.180481539941373,-4.2,-1.2,0.6,30.454553737399095,-15.956670279589684,38.38094723970394,6,S02
13600,0.08139575419793982,6.7368139834994825,7.1542440330536365,-4.2,-1.2,0.6,28.661045513290453,-15.861740715828379,38.643625568464344,6,S02
13620,0.10050130406582336,6.730410768426623,7.201004071965096,-4.2,-1.2,0.6,29.251148072046227,-16.726722095335216,38.04581719848368,6,S02
13640,0.12748876049492658,6.718997195245765,7.160596426704468,-4.2,-1.2,0.6,30.451500578787776,-16.840651214622063,37.901168378510825,6,S02
13660,0.09721271743598506,6.724929841211661,7.208861862561374,-4.2,-1.2,0.6,29.11719193570953,-16.908048278128714,38.22592218958616,6,S02
13680,0.08769013904165483,6.730978617818195,7.162498423111339,-4.2,-1.2,0.6,29.942818465909482,-16.660086274207348,37.98267746496749,6,S02
13700,0.09605333428240463,6.764887755909766,7.18586855222102,-4.2,-1.2,0.6,30.487223727564665,-16.905415284683926,38.67006321122289,6,S02
13720,0.1164636955060727,6.736908098925223,7.244171292453961,-4.2,-1.2,0.6,29.39045591854328,-15.969095223202743,38.222005308088434,6,S02
13740,0.07824534392719953,6.751759291674243,7.163926917468877,-4.2,-1.2,0.6,30.350531180309726,-16.601635144961925,37.139721731565146,6,S02
13760,0.07528750976560969,6.72494223353434,7.150937754257248,-4.2,-1.2,0.6,30.190825351521763,-16.89656634285859,38.636051753486726,6,S02
13780,0.08454405308375969,6.756161511199755,7.162565608334612,-4.2,-1.2,0.6,29.485487035839547,-16.473580450951154,38.309600470790016,6,S02
13800,0.06426159476828594,6.740483124026882,7.167313183869163,-4.2,-1.2,0.6,28.697232510209556,-16.21364524160451,37.85344677662605,6,S02
13820,0.09605152662743456,6.732840910821406,7.153676360623599,-4.2,-1.2,0.6,28.818307249850218,-16.249111100479283,38.218187825999294,6,S02
13840,0.10732361240917927,6.7528294897112096,7.1611949012039995,-4.2,-1.2,0.6,29.438969198086795,-16.785707746720327,37.74969953738395,6,S02
13860,0.066658594696556,6.761127639816317,7.184574765313804,-4.2,-1.2,0.6,30.064337002563565,-16.54629396836291,38.261815847989794,6,S02
13880,0.09430931124790344,6.7553064032373955,7.169357459232966,-4.2,-1.2,0.6,29.7251609007968,-16.310028464102658,37.9596721974702,6,S02
13900,0.10225803525122835,6.752621535302801,7.173344567044515,-4.2,-1.2,0.6,29.303245272094973,-15.880389234916715,37.96447646346072,6,S02
13920,0.12768196261044315,6.719961912795942,7.159097402890759,-4.2,-1.2,0.6,30.024955915251137,-17.212359313225686,37.75452661382083,6,S02
13940,0.14208812424663508,6.759262382471788,7.151471963322365,-4.2,-1.2,0.6,30.363381697744387,-16.77083444440676,38.10399641010245,6,S02
13960,0.08754177269829674,6.758527437818933,7.165870689376148,-4.2,-1.2,0.6,29.58264157539236,-16.222217785806535,38.673127988844136,6,S02
13980,0.08471688718851936,6.778303136303673,7.162297904116616,-4.2,-1.2,0.6,29.46454058345166,-16.14463254222791,37.34254261652361,6,S02
14000,0.13855566600242006,6.788068512809021,7.186829598915658,-4.2,-1.2,0.6,29.701392172200986,-16.201080249384354,38.41948135695845,6,S02
14020,0.11665651872777966,6.748169159051241,7.152301677577257,-4.2,-1.2,0.6,28.80410106772206,-17.16175710936931,37.497976296677585,6,S02
14040,0.1172185833069816,6.70257635278636,7.132443534136533,-4.2,-1.2,0.6,29.09169288475032,-15.900186012837715,37.67495629305267,6,S02
14060,0.07473466883208618,6.76603840948103,7.1536316449651345,-4.2,-1.2,0.6,29.282631807976838,-16.330967457277605,38.21518506735412,6,S02
14080,0.10784470343911358,6.756013539413549,7.133919751045307,-4.2,-1.2,0.6,30.194025469153154,-16.510910080708577,38.36617122075142,6,S02
14100,0.07504993036761894,6.760549837389332,7.18860908276986,-4.2,-1.2,0.6,29.37712747747777,-16.06937228797297,37.60771497327906,6,S02
14120,0.1178050977635706,6.758117495925573,7.1743516175778,-4.2,-1.2,0.6,29.41595757593527,-16.596437901674143,38.34473831149052,6,S02
14140,0.08266306656096875,6.746237052762003,7.194590663562306,-4.2,-1.2,0.6,29.767895702412947,-16.065075532205846,37.79544809143578,6,S02
14160,0.10965661250223314,6.718663847951807,7.180087657238929,-4.2,-1.2,0.6,31.0065771486365,-17.40451616316257,37.77517850303797,6,S02
14180,0.0819002015221408,6.745187409280556,7.17654119076051,-4.2,-1.2,0.6,30.21207946293402,-15.98233862906584,38.460946703025,6,S02
14200,0.10077559655373727,6.743645501151111,7.174342564206205,-4.2,-1.2,0.6,29.936410612558298,-16.947769055068697,38.94509362166969,6,S02
14220,0.1122111004897086,6.756823875272932,7.165694382145987,-4.2,-1.2,0.6,29.742193775403464,-16.612648952719802,37.65218906860194,6,S02
14240,0.09078990966389947,6.731749677102786,7.179102754514002,-4.2,-1.2,0.6,28.698673960166857,-15.541846893487582,37.97335185058687,6,S02
14260,0.11019412246422616,6.695990585703321,7.14973597891719,-4.2,-1.2,0.6,30.425933812092772,-17.180531171673536,38.14948493349847,6,S02
14280,0.07324627497712691,6.752459647632861,7.176962446340808,-4.2,-1.2,0.6,28.94380839199851,-15.784150554425414,37.72806923720867,6,S02
14300,0.08762124589287751,6.745737735289366,7.175674274698108,-4.2,-1.2,0.6,28.099509430944522,-16.526851168330467,37.97132664208912,6,S02
14320,0.11203647722394794,6.67840651068425,7.187363113750729,-4.2,-1.2,0.6,29.779879255529565,-16.91774815565899,37.82268683022451,6,S02
14340,0.10621651593732208,6.755952935228312,7.1646693578959075,-4.2,-1.2,0.6,29.967270513246362,-17.242336408636717,37.48509120183423,6,S02
14360,0.08843552327280366,6.756483369786603,7.171819164667166,-4.2,-1.2,0.6,29.906496723765898,-17.096410116106426,38.61515161007511,6,S02
14380,0.109522787030279,6.72651755834098,7.179231699866403,-4.2,-1.2,0.6,30.03212112021656,-16.73076765046045,38.35669266362016,6,S02
14400,0.08702571491537266,6.7428430629671094,7.1750342029679155,-4.2,-1.2,0.6,29.773124657273883,-17.189600934033916,37.60902829088625,6,S02
14420,0.09660724292129629,6.7394627617571174,7.125305340878864,-4.2,-1.2,0.6,29.41363505651075,-16.273265148657316,38.714359220254295,6,S02
14440,0.10058797017067769,6.731240618767717,7.1896905598548955,-4.2,-1.2,0.6,30.24306829582446,-17.79746947315028,37.81355950192784,6,S02
14460,0.1218534038636892,6.715309321412139,7.167609339855074,-4.2,-1.2,0.6,30.433478849633865,-16.50296484524153,37.954321663118044,6,S02
14480,0.12852953233819658,6.716256363678687,7.173927822248225,-4.2,-1.2,0.6,29.32972872916186,-15.6420003432923,38.086648219463825,6,S02
14500,0.10367287613104789,6.740141762138116,7.176671667256853,-4.2,-1.2,0.6,29.799693811013206,-16.316866328766686,37.636182064216754,6,S02
14520,0.10332639944015366,6.743260697126732,7.173569971809235,-4.2,-1.2,0.6,29.47496414734051,-16.19305263889433,38.17696742081568,6,S02
14540,0.07195665592143177,6.726345919701382,7.1721925584720765,-4.2,-1.2,0.6,29.686909628499865,-15.664832758285756,38.13598521654565,6,S02
14560,0.11933562847788766,6.771852176145549,7.186463027598744,-4.2,-1.2,0.6,29.5707540087578,-16.72340629757536,37.96128648006537,6,S02
14580,0.0927677551302362,6.763839857292666,7.168267801374951,-4.2,-1.2,0.6,29.96830087851232,-16.52817584580393,38.15986078549423,6,S02
14600,0.0981922588087243,6.762561651537323,7.168416235307123,-4.2,-1.2,0.6,29.625058329704963,-16.554847587313702,38.3372394409681,6,S02
14620,0.10928068723826252,6.723498928510095,7.170429983840955,-4.2,-1.2,0.6,28.79524818235536,-16.170274348497166,38.462011349452666,6,S02
14640,0.05974871158253155,6.746046158966459,7.172301222843254,-4.2,-1.2,0.6,29.680749176100797,-16.23572759840465,38.29596061566851,6,S02
14660,0.1294216521473671,6.759337547753449,7.163149257681035,-4.2,-1.2,0.6,30.014889572303705,-16.580367100290573,38.83018137524181,6,S02
14680,0.10420356429917842,6.7408627000376455,7.175929976167864,-4.2,-1.2,0.6,29.952450655374058,-16.50613861299967,36.98966784571632,6,S02
14700,0.09364039993363898,6.727024015362989,7.111879250416595,-4.2,-1.2,0.6,29.060925442457386,-17.06956440772117,38.04297290077074,6,S02
14720,0.10152327672041549,6.765491207876278,7.204025300898929,-4.2,-1.2,0.6,29.914722000159692,-17.05994372426094,38.724653468752315,6,S02
14740,0.09498626384923234,6.734328392677704,7.202647631311705,-4.2,-1.2,0.6,29.198765916443683,-17.113046323585024,37.931881518576496,6,S02
14760,0.07623327063675034,6.75197762617121,7.118001282985781,-4.2,-1.2,0.6,29.757774161674565,-17.258939948873675,38.53144687064325,6,S02
14780,0.08912833024687317,6.726403032966388,7.166891355430042,-4.2,-1.2,0.6,29.881381599934834,-16.600311852238725,38.30399465153345,6,S02
14800,0.08568803384323238,6.753356955068217,7.142907017106959,-4.2,-1.2,0.6,30.000235509917392,-16.903760768816507,37.708219644986904,6,S02
14820,0.1293155049231634,6.7342725882488494,7.195763490783355,-4.2,-1.2,0.6,28.90484165064973,-17.31999804697527,37.88651739314062,6,S02
14840,0.11619677302378736,6.726504788358411,7.177389202297401,-4.2,-1.2,0.6,29.32783144347603,-16.07863904808357,37.34946310543188,6,S02
14860,0.051388376362538436,6.741176396237872,7.186391488663094,-4.2,-1.2,0.6,28.862027203220876,-16.94063555176688,37.86779939815898,6,S02
14880,0.08163321884174377,6.73043457484847,7.158464121065673,-4.2,-1.2,0.6,29.480596534257526,-16.40929032134749,38.8778804193165,6,S02
14900,0.07550116044393976,6.74995247220168,7.15179775135853,-4.2,-1.2,0.6,29.90178235637257,-16.113004720360443,39.107712207797285,6,S02
14920,0.10951343025787585,6.742835409313747,7.152602442745092,-4.2,-1.2,0.6,29.275958581441014,-16.220408546769235,37.33180111508241,6,S02
14940,0.08839185083777293,6.756034261875122,7.163646978920256,-4.2,-1.2,0.6,28.72383058703875,-17.073967476624983,38.28041460532238,6,S02
14960,0.09910725559595347,6.76060882657942,7.19281715327623,-4.2,-1.2,0.6,29.150933148245585,-15.342102686939441,38.81459424377395,6,S02
14980,0.14056455620434688,6.751961358138226,7.149107799047097,-4.2,-1.2,0.6,29.390226067831215,-16.434515034326683,38.02728366856433,6,S02
