timestamp,ax,ay,az,gx,gy,gz,mx,my,mz,label,subject_id
0,0.11709845440603649,-0.11906874695319386,10.07029923151931,-2.0832801301869583,2.7044473097165724,23.286884983858954,30.936988118196822,-10.29768201897503,38.58132228483831,2,S02
20,0.5205677678119471,0.46275955674847497,10.483145589913176,6.4589466220139,20.23185076007108,14.268015866744612,31.459517641206943,-9.553056111417604,37.56643695708412,2,S02
40,0.5957312990381812,0.8960110084193063,10.767895126902499,19.644273232948017,39.406627370216775,11.82403300411576,30.044467859803348,-9.774890305094566,40.83474245034778,2,S02
60,0.7991629076908305,1.3757570360726759,11.118375497463607,25.33948435440174,40.384620570990876,7.608320484935663,30.53026051360311,-10.5158784579485,39.58075209463993,2,S02
80,0.8940075159952634,1.4831337440332395,11.130918841867302,31.004441703565245,57.007804355145396,-0.456259390314934,31.332791266019324,-11.201879335136354,38.20566372915567,2,S02
100,0.9199742617412721,1.4407666041837521,11.266507841440498,28.171622875087404,58.40118661406261,2.4260570507747237,31.32552382636862,-11.156279112727336,39.56790501384162,2,S02
120,0.7223120844043938,1.6026167139384033,11.122890467863225,35.22824888691126,49.17624801776664,-3.449144732202418,33.33188320818164,-12.474120588704046,37.953487901595025,2,S02
140,0.6920539174967751,1.4955579067678018,11.11559549413879,21.45459928510709,46.138327405783016,-7.905524927651838,31.964258233234688,-12.227831063178506,39.328469062776044,2,S02
160,0.42385026517259106,1.1348382373868262,10.749527981838877,18.942593945708907,37.809573009667176,-14.619861870917664,33.193425199930545,-11.46671192726754,41.45671461763506,2,S02
180,0.3492849544608311,0.959939565934268,10.725589161006525,16.131217254904755,32.673792332801526,-11.900773191595494,32.24803860229982,-14.049950908273775,37.89837744348922,2,S02
200,0.22516616212300125,0.48359602265328544,10.605855918274916,8.516448918411928,23.267599697829286,-16.025103342923106,31.15697226977666,-12.216813880099547,38.68755900818599,2,S02
220,0.19357726783811813,0.38994609084619086,10.413637212119683,2.814328357797426,11.181713315035145,-19.193458058129703,33.41306524485989,-13.942680133629484,37.6098546461254,2,S02
240,0.30257075145364476,0.19013826572193993,10.181055851033417,3.9599179101738704,11.563990599639334,-19.63753858923949,32.077347739147044,-15.525998631114367,36.77121933736931,2,S02
260,0.061223207935331994,0.09535406180943995,10.153624104876968,-4.989628247176617,1.9725084992153088,-22.689238442944365,31.72265258047534,-15.727421355296881,35.545668375175,2,S02
280,0.13951000504360123,-0.08192319551658919,9.92255925536072,-5.265123223320116,-5.832306429922425,-12.915339700245315,34.0290509816583,-15.60818377630252,35.33140043842887,2,S02
300,0.0466521076909565,-0.40715959188337286,10.026432319833686,-6.874677205791187,-10.37393907096887,-11.136427195701748,33.28214015817372,-19.30391501229154,37.047436240827274,2,S02
320,0.0025623350975978593,-0.4497342723144181,9.869736885673701,-13.171397765140632,-11.820921361156916,-11.268793022187497,33.70712924564017,-18.034769232646184,36.43276056409941,2,S02
340,0.10605750394066747,-0.797407570396677,9.718416307043727,-13.1486635476364,-20.75747180466986,-6.156859516320692,33.90555051357089,-18.76178650699704,35.47728653904274,2,S02
360,-0.3097306661563477,-0.90378432725707,9.670598493926123,-21.89261036569727,-31.152833400979514,-0.29544399220465656,33.92072421419472,-17.849238264488044,33.90269625711127,2,S02
380,-0.3157986483704477,-1.2702437846881625,9.472880842070909,-25.174206676123998,-38.58826419665979,7.306720861425658,32.97652831326849,-17.90899275702808,35.8433799517365,2,S02
400,-0.4604195643034906,-1.394330163192199,9.185246071310148,-33.559625134311254,-45.9435208252447,4.7563319470111,31.0395291530029,-19.485427252257423,34.48114591760387,2,S02
420,-0.5990818001004644,-1.6862058073966906,9.184269050052942,-37.78532638654123,-53.96457901143052,15.778245338444036,33.74883241453346,-19.6117210646966,36.56421023449601,2,S02
440,-0.7360477026567096,-1.7049236913876127,9.151095661652635,-41.321244222490236,-57.26732991112794,15.272692910313282,31.4424613757666,-20.18199627386998,36.016602192867126,2,S02
460,-0.7000653396326824,-1.8197860053159796,9.111908339126229,-40.99121426712124,-52.26976545926952,19.738224231143978,33.248853114212864,-22.89356559228205,36.89562502209373,2,S02
480,-0.6264651399603802,-1.3424095489049517,9.148362118760556,-35.63981342027406,-49.966054857556465,22.180291737449203,32.85684033976847,-20.828700593532425,39.08516245620538,2,S02
500,-0.5674724490078404,-0.9800819649959482,9.43425447325597,-30.989273663739713,-35.03574993789046,19.29784956344595,33.049320765738116,-20.834505767525236,37.14019645678102,2,S02
520,-0.11223420675314816,-0.5927516335192722,9.906295213021744,-14.470122613089984,-17.659454132867005,18.696817080285335,33.602814262035096,-22.669044558325623,38.12881769105427,2,S02
540,0.07635073379068578,-0.20261125174997452,10.181142927245151,-9.547635116907465,1.6992986228671934,17.67045303115199,30.36492456161601,-22.84858758157567,39.101091280195675,2,S02
560,0.15967501173121934,0.48026767480588645,10.421196133330069,8.76906698183248,15.661576259139146,18.619806216094286,33.17389566020912,-25.015534714988853,38.14420239022684,2,S02
580,0.5579254050338055,0.7131439640602106,10.992277900050624,18.364663150853545,30.672739010673567,13.542391787051713,33.404081227544765,-23.353073672091053,37.19757603001266,2,S02
600,0.789560230758667,1.280906478774143,11.069686083064694,22.33531336489456,44.2827885276427,6.7737397577132725,31.498775641854802,-26.02192961912621,37.93871067933646,2,S02
620,0.7001210692504578,1.4893315001290153,11.117680331631309,31.153163936850024,50.6749016135252,6.177745036207742,30.48838487352755,-22.880803249595264,40.077700360550615,2,S02
640,1.0841967552758847,1.6233820030840174,11.21647317101221,30.94962094198753,57.320456207481506,1.9297887680895855,32.040186730268594,-24.340813891327116,38.43801341127604,2,S02
660,0.8693836152272327,1.5525508999637823,11.189654696218595,25.672486339997402,46.44697892729316,-9.552440609532612,32.48786542851816,-25.745075226930275,38.5198474479441,2,S02
680,0.6723496210723037,1.4926447619983474,10.96315935191211,24.74540600696088,47.188901670173195,-10.517767251913599,29.923218718826853,-24.075193718219747,38.616093457502274,2,S02
700,0.6057049873374442,1.2727931047180159,11.024016678108833,21.393611216520032,35.14246690871048,-12.050111719875598,30.02029054752034,-26.149577280202298,37.36264745696348,2,S02
720,0.46488301185841374,0.7220981206801629,10.663007838572657,13.145518614807525,29.626737576395353,-14.234346212583278,29.07636751213321,-25.78953261224018,37.75643101093486,2,S02
740,0.2664428933621137,0.6147396851373725,10.489339009013054,14.2182732014649,16.61170894235811,-23.98195962540921,27.42372361386538,-24.431357522441946,37.33219879484965,2,S02
760,0.27412745227014895,0.41772304030115537,10.375186957085027,3.280581401747618,13.329612323193883,-20.05194954122126,30.408921982070737,-26.75622307072877,37.6118342059124,2,S02
780,0.03679312623252,0.1326356808305688,10.250877419456858,0.5741069386247268,8.429472004975521,-24.732274792593344,29.583028645619617,-27.140176897517836,37.68716554115479,2,S02
800,0.08822373636311777,0.052385361766194335,10.232749460338706,-4.1095264464681796,2.2542725743099528,-24.19016152481529,29.436847098445185,-26.030123432962284,36.34431493218027,2,S02
820,0.02034847261774489,0.0269863728300673,10.024895360708285,-2.178793588843394,-6.944841177376332,-17.308936818138164,28.717459428633994,-25.094591494740904,36.794996091556584,2,S02
840,0.08298474555465275,-0.3620633128107991,10.137339085901468,-17.958399924377147,-10.468382291430647,-14.191135135825382,28.267539491656073,-25.587607562297748,36.46510023187679,2,S02
860,0.062206650500970344,-0.5550297557917765,10.090838881989141,-12.083764098209866,-23.72009763973845,-12.552698696448806,26.158846176861548,-27.929246883779538,32.72843906008072,2,S02
880,0.13694273807122165,-0.7953970853874373,9.867978875034332,-19.093789447695396,-26.959600100064623,-7.273895069196876,27.29346744812856,-27.62969983850567,34.75149178539176,2,S02
900,-0.20814337709377925,-0.9612966026679428,9.680490377235188,-17.4921321672085,-28.919158938026218,-0.6358870376320099,28.062332843600426,-26.814592356478244,33.75335827351539,2,S02
920,-0.26883732630301227,-1.2912352231696087,9.571802447985196,-25.02431155924948,-42.08031533166793,6.363518932393486,24.17543102621098,-24.43557520325203,34.790062049080674,2,S02
940,-0.4412478284948196,-1.519669305878009,9.298474503931825,-31.632311588718622,-51.157768699750115,7.513945984251307,26.73553169702973,-22.664225921555396,34.44668974584568,2,S02
960,-0.733692003214165,-1.7429291039761556,9.12647081999882,-32.008685298867164,-58.42117351269355,4.9968455769260345,25.20242304705271,-25.27418295427822,34.864626944812585,2,S02
980,-0.5374718839124826,-1.7903070174801345,9.065001792896629,-42.15974222145775,-60.85175161930594,18.25357645000229,24.22343408230342,-22.74614212812856,34.55666543422302,2,S02
1000,-0.7484358798240257,-1.7539690703625723,9.048416501877673,-39.56823350652964,-52.47541229253377,18.3806429586763,26.956477595427234,-24.364878769593698,34.75544860441677,2,S02
1020,-0.5701034802725204,-1.4846277315338774,9.21250105911608,-34.66533281775789,-52.05759576980167,20.338154960205802,26.126652294332555,-22.816676684286726,36.79705350382722,2,S02
1040,-0.4706109211737488,-1.1661455953322626,9.541725038024783,-24.322273215163833,-35.666816268659844,14.915567473095463,25.38937713835611,-22.775383691347272,37.79189881135023,2,S02
1060,-0.26526622152846413,-0.6648345902725044,9.848955948178622,-17.452095261314867,-21.537222972176227,18.576511020755937,24.71556230548194,-22.67254815075081,38.46935639838965,2,S02
1080,0.05891329487923048,-0.11302657224970092,10.059102168651066,-5.275462972520761,-5.086863802307297,15.994076006721814,24.792992159147346,-21.65411096184397,37.789034051837426,2,S02
1100,0.3494370189020461,0.3694160900086653,10.32693782013687,1.967028147006685,13.466241546703762,18.671878370924638,25.084848076384425,-19.88158296218984,38.78550527957144,2,S02
1120,0.5697309199042232,0.7619997973346455,10.742672246718149,16.288684073542232,35.00473807716826,11.135554244079726,23.75919395430595,-20.722456202778403,38.34033547655229,2,S02
1140,0.8197432816280007,1.2185000739322023,11.03576875771063,20.24363005689712,41.86344579469116,3.181072816781945,24.3553345092689,-20.11967672525632,37.51111816283734,2,S02
1160,0.8284479846220059,1.6040290636302348,11.226099394377549,29.38545577623353,55.853307764955275,2.8315741257411187,24.631770049544095,-18.223359826521527,39.758035350501615,2,S02
1180,0.8311902493939227,1.6712275251937312,11.237903515765243,29.69598862766711,59.27311228381748,2.83859628503914,25.40693601729846,-17.974623464031822,38.21772596761359,2,S02
1200,1.0023368085084925,1.5318906186960304,11.032289042812192,27.576813920025764,48.691501420123856,-1.3023949666691572,23.850557187252438,-17.517030028736723,37.40727394493363,2,S02
1220,0.7560050344669601,1.4233693360332573,10.967774860278908,22.699499629895872,48.13192741709372,-7.770283494856125,22.796733757615634,-18.130199964106737,38.45695902497788,2,S02
1240,0.5697557940930256,1.2387202899416188,10.760054232206803,18.742699772443984,42.64224936121593,-10.18348019426969,23.643047837699307,-15.109815008376511,38.01322039492154,2,S02
1260,0.34131534151561715,0.9318446588288569,10.778587470335703,9.070970280440953,33.947717525709685,-14.759251246295234,23.314546405107993,-14.814185500985381,38.802826105556825,2,S02
1280,0.12427824711947003,0.5664432278666804,10.5748370281379,6.90386123370384,22.714985147740396,-17.941810426133525,24.12642944356414,-15.388067507647946,38.237958906046686,2,S02
1300,0.09423876025601645,0.2871488015917337,10.408714347245368,2.6002268659068584,4.810060979367072,-12.90960730315998,23.419157581482423,-15.251410968080426,38.60591218172826,2,S02
1320,0.2659358258403286,0.05611441924547053,10.32788422496704,-0.9676847438582663,8.645402292643979,-23.72716660712966,24.570663064301378,-13.652901252373688,37.40237391754781,2,S02
1340,0.022797890157168307,-0.002604266359802543,10.095728699714625,4.107922972106365,3.348643750817309,-19.078534505819018,24.401877095480536,-13.63490698607329,37.402431910596206,2,S02
1360,0.08692421885868687,-0.25289332416134336,10.04188964999543,-0.5246770183839384,-3.930073166638616,-9.108564414553276,23.52873350144025,-12.613639010866992,36.22171266349392,2,S02
1380,0.09019737093277294,-0.2034829634191326,10.020407732033886,-7.159505976781604,-9.449719433173128,-15.355459766325895,23.449268465638912,-11.672759452320449,35.538960354852165,2,S02
1400,0.0908140218906104,-0.5765142335444771,9.776572871162566,-11.208782429339482,-16.734297908747592,-9.100282876248158,26.268982375564963,-13.67234510376941,37.196531813161094,2,S02
1420,0.04065008727496068,-0.70533793010973,9.885305166918135,-8.296639170589756,-20.689757664619904,-5.247613053780641,26.117090069084945,-10.911704428795131,34.56214693343694,2,S02
1440,-0.19405458746215934,-0.8136765755086064,9.74594070105756,-22.346445531437745,-23.36609533019811,0.9692375126062257,25.439290323030484,-12.1121808013948,35.69273627598718,2,S02
1460,-0.3392748174424246,-1.3201129508237124,9.43799011486859,-25.163165343715377,-44.34396679676982,5.933126455700318,23.975154043929003,-11.091162854546843,36.87679376908861,2,S02
1480,-0.47863538388717153,-1.5151446651890457,9.378727122934897,-25.85860444346684,-50.69730142766064,9.31667214475374,24.869947039630226,-10.452195845490245,37.481399100702,2,S02
1500,-0.488369443776432,-1.6617229327109067,9.185408792997247,-37.1625437839237,-52.18591095772749,11.998444168507548,27.263811921718236,-10.768771680615778,35.1385738585269,2,S02
1520,-0.5507040063544619,-1.7587309109170606,9.10002814456944,-41.083799077460725,-58.69484716192847,13.623609268175393,25.67025440014153,-11.011164616802674,36.422200221298496,2,S02
1540,-0.5882387781955662,-1.7323841291809716,9.063480354800781,-37.64052711876943,-51.77514837413056,22.432505239638452,29.360871362832576,-10.062855897895428,38.82603448973443,2,S02
1560,-0.576706193459271,-1.5272802157792802,9.313326247648854,-38.42567412703726,-47.27414017628282,18.66768763036752,26.804708494086462,-7.687363128820673,38.64696528265948,2,S02
1580,-0.42913376535613046,-1.1784284607143656,9.418486733140423,-25.59987782886846,-40.291782862324396,18.048733320258336,26.791741460012997,-8.814575504119748,37.73429230212862,2,S02
1600,-0.28691852999017753,-0.8690188799267304,9.692832561635454,-17.304433592311813,-20.02655147992515,20.92332806320748,26.574217831626004,-10.342075476524776,38.39976760506335,2,S02
1620,-0.024465010317587854,-0.15565544814012022,10.127409142959513,-8.018992624955931,-8.897361972528442,20.1381561963823,28.35247417055506,-8.695790078324318,37.88691917502527,2,S02
1640,0.2222744633570986,0.31038239540552365,10.391336583432679,6.879812521677942,6.643260809460122,12.4660901220002,27.939037022028437,-8.410675951537051,39.20146943903842,2,S02
1660,0.5498594385019236,0.8472041353926636,10.79272145835991,16.371885356823217,31.117562388713058,11.887228569789299,30.64955216884279,-10.421036842844918,37.83659555322872,2,S02
1680,0.8305341425564319,1.3062311012546999,11.046671467588824,24.679937540697633,45.54876284898626,7.141252543346662,28.312109919969096,-9.002988404141593,38.29030013179104,2,S02
1700,0.9428323577302999,1.4159599472599276,11.104033430735877,25.36528443250378,56.159954104310664,-0.7860560885649021,30.142301708997934,-8.896613754733735,40.11140909456275,2,S02
1720,0.8156811252910419,1.5064820584172458,11.195969093499825,33.98015655215232,53.13146574972945,0.5612324517226562,27.978714973403534,-9.385042466295612,39.10019221197475,2,S02
1740,0.5431076082165619,1.6313992765400087,11.262606502110327,28.150001138673563,57.04740352626658,-6.894409169197187,30.09408259235711,-9.582259390567874,40.218522370975826,2,S02
1760,0.7630603612271347,1.2396577291270838,10.845532464773708,27.431556604544806,47.55630901578675,-9.617865823101743,31.553014507697384,-8.41974669822165,38.80281528056164,2,S02
1780,0.7630814475365767,1.015587162524112,10.798962736120448,17.590377975693777,38.37225355957154,-13.533123877199891,31.30361984761175,-8.714059458938452,37.854386551922175,2,S02
1800,0.44842650085453684,0.9398232735038536,10.769128560940345,13.915540527460912,28.063436438552472,-15.5304452361722,29.238552680543368,-9.229515863514468,37.7095983854108,2,S02
1820,0.29658580743959895,0.7178472532882489,10.511529507494673,6.149932370879767,24.48975897360659,-18.08204607708309,31.09161416053685,-10.371008421521282,40.164388266877594,2,S02
1840,0.20287123877758328,0.40709461069991965,10.26601561237021,2.4550959504273946,17.690968652820796,-21.285643133434114,31.87569432015476,-10.953123560303478,36.805752360144844,2,S02
1860,0.17965550702948976,0.1360749050999539,10.32584676498108,-3.154393892313716,8.037967584579215,-22.83413701694348,29.64168801644039,-9.742856783102354,38.12490892143034,2,S02
1880,0.04101656051924923,0.08472042485163242,10.374378666150196,-0.8945100703607824,-2.723781027070882,-21.555387170638777,31.484336051716237,-9.610126617542988,36.374125609048136,2,S02
1900,0.08283283065276509,-0.2873839824474578,10.150475097826806,-4.876348260194999,-4.212397820246491,-12.474022815749796,30.570187947064966,-11.437811032425696,35.983373642149175,2,S02
1920,0.18017906209656553,-0.44837646593996305,10.044695938923079,-13.165563932529409,-3.7546881919505166,-17.477425566453615,33.95934293359019,-11.609087667026184,35.23512179320557,2,S02
1940,0.32859546689368047,-0.4256019800208625,9.996841991119824,-15.333516389202696,-12.905353102541559,-10.889579265414278,33.50808387379347,-13.086403023060068,35.31030152735632,2,S02
1960,-0.07587466905565715,-0.665151008944947,9.868934834929831,-21.37622978716175,-21.210151721157587,-3.8824531415143935,32.92893634481071,-14.04165329612858,34.36680913202609,2,S02
1980,-0.2636557231204806,-0.9104684353485764,9.782844090487922,-17.937446421707893,-30.564783867989018,-4.079111026906103,33.521940124136805,-12.672512285165134,35.532503959911196,2,S02
2000,-0.3843615909572142,-1.1309203769575453,9.37693675947943,-30.57526299272406,-40.36777525238774,2.339755546885919,32.504403142475354,-14.61157237443003,34.5334405674884,2,S02
2020,-0.553960044308605,-1.4563431779956695,9.34729268680756,-33.71541984224251,-45.433763944161846,9.312129536115075,32.46201698421315,-15.59296301541503,35.278577715002235,2,S02
2040,-0.6562722473773708,-1.726147617727101,9.148256667061352,-40.663318896638025,-56.49778910020589,14.55108156537901,34.14564027584903,-16.198443996866175,33.487879098299125,2,S02
2060,-0.6664980994300139,-1.8152891063602712,9.083027653089898,-37.655267241528236,-58.25079126278882,16.96401971064729,33.33791580928578,-16.290136277824562,38.45260847245609,2,S02
2080,-0.774730338787278,-1.6781566183962031,9.154144536183596,-41.566927470193185,-55.183225203634386,17.139179617154106,33.488265636438165,-14.929289708798638,35.50117429719967,2,S02
2100,-0.6054891293773194,-1.3646687411294252,9.143829805084335,-35.52393956975524,-47.67385922449972,17.26332883645334,33.7979911078995,-17.041004709306357,36.47071374557513,2,S02
2120,-0.5218738494018238,-1.1114814650603264,9.536422836426265,-31.07253745909278,-43.473703785781545,21.21759783310933,33.53000614100562,-15.512409979129416,38.03078502450366,2,S02
2140,-0.3083046506955358,-0.726049635931401,9.80325873891152,-21.264475526119284,-27.906261155767492,22.591038164711804,33.46949751462059,-17.112965568721282,36.1996069883776,2,S02
2160,0.03709403097130569,-0.24527123518576,9.951331417787374,-6.465747083708979,-0.5509178794567642,15.451705813986672,33.35937059595693,-17.48742167077455,37.67858287270389,2,S02
2180,0.24449796316801906,0.45560228446683976,10.492171372852784,8.743532851541971,6.921207626371987,14.655475420219728,33.15536135798769,-19.882600835407892,38.78984355156842,2,S02
2200,0.592720170258219,0.840767131102568,10.794343559453758,12.46498112953103,32.175557287111445,13.762300400933542,33.67922830724616,-20.56441807882819,38.58116110738905,2,S02
2220,0.8356535647804172,1.1937491409282042,10.821107788164742,28.092048880719634,43.09282144614953,7.685383158015318,32.309655234589776,-19.80714692378801,38.5238435034063,2,S02
2240,0.7000292462950021,1.4398722431650341,11.162193296447935,26.54403637071442,49.395877403961514,7.042265543073107,33.37566523623144,-21.14034978775355,38.80768980946726,2,S02
2260,0.8061088719609701,1.6567707673336864,11.291135702280286,30.694924255037147,53.18608096498374,3.5137094485312588,31.12244885386371,-21.533130723450345,39.4279059727695,2,S02
2280,0.89384395224714,1.4582784531587643,11.323526006806755,30.37163044747525,53.90845068269904,-2.6539264887212615,32.09667940930564,-22.66859855982372,38.458877456120604,2,S02
2300,0.7200274701298814,1.3625456296075802,11.105348034659245,29.288645874549406,49.816047834356944,-8.308323504139437,32.40732269896013,-23.23251925989109,38.21899727405964,2,S02
2320,0.5817089492126793,1.1976894447773256,10.868347683868237,20.651633156072343,44.83371367895267,-9.489858855659836,34.326380290005744,-22.796432724641463,38.42604318514882,2,S02
2340,0.38012118467188716,1.1075948002674623,10.707719180790672,18.948547445094913,29.68781944040839,-18.138708311412145,31.527387331644864,-22.11333064314162,36.218432722914194,2,S02
2360,0.26605617373937007,0.74526165322645,10.498754059679717,4.989370305847287,20.2794440711493,-17.525522277564228,31.816892816997967,-23.742964604805593,37.64517756668306,2,S02
2380,0.16533933519845312,0.4397129032543176,10.420296239209316,7.706317926724643,12.402727374456202,-17.99351221926679,31.66047098625332,-23.09789611287337,36.61903206540454,2,S02
2400,0.09677333026285286,0.1995348242366617,10.14286331938396,-2.826886991330556,10.760980881293916,-22.24219079948409,33.815563748278194,-25.65486985521183,35.513121032314785,2,S02
2420,0.07345988517184979,-0.026437610120937927,10.243284469361821,-7.498615528509942,2.0148892220857597,-19.719791765058723,31.962722659514167,-28.126328027395644,36.84849675610812,2,S02
2440,0.16074799448477878,-0.19755350649124423,10.088093947831602,-4.1354788987936235,-6.587906601274104,-18.542866274483018,31.354489702684003,-25.59798636230136,34.63102567641325,2,S02
2460,0.06334273261671641,-0.19031668748035582,10.024382896097244,-13.143712485458398,-13.972845637912641,-10.68396306278199,31.917278700743275,-26.81521938804034,35.126522054647566,2,S02
2480,0.057703712335036524,-0.4787530530528832,10.003164690798144,-10.580155021742335,-12.041115091148834,-8.384975897734819,30.12552873804486,-26.319666566137954,35.782229699142476,2,S02
2500,0.06293833376068533,-0.6521562645644257,9.76622260383693,-14.217583553537928,-15.424341302032028,-6.124947099870025,30.08298904650247,-25.796433285191277,34.23599637666834,2,S02
2520,-0.17941707219716943,-0.9605588422840032,9.73678011191124,-19.02512321975401,-23.376840840925066,2.033556929047948,29.755263881374503,-24.990262143267998,35.52409438397511,2,S02
2540,-0.3674715287572008,-1.1679141265219246,9.44048336484843,-23.823372093231875,-39.74517036943916,-0.7823711264987644,28.749848266867204,-26.96496585466968,33.0013521484008,2,S02
2560,-0.38970292599825085,-1.3163459397248294,9.374138390443274,-34.828331904899294,-44.8957154254065,6.671788819047427,28.267881932688642,-27.01348081541757,36.44621521950943,2,S02
2580,-0.49130510831177965,-1.6542378538858034,9.064858089029702,-35.65081467970049,-56.38621697345165,9.860504327211167,28.877594609960124,-24.665568323038908,34.48262251102827,2,S02
2600,-0.5170157540321954,-1.8171840911149901,9.066657784393469,-42.703629063829496,-61.24922872491963,18.17835326167454,27.97442101776357,-27.4961756139694,35.318112131118305,2,S02
2620,-0.6242075358500508,-1.7489388350931565,9.032068759558415,-37.09870672942697,-58.97193869154862,22.810987602859697,29.29904786276933,-24.833316926039704,36.09115412985896,2,S02
2640,-0.6994605343355432,-1.4969221509232742,9.186699737721165,-38.700259823096786,-52.213481734571225,23.214619830709367,27.878620931082665,-25.735776807443543,36.530134355768276,2,S02
2660,-0.5697910717777207,-1.29410403701534,9.39393815360867,-31.07327078720774,-38.54306670759703,19.327884153974136,28.62838052408881,-26.712821005260544,38.98134806959716,2,S02
2680,-0.25859091999030825,-0.6730082290087871,9.789562663358762,-21.218509151243335,-26.181936665036154,21.736112214307795,27.87471100148741,-25.952094878038466,39.346991849605786,2,S02
2700,0.04135789398973201,-0.2666600917011489,10.00610728049421,-4.417121978895582,-5.343137432108098,16.7837529723144,28.149161677334238,-25.889699274347485,38.24157683140466,2,S02
2720,0.3436811595797589,0.42051970558971746,10.42541893473044,7.530196463466356,12.864313293424356,20.14986909862453,26.875294551402263,-23.882975137166262,38.135643374173824,2,S02
2740,0.547557248165328,0.6576631153466599,10.686169523167397,6.937617853868457,26.776986037605308,9.137449050686199,26.040718357023746,-25.039225062996458,39.35555736505674,2,S02
2760,0.5640513438521586,1.1470032175618587,10.95689809773533,28.118596825890922,39.67366143243197,15.066266999406364,26.52536743404385,-24.75514205670717,39.60072271805492,2,S02
2780,0.8494216276917496,1.4644176318557085,11.031858598384062,26.116472436353252,52.60627210768932,6.951723320939983,26.94533931407603,-23.024567901979616,37.075704383649146,2,S02
2800,0.8657601807714341,1.576793918677879,10.831740432049505,32.34822839437483,53.467924843886564,-2.573330743344538,25.8500189092656,-23.671411422018743,38.1186164304547,2,S02
2820,0.9091108771515529,1.4762835357530169,11.115979601073867,26.709542490978293,56.408803544091676,-4.227103953414736,26.753352925900497,-22.652692775466765,37.009297234447715,2,S02
2840,0.5184761569317952,1.3887574397583695,11.098292380186844,28.171293641850628,52.49369298491901,-11.682844160849934,26.828054448556887,-23.616954885751465,38.546880422018575,2,S02
2860,0.7292489990798526,1.1567122297320245,10.859135262196817,19.65209808353442,38.210823683937356,-14.569922051309133,24.854217910112887,-22.45545567512974,39.74689006613573,2,S02
2880,0.47574708821956435,0.9303693705341185,10.732488958924725,16.73171803257374,36.90799861138185,-19.461521360969073,26.785122358047538,-22.661485512847797,38.62550356088441,2,S02
2900,0.1866134443140844,0.7186816070774786,10.572549652452157,9.095238895520826,27.674538386794012,-18.998015451885575,25.673173518555856,-20.62894559683926,39.052393044501684,2,S02
2920,0.014514599392443928,0.5829724956674425,10.551374102587474,-1.9078209373204933,10.874899436860105,-21.35495218025396,24.069636236636335,-19.710719210423058,36.90401455364138,2,S02
2940,-0.001974648794597189,0.21014985439277428,10.224558254491635,3.608845390051793,11.934836636928985,-18.469982936365078,24.899203359087224,-21.040156056828533,36.85553670937877,2,S02
2960,0.13358672648835399,0.04136438369061274,10.242192655704887,-1.3453763630253475,3.899456044647235,-18.24831909663007,23.500618214167886,-18.442646665909052,35.89019414780951,2,S02
2980,0.16167249963322702,-0.119702874950121,10.196457027372679,-9.336383410544332,3.757734069663033,-12.774265794239513,23.028031251726155,-17.83545426104184,36.22909137563382,2,S02
3000,0.08422794144744755,-0.29301823402707144,10.013348620749131,-5.6737186282086025,-6.961805637238401,-13.343708341109982,24.645453820737906,-18.40846851952621,36.96457310041922,2,S02
3020,-0.0036850126599981964,-0.31562789601603886,10.097465925913351,-8.372741842728253,-12.344875393056897,-7.900647921687769,22.22853069542377,-17.91241219791976,36.70367331901551,2,S02
3040,0.07150931844400005,-0.6617603104573022,9.801085807030299,-10.858969968471126,-16.581926755524833,-7.029321685123891,24.615232308449947,-15.233009999338027,34.70600540830915,2,S02
3060,-0.06940564235664223,-0.8906080172619228,9.75413797456865,-20.96208397520536,-23.698813041712356,-3.0742177797959327,24.616418163977976,-17.011454839747767,35.84412746352616,2,S02
3080,-0.36546648465512444,-1.2065926216538452,9.428903881891772,-22.0660255364329,-35.03471411061995,5.22950386181029,24.574649698206958,-15.396278761781861,35.73185127976217,2,S02
3100,-0.42836731242345516,-1.551223326240323,9.284121209966605,-33.51984545784114,-40.826729364103784,9.721601070614726,23.13909679160555,-14.407803930682308,35.93876412608516,2,S02
3120,-0.6213678828755912,-1.701742974855487,9.231458467334374,-30.294805567773754,-53.00180447126977,10.525503948324015,25.10365557208241,-14.969593985794475,33.76265248018207,2,S02
3140,-0.6486560265659521,-1.699822186120748,9.185729063441626,-38.821210013418494,-58.91396412523861,12.882774150438363,23.737519692249005,-15.512752026340225,35.693098692734615,2,S02
3160,-0.8168599211957556,-1.6403587299435525,8.99801204829098,-36.09036569958431,-56.27667870304283,17.924761545968863,24.088890084801143,-15.55093227845792,35.48182293941851,2,S02
3180,-0.556912741069976,-1.4876306115346525,9.174185338083271,-33.43910157507974,-48.240925581550755,20.294035326843492,23.94487777122974,-13.020881253449687,37.51369913840902,2,S02
3200,-0.5189017767937201,-1.2097408976262267,9.494984661891749,-27.966370922763094,-35.5651486108336,17.993266793071182,25.019021663680498,-12.439101020953968,37.42534648404352,2,S02
3220,-0.2876138973164418,-0.7109528304789772,9.591319986870225,-19.26095625884418,-20.365729101997676,23.921899314712856,24.59632093670764,-12.501741321598967,36.399099506859486,2,S02
3240,0.08366207757357785,-0.2318644780495328,10.002457208824827,-8.218460206724902,-11.058800771363211,18.686993144508296,25.439132885198354,-12.96527946070388,38.66843230710641,2,S02
3260,0.32334060344770194,0.23936240123215108,10.312179981663938,9.719397228438567,3.7713923286140645,17.752094053308493,24.620026054316813,-13.202960378147733,38.616831821728766,2,S02
3280,0.4534129254247613,0.675568163785385,10.629124825581902,14.55311338609345,19.31055597234729,12.473103147711853,25.37042393633967,-9.776135183889751,39.01337925368275,2,S02
3300,0.7095012577516977,1.240458219118442,10.862292226396997,25.360601963224795,35.69099647129241,9.025027333785816,23.344745564122615,-7.865674908703629,38.03097777767809,2,S02
3320,0.9418754985501405,1.4612178366584532,11.176964689090964,25.532811768528205,46.866411976244805,3.2473062097490524,27.799589634168985,-9.441030621529329,38.766528011196975,2,S02
3340,0.9389195411792336,1.5306763321219385,11.11369825073906,31.90047747833822,52.52969962705985,8.030761137425353,25.47548469350341,-9.279280624872209,38.14869809535279,2,S02
3360,0.684503286928191,1.6949757156827048,11.096891333732843,22.061893125599216,53.397231872493506,-5.055726808884955,26.923717692210307,-11.446862381022864,39.51592772221252,2,S02
3380,0.7188668124558961,1.430862398882237,11.034866086519228,24.509551667791637,49.639649033434964,-6.636927081586222,26.82693193706673,-9.896180935918524,38.27419005175676,2,S02
3400,0.6917642342264536,1.3417365006933157,10.919764604310558,20.155273806851845,39.07596183441205,-15.130567183885402,26.367425905208094,-9.171285408582161,39.92146979320586,2,S02
3420,0.48348247413683565,1.0555097721578408,10.64870244965397,12.886153832432676,29.842219627988232,-12.478990731009148,27.074532524417624,-8.675667980532662,37.31177639360524,2,S02
3440,0.2864201305970985,0.660071049083373,10.601771413868159,15.137608371198034,27.249522804076207,-22.32773445032208,28.648200036690035,-11.312289404487537,39.619019629296595,2,S02
3460,0.07101812745060782,0.27491596723805645,10.54872323007923,3.271627602664804,14.247604052104956,-22.129037169260396,29.302342910434,-9.02479548352997,37.546984855293395,2,S02
3480,0.19104860787793826,0.1798034102961005,10.361298742359617,-2.729347152290836,8.677963477308147,-14.911765818438756,29.94388639045537,-8.30809590395187,37.41498404403411,2,S02
3500,0.008844839810712435,0.11698393277357022,10.084691404683369,1.672708522254032,2.3298486618542373,-21.45273938205657,28.76165205707732,-8.312513946790691,37.112343506942416,2,S02
3520,0.11168711199539548,0.06056851616246253,10.247478773142712,-2.487903952589707,0.3120316684541644,-16.519265775648883,30.82648563343787,-11.554800262714163,37.46277771254781,2,S02
3540,0.11919187262066173,-0.23883462515351359,10.268367537627322,-10.314939832609351,-7.641636662500808,-13.614929389186441,29.30347029650918,-7.770323045283014,35.53719908561632,2,S02
3560,0.23088906555338948,-0.32236312863489136,9.825619231278107,-8.239838418130084,-10.933951202160507,-11.662150128912016,30.308983413364523,-10.280146534295655,36.75832983955904,2,S02
3580,-0.0907463182068779,-0.6849916192427985,9.882330426538951,-16.48740991588945,-19.255835877678265,-5.253601897693407,31.28499310249697,-10.505140372839548,36.4541473610532,2,S02
3600,-0.15957388290283134,-0.8645652929447636,9.634729564877047,-21.152452440449558,-27.32572830066178,0.3447582728972639,29.862532065020257,-8.318628967082516,35.4293364271671,2,S02
3620,-0.1394684266823074,-1.0732464685295942,9.594515578349602,-25.134087484497165,-38.77233030971271,6.8343244956037825,30.239639322907355,-11.737956293795099,35.18685316321733,2,S02
3640,-0.21966672581176092,-1.2264831577824655,9.478071995891002,-29.385899736518454,-44.50644538887907,13.876190168044783,31.87810648950252,-12.292896699070209,35.38848727954067,2,S02
3660,-0.4705357202108511,-1.5646566066456202,9.174865431398176,-33.8095539469966,-54.400146204607296,7.01783792610753,31.777507234009814,-10.294512419041764,35.968966201059345,2,S02
3680,-0.7510228580444469,-1.6939581258106107,8.987820265050738,-38.418071081105815,-53.629007840480384,15.150014649155041,30.532737782394832,-10.301187505800305,35.572439339975034,2,S02
3700,-0.6969258249095961,-1.690104386448416,9.070833986724773,-45.36257185258958,-61.265002601976036,21.448029459573757,32.473657182592696,-14.668466241229726,37.98580598828105,2,S02
3720,-0.6760016497980174,-1.4680503452272888,9.318351489966588,-37.8384426042751,-52.33401145721103,21.6052673292188,31.37347140201676,-10.24240706659856,34.7458343733995,2,S02
3740,-0.5190227639646912,-1.3087106625255265,9.422722688224734,-28.99684710443289,-47.02384521543187,19.22865918903794,31.914274132293986,-13.827722350435142,37.854955988628674,2,S02
3760,-0.2324752870690415,-0.7418818628325707,9.561619070581369,-25.595636946457386,-23.375532789252897,23.355912345357304,33.58009033520834,-13.300969264138416,39.17937787476039,2,S02
3780,0.027311630343057017,-0.37637004736160995,9.933404170928123,-12.830453643121515,-8.002988273622119,16.24193210493189,33.90099486482905,-12.720339639628223,37.80254782248374,2,S02
3800,0.3035796646321185,0.16922512250438312,10.24157374800789,3.461876779122986,11.006031941894783,15.616565297317807,31.82538773655138,-14.272753689894675,40.45499548913747,2,S02
3820,0.3282298819845245,0.7076278520390928,10.575516982089118,13.293524461820578,30.728073037699208,12.775912803288232,31.700596356662636,-13.88982318586958,39.41972900192883,2,S02
3840,0.8015085603147808,1.1107577955834753,10.864049462055318,22.327633209043675,39.063458245825295,12.246351447401135,32.22711944280347,-15.955545327663495,37.31279491433211,2,S02
3860,0.8998774984711276,1.484661259307101,10.966629094573841,26.007242408227242,54.23991196106923,10.995258638942087,33.00628115220754,-15.533213514620359,40.914904601848306,2,S02
3880,0.8568037700741665,1.5504222324662635,11.060244946649483,32.10302781363529,51.02534510357506,1.5662443823582737,32.33556141452449,-14.72351447268391,40.176348695547475,2,S02
3900,0.9260924600496689,1.33812980909335,11.10893464996544,30.819625975774546,54.724053618585806,-3.2611904530619795,33.702222822643265,-15.193633942667386,38.263613613433634,2,S02
3920,0.7639946962027457,1.4081928948002302,11.19432393647743,24.305404107189208,47.18694451811024,-13.33991935414397,34.013829700139155,-15.019433786732463,37.23133157727929,2,S02
3940,0.5413742015334845,1.4343066446445296,10.927312454825294,22.492638901037793,39.84160811537933,-7.363387738664866,33.48896348357803,-18.031458392947922,40.69005738849951,2,S02
3960,0.40709744163062644,1.046750227396514,10.856596045788278,19.183204669859506,29.11334653173741,-17.236595188512467,34.65099939235714,-19.386043532863308,39.46487931161436,2,S02
3980,0.3624129265185765,0.8558668533442846,10.78740358340302,12.102391483556968,25.242592273947718,-13.573028473756393,33.21710848880105,-18.25858607158534,37.19607912522379,2,S02
4000,0.18079895930457515,0.568677802121327,10.340564854912254,3.814403939627753,14.7728066357201,-23.36963036950592,33.88904980866438,-19.12608044078225,37.2368219110575,2,S02
4020,0.08653926069513027,0.18479450583410706,10.443349356395899,3.0626108700258614,11.734106430093682,-22.12720229273756,33.48196034941374,-19.183240380700706,36.54434592271021,2,S02
4040,0.17528869383381657,0.1989551738693947,10.203872312358168,-4.750033733285676,2.354760586967271,-23.080574054628965,31.660238267892574,-20.866567415691215,34.99885305895919,2,S02
4060,0.23661474575506836,0.14012591427053042,10.140388838715678,-5.023200151940894,-5.453961476200256,-17.167205093516763,33.41026500619206,-23.620697251252277,37.27706764972117,2,S02
4080,0.17775052925123014,-0.3315434221171191,10.167048764815453,-3.185126614619392,-7.657135929055754,-16.793776695290855,34.119683977993795,-22.0755932924365,34.93725743208674,2,S02
4100,-0.03240411197027526,-0.5371865983616164,10.045487574547995,-5.793123731422497,-11.579556570057282,-12.653231134558824,33.818099743227265,-23.046012702668097,35.87642221854615,2,S02
4120,-0.03800778021298046,-0.5594291819310675,9.853426970737987,-15.04019813916429,-16.871629066664667,-6.327573200258184,33.41909330474276,-22.13228310045586,34.9393363696026,2,S02
4140,-0.03406677996531976,-0.9529259188266168,9.63076464042803,-21.62353653461538,-28.128519017436304,-4.1203702337817205,34.339119435103655,-24.6214874441952,34.42762280433479,2,S02
4160,-0.2112951631656763,-1.157757692747091,9.604813362182933,-22.635453506357013,-36.44952753428639,7.88053985646196,31.77178507743901,-24.650109623914997,34.49548275883406,2,S02
4180,-0.36584439404907343,-1.3040605625793422,9.44211526170699,-31.528716908095998,-49.59487256450024,-0.3643540959070052,31.31563927308642,-23.356181461341986,34.366803024783565,2,S02
4200,-0.5085247206417018,-1.6056040362441852,9.19279543319574,-33.550586934568564,-51.63550897869142,11.237174374747921,32.94313732047952,-24.52571055505318,34.55852913506497,2,S02
4220,-0.6513000994577683,-1.6529097266498223,9.168629292841834,-34.36468324545644,-55.75601436283981,15.451056490240239,31.947412099290503,-25.466534862498833,35.51935235687695,2,S02
4240,-0.6206136333427267,-1.6657721486394435,8.884951692565439,-38.407400907853315,-56.82038987849653,21.34692692182678,31.319312765687243,-26.578953569980808,36.93360240871914,2,S02
4260,-0.6622663323448675,-1.5295374111897624,9.238288512680077,-35.46593707702274,-52.95833918430769,22.800565795238622,31.24644415579634,-24.885093867258256,36.476707620986176,2,S02
4280,-0.5067091512654077,-1.220959578807319,9.43933309575958,-29.217611979667264,-40.746826644968436,18.980804940424484,30.164087857931605,-26.060458846999243,39.61878136581759,2,S02
4300,-0.4157638159856205,-0.7791604495791771,9.619311359262179,-17.85808070515561,-28.47047943431176,21.802037749072156,30.510593714706705,-26.999829219400567,38.30844081693311,2,S02
4320,-0.042642505367949585,-0.40235472701343017,9.909094498765867,-4.96811796965546,-12.239797184131984,16.28089533742988,30.231738829015853,-26.24471729345557,37.28003258863046,2,S02
4340,0.18856682498245458,0.09962903073763907,10.276820400799242,1.2659764232263209,4.385828224223363,12.686034482897155,30.008057322896537,-24.29437894649959,38.0783042652507,2,S02
4360,0.4830538283673247,0.6416282134519677,10.751538622748733,11.963679787345061,22.896919470563013,12.723794545791904,29.450635278585043,-24.97005687827402,40.94225708103762,2,S02
4380,0.6602405852964323,1.0048044555277662,10.914323467184968,29.49146093227647,37.88447714090351,7.9991729926063755,29.315198078730216,-25.046198863534027,40.12634517510675,2,S02
4400,0.9279170574903522,1.4165144496591986,11.064725158040494,26.831743159371463,44.46944071432017,7.015811014663767,28.541375144094708,-23.197959776640776,37.57842156091575,2,S02
4420,0.7245071360564846,1.492739016478944,11.114545732542359,33.34026293349221,52.69945673837165,-0.6362219869655984,27.7226960199795,-26.883063507604398,37.814438157108455,2,S02
4440,0.8394438972875071,1.5347687147927962,11.201641002856391,22.369770260142584,51.6238334062494,-1.8250167963979096,27.66421390843777,-26.418202226395508,39.29641321714129,2,S02
4460,0.6160444642338067,1.508215949542536,11.12417653142707,21.61520447772894,52.90969405700027,-5.495200718680552,27.01970396791213,-24.64192661932535,37.70692220094689,2,S02
4480,0.5036806351523919,1.328459383567558,11.164441999494866,24.092247070654203,38.31954596250535,-15.114298644231312,28.379191648755025,-23.468425516176847,38.892205181615374,2,S02
4500,0.4790394279349103,0.9580410518271163,10.882696291518783,18.903891430533132,33.5736928582995,-16.917309138840746,27.62906566812319,-26.14137752491948,38.04444504507887,2,S02
4520,0.2533863886115905,0.6917488380226149,10.552664715612051,9.775114653169567,23.440873200608735,-20.44545176849973,27.327226130608096,-23.920209780514046,38.567408519248524,2,S02
4540,0.21602279218930243,0.43861326171908727,10.374665228423785,1.3451174540305608,16.27986737158871,-22.03215638062943,27.46935917042582,-26.74282391708205,36.32312605489359,2,S02
4560,0.29937061687943844,0.2857048253992654,10.396042510994512,4.872729966494858,6.569901941170169,-17.059651317225413,25.853639271037125,-22.931610218856868,36.74196637390762,2,S02
4580,0.14385285946727913,0.1577229724466773,10.324472211532076,-5.983572214835125,4.713836058147861,-22.309732681801332,26.05933897733651,-23.44672050096827,37.11905913869128,2,S02
4600,0.08422788929372742,-0.13604455199027835,10.120225662172754,-5.221102504401669,-3.2940901114231558,-18.247602739048446,24.910555390594425,-22.20697949250213,37.34244732427708,2,S02
4620,0.14547577801434589,-0.23171322894227692,10.012564133399664,-11.305943955782876,-7.631864635197355,-9.161739790784038,27.022301824831597,-23.776694914617046,35.602083595452186,2,S02
4640,0.054820335209270835,-0.4255053660077404,9.883896552129354,-9.769543054549768,-9.260583981864773,-12.693453261452309,26.492045686503328,-21.961886333976636,35.81609660443672,2,S02
4660,-0.11294748946493172,-0.7306010256297497,9.898714862343654,-11.620912237397961,-17.85683676378603,-10.976910935128496,24.681976375363234,-20.083158478769583,36.7689269979272,2,S02
4680,-0.017690511585471455,-0.7267643285820236,9.782858342055341,-14.1276987468162,-24.469256588761954,-3.1255876666855067,25.180308783262483,-21.805507482807116,36.76203390891916,2,S02
4700,-0.3356546898870647,-1.1031013441564044,9.643776547376593,-20.452620359765348,-35.487510122329255,3.806628635322972,25.152715583326227,-20.463502553668647,35.08329576976692,2,S02
4720,-0.35969448425231654,-1.3514078477867566,9.593178033758697,-27.445441584208325,-41.312378842539346,5.892816595946867,24.384040511170287,-19.494615021135324,36.31852019878837,2,S02
4740,-0.5521651104366216,-1.548743144570148,9.149633746857159,-35.788897345719185,-50.70341813497088,12.955132975205057,25.304531941065143,-19.621585962546334,35.96528750362296,2,S02
4760,-0.5853111251609279,-1.7047981256423843,9.11319530592515,-32.328267057873134,-57.59890243552921,16.04887021410735,23.814623774514075,-19.967718604884894,36.91376802746434,2,S02
4780,-0.6506223706238053,-1.615802053605723,9.165541229182693,-34.14770025222342,-56.32792354236884,15.122480909414824,24.435153024567605,-19.051960383895292,36.58545270685985,2,S02
4800,-0.695924597838224,-1.6153380281348864,9.2459735885268,-41.40919528113452,-54.05908915784497,16.16871531954398,24.239956585250695,-17.87748093450976,37.82058775395574,2,S02
4820,-0.45635816029511234,-1.1885711838970319,9.358655851973031,-26.720734092742354,-45.63559727120635,27.43658653301167,23.518652449729764,-19.21872363930229,37.36722646953765,2,S02
4840,-0.3669800996009286,-0.9298365199324015,9.471255398221134,-22.66555647515519,-31.139435785102126,18.77587267273073,24.359794544458182,-16.099810954761587,36.598628703664446,2,S02
4860,-0.09903561532110453,-0.4144327277505472,9.977504440156359,-11.200096361719677,-7.499671002039595,19.152719756702258,24.73597584158977,-16.62137454075871,38.16182641679833,2,S02
4880,0.2229060684427392,0.1961917408781037,10.497179330907297,2.389406553374058,3.5774329546994217,14.538943516171177,25.749303273730177,-14.544235608364847,38.17183346085406,2,S02
4900,0.3584834369700991,0.621606015379083,10.702561860402877,14.020243000264514,25.207296951238504,18.401110750847657,23.043264143443828,-15.770275596447597,37.706544303530315,2,S02
4920,0.7288261883396686,1.057637222217525,10.883784209878517,20.37710470811109,32.892935480178295,6.977802262467913,24.124444517241614,-13.656530726262133,38.5973547784586,2,S02
4940,0.9593118374863336,1.3236357230954126,11.3074676943658,29.344918044140552,46.14740943561853,3.0204281321903594,24.02576334024699,-14.814440261276236,39.26949425020718,2,S02
4960,1.039289400761109,1.576149148963109,11.125456248469487,29.865302376555366,55.996694304484976,4.465562050584699,24.00368169247771,-12.947476421345309,38.425221312816475,2,S02
4980,0.9053186589210925,1.6286150915981326,11.167495412839978,31.907463927415822,54.41939808404865,-0.43227605310827155,24.18156682345142,-12.577354146100586,41.49769723673958,2,S02
5000,0.7070009379789227,1.4142424264068019,11.013758542895449,29.759830442296437,50.76785720045064,-7.4865043688211,25.920392771258683,-12.99830263488779,40.233214322911586,2,S02
5020,0.6209226186413653,1.3910014109424098,10.820790206816694,18.951007883456448,44.02161650193024,-13.5567137223048,26.53162794267588,-10.879202491146842,40.70180470088555,2,S02
5040,0.39630332620574493,1.095279975621244,10.926822004272944,15.948351177152524,40.35422902242894,-16.17818411329888,24.8444859687753,-11.375053210336326,39.52773509403276,2,S02
5060,0.3698814925134032,0.8875488070421049,10.767009866488332,10.18098202111349,25.063366976153958,-13.430842722715392,25.475497329747533,-9.417742725035911,37.989898181206115,2,S02
5080,0.2180354685999673,0.5413120543975309,10.466417213467706,8.563986494175037,22.312161999656773,-17.625323500189875,25.84806006911129,-12.528793171403791,37.83210748674785,2,S02
5100,0.0553678901316792,0.21723264731910807,10.32424037659438,2.00973777841309,13.994341124926535,-19.883330121896236,25.907158516594073,-10.448986514921298,37.41975632270829,2,S02
5120,0.07711652163196586,0.1811953652307784,10.32557456916176,2.6199635158823744,6.532134406458736,-21.963276614686198,26.137622632987718,-10.23877000907805,36.77588715884563,2,S02
5140,0.14664659370339378,-0.04042198618128717,10.360275661731235,-3.088386267568933,-0.9674311606023367,-15.915851749465334,27.779820714459003,-9.059257289724185,36.949472380242106,2,S02
5160,0.04657180985152225,-0.16564570980762872,10.132233746995404,-8.643630811783531,-5.806536619975778,-14.517101797691895,28.61218882279268,-8.53078717598201,37.185344749734085,2,S02
5180,0.05051682070349313,-0.49544275729766224,9.939089455335244,-4.444843309465042,-9.144627042979248,-11.111482807668724,29.096353837929126,-9.881573029202226,35.10577268555866,2,S02
5200,0.1475172489718911,-0.4396647512219432,9.893044435672868,-12.359783457039224,-17.566261594184066,-10.847555320623758,28.35131696223879,-9.77210074843364,36.51540610838834,2,S02
5220,-0.118352533267396,-0.8194153867495872,9.789382302419602,-21.91474212038231,-24.191304657756586,-1.402111820894698,28.166459279621897,-10.730967717089172,35.339707601708355,2,S02
5240,-0.31427739457316706,-1.0426340354080126,9.560656832676976,-29.457018377724868,-38.674968234878605,3.850158369688771,27.455483186805395,-10.640220584434246,34.845973283097024,2,S02
5260,-0.31099814610603593,-1.2689434183379582,9.549020936660868,-26.932098392438903,-38.24199576198968,3.231899245202165,27.985519812928842,-11.105159757313693,35.83888137583924,2,S02
5280,-0.44485080459815585,-1.626591032951163,9.24834393913332,-31.76759884338263,-53.299692387570474,10.858378166640241,29.087007373748065,-9.526081073065399,36.40169149184664,2,S02
5300,-0.520344546681521,-1.6513024366453555,9.064889734824051,-36.85794992791574,-56.160863671167576,15.25764425025464,28.138295056465015,-8.348681291553987,35.99062011935124,2,S02
5320,-0.6989354664016915,-1.6537456009311402,9.193762962060596,-36.20855975711482,-59.634226415329906,17.580768552935158,27.343714541305083,-8.606481002923745,36.886350759292114,2,S02
5340,-0.599245135039721,-1.5357760762838146,9.09379915757337,-33.223577280355066,-56.67821157083507,16.711883821201237,30.299598175569365,-6.77296392148433,35.88656884425619,2,S02
5360,-0.6122645880869475,-1.3321068746384086,9.236447906098679,-29.105124611569217,-43.322313307394765,20.676788115965437,31.005224228522295,-9.841660307552857,35.210261305229565,2,S02
5380,-0.2934820620088172,-0.8282528469189525,9.607449808643421,-22.37042401733368,-30.54413828411915,18.613341578619156,29.626389821984414,-11.334400824989945,38.61778417436294,2,S02
5400,0.015673351092091434,-0.4446015144536011,9.756618386270832,-6.308939063907027,-15.521313149666968,16.69426233755091,29.792024932496066,-10.539761260457356,37.11721539656059,2,S02
5420,0.08437611896291274,0.0181741664321593,10.165779418375653,1.3001627057105152,2.227217968942706,16.348292337692993,29.27665503683021,-9.687432829967879,37.805650230582486,2,S02
5440,0.33454302403706504,0.5048574096494325,10.457172927834238,8.97097114124875,21.021867666176487,13.906740264822677,29.20199766385004,-11.692939324161795,38.519319570728776,2,S02
5460,0.7391933528307266,1.062163048372984,10.88107053055052,17.28079124194267,35.248092828468856,6.2072359721842805,30.509156079250886,-11.309516924552321,39.69958345732202,2,S02
5480,0.9367238370974004,1.3265763505116657,10.985489089262131,28.08038287258645,51.564670997299466,9.46740156441385,31.32320543277091,-10.502736966213432,39.38816035787268,2,S02
5500,0.9075575188799548,1.4681405088847288,11.184442607058259,24.07486340084995,55.249817373080454,0.707842127733095,30.34712338850806,-11.186127851082365,38.38957753315395,2,S02
5520,1.0227389426547417,1.6392224876415125,11.03017721798791,28.000448236411277,58.57361241842388,-3.917046576989795,31.778018511784428,-11.350621359417,40.84985163416672,2,S02
5540,0.7860022260944097,1.4852511234403845,11.101900854482109,29.25401819124085,52.63264687654332,-6.09532174855938,32.38658823040987,-14.280665157174088,38.96184159920447,2,S02
5560,0.6041466512444493,1.429309837305372,11.063109627804435,19.85117967064635,49.40386868894511,-14.476813606579015,31.282114648361315,-16.812871479812014,38.79113100382455,2,S02
5580,0.489198572570569,1.091954443079046,10.800498237440566,11.27523724194457,37.171473974337516,-10.194299246659218,33.103567605530316,-12.691536551762548,38.34708292320187,2,S02
5600,0.2584454588468581,0.736447337322051,10.627357644736392,4.801526563797139,28.418171149832403,-16.99930375156297,31.276325671031667,-13.257256789293699,37.91946306473752,2,S02
5620,0.25664551857802204,0.6654939815434784,10.40428657710958,5.166491443228822,16.54205519816859,-17.737785093779006,34.684510768470744,-15.759648001525361,40.055755107431374,2,S02
5640,0.18920943456175604,0.41321468904183667,10.394573103988138,2.012079062625589,9.050390873057506,-14.547027149077419,32.16831392285289,-13.038859220987955,38.168488464339916,2,S02
5660,0.15135982531832623,0.19483298244990516,10.273189528215253,4.960041650356344,6.590089707737518,-22.661307726476306,33.378334435262175,-16.046748745021702,36.922528699337946,2,S02
5680,0.1012301285485066,0.030232364706560308,10.08428926728882,0.2936994274038911,1.0093171889416566,-21.68237948719655,34.60422565376824,-14.751640377012269,37.14598752663417,2,S02
5700,0.12289008484657235,-0.14469476104935536,10.03720712545214,-9.598858922780542,-8.46308576000031,-14.89875299267125,32.70045800354649,-16.49478000378496,34.76477164427413,2,S02
5720,0.09889362760099785,-0.32013022861140533,10.00358269831807,-5.277965625872819,-17.899025427886215,-17.61374057176944,32.80246208637927,-16.880682799193465,36.49024000442517,2,S02
5740,0.11045328430798151,-0.5779871523072564,9.912159083125886,-14.214870381383552,-16.03871504545073,-8.04933639150506,34.29593546179281,-19.352713933887674,35.860074484030235,2,S02
5760,-0.1146211593924141,-0.8392984184756376,9.68481890618937,-13.969824525668017,-22.582155828484378,-7.2506480054769105,34.15854096586553,-18.345288156437718,35.873450782441,2,S02
5780,-0.1873568514587872,-1.062598308515805,9.468863088371288,-23.05550428061287,-31.878791530544213,-0.932500449564671,33.86103210091427,-20.03656928454833,35.21479729962083,2,S02
5800,-0.36974964270386124,-1.3265478203696994,9.569626985117775,-26.48023350421722,-36.245603281756,2.9777403618082623,33.17726380828971,-18.946858669768844,35.856562917553006,2,S02
5820,-0.5150085940230902,-1.4211826237712837,9.1618182192361,-31.08715548674061,-56.57553573633329,11.448984688103742,32.420989084692906,-20.205810634966234,37.07382995491119,2,S02
5840,-0.6423826615040986,-1.5846560958466605,9.072502811820716,-40.27036451140311,-53.42377777748834,14.90602889153189,33.438882658466554,-21.10131351055533,35.06047055045133,2,S02
5860,-0.6884505089153098,-1.5474619957644424,9.14050611517101,-41.21418646879154,-62.651152208264755,16.90498675886945,31.961692396607106,-22.544712231273486,37.16350325770151,2,S02
5880,-0.642381067189881,-1.5114568180559305,9.128172640361235,-36.768670742589705,-54.26845358492665,18.196649777294436,33.851643332209306,-21.53802206971187,36.325889095761696,2,S02
5900,-0.5612340202924869,-1.2407323207708119,9.230098821245736,-30.750937160572335,-43.296799544937876,19.603038978130442,31.04288233831938,-24.54273040258393,37.34251473745522,2,S02
5920,-0.33109775908687933,-0.9736666844582664,9.560389140810052,-20.483785732650507,-31.268650481357568,23.189856476458388,32.430423095342135,-22.68296205886149,37.56597132308876,2,S02
5940,-0.0655657940726539,-0.5022700089199316,9.852018909754317,-14.420649771321418,-14.64823203244608,21.86201585268499,32.31549899725367,-23.9421368025896,36.299897037475645,2,S02
5960,0.23659620596289005,0.09103167327121853,10.324243783343267,-1.36193631315509,2.8386255545964767,19.74011563484784,31.417308643727576,-24.82520063081825,38.28926990139926,2,S02
5980,0.3728670020585756,0.6504741779377561,10.718551811582673,5.221045921639727,22.567874514444522,12.161834431127337,33.47995544465903,-24.838235077847493,37.820873614034824,2,S02
6000,0.6715330141102966,0.951630017741613,10.812677865991692,21.05748162874675,29.136540373315288,8.773865513646722,32.411947573528494,-23.6545573233636,39.28039869295845,2,S02
6020,0.8007397921567894,1.2809008125151677,11.057518402205034,24.379526260989156,51.2173353900394,11.22264053673308,30.07427492084804,-25.284351784599195,39.915755337230785,2,S02
6040,0.8245900737372461,1.4817656213420574,11.219370174021398,31.41116418784239,62.469927740921044,1.3627781780975305,31.774949315613274,-26.098770316395232,39.49560686258395,2,S02
6060,0.7651910387235521,1.6477153636617037,11.097486950563004,27.689512091027378,55.138427712299254,-0.15531255914922604,29.40244032432701,-25.26016460592538,39.65537724795687,2,S02
6080,0.8773800899593068,1.4921946806025217,11.220768297969407,26.794376249241047,55.10394260567876,-7.667790409329248,32.099907701233334,-27.44370467943522,38.49379937876145,2,S02
6100,0.5729393514714485,1.2326265925188684,10.9826248177258,26.624549819425987,45.95089035210272,-8.97392906066233,31.410253065415557,-26.084168687375232,40.45168774183667,2,S02
6120,0.4359959524292957,1.1539310384266832,10.902661058659504,15.809397216544784,36.77397539345586,-18.016636315202554,31.662736058470543,-25.376055205936588,37.61173587951912,2,S02
6140,0.3846428346901194,0.8376061722320867,10.452197023690628,9.106553654048206,27.316455697174973,-16.664012249641885,30.46788852042254,-25.794350097728984,37.42474086117005,2,S02
6160,0.2583504038689981,0.5147979933777871,10.505412906120265,6.7294831603942,19.844213403502046,-17.30747052745649,28.60092446795474,-27.118742131483575,37.44950245970538,2,S02
6180,0.11693840401066571,0.38956803352138375,10.365340529121635,6.6446884973904075,6.6256126848748105,-23.27143085304438,29.176475818850573,-24.438297420166545,37.56582899751889,2,S02
6200,0.10450922975426354,0.27087570622378854,10.404541537791305,-0.6453438375410165,8.07484385623112,-15.204896522405381,27.829936178341747,-26.69179860488093,36.14448837582714,2,S02
6220,0.19834629392176004,-0.13143181756399525,10.112188291456222,1.822462931542133,4.804213265495032,-21.03150308208076,28.923324103783454,-25.709200174635832,36.47585750467233,2,S02
6240,0.020913739182549115,-0.31403085796027175,10.23391117397044,-8.68917155646496,-4.064125503682276,-14.904510006328087,28.852987459542483,-25.467196487328266,35.166420359664016,2,S02
6260,0.046782678857155396,-0.27748330385662967,10.069272793366999,-7.542747776461882,-9.132089032503789,-12.058297711743446,27.418018907698137,-24.50919038466251,36.3315448838978,2,S02
6280,-0.04096349945807978,-0.5788403563988098,9.854321717136761,-15.128074611920997,-17.450632920291053,-9.966825254156303,27.86406563038513,-26.297586600580487,33.098072944383794,2,S02
6300,-0.1186759913343626,-0.7799330024025195,9.907979543529883,-13.375813558427744,-28.3688368814163,-7.273589865144189,27.272746534285982,-25.952602388142356,35.58551526774005,2,S02
6320,-0.19870836258663618,-1.1758982707592471,9.637153662272812,-22.5720634432821,-37.79561597524623,1.7520849856978904,27.72562292935269,-24.927545401119616,35.661129425647445,2,S02
6340,-0.1955946176312399,-1.3472412744379143,9.481084908786332,-23.368898036304028,-43.3457951270572,7.338797372447238,27.091580064013684,-25.314363733744536,34.80537238038592,2,S02
6360,-0.6856010450922466,-1.3948840754871599,9.158550982205252,-30.579791049153776,-49.19365983743785,4.106721255653838,23.75940095443552,-21.527430354073964,35.231099649423555,2,S02
6380,-0.5581965714171795,-1.5097233090172408,9.126550711107573,-37.613670442957336,-53.673522607680766,10.01455140546844,26.162025417370277,-22.842597923034234,34.79495986479867,2,S02
6400,-0.7105546639648999,-1.6113350940385778,9.076292546012594,-40.578885976995856,-58.116586094264356,18.09455867891047,26.7427633640742,-22.92633588840194,36.408672650776666,2,S02
6420,-0.7044037395552347,-1.7759554215300533,9.115479941549847,-35.699762414302526,-53.41054159624659,20.081170187205174,24.823190806779905,-23.595130413086878,36.56949221987377,2,S02
6440,-0.40014266276163757,-1.4751024384617597,9.105206801033871,-30.959145815410455,-47.333556716932485,20.932936273540594,25.67107026631784,-22.905243144975167,36.175051594308854,2,S02
6460,-0.2999111481695059,-0.9348714292516338,9.508438571060678,-22.338385058423345,-34.87270800543227,20.76568802654951,25.251088430636415,-21.068306182292883,36.614086017224245,2,S02
6480,-0.0925616096599261,-0.5273660565113611,9.855317452102254,-15.138885975459743,-16.6051436391458,21.26346515640693,24.673409006872795,-21.752266736343536,37.752947099845905,2,S02
6500,0.15072549761087506,0.11883744308137528,10.076098824520443,-4.337476798078514,0.6947199925572085,21.157829612529664,24.98722663636802,-19.163895405715913,37.587123065970275,2,S02
6520,0.49647978363832834,0.5752434694131168,10.521327134946587,7.987871057092531,19.33140632410504,16.395745668217796,25.78118360682379,-21.010132392035906,38.98228346671113,2,S02
6540,0.5662690662558953,0.9035234358886732,10.86857691042126,21.037521540202132,40.793160364955725,5.192203355828502,23.925148214855756,-21.773060886759975,38.182900517516046,2,S02
6560,0.7917095139627395,1.295677712008752,11.071389096706898,22.894535302423357,41.267465707278575,8.483868463894881,24.559830605668928,-20.79792370128027,40.85839190705283,2,S02
6580,0.744034241164218,1.587478557247145,11.220972012224319,31.871707404420757,50.68472147991222,5.988285179958134,23.550743943224713,-19.220131746276635,38.60989848698283,2,S02
6600,0.8524727237045117,1.6312196330333806,11.173786206693608,31.989649324891186,65.14541682262713,-6.446499098240672,22.546239884442585,-17.474956738719136,40.95016199795476,2,S02
6620,0.796094385226707,1.508248527247176,11.213403019862161,26.298791587771294,54.807235377257406,-7.467821785529088,24.752902259611282,-17.9572773807471,38.73195858769843,2,S02
6640,0.6995772458416286,1.2679230827553292,10.99928154085154,25.39866204912696,41.66023228357861,-7.102919393002521,25.785631476225518,-16.582986915166863,38.82682385376142,2,S02
6660,0.42517424739639076,1.1193495275784044,10.901090457439961,14.44845914344765,36.10524080058932,-15.043232969807375,23.745390366529264,-18.18545725281941,39.173885434750034,2,S02
6680,0.22104939190403003,0.8385099126778401,10.646014327044554,15.034750113476246,30.068078961536454,-22.110559408304603,22.933726974140427,-16.771182752528354,39.238362983778714,2,S02
6700,0.2603591505283497,0.6165551391689543,10.425598191960121,-1.104795726291699,21.543465802164985,-13.764287941354835,24.544032968914735,-16.124082325240387,39.75392667518078,2,S02
6720,0.015819459233159028,0.2890477770433851,10.473891155542395,3.2425634765537605,12.984109329017635,-13.591965888714602,23.972689623712164,-15.48213816241161,36.935606749399255,2,S02
6740,0.08385517108393575,-0.014535450273627917,10.335277050002022,-4.708294398191828,3.3560108545178684,-18.64343602526947,24.637142494221713,-15.877769530375474,36.23343886721251,2,S02
6760,0.08824211296245534,0.043882373879923595,10.273664693415945,4.140742336265421,-2.54334464217607,-19.312477311866957,25.03333259309444,-15.949560762662859,36.62519288553567,2,S02
6780,0.2731616279874687,-0.10013692747422148,10.260998592219401,-5.805467055403682,-1.2325384537157011,-15.436560754244395,25.0717627153717,-14.635396333986224,36.12226775463164,2,S02
6800,0.10481851687506481,-0.3048525335492648,9.940256225122571,-7.475229763869601,-5.997311309090142,-11.668505383703595,25.11874279333409,-12.80105891863639,36.07367971281716,2,S02
6820,0.14217195458795434,-0.5480465647488955,9.921798794060718,-11.0269320095943,-15.570959568825419,-10.70800280815379,26.042004295908857,-13.277370018023163,34.760480259383584,2,S02
6840,-0.113731418713899,-0.9071479637163136,9.712289385182805,-18.836139992592624,-25.08049275340472,-4.283229943280175,26.086676435003184,-12.475188451093583,37.035022162672135,2,S02
6860,0.01200804044313876,-1.0691529326657763,9.66630751702349,-22.756745419481533,-27.474043098008234,2.2807115120751154,26.057089050117835,-11.712938382388472,34.530008681667354,2,S02
6880,-0.29288762953329506,-1.206650842447882,9.409779778812123,-30.162100339218927,-40.62495889868939,2.6822971614512308,25.234274234712267,-10.656316253849655,35.69394777952954,2,S02
6900,-0.38589173631314977,-1.6280471418109081,9.252407329000793,-36.71698342126978,-48.2147487609711,8.82304584017238,27.01713484588072,-11.279850705184787,34.448354641747,2,S02
6920,-0.5756225908466416,-1.6246068637111937,9.22177641075753,-36.81433549410241,-58.51491298971391,11.540792803784033,26.856664085796382,-12.21009735718261,36.76740621990272,2,S02
6940,-0.7132827956726738,-1.6944125211677146,9.193131780577033,-36.35646562835078,-57.284452581010655,15.161677959900416,25.791703159030988,-11.6075911016177,34.15203641812879,2,S02
6960,-0.6669327891971548,-1.738955536140325,9.271047323712013,-29.941992388296175,-54.507983950387526,20.717815419039646,27.55173152733131,-9.866776602700426,37.372606278105806,2,S02
6980,-0.4006688341132717,-1.3970108573493436,9.28781090765938,-30.705027825126386,-45.01405087714734,18.259733727156615,28.041547737962873,-11.147137787528482,36.22676426618162,2,S02
7000,-0.23501455785318967,-0.8968948629706652,9.640715476529108,-30.27965720631873,-41.07205691473106,14.940688665513063,27.386854007384077,-8.693847690481128,38.61032214474808,2,S02
7020,-0.11665063832985362,-0.556335503637926,9.754134990551819,-7.8520917017312835,-12.334568447025141,22.023951137865158,25.99939392545592,-9.654707602312854,36.81728714531777,2,S02
7040,0.07567138666556399,-0.10222630008760179,10.199446260710221,-0.4326617242556461,-5.304152608903043,19.851720867463555,27.458252031113847,-10.017280543853097,38.14212214467913,2,S02
7060,0.3644752789756489,0.4877555413952666,10.482275386245052,10.197239320863815,16.211007344128188,15.447105837768554,28.765968740956747,-6.518212524380424,38.65371053980743,2,S02
7080,0.5358847883680312,0.9407878003153214,10.68987928505861,12.768436229606198,32.15825747657037,7.914726827659075,29.877306067260243,-6.957812455120865,39.680481048212826,2,S02
7100,0.9647888393383507,1.2227261342832914,11.01419094901237,28.67355680357804,44.76015685181984,5.186709980341023,28.71322251874194,-8.233424370624085,39.07109160654289,2,S02
7120,0.9714560101567659,1.3787138449491083,11.217263219268453,23.257537997399467,49.60300088802307,2.3281788004773314,29.65464264249932,-7.096833990773444,39.90003291800471,2,S02
7140,0.9531217350904461,1.7636130830559853,11.20748350921586,31.634513060989715,52.28623626229927,2.3206152893670517,30.570354276426563,-9.460898587530448,39.77032403786521,2,S02
7160,0.750007487560056,1.348385767799284,10.949705939131176,29.361848511885082,54.62954560788846,-4.7084534057754786,29.837564715262648,-8.265377079552156,39.43676050301762,2,S02
7180,0.6828853321915784,1.256585153398125,10.947948775933359,21.18299178300384,42.9217459063185,-12.344384441954594,31.581597053161715,-10.25026103139498,39.968413613504204,2,S02
7200,0.4955175072828436,1.1345082415471694,10.951750295990937,16.9606382562641,32.825190890426796,-18.90348755173623,31.31343650397295,-10.068196224256315,38.80652602982808,2,S02
7220,0.43456695446153004,0.7502308936088484,10.64137065814877,11.43271371552601,30.234677890054954,-11.908740061058262,30.061573738264087,-9.017630132552041,38.802184175154956,2,S02
7240,0.2885642737811964,0.6694020503803093,10.339847964406019,10.842990042017004,21.754673327675143,-18.76605412774489,30.90134104106927,-10.52428853432647,39.59103720583686,2,S02
7260,0.1701159313081777,0.47499657739525974,10.367927822803686,8.593020976362055,17.636208622878392,-22.315021242811273,31.57247232029104,-10.106723982404397,39.03691949641217,2,S02
7280,0.09896098811524577,0.24872839791364143,10.44599173077596,-0.36931356116360137,7.232481221529713,-21.737751678163416,32.16335256362419,-9.228830214481235,37.53535544853822,2,S02
7300,0.08462217971337653,-0.09113175924376234,10.13397710143283,-4.630017817372169,-4.335489112565492,-19.41437052784421,32.37903100351161,-12.461827430524107,35.8743508964307,2,S02
7320,0.03375600837594066,-0.14873991700418554,10.085704123231663,-7.967337114006474,-2.8517769637174357,-14.157985839039966,30.302322215894634,-12.731907475637989,36.93696367892272,2,S02
7340,0.11835359964968659,-0.26800562806154293,10.185841206409675,-8.909534468928303,-4.621354367782002,-11.82295338759961,34.0694534818255,-11.817524359793165,35.49463248480092,2,S02
7360,-0.01906690778104872,-0.46323614994363427,9.994814330497872,-11.380437090562868,-11.343470419302706,-13.611915908017858,32.488722091831974,-12.231620371560243,35.1720729015858,2,S02
7380,-0.13740895123433217,-0.6493982476647553,9.692209573184755,-14.018400422932988,-18.874260122511934,-5.060325358125928,33.33781941619111,-13.900197950843529,35.53503726931906,2,S02
7400,0.036449963763811585,-1.005109076634685,9.505221581592245,-23.252478309255,-33.86762120552417,2.712162293485315,33.261566597414756,-13.596786348384907,36.26261093872905,2,S02
7420,-0.31064573363925985,-1.162506255377482,9.44549858801311,-29.398575961920205,-37.62928171166878,3.7108809774892335,34.93409292099555,-14.447573302043125,34.6219830249632,2,S02
7440,-0.41780579304821164,-1.5004166213237538,9.363474689382633,-33.0339234665076,-48.55634268751763,9.235974962241494,34.112326723318034,-14.716269114274894,35.638323102990334,2,S02
7460,-0.46514891245863554,-1.4869658521401223,9.20403928519137,-35.19674151844932,-57.423751011504564,12.237619803711864,32.76725967889479,-13.126719687249977,34.190692145709505,2,S02
7480,-0.7254033878792583,-1.694823056567196,9.051807312303211,-39.415755814627815,-60.8079186637613,17.437542093407465,33.46663077480463,-14.364255104379835,35.68797258429757,2,S02
7500,-0.7595676634290636,-1.7843842826324128,9.05736273502398,-43.72649616333777,-55.25870015533837,18.893456682547022,33.01204623693926,-17.71990133280034,36.05371646479319,2,S02
7520,-0.6078229008705422,-1.4020853436843543,9.232395764687636,-35.271058493389816,-48.49617036672396,24.872185303474016,32.591705034397314,-17.779866860285548,37.47983027210046,2,S02
7540,-0.37059250906315244,-1.173855296018337,9.538716104236155,-26.946720393913555,-33.3973806249503,17.89589998298021,34.77646701305358,-15.526055243461217,36.56253658981098,2,S02
7560,-0.12204359781696814,-0.5148040488993453,9.888860590830342,-14.442155166042518,-19.38950907730838,23.847846330318458,32.30346893061275,-17.654371740472833,38.39459090553982,2,S02
7580,0.20289174405485644,-0.08892832512271652,10.175979988102473,-1.5918526552567691,-1.6950866770548472,15.128941213124357,34.43863119332856,-19.18104305516243,39.12840225831845,2,S02
7600,0.3490979844342591,0.48977566913128406,10.618764985328848,6.112223003077534,13.320665465185792,22.526460247068112,33.65652560542219,-20.137183259831136,39.67670994300745,2,S02
7620,0.5950356919018922,0.8230217995162907,10.746980433624675,17.687719999490056,34.29006176795268,9.782076426426038,32.83525941592347,-22.43105316339787,36.74364820303413,2,S02
7640,0.927399319202406,1.284548656135494,11.162028486831248,22.516628316832445,46.3114995931998,9.178928084636073,34.37400684328048,-17.764698983152222,39.72574059684595,2,S02
7660,0.9219982276154182,1.421652694694059,11.266757864535796,28.30144808935162,50.28114789361169,7.167854182469883,31.803250094135784,-18.842908164983044,39.948195673624454,2,S02
7680,0.9009893895977392,1.714314949529842,11.25516116857883,30.000890878263252,55.60288146957527,1.9040436468945288,31.87816051843284,-20.251147644868183,40.09917423541363,2,S02
7700,0.7658094354603494,1.618085838393488,11.057684664693689,31.348403977989047,55.59821454943968,-3.7548600963392675,33.19076741487248,-22.1008434146559,39.5799238630778,2,S02
7720,0.7826725072765915,1.2317160168439485,11.037043994874315,25.02656166744418,43.694505334137965,-7.509468818890484,34.26484812374851,-24.03668131336143,38.8908452935458,2,S02
7740,0.44646399975439155,1.0554644865295695,10.940266809834217,27.061527239588603,35.42919031049634,-12.59329986740054,33.36146387215081,-22.999580615969833,38.64615953022981,2,S02
7760,0.37821286577412594,0.9721038448326116,10.713310985649413,15.15104945563418,20.61672149476948,-13.458862338660158,31.933998206113916,-21.92818247690599,37.515785593643585,2,S02
7780,0.2511947331121881,0.6106681302988921,10.54133393520521,7.602471177077583,21.174686872742978,-16.87418394778518,32.96600281285989,-23.07596929814271,37.64492312428211,2,S02
7800,0.22468126085098253,0.36439750245607916,10.356818102779707,4.069904717373448,14.649951257289775,-17.033973030621812,33.203268097645136,-24.24682633996662,38.7139530341292,2,S02
7820,0.12995700032019258,0.25806534934396375,10.334890504573755,-0.33252372135838604,2.9212914122326294,-18.022745835599615,32.167598344325526,-25.55322423528759,36.861233360932346,2,S02
7840,0.1803066227949277,0.05198248700562867,10.128318783393743,1.5394298070539856,-1.228286180870086,-14.138282000458718,29.760753399186356,-25.413821432769968,36.10363860323922,2,S02
7860,0.1284295586425036,-0.04768923401327138,10.100766448883654,-4.229296966349098,-7.470147807580401,-13.91900151470431,32.13743564901079,-25.318864527495297,35.06960619212642,2,S02
7880,0.05266792507293805,-0.3119919887117458,9.989933143195813,-8.353524203284747,-6.367444087976132,-10.924078169793669,30.766712390949774,-24.931072033697323,36.834478841528195,2,S02
7900,0.04775002294593405,-0.3603865469321161,10.0276196769525,-13.114915259410612,-14.012836123606942,-8.35864024269798,30.645245130253702,-25.929018565588702,35.42987417728078,2,S02
7920,-0.01973391156092713,-0.7307776655088407,9.961623345261913,-13.52645911289368,-23.86390984185429,-5.310497091937069,31.315193549429797,-26.543911243953374,35.912160393714124,2,S02
7940,-0.07832580779283829,-0.8761937125484989,9.58833494977309,-24.007912142782978,-32.66986178457616,-1.4563375514908725,29.339465632486554,-23.97241913812422,35.82676828283347,2,S02
7960,-0.37323875305389864,-1.25366777504245,9.474648368476212,-32.08241380555166,-42.84270730560391,-0.7613654375252127,29.926340435779434,-25.905742717968046,34.184023924486524,2,S02
7980,-0.41558728390961897,-1.3826042442961366,9.247532940752386,-32.90746488372761,-50.24523307453163,13.08460974188023,29.904687741019004,-25.384714517465373,34.25361200175284,2,S02
8000,-0.6483674704000811,-1.7500620023522762,9.158114204750289,-34.24189947780441,-56.830705242240874,11.970758149457968,30.04961035773677,-26.15444056865891,37.35446838715367,2,S02
8020,-0.5697788070032189,-1.548328286125326,9.096798303715776,-40.76865281663344,-56.89089786990877,15.15001890803248,29.513998695258774,-25.879547140566867,34.7726828463008,2,S02
8040,-0.6405395005404415,-1.5076542946400981,8.946876732584839,-38.57555428916061,-55.392476136681964,20.589571579553173,28.234430253111437,-26.673566158834298,35.9980680428311,2,S02
8060,-0.5258892483502771,-1.5385048134654182,9.203413732171365,-32.04677729309552,-48.19878993251925,20.97088743655744,26.84706436457973,-25.57967978403121,38.056407041979476,2,S02
8080,-0.35072270889797796,-1.0031468231777638,9.518172135354423,-22.872228972720972,-37.74223102870805,22.81421637963235,26.89261262795132,-24.994293617064752,35.860025811420755,2,S02
8100,-0.10533747480333441,-0.598682119976359,9.815614465545575,-13.74044694211036,-21.400308372952782,20.40827318041021,27.26647454032887,-25.805618474168828,38.296495856155985,2,S02
8120,0.07059442483757111,-0.16950281448373253,10.264716533174248,-4.239653066896224,-4.7541663145731405,9.648980769321804,27.275825986155986,-25.652040023216923,38.13262181668694,2,S02
8140,0.3442932805290787,0.5345960135985892,10.541960920325126,8.892534931066184,16.507394864670744,18.128731775441945,27.728849173993403,-24.517227237742592,37.063588611805784,2,S02
8160,0.6399439925519257,0.8806200598153768,10.805268863382882,23.881666722062228,29.99561557727073,13.278422126781697,26.75203283603655,-24.11226366655034,37.253647902816645,2,S02
8180,0.7328774473693869,1.2044156073521717,10.995726963163712,22.87991000493594,49.72221780122937,14.743132632655694,25.167208679761266,-23.386708038441412,40.73766767590731,2,S02
8200,0.8901703371178278,1.5858310432079257,11.283830809957973,30.246972805852696,49.62287094502611,4.204222869054467,25.2405081693309,-21.282770774107874,39.848788162296465,2,S02
8220,0.9040559053909201,1.6614511115341282,11.233795449974288,28.478480426016294,52.90961705777889,0.4859888458241145,25.365600115785387,-21.5271948681476,38.438707587248075,2,S02
8240,0.8138598058572389,1.6040537025104242,11.06265789661302,30.42024998690194,49.98354717368373,-6.3339815787498885,24.339577588510423,-23.57680692505158,38.12853690479305,2,S02
8260,0.6897495104008011,1.4045816969572198,11.079667132969035,31.041864674284543,50.636353836278296,-12.367401479617213,24.78063128307827,-22.92997800122479,38.9295427070953,2,S02
8280,0.5603542608789674,1.1383205603102329,10.839054338125944,21.79675189747126,35.77892366466952,-13.824364324897099,23.473544706396055,-21.6900696912176,36.6589332711075,2,S02
8300,0.5713777158017106,0.7883242056666511,10.686190193255786,15.574040123433488,31.381976978553244,-19.606218821903287,27.369798819053933,-20.946457886325653,38.85246864476961,2,S02
8320,0.27947177515694827,0.5891425421685339,10.47837341330619,8.962770195510977,20.022305326953997,-22.725816524886866,23.96931260189539,-20.786292228370932,36.77758201710223,2,S02
8340,0.11754352771864424,0.27963709512553653,10.45080031509974,5.679546376573524,10.882605095859187,-19.103891617355586,23.46232429003223,-18.925451673626185,38.839989377507386,2,S02
8360,0.19713481999940363,0.22943228202696192,10.198387181172606,-2.5124082501693237,3.576038991002396,-17.3712497355788,23.532321124281513,-19.68750175066853,36.52935008606084,2,S02
8380,-0.08272999449752355,0.0508676021321917,10.140605412054276,-3.820696776993594,1.5037211534229555,-16.459158861462804,25.093786988916413,-20.027445119319637,35.89356911835527,2,S02
8400,0.08039994068403215,0.025185666633111517,10.078961030424194,-3.0317106130119296,0.8037107398986871,-13.472164791115032,23.279378371572932,-18.839226727761094,36.45878268612292,2,S02
8420,0.07053082692299281,-0.3151987565178819,10.127380935127583,-7.701074779140063,-6.46907505468764,-13.189191496209002,25.785492334506472,-17.5049733059195,35.52863243723487,2,S02
8440,0.1380457947144007,-0.43750880903385797,9.936943453924357,-10.896971726700393,-15.092987266851507,-7.202028370680595,24.97625575003157,-17.66611552919801,36.018537808567125,2,S02
8460,-0.16201590698548338,-0.6580751528040936,9.985089401596053,-13.606071761818189,-23.551054786354374,1.7243521405240316,24.718915338509568,-19.75357730608623,33.88072723131922,2,S02
8480,-0.15255211267412963,-0.9271569825065533,9.671930766940912,-22.65929362575906,-37.88376507945443,-1.1944012366347234,24.266066767329647,-16.296504876768907,34.42382866779337,2,S02
8500,-0.09281674311219865,-1.1990658278832325,9.472461734131494,-26.843995337743266,-44.10863383143004,2.0006377689885757,24.91633285599353,-14.710021431287053,34.71070363197301,2,S02
8520,-0.3646755466793614,-1.417707289409966,9.29458723194234,-28.34687733737743,-43.98237281320101,10.4444090593675,24.093431424363278,-14.084862533028769,34.600527772791466,2,S02
8540,-0.5701026458128439,-1.7465527102170206,9.223020222248822,-34.604108646526065,-58.09856213641108,8.927784156556362,24.28996389905456,-13.75912365880877,35.712777089614555,2,S02
8560,-0.886063599531208,-1.7860334775556064,9.138127242702108,-41.23675674733982,-57.054808374503445,19.98744727720546,24.201899444646234,-14.530820159175313,37.22393812813474,2,S02
8580,-0.6815555373416348,-1.6597272055729444,9.043953721002138,-37.32810639914536,-52.64382620882787,17.49249015354659,25.094055763873584,-13.335277141998324,37.103377932661886,2,S02
8600,-0.6198474616893708,-1.4664190621691227,9.297433257944986,-35.16268756303822,-50.61196875232882,14.116987254387105,24.83774834661498,-13.823443741727973,36.719446877658804,2,S02
8620,-0.4563268787044621,-1.0487372531099974,9.462000643242394,-26.812477309048067,-36.15815100137327,21.88750798133712,25.002442742556234,-12.760266663916553,36.7868281025456,2,S02
8640,-0.2507963891345001,-0.6926603014890087,9.697531729738126,-15.799082012155818,-22.707020042856904,19.946377666163357,24.80400343172422,-10.760534216077208,38.461202740994025,2,S02
8660,-0.09121803733236014,-0.11789618536459265,9.99211856570262,-8.17102454911472,-3.2339510864017065,21.010342032150305,25.56705642762776,-12.325091665899462,38.9053194606239,2,S02
8680,0.3618736513202371,0.43729292655548463,10.383899461014954,6.268297142300745,14.514261007476893,13.741730724954817,24.591375378316254,-10.366663682843585,37.66313269029379,2,S02
8700,0.6943401041427628,0.8320011047035507,10.689474968808273,11.447837931569527,33.47040224209679,13.639961810478006,24.41849717844302,-10.58005309465307,38.560803734708635,2,S02
8720,0.9038023106163076,1.201245256365707,11.005181785836507,27.259227687610128,44.70925648830954,8.898096777846229,27.13566157044704,-9.404279971875887,40.07234491828044,2,S02
8740,0.8487300418801837,1.5159873689989787,11.062918606545116,29.32772820263695,54.34814141116894,8.986455199791047,27.048549143881324,-10.032638877429825,40.181328367649265,2,S02
8760,0.9378091029677569,1.5794575066133123,11.199341795972993,30.649499255496853,52.65557016667404,-1.570751249273259,26.312412374293608,-11.245948248135907,39.91658370020988,2,S02
8780,0.9355107968819076,1.564314757987664,11.221667809168975,32.37557267766681,49.19871898482003,-4.7873037630432345,28.037135291992367,-7.411678863329287,41.31851881745971,2,S02
8800,0.7208224028456303,1.4570983966147928,10.98368011056296,18.408910877644143,44.80157852772354,-12.608976465612786,27.433791799413367,-8.931162293330068,40.9945409930855,2,S02
8820,0.605265758919412,1.097326132996257,10.94855290814241,19.577543335772717,40.866899555843474,-14.17411944480527,26.54990469285783,-10.58855715832099,37.424141010247,2,S02
8840,0.40941936876797214,0.8346142147556543,10.655142768038921,15.073551338440002,26.640299490988784,-22.37372429645577,28.724046927695174,-9.741851647185825,38.60002502198459,2,S02
8860,0.37635565943117943,0.5866726172443246,10.610219815074029,3.887100218525979,19.274359253365695,-10.869084809869475,28.282647635722984,-8.493207992024908,37.06713781056023,2,S02
8880,0.14354987066650965,0.37440162928861,10.361581608238257,1.9217821076479007,15.630364775960647,-24.044624538687906,28.48085510106227,-9.198912112021262,36.339461586904996,2,S02
8900,0.07979631517025351,0.16329226952729925,10.22405259844643,2.929573392540866,-0.05694399269077155,-20.58886556447975,28.284266245402247,-10.890896788136292,36.2591848771515,2,S02
8920,-0.056254772229718364,0.12886678198320056,10.092725355788106,-4.998999398837677,-2.310316143405182,-17.127837891813734,29.17686653352921,-8.088347394270142,37.55700714633255,2,S02
8940,0.03435384048663352,-0.16019920454279846,10.1597567190997,-5.825290640852976,-2.5664995554784618,-20.027448330437537,30.441154681318384,-6.7975776917329025,38.36834108972221,2,S02
8960,0.12107563202876738,-0.2241556942800616,10.12902636943063,-8.421575567519461,-5.2411005126717916,-17.56673506938346,29.92973296198615,-11.732254147088558,34.32967760529131,2,S02
8980,0.010051768058220764,-0.49710221906222923,9.888468497097952,-15.273367306685191,-9.959573462679518,-9.073969476283372,29.149715655246442,-9.943634055264729,34.91216297589003,2,S02
9000,-0.056306257112911706,-0.6023806853852378,9.901442957326477,-11.272651619877148,-21.816771410715273,-6.9063689589409805,28.620452809094957,-9.441140225653719,37.71830001846476,2,S02
9020,-0.1959662911674573,-0.961422670127678,9.558691128351576,-17.28648396749702,-29.198816181922723,-3.3349261403262473,30.166189497579754,-9.644275798253226,34.08463661615138,2,S02
9040,-0.19188423999955087,-1.238804139671817,9.511682674399193,-24.39694419683493,-39.797381860480854,1.2628866104464445,30.919723008794314,-9.484191210898294,35.22115433339464,2,S02
9060,-0.3409817520895305,-1.337557539701809,9.375074439543349,-37.140840073472134,-46.648498810998234,8.497547644609627,31.66000909239891,-12.833584902625823,33.48765258058691,2,S02
9080,-0.4611194897111325,-1.6340277823622873,9.182117451048269,-37.34594696493324,-52.130300446037396,12.92165686024852,32.71426503393663,-13.120405017337845,36.33932942293422,2,S02
9100,-0.6786699524133624,-1.7461281161290447,9.029214933591463,-43.423414467554196,-54.55786702425866,12.964577494849173,32.45872773789644,-11.912689472498428,35.21577850727872,2,S02
9120,-0.7680884301986599,-1.8188275141839951,9.29856887945604,-35.81634581595092,-57.58561483327732,21.54654233018588,31.150722225100065,-11.690960995915816,37.14703755503351,2,S02
9140,-0.5362982029574885,-1.4367159085166301,9.330550047857875,-34.63306029258415,-50.87689830366115,16.408253875835065,32.68939345959408,-13.07848909462771,37.59576509279244,2,S02
9160,-0.3610568984667628,-1.2060413184359622,9.273202399590437,-23.10880624600961,-35.68880441294038,28.500291494330817,31.862589406757262,-13.344245249712557,38.47964268967893,2,S02
9180,-0.3731649937571636,-0.6107173786667093,9.718130256117481,-22.36831975152707,-26.091037325242198,20.722023553697117,32.485408415667706,-12.561997450189338,35.59231484351808,2,S02
9200,0.11645027996228675,-0.1905113230091136,10.180487090012484,-10.341194505544355,-1.1162079410860002,16.232681441661153,33.0430572735107,-14.257985635902338,38.07624824586961,2,S02
9220,0.2100063325557577,0.42668570998087346,10.418033370013076,6.351100571719237,7.534257433452114,15.861048878448397,33.028255492619394,-14.63292394400424,37.415137878156536,2,S02
9240,0.6023433898531588,0.7445977028627606,10.747043978332798,21.248626782138814,30.113489525472435,9.58502672603606,32.8688112168923,-15.050975736266073,38.41685180706938,2,S02
9260,0.8067725657897147,1.197201634991362,10.995148242718287,27.153605839997564,44.256883838654254,10.05219755430122,31.05765927887598,-15.579693118975452,39.08682695552039,2,S02
9280,0.7914813720165363,1.554689244517569,11.162707472290538,32.89512562474021,54.12547504328341,1.2443599952389364,32.866124802520915,-16.966284797397304,37.95102783046597,2,S02
9300,0.9269611588398295,1.5451945043938713,11.364587007080054,35.16462428897597,47.237110082004776,1.4357802900001944,35.221695590071775,-15.890215515471546,38.77762138036668,2,S02
9320,0.7784314438877218,1.4557326037505927,11.119176347125654,30.990319766284014,54.962565447957076,-6.388677762909477,33.2938407907676,-18.227305872962553,38.27450129145971,2,S02
9340,0.6403633698948263,1.3544822323400905,11.003547097016854,25.466714009031165,48.12048890305832,-6.916732896301522,34.451252812590795,-17.21939503694878,38.717354221886666,2,S02
9360,0.6195871350236963,1.117253035980877,10.984868859588987,17.798036407989752,33.97281682751803,-18.101859869120723,34.306686260719594,-20.162655659075796,40.091002132408164,2,S02
9380,0.2876628098075766,0.9427077961718666,10.597195150967059,16.611912514774772,21.938502464345778,-19.801152215785113,32.55092093254454,-18.32877111207572,39.04260932871652,2,S02
9400,0.2908452220468928,0.7122446368304156,10.60950869276789,13.243262041482176,22.086470526340246,-15.84133045280347,34.18202661217823,-19.29752925713987,38.36927807295473,2,S02
9420,0.10244556850487488,0.4995692603725243,10.418527267224995,6.803111503310652,12.105619525352889,-14.13569334091907,33.63079639786598,-22.592076498084122,36.29970036955855,2,S02
9440,0.07333167751276712,0.12473156960588208,10.150162891992078,-5.608496477156497,6.919366820143934,-19.14929860972108,33.521728549013275,-21.069255162891338,37.390617270898574,2,S02
9460,0.20801696512151852,0.03403003157074469,10.18248020181659,-3.788691614138778,0.719494517155959,-14.242665770892007,33.346521381587934,-19.284004572728424,34.865542999432705,2,S02
9480,0.10245711420355082,-0.20888755954738775,10.025273918205492,-3.1926728285375043,-2.233566047755856,-17.923802071662198,31.297783118082883,-20.042567459529607,34.99265769009876,2,S02
9500,0.1322144983513354,-0.31294163493769345,10.099460448775993,-5.811682627303195,-5.7161955399941755,-9.515276509366357,31.570614227713495,-22.56852807925354,35.41849028276585,2,S02
9520,-0.028762420255234816,-0.4923719001904407,10.013928747393814,-9.569963145605008,-10.212592977850917,-9.853228527860031,33.0941741079707,-23.7261422819937,34.76403897953428,2,S02
9540,0.002926736212712361,-0.730820739789952,9.890387446980764,-15.050901740972332,-21.465927485313337,-6.015999210169637,32.85880622288012,-23.828298095869645,36.256433681704074,2,S02
9560,-0.10517516391502346,-0.9053193287236097,9.678285608371715,-20.302839074263357,-33.25333958204435,-1.358963551582753,32.043784287557756,-22.301650821500356,35.56462182596457,2,S02
9580,-0.16744293263450502,-1.22753196671367,9.474238174046997,-24.909077130971696,-36.6798965307048,9.017502569254157,33.72349522344774,-24.306072463094992,34.806506054546155,2,S02
9600,-0.597591444899329,-1.5448663280367119,9.27592205345733,-32.8796838400012,-49.373349827474804,4.0034849676209845,33.973439819022175,-25.624820213145536,36.844838943001356,2,S02
9620,-0.5288441977227245,-1.5997627344135816,9.116360864998763,-30.869099879594785,-50.75731376914384,15.496402760964342,31.13743082603275,-25.32497002738732,34.02792580674139,2,S02
9640,-0.5512426249931002,-1.6435681875816366,9.137890529518872,-37.74645362991845,-57.99395174289644,15.133401767205289,31.423518632197787,-26.19961675917056,35.58931449004858,2,S02
9660,-0.5597730825991836,-1.676821656033536,9.25190050467534,-45.983681569200456,-50.186800166472615,22.56000886039021,31.846268550165806,-26.03187972586346,35.102364205328726,2,S02
9680,-0.5288155888333713,-1.629571828765178,9.271908910024964,-31.832852917698542,-52.6765102729823,18.037055967939033,33.07570501259208,-24.80614565368401,36.38672628531657,2,S02
9700,-0.4590417476006764,-1.2383605396870898,9.51749187322986,-26.597571891912782,-39.18638501058649,18.565376386751762,30.133679697455232,-25.818926021225515,35.455982698098396,2,S02
9720,-0.25486579505037166,-0.7817288382418797,9.776037224146803,-16.406679521110142,-23.681440734647634,20.605414912160093,31.870798543656594,-25.556679660211643,36.831981541528435,2,S02
9740,0.06831164539572124,-0.24731092294394946,10.10115332686525,-3.723415831463635,-5.214939774074165,17.904884287003238,30.799146944613796,-25.758045863716603,38.286120051725966,2,S02
9760,0.20409863878886234,0.13165092073540333,10.388021383940938,4.320644297913369,10.443733753190788,12.457565926086675,28.982255215301475,-25.922765117508384,37.925910215708754,2,S02
9780,0.5449338703364071,0.8442524120220667,10.771117913449032,11.610247858870736,36.73863658718825,11.280258228697383,28.565816401268194,-25.954295941919383,39.895859071464116,2,S02
9800,0.8044417445935655,1.295344794251464,10.942383934343132,25.810467588445395,40.653325774083704,16.23539810588818,29.54052466231202,-25.09516129216689,38.40206186647049,2,S02
9820,0.8055532489014163,1.4212727621003014,11.198243876994546,26.449137770199734,49.110799968947106,1.3240107272720931,29.916803471754605,-26.802562984483526,38.058879797688824,2,S02
9840,0.8360562853800189,1.4737422236724416,11.1678124140332,32.522874939715955,59.82766513748653,3.264446739153017,30.089169283145967,-25.160707556044617,38.56447938535288,2,S02
9860,0.7544981374370511,1.6223503819365546,11.372428491457168,34.59786109867514,60.47371396222067,-6.4621610773595,27.50206510591968,-26.834361865410827,39.91714465628957,2,S02
9880,0.6900786248029332,1.5292999691111537,11.062685944984102,20.718316442430854,49.400015146326915,-7.891419409252752,27.15743197717242,-25.37409501386861,39.916295485542996,2,S02
9900,0.5480015142631217,1.239203939398813,10.87880555205292,20.874426580103748,41.999479330971745,-8.24124158719558,30.45094677726942,-27.096132564007114,39.17218386562249,2,S02
9920,0.42087949334493113,0.97944963046883,10.792588566076962,15.786232921147125,34.27190946114204,-16.188934241875707,27.201806587451664,-25.557247235610983,38.58769159590132,2,S02
9940,0.37308721735604,0.7663948406998409,10.595206394006594,9.427668134872924,23.83312993022012,-19.62969656357796,26.71423244653382,-23.90396894385362,37.13016624781211,2,S02
9960,0.14677291641914336,0.5033182331315216,10.465718823369647,6.850930108924284,14.641993427700713,-17.94642617444239,27.55144056058761,-24.759206361995997,38.645885085543654,2,S02
9980,0.17785923914606896,0.16926664989569334,10.318550188939021,11.269646764942745,6.675562179122063,-14.729698063760463,25.744078615903025,-23.867392975374717,37.11320791111074,2,S02
10000,0.13680201067320222,0.03535781059570259,10.306789967743427,-0.37838239333296464,5.825728819357917,-11.841583208706501,26.52083064852342,-25.363493323714064,36.68891378667742,2,S02
10020,0.20461769308872035,-0.20731984567524575,10.278465745567456,-2.2215726172855375,-5.261612184918066,-16.14684493761008,24.19246871483182,-23.330243386960152,35.125189475360145,2,S02
10040,0.17942407961977297,-0.3173510688644562,10.175225476152677,-3.784900225038837,-5.842312657775822,-11.68422298423687,25.568671228469867,-22.797402435783702,36.378724646210706,2,S02
10060,0.043001845942922376,-0.5922483942548302,10.022938058278633,-9.41265834831979,-14.284623615280442,-10.207768475779158,24.795272024952936,-21.390225856519052,35.58224538138492,2,S02
10080,0.05475719933496609,-0.6394328289030982,9.799189345659011,-18.403361236871238,-19.90807247876391,-6.986543993465331,25.67431961113587,-21.961457056303786,36.655987596792755,2,S02
10100,0.08449595280742873,-0.9678872863058996,9.73239958385,-18.857163555252427,-24.518892333161542,-6.65733217497992,26.07490477765331,-22.132820086922813,36.3238914855334,2,S02
10120,-0.24973338272260234,-1.0091655281151477,9.390607226400158,-26.37623807252488,-36.5085063666591,0.9662558405920766,25.42745851238826,-21.35191939562066,33.837312573116975,2,S02
10140,-0.3277855482658327,-1.3435265845931326,9.345986122283938,-29.026294984896133,-42.86824271699935,7.771340635749298,24.58251264111958,-19.296480400138584,34.52557727467071,2,S02
10160,-0.671225872090704,-1.601280252248566,8.974329844195237,-33.467951859269945,-53.97392760781015,11.553324468536868,24.477631908978708,-19.82824402851788,36.86203314802666,2,S02
10180,-0.7477322205127362,-1.6678545730736256,9.015280487276804,-36.75673698814323,-55.472144650942255,11.792190479892092,23.79161335444651,-19.654323086870356,35.465690682453456,2,S02
10200,-0.7458354243626502,-1.508747595394252,9.02464151661128,-35.76225742303321,-60.27865031549275,12.765641414738463,23.65748926533489,-20.34273083180885,35.017510706062815,2,S02
10220,-0.5939678585098465,-1.494270608200927,9.19742351876312,-32.18139401796743,-48.91671403765724,21.920377572964505,25.385898414169368,-19.547748103080167,36.309208784039825,2,S02
10240,-0.3701798932881416,-1.2659535692218298,9.399674035121748,-26.723249786289596,-39.75401313639559,14.217917489180484,23.233494506153853,-16.839907032670258,36.05302211964465,2,S02
10260,-0.25384248961023104,-0.7555390297750111,9.696673755133602,-24.68410417133226,-24.140350534535923,21.96984402249152,24.212723694228654,-17.154909508252175,37.14598062631034,2,S02
10280,-0.020095539485677744,-0.2729387874743818,10.066682812593942,-9.25843450443564,-8.256813858385186,20.327652813199407,23.673118832100975,-16.408270624065846,37.26147975929793,2,S02
10300,0.08110392951160102,0.37307397578011253,10.443379193073396,4.976806196726861,8.333359772533122,15.241262537165648,23.018806878721794,-15.203893740516827,37.50030636795243,2,S02
10320,0.510369215827753,0.7822856564336405,10.783557438891954,16.213607382556056,36.573783948139386,17.4106616533201,25.214298861866098,-14.58156556067416,39.79387014999791,2,S02
10340,0.7140307506176591,1.1913325390361877,10.886284279707626,28.368604236751256,39.502440953605024,11.159561212275795,23.534236388326114,-13.273886874233451,38.642378154473455,2,S02
10360,0.9219656117266266,1.5056912890577487,11.098148306529083,26.53161606668363,54.136013456300944,4.8868862702439095,24.55159679492108,-13.195659046084089,38.266895666629054,2,S02
10380,0.9568719584811988,1.6085817659053359,11.177053159126666,29.27755457883016,55.82272687940706,-2.448994330403067,22.65106876552563,-14.383576927329498,39.28680381525529,2,S02
10400,0.8195756223663382,1.4974430297675974,11.02668010968026,28.588899200223178,55.20648340116977,-4.252028134800912,24.631220730720372,-13.346171107209607,38.39568133818267,2,S02
10420,0.733934338117312,1.3331077030622422,11.120802845024564,22.225576738950775,47.40166639510112,-8.747984788449791,24.50282802835349,-13.041792604656639,39.37510427906815,2,S02
10440,0.48591311685644467,1.206069046250782,10.970972057464216,17.788550599546507,37.59963586956831,-14.897287455930872,24.76000312391554,-12.527070377653704,37.50230573138007,2,S02
10460,0.3704635652778052,0.8953489778519979,10.664072732767902,13.931542015283096,33.06987569889339,-16.864919671840468,25.368611429881025,-11.5420129177338,38.31849896739361,2,S02
10480,0.28126366020505134,0.762848764837831,10.577025821669205,12.27700378694784,22.311322614195785,-18.17336826772268,25.882487541086352,-11.964173803059005,38.73513252903456,2,S02
10500,0.2426787899114287,0.4495131679110876,10.502468243846387,4.880659044515151,15.855168901338846,-20.31160860496801,25.33138276476128,-10.201782030900148,38.91266996135382,2,S02
10520,0.2748139839333421,0.20346550360059817,10.236889643206842,4.7943983664599275,8.202880934678378,-18.865447637364777,24.79587284067204,-9.424658053883782,37.7133103794799,2,S02
10540,0.10651687011104215,-0.05892261289566116,10.126311631497902,0.702188596403853,7.030948226037732,-17.29859351562863,26.018391155864055,-9.97291160357479,37.37047063483307,2,S02
10560,-0.025019122800848836,-0.131426133102796,10.044631932804355,-5.224946517902046,2.0732245056729006,-11.382183303516724,27.609191853800677,-7.3077984175611554,36.65461060656991,2,S02
10580,0.07452045076329679,-0.20467452516208867,10.15007225418479,-4.713990293770905,-10.396457007859794,-15.418402393033722,26.4871240542396,-10.490063483067537,35.76969363627822,2,S02
10600,0.004084090756602252,-0.5283110319674964,10.02966026480837,-10.428140399847566,-13.547047058330726,-13.887726844427794,25.762778647181236,-12.437485122681359,35.5312006005051,2,S02
10620,-0.00883642704715984,-0.585709023751622,9.95371968121609,-11.592610751289687,-17.33985803626416,-6.584936939678719,27.90152189383684,-10.329827154743228,34.16381662154173,2,S02
10640,-0.19394711124660644,-0.8859003635312956,9.602717925410161,-21.07475120004291,-25.685998600773566,-4.438718112012549,27.73502335307537,-9.50643774562258,35.401916167861685,2,S02
10660,-0.3214510757657423,-1.189156348066524,9.653899520112416,-30.283445155478557,-40.2866270560647,0.5290761042249049,28.303652074833842,-6.771471431852219,34.51237327169685,2,S02
10680,-0.5211835397145687,-1.434622802389645,9.349586913751283,-31.653700935147533,-45.14762885661803,7.733126043224624,27.669071440451177,-7.58895539070509,34.969958743509,2,S02
10700,-0.46207757021967266,-1.6355852924049232,9.155542694270142,-36.18582535711302,-53.41285787198221,13.318121681814395,26.78092792376535,-8.311156627515583,36.58123433733601,2,S02
10720,-0.7036113830241084,-1.6465292264737892,9.111919216959146,-42.362255975750756,-55.74774103835573,11.534460243836525,28.861518617409708,-8.659466256817552,35.507848466191405,2,S02
10740,-0.6887086289743655,-1.598781197434649,9.180154618809055,-38.58787514210438,-56.24786190791029,13.242765309684865,29.351311615065434,-9.464951568487882,35.43835106571193,2,S02
10760,-0.5452772011562455,-1.6434971745722462,9.170877559626295,-38.187162873714406,-50.29943485844858,15.786987667233069,28.614586705956164,-10.033966401095729,35.79557813089947,2,S02
10780,-0.3477056176317104,-1.0787079275929092,9.441410097289378,-28.83717957803462,-39.37492201250366,23.60232418265386,28.962826950545967,-10.55233181071161,37.858574145394485,2,S02
10800,-0.21549845870883597,-0.7517209845249231,9.637905882420357,-19.336074116502658,-30.399933087678786,22.130123032160267,30.7860217048501,-8.077339103276804,37.93386534693619,2,S02
10820,-0.011943289916171995,-0.29551751510379703,9.980214704717183,-9.239454455854146,-5.334331872299716,16.793394352838767,31.288396288387997,-11.016357022885892,37.29219733805766,2,S02
10840,0.2573362943670906,0.3422928059294237,10.356776109344345,2.0468428557563376,4.922143128755945,19.9666634347952,31.45193753142278,-11.668079992699226,39.424327616897266,2,S02
10860,0.4382680863922793,0.6509284314735733,10.566164956326123,12.385512253285587,23.959033232732843,19.499111224405596,30.994922973299527,-9.709664399995994,38.86222650686539,2,S02
10880,0.6703167820539473,1.0514711485745547,10.972898035317034,23.206669566683402,45.00523196915646,6.282863395702324,30.253645211488887,-9.53663662514643,38.669417494007476,2,S02
10900,0.7230524684107588,1.3300290200442688,11.058342983973354,25.13657410215433,51.498748363155265,4.839252961405852,31.553954301837532,-11.316360652375522,40.46796986139869,2,S02
10920,0.9470683196628998,1.5034377590714523,11.220203280475793,30.574068674195903,55.611983365940596,0.770439858669212,32.322721448685584,-12.200520726463639,39.19731047846713,2,S02
10940,0.995560057325377,1.5805507679107393,11.241762147312963,26.429737686239182,53.01155981852662,-5.400886006257211,32.113506796481865,-11.913267631090662,38.24208609392297,2,S02
10960,0.700724183902562,1.4830389537259898,11.168572569491209,25.036709802596476,48.528509682807325,-7.568338120268278,31.539343248183624,-15.089280897494094,38.40192628490047,2,S02
10980,0.6334227629304403,1.161875991328332,10.897698400695916,24.382783339750556,44.90699907362422,-10.144190025377823,32.29057999844777,-14.106043467756614,38.50706827074193,2,S02
11000,0.3129499266301035,1.1031758714377164,10.839328848400882,12.909889816111402,29.916064263197867,-14.658502114830087,32.99482650745576,-14.167897806565396,39.01766507478269,2,S02
11020,0.3487213422668774,0.7768237459986795,10.458779669504407,11.887280433849,19.957345105912626,-21.93974831930894,33.259756708342096,-13.86247124543001,37.90710707580826,2,S02
11040,0.16926081124527817,0.6110696098433797,10.439357717649337,6.479445325815221,17.757949260059306,-16.084987885311037,33.95164529394621,-14.963753244020253,36.14785941692862,2,S02
11060,0.23758251680374215,0.22950179291698897,10.332392498907284,1.4699198234153723,9.241100228399196,-21.225876234840257,33.725626741020655,-13.650549153463203,37.676530289299755,2,S02
11080,0.032487666194054896,0.14095506704178482,10.076826646482584,-4.478513682936761,1.5077324337243356,-17.78329028529138,35.2310315274604,-15.492816920348004,36.23981103629118,2,S02
11100,-0.0534289245104444,0.02299970749802341,10.234606932447303,-3.697243185290368,-5.543773691991793,-10.462432013873586,32.34448164217824,-16.417679503458043,35.54158494233235,2,S02
11120,0.039252549231903286,-0.11812296704178038,9.929485555479024,-8.736867598914142,-7.717624773495525,-9.621663852201111,33.79252018891249,-16.266348012318783,36.799896066367744,2,S02
11140,0.08465115069794527,-0.3664656276618292,9.988124904115828,-15.066527876908616,-12.216273622732897,-12.351438600218675,33.94665489542645,-18.977178833155186,35.11399084186943,2,S02
11160,0.152637218691157,-0.6509630936593311,9.799945318045673,-11.012264480046838,-20.207833003365906,-0.6649554134807719,32.763425052634915,-18.918675890962128,34.043529272398544,2,S02
11180,-0.10238978370056892,-0.7858943848726163,9.632044203267332,-17.36833947198407,-27.652149415941324,-2.97637739473334,35.5148191921533,-16.612909856095058,36.276354476411065,2,S02
11200,-0.16817679272243488,-1.1537159199397784,9.599551726283877,-21.94862944080136,-35.973534022133094,-2.341360923680648,35.369113522742396,-17.71326899659243,36.03671511636225,2,S02
11220,-0.34552640274846536,-1.4086328054696746,9.307616029802947,-34.26349278191046,-45.863696078186564,11.609076414520727,33.165406299998295,-18.977510099970495,37.4146345355384,2,S02
11240,-0.6246600383319617,-1.6664692976898503,9.29355902103285,-38.733933504527485,-56.88850794749993,13.263987005393226,32.273083084786094,-21.895284568243277,34.654379949588915,2,S02
11260,-0.5199755234171315,-1.7257250107324178,8.993820323571766,-40.164347551561875,-58.94241235699099,13.48063618061742,33.66603245117193,-23.12169999758107,35.719102104941626,2,S02
11280,-0.7001423590384562,-1.6677395193575681,9.051840242949602,-42.17600829877254,-58.333810189398314,15.680455817351953,33.54051809672701,-22.03322871860865,35.36846479609133,2,S02
11300,-0.5834228284165932,-1.5045176717575997,9.11685286926194,-36.496363421646436,-55.75915943467242,14.422349417192521,33.28754741321174,-21.930733723181273,37.68495425397506,2,S02
11320,-0.47212406076300084,-1.0901369894175854,9.464080190252401,-30.770100575993762,-37.856076418493345,19.361267528046756,30.655360384007462,-21.31527934733258,36.13239619363604,2,S02
11340,-0.440491080208257,-0.936195453794221,9.720414231965737,-13.655172223291387,-28.489179411182636,25.51964552029778,31.82182961428945,-23.294557313134522,37.1746757262059,2,S02
11360,-0.059393339557839875,-0.3467435561914983,9.876702429074852,-13.829645672328184,-13.185334266649981,20.41751596745446,32.00509387591062,-23.887458916376687,37.270906231121025,2,S02
11380,0.2874777807557207,0.17855614822595545,10.240985512805812,-0.07316528227905028,9.717526146767332,17.57508146865031,32.83577741939593,-23.939513058162635,37.79346295933549,2,S02
11400,0.42422638338139407,0.7086100717197703,10.55702073679218,11.383375490069096,26.69020589756792,14.130129547335025,33.59685445577581,-25.33950829979758,38.46831230742669,2,S02
11420,0.5747088821215633,1.0826855504616877,10.913276771199449,21.571123040576328,37.28325549326316,11.557280858191715,33.0343072068878,-24.182552218726755,38.123160737826026,2,S02
11440,0.9056055153006602,1.3477844242352566,11.35925166394085,23.657973640446844,47.34441905847077,3.352874844356568,30.33875381183175,-25.55655437537007,40.414172218216436,2,S02
11460,0.8204382665896321,1.5472486442074649,11.15867575977433,31.718879719935973,51.95753946264857,3.989284858893936,30.83578968945693,-25.429374554371364,38.75428269069702,2,S02
11480,0.8872702570871808,1.6186605493836212,11.176766452910615,25.015597268717343,53.40635888411727,-2.5561209608444515,31.94423866540974,-26.685363691373524,38.852483672293644,2,S02
11500,0.7625183860973537,1.5507121758427531,11.218628653455536,28.667850162987303,54.46798551432224,-10.296303294787924,29.482771296631103,-23.89106619600703,38.386773417991435,2,S02
11520,0.5671953873170794,1.309507004020581,10.936297537162519,22.632878340826558,41.279081144176146,-9.133203937877164,29.40643561610178,-23.84418430725087,37.55731486976558,2,S02
11540,0.40013851838795755,1.0257484088041722,10.801846684874118,17.159350118211446,38.73899843058532,-19.290495021710054,30.596264862014657,-25.934182047089813,38.39039024374121,2,S02
11560,0.31862068663655463,0.7910958390951579,10.638996640040803,17.451385669176087,26.811114234327928,-23.49235047890557,30.06579304906658,-24.895330825296476,38.42287438821926,2,S02
11580,0.12635163406412653,0.5355074052675577,10.597352381677476,3.6325393544211293,14.318332137218533,-19.180516498260936,29.846006579442246,-26.956801199779242,38.80107849653515,2,S02
11600,0.04413953549799473,0.368916965016656,10.366209686489192,0.6522714632384581,12.514781455843329,-20.554516663141534,29.118159702085315,-25.297547878892345,36.99022807222024,2,S02
11620,0.09628515828331823,-0.0721050070974373,10.155694514175133,-3.6093095683019225,2.3105381748649503,-15.996214208904101,29.248430495640225,-24.773663734362266,37.68227401592517,2,S02
11640,0.08035735026183749,-0.025293789135172218,10.060479978410173,-6.696858937364025,-4.802966815249531,-19.735107674252784,29.86764100895652,-25.366020793268998,37.3639660694164,2,S02
11660,0.1554165515193908,-0.4543692777054105,9.992100349086671,-4.599753263094145,-2.782159961449774,-17.907079690493404,28.434356800710436,-27.1602903429651,37.44985442929659,2,S02
11680,0.10575903211310646,-0.35380168507467014,10.036944445658058,-9.036598926302673,-12.548019043155039,-14.771260336625724,28.047868076746727,-25.80869015390032,36.79992820118649,2,S02
11700,0.04491459204284706,-0.6602002169746684,9.908115365166495,-19.536025607519257,-12.598916837120472,-10.37411466545692,27.605693010672592,-26.523428680097954,35.695811851596645,2,S02
11720,-0.10592409053213006,-0.9425965071310038,9.619476954341243,-19.120763942323663,-28.86870103492946,-0.9991769019885649,27.59524647714678,-24.337098373412758,36.05607714116495,2,S02
11740,-0.0712981822458478,-1.0174806914199983,9.418712469087758,-24.892723014266366,-35.447249818151974,5.1645339296189015,26.42657867864467,-25.497403510062124,37.98001940804748,2,S02
11760,-0.3164951007385939,-1.4400651851657542,9.459027591707732,-30.471401768020655,-51.238466318209,7.574355116747849,26.882172111550997,-22.88980989497651,36.49927255523669,2,S02
11780,-0.5172963853287238,-1.566727784001235,9.12506801708799,-31.24602513270604,-53.087978231762925,13.67088680639437,25.35645545452865,-24.83855515202434,35.04946867437495,2,S02
11800,-0.6494689655720652,-1.616455254701093,9.212636957867144,-37.45379716249337,-55.6411764278277,13.631984435913296,26.876445739497445,-23.86745746627749,37.029335246290245,2,S02
11820,-0.697842884869606,-1.7260441116899965,9.118578067338445,-33.18592121902909,-55.95699712541325,15.623750077660324,26.501258686423114,-22.210368672189734,36.43199247207163,2,S02
11840,-0.5140037081606554,-1.6110824502983985,9.089844507998851,-35.09852759754261,-54.59772560594614,20.183277742065144,24.771706168549578,-22.46039987231947,35.994523984794284,2,S02
11860,-0.6320865658353617,-1.3957643196634302,9.392017129074285,-29.70364250349458,-48.701048283862264,16.925030931825958,25.444138868342034,-21.406463439637953,37.55309005699744,2,S02
11880,-0.20498891253330606,-0.7059668052832899,9.719911503805152,-21.28954070091972,-26.57493073747378,20.473103902732475,23.870116251981347,-21.150495943197093,38.134076830141545,2,S02
11900,-0.1443835110666971,-0.2594188382936793,9.833939204642029,-12.740610861680636,-13.066564228943955,20.105732532673525,26.69185241338649,-21.5093299023224,37.66278755920271,2,S02
11920,0.05375843821860318,0.21714176606592572,10.399424145277868,-4.295476948997886,5.071859028634172,13.846940693124965,24.24298249363866,-21.69075611080586,36.30383657044635,2,S02
11940,0.3866267187273985,0.5828228938742883,10.751779631028032,13.349388201912046,23.83334195226943,10.338908162896274,23.59720202989581,-22.312736930880636,39.63612497602653,2,S02
11960,0.7099363612847591,1.132677564665486,10.975954321090157,17.102741773301755,36.52255980215743,11.36854840842779,24.18769502689672,-20.191839745350876,38.27887063954985,2,S02
11980,0.8152865565056103,1.4598346026824172,10.96685598003509,22.516095019522854,51.259935241744614,4.637518870456818,25.162494566766455,-21.1408816262264,38.722131144320926,2,S02
12000,0.8890022256852679,1.4462818052089002,11.304877312278617,27.817411477621082,58.444333758256754,0.0007791226447163568,22.759245721752812,-18.747770259476425,39.57276669501808,2,S02
12020,0.7851480906825516,1.6837795645987361,11.222398451312454,24.766175220725426,53.86829140503994,0.6429751135160545,24.74171089133483,-17.581190851311774,36.9188270791196,2,S02
12040,0.7447937221798477,1.3505342077903326,11.12425043491429,27.798256820491343,48.78013326414793,-5.754576588611238,24.01907160401364,-17.41927676572444,38.6665199076796,2,S02
12060,0.8292788528623243,1.3309254482125763,10.987182855531948,19.2168449031921,46.483708183329284,-17.506857289582086,24.889067229596602,-17.478635602965923,38.80368629808454,2,S02
12080,0.5950521278606442,1.0519547456125593,10.840604084892584,19.25040039228594,34.91557172416172,-16.704729463327503,24.556233863652622,-16.527245355259055,38.81248335279634,2,S02
12100,0.3548761679183078,0.6542759487445609,10.628154436891315,10.244467414670758,26.65085404735236,-19.869172654721208,23.85740846945724,-16.52935899437005,38.45323309755916,2,S02
12120,0.11963499198955505,0.6603923952777169,10.458607484692575,3.660600276957285,23.14371300742531,-11.408508756454316,23.695374993771026,-13.308510187169192,38.01322103842478,2,S02
12140,0.1309207505029811,0.2890885199501974,10.454863132386727,-1.4835489456024078,11.126178132474115,-15.35779668742814,22.5052433738592,-13.424772598317514,37.84384316073737,2,S02
12160,0.07861960154635025,0.06721213361872314,10.153722563716165,-4.532041085459856,6.955272959847647,-21.155959716340067,25.29550709196231,-15.61487491672728,36.16479939914512,2,S02
12180,0.10398037708165715,-0.14314716674439,10.274597169190493,-7.0512008659248036,-1.173146575854658,-25.02478866314403,25.623291162738376,-11.365982375127157,38.13840910722878,2,S02
12200,0.09673138356584685,-0.039968563633272065,10.227977442603954,-7.4187230383577045,-10.097404817302468,-12.254353124102732,26.29910458158612,-15.341902285410164,35.83096744834427,2,S02
12220,0.04860405966544578,-0.34332581348688335,9.970667500776665,-4.063030666508456,-10.713621871738948,-15.48464651243352,24.94546310710488,-11.905966756607121,35.031177147370826,2,S02
12240,-0.013316308075068825,-0.6726721901657284,9.855534228957735,-13.128478561055914,-18.428388716216052,-2.782388811651948,24.239471886993584,-12.631335436269069,34.2484667144394,2,S02
12260,0.02297094615530268,-0.8768362727349988,9.643267026671628,-13.943385826730005,-31.988204416185145,-2.998475619761082,25.74663924301607,-12.590696797304185,36.32006318546201,2,S02
12280,-0.29333987774383985,-1.1069027660989628,9.494288482991893,-21.733756254185376,-34.494472479059446,0.8351208125991797,24.25104468077972,-10.194640302403243,36.0006471498806,2,S02
12300,-0.2879011974935596,-1.2290727576337084,9.422479130879662,-30.57869325622727,-44.18691271185432,5.985973092930846,26.500840395930673,-12.716953629962205,34.327320148143954,2,S02
12320,-0.4591524163704511,-1.7024772363115281,9.177596483408792,-40.45173134421887,-49.00917937624203,13.294668071543056,25.5523762361398,-11.596855098923463,34.81958466299798,2,S02
12340,-0.7154107039944936,-1.7605395372899828,9.227680575034219,-39.35983995239476,-54.72463575623867,11.813972713038533,25.490987961818025,-10.917356964433214,35.72528305381237,2,S02
12360,-0.6237248511805492,-1.5764999548965417,9.259039662602563,-36.98241880131477,-59.86143676126754,19.065463337425328,25.278547982407517,-8.557545114353472,37.15609328368203,2,S02
12380,-0.6980141348075964,-1.6165995103656365,9.215319864804284,-37.35756549621754,-49.731724290951334,17.332645438103036,28.10787382076192,-8.954577283811016,36.94037002574198,2,S02
12400,-0.527852154027603,-1.4359608172399965,9.58656221306763,-29.149783270639894,-42.25816851668664,23.712766671051646,26.65753155396298,-8.95158528957414,37.29470044118693,2,S02
12420,-0.3447765280188252,-0.8473286555265773,9.632820208147821,-15.818547162407668,-29.08450314856027,23.49165153150208,28.488207531516945,-10.300530068400109,38.50071901956546,2,S02
12440,0.01846725510510784,-0.3835100226161197,10.052887973624932,-8.275839017968927,-7.235110705006429,24.51937092596905,28.43068760167751,-9.962985652500866,38.651554355268765,2,S02
12460,0.31745638384553726,0.03454890397467697,10.179459335806374,0.3991101791584075,5.302913046665509,16.85802446930937,27.683016143438575,-8.981295693365507,38.59623241253211,2,S02
12480,0.586606076161927,0.5929186211482125,10.626313910755902,10.792608879802277,25.444867757952252,11.75652623510147,28.94222078008032,-10.296707827387836,38.223299702369005,2,S02
12500,0.6210546064629859,1.0614993812504707,10.860656615740307,16.763310747294952,36.36538355834822,12.494309120794359,28.305392859112487,-8.696558243649488,38.622116409932985,2,S02
12520,0.6845982713309638,1.2485549206861246,10.983800076155662,24.90573151492475,50.44965666394136,8.703743711013846,28.15890245929755,-9.936049319213831,38.59408009284996,2,S02
12540,0.7310580105894843,1.476329216461321,11.088056194638066,30.1415748697901,58.15014773556153,0.5905069601534519,29.224502617688074,-9.759902968745077,39.12366720272198,2,S02
12560,0.86779438002153,1.593879415312593,11.155050960508701,27.88644086925947,56.66681594431553,-2.147454651457276,29.23737206689922,-9.22603544227453,37.25710640770094,2,S02
12580,0.7046605732579108,1.5293108486807594,11.307587384930331,29.991689324148712,48.40362175026347,-8.427037841907188,29.34000295936107,-9.900279530747603,38.8020792131604,2,S02
12600,0.7657276370036704,1.3953578324382045,10.845254967432536,23.192214075647954,44.34472162734199,-11.803107023620493,29.84842591219129,-7.682841791399709,39.27926661340859,2,S02
12620,0.43792418491349105,1.0134905039181428,10.725496481391689,14.213115398762827,35.966913598826096,-14.761615212292963,32.02260706595307,-9.665946894627616,38.446914233827385,2,S02
12640,0.32555815982013936,0.8019887255019835,10.584025575281332,14.246865229637539,26.38337180603858,-14.593061677028045,30.367041825902724,-11.633002382040532,39.233698154959164,2,S02
12660,0.12994216164112163,0.4147637402794288,10.47693929957105,6.844371269391375,20.14730155938858,-18.74425102122508,31.168245445526043,-10.126564427787311,37.12568963739292,2,S02
12680,-0.007848299558376876,0.24380886967653304,10.323571905101511,8.489606263289339,7.467326858997851,-18.195982427557585,33.58598120429636,-10.618871757415207,37.27924489699673,2,S02
12700,-0.012780910097988638,0.16164649885602184,10.073722791520417,4.038587790151955,6.178778585074208,-20.61576857299765,32.55789668138026,-11.15606503683442,37.864961139954985,2,S02
12720,0.15578195957607682,-0.10788134261130047,10.162654441818646,-9.387596312292143,-2.665569730074148,-17.29991636028541,31.75783965993035,-11.307460761449505,36.075312073198916,2,S02
12740,0.04219500630269085,-0.25512001960584874,10.196315178062548,-3.3500263760354274,-5.823364321233197,-15.173870931153179,32.78000382245591,-13.141534570531025,37.52203175464452,2,S02
12760,0.037072539306162694,-0.26036573657968376,9.959057880756793,-9.913278227716662,-10.100759884143436,-11.075813222504857,32.47785943744317,-12.811387638346211,35.00209741960665,2,S02
12780,0.11826204428351719,-0.6721641408141807,9.954125005785844,-10.58856709552051,-17.413471343692454,-10.074937215576432,33.65865364805723,-14.976809136153754,35.74208197293137,2,S02
12800,-0.1205295427287687,-0.7054470858388204,9.702043372202757,-13.117616576617024,-22.372260786534653,-7.678283591334688,33.72296304456013,-14.249935750147047,34.022580354424164,2,S02
12820,-0.1256512886335396,-1.1617905502903376,9.427079131574265,-26.13154105190082,-32.10513180551897,0.86635364697054,32.94463802058768,-13.217182836096388,34.77740421443219,2,S02
12840,-0.3316995541058685,-1.3139913707575388,9.374852818122848,-30.4871385152863,-39.294715312429524,4.073570107364794,33.626455276090425,-14.00292757543848,36.47251513926849,2,S02
12860,-0.44737692834294795,-1.6351526956165148,9.22388126222308,-40.987836276168565,-54.64150470164703,11.217439023902559,32.39823467637426,-16.152557496575373,35.43116436730337,2,S02
12880,-0.6751786632650157,-1.7290077177348369,9.108226235286564,-39.54960344840259,-59.19866902995414,12.681103250331779,33.25220394628603,-16.11475258589878,35.807585693535344,2,S02
12900,-0.6952346767928222,-1.5041426057303033,9.111089295014486,-39.11135780856074,-64.4120356862784,14.76579584348536,32.438128674434964,-15.301958852162741,35.12919733586249,2,S02
12920,-0.7243943310406544,-1.5822110190717098,9.217571477096207,-35.06544016142288,-52.95383614990291,23.581001893430482,32.74025406464453,-16.17127121251352,36.994639020187904,2,S02
12940,-0.6439114049714463,-1.465340882610858,9.16687653285395,-32.45916751787939,-46.55706351400768,20.084185404772217,34.767166823756455,-16.812323649637705,36.35301370977433,2,S02
12960,-0.27014331635800637,-0.8656245846567199,9.52078469260886,-20.707670495750715,-30.964948133525134,18.91133152800647,33.5390458058018,-19.194629507037874,37.52550428891405,2,S02
12980,-0.04150065397821376,-0.4351832312082486,9.807615182661252,-9.696479286153904,-13.506446289323417,24.683827731227712,32.95851158395473,-18.399387215487614,36.125202830001896,2,S02
13000,0.09123090863049682,0.042605757624869484,10.359918560819999,2.9117301743135373,9.257153004611403,18.660930771863097,33.64879072877707,-19.419564290947616,37.92140351432358,2,S02
13020,0.35842427497794993,0.5710066141954795,10.657325385199075,4.334539083252456,19.88397837635899,18.329222544594117,33.15712009575963,-18.830580410661465,36.779977049697195,2,S02
13040,0.5900471988697145,1.0421262772960243,10.8850690228296,24.503951217336112,37.320621356964125,10.797389510331096,32.610087335780946,-20.266256737047406,38.0762304632215,2,S02
13060,0.8619588802243145,1.3910943568548846,11.151243585693889,24.41715026487765,43.897052971017864,14.957744164950983,32.36785213092824,-18.65376292747804,38.410184822004766,2,S02
13080,0.8513606500787926,1.6695633297090555,11.077856053153845,30.45371037213533,55.12490657246013,3.3386518868662156,32.89190625554349,-20.9137656735215,38.502703139943016,2,S02
13100,0.8037670245857113,1.721855204266707,11.237903254762132,36.9691467000156,58.369475873024086,-2.333470846794163,32.882248582200134,-21.419958762640647,39.09470720692631,2,S02
13120,0.8368133686913443,1.5836347077326531,11.141549788717889,30.343877195680673,48.903361722534505,-3.782962480581911,32.04411524533898,-21.114202237587683,38.756649593609026,2,S02
13140,0.6506896870289322,1.2908818875680703,11.093980266421482,23.10468591545443,46.50496345562328,-10.216771684450638,31.89766739548119,-24.18175061180013,38.78539253943466,2,S02
