timestamp,ax,ay,az,gx,gy,gz,mx,my,mz,label,subject_id
0,0.17351356325671274,-0.8736724177695485,9.888380368748843,-8.43404505049184,-6.03539588411429,18.9278932869547,34.186247137939674,-13.493241202196703,40.18536141402495,5,S02
20,0.34720281902885497,-0.7256511350256127,10.288124462288529,9.273585360960784,11.840533246441144,9.553840792613645,32.79822432673461,-12.546026849172993,39.75047898439005,5,S02
40,0.442604956189935,-0.4573401227491616,10.23409014880799,14.535799094039678,27.947808316623824,13.940882275373715,31.161559020520937,-14.377646973520315,40.5888756800733,5,S02
60,0.6472806111880339,-0.39000762343734385,10.57617131776665,23.718642680924702,44.779118113583245,-0.20319550756881688,31.043951283326376,-13.967842926266169,39.826765398269075,5,S02
80,0.798326576007618,-0.02982747482121694,10.708426807455306,23.891803794428025,47.23402495915367,2.7314680951899626,31.458389877522606,-12.877241438525656,40.52721029691639,5,S02
100,0.9731484147106318,-0.20158411224145864,11.075455926608207,33.10439902627147,58.205014555620934,2.432920250417056,33.79357350878186,-14.802639436427064,40.89847410502741,5,S02
120,0.8730430937179573,0.03551564671266173,11.086631430762429,27.741640119028578,54.584259379001914,-5.165990169350497,30.633010298185617,-14.081557242728456,42.12763635714071,5,S02
140,0.7969982012148779,0.030239359760388662,11.232721293394295,25.231663744100334,51.36011714194323,-1.7448005752238065,32.01407245530223,-16.063130680579995,40.25277254068626,5,S02
160,0.556786742402219,0.08919626437704054,11.429441879574116,19.430040551505428,39.204919680638994,-8.937110047283932,33.01306722477405,-15.348573730189575,37.84885863052197,5,S02
180,0.638845902292439,-0.022000723873620558,11.412287614888523,15.61936644978184,34.52623218193864,-13.378831749946384,32.22813754502096,-16.481630519638554,39.19399803496436,5,S02
200,0.5430022997641761,-0.07519639957531286,11.356957758244961,13.070199717957642,30.490366761732137,-22.812086195738583,33.745618560088104,-14.9888616230036,37.652292952416865,5,S02
220,0.304617352234896,-0.24381697271951935,11.455533726155103,6.461579639084099,16.15804016989708,-13.677491396478286,31.986834493675264,-14.979140016735197,37.23355914111335,5,S02
240,0.26973099695663155,-0.30499886537864346,11.10410479911265,2.161292119199512,16.210901249568916,-17.273044986482148,32.174209756710724,-18.046336877722368,37.634377905781115,5,S02
260,0.20158215660480772,-0.6015524730442827,11.082051537868956,1.7538354214323375,3.5908085012685804,-17.65630592120809,32.86078274174842,-18.62381695025286,36.32914082269272,5,S02
280,0.3051581030565896,-0.8574771734837998,11.103102122011206,-0.5273281565013455,1.3863799652983773,-13.6211120610338,31.860053235067735,-16.371119689880967,36.31799812558806,5,S02
300,0.1556928478848067,-0.9630152194186825,10.729324888850005,-5.657325914811382,0.6657485750407239,-15.418741711539925,31.10128405284918,-19.208882913477073,35.27726081926891,5,S02
320,0.02181101297740598,-1.3505554433369114,10.467922426845195,-1.822449040440925,-11.642995336086862,-9.799443676600797,32.544296905462886,-19.304815493509686,33.9684001923829,5,S02
340,0.07495490926537873,-1.3766289731808374,10.12939691734441,-8.048815759230031,-9.847010497625316,-12.41086217260195,32.483145466251266,-18.831280987384503,33.33861202780923,5,S02
360,-0.04049020888732921,-1.664448218115056,9.970445516044597,-8.703722122207754,-8.767265542019757,-7.158737490043251,31.351539592821386,-19.276666191519958,33.42986609615497,5,S02
380,-0.2357012014136247,-1.9342549251559953,9.927735826435853,-11.598540026950172,-12.98164975014701,-4.45515570455426,32.06722205206474,-22.490030312617026,31.307500059363235,5,S02
400,-0.30405790795370147,-2.1369708047084597,9.694919825255283,-23.29817871372225,-26.820551422090187,-2.815807208380831,33.038770535695456,-18.380558929086916,33.4751541707272,5,S02
420,-0.37907754520755355,-2.1274902832440454,9.752987166572849,-23.984505713425243,-38.11847406429113,1.3993503610749505,30.701805915560872,-21.06930486756117,32.907762037086655,5,S02
440,-0.4275165316360485,-2.1696753662641917,9.514109040408258,-21.371432132929083,-47.12043215860281,4.927399599006937,31.45320713109049,-21.315077509027972,33.11864634049362,5,S02
460,-0.5217169400024758,-2.2609377224042064,9.583149323627572,-29.8811242449658,-48.78382369512365,7.6023944334960385,34.259773071679746,-21.438283157562307,34.149392451916285,5,S02
480,-0.5076921044596628,-2.020976472690874,9.400406174366827,-36.69653228777406,-50.853374951186275,13.712029102927225,30.96386282258609,-21.124997974908833,35.821228438273366,5,S02
500,-0.5176121600639921,-2.1195383908817034,9.426880027463307,-43.49890439680194,-61.524914884131604,22.589220570662764,32.62503072594171,-22.72983880564972,36.409265870748776,5,S02
520,-0.35338709015687164,-1.9988487039275025,9.424805974158835,-39.8529971916556,-53.083234490486824,18.943874494522483,30.777641728268872,-20.807863993621602,37.15218132184829,5,S02
540,-0.3426906680773215,-1.6017386501893955,9.60383569202229,-26.543989159205687,-54.45824349337616,17.380893021526752,30.82989972461934,-22.347003206668067,37.880346467712556,5,S02
560,-0.28326428168067097,-1.6519990234687443,9.538729688950118,-28.064469183221867,-41.8136196532905,19.599525914852357,32.186169536275386,-22.50132212817562,39.28077426785819,5,S02
580,-0.12732743115116235,-1.3665109338710895,9.497224065499148,-20.667302923204772,-24.66594481912333,20.571111639439195,31.28215873370504,-21.71092644243292,39.236225312712875,5,S02
600,-0.05340817713122459,-1.2228817058516481,9.938045288273486,-9.06967415697014,-5.349674666506785,16.451342744671123,31.662172249392242,-23.73349607822628,38.05050309970018,5,S02
620,0.1384925856827169,-1.0249862123786186,10.0826428193167,6.8883191861925015,5.71010884872448,13.094760999934818,29.51191257440528,-23.380348329109548,40.67769827776323,5,S02
640,0.4245963072588578,-0.7850488303359491,10.235230200869717,13.680573294464452,37.07936173392806,17.637263777001294,29.928786480087346,-22.52438064316157,39.9212398097271,5,S02
660,0.6831999473754566,-0.45373399439523415,10.548973492825612,24.911353451207273,35.365983333892686,8.678726424000745,31.443534792684083,-24.904408338568437,40.90156596235485,5,S02
680,0.7107158081785785,-0.23620101410748628,10.924609056607965,33.84098884691169,55.532680037466875,1.747239811720371,31.34978736444512,-23.781192423039055,41.72916367405714,5,S02
700,0.8692108586990054,0.06203561299476748,10.899626245508456,30.34732529170652,54.63692260597586,6.839001753484544,30.348759277387767,-21.631417156340184,44.431589090256324,5,S02
720,0.7839024250091873,-0.2015878949677345,10.862853542284425,23.698918153426842,56.39204143474488,1.647362106175744,28.1738015912198,-23.27520100646542,39.9667108370452,5,S02
740,0.8176293578311173,-0.00945204215479973,11.297661422570815,23.20466633943149,50.96009254281286,-13.242735048751017,27.67272490899649,-23.125756197121206,39.427829882306305,5,S02
760,0.7571132945729308,0.1765445222068436,11.386154827292241,21.279083937300793,47.05010252971634,-8.393796383395866,28.11644466307583,-22.29459400426694,40.011393617110265,5,S02
780,0.45018936531616405,0.05710985921138864,11.45704240988902,23.36079091688055,34.18654363063765,-13.525179029258501,27.08737160693295,-22.54668926431498,40.453858328948456,5,S02
800,0.41932309875001617,-0.16225147894359288,11.21681557570564,11.690538863999109,25.214729205056006,-21.18574935082076,28.10753814680052,-23.27072789575075,38.83899640081585,5,S02
820,0.41274422411093825,-0.28643045171226644,11.127881611256745,5.223940795235829,21.927711196568627,-15.105348191140603,28.529680843614333,-23.243258492256945,39.28221963069448,5,S02
840,0.27129374389655436,-0.4017547093329567,11.075813656834237,3.0790551636433143,10.61497176860542,-20.577091719921288,26.663462629717625,-24.889736343610945,36.98321306916836,5,S02
860,0.16060275198624954,-0.5930871706770993,11.114238528208155,2.416992563965872,6.080874166716207,-16.821811641006654,29.32776057222765,-23.36226275421298,35.99043780465193,5,S02
880,0.1891812056462106,-0.8333895819030184,10.848378866949933,3.0652956585707587,3.1235934246266757,-17.156523233228345,28.4883930077545,-22.298069324160892,36.52688433490371,5,S02
900,0.0918046075920561,-0.9548698513066556,10.889592015633351,-6.584220082787773,-0.6479358852553583,-18.493763345687668,29.159534970290686,-23.2250939360776,35.405336900285896,5,S02
920,0.0174718159797482,-1.2078699146298395,10.485297972302499,-4.065669592844237,-7.688863814879925,-14.835809027337977,26.360349624605703,-24.262331522237353,34.009627871404746,5,S02
940,0.1157652875859268,-1.2814112460468134,10.382865170325793,-7.994960084989369,-2.4225999043572237,-10.33812083239897,27.145387248166163,-22.1157602674284,33.459037630683966,5,S02
960,-0.1542212518241359,-1.640530641199023,10.30481181205491,-11.670192198113362,-7.536218411882959,-6.246518923748898,27.00294582342097,-23.93363414122154,33.73198950986421,5,S02
980,-0.16523366535267145,-1.681891225725086,9.989139858626015,-11.426763447008053,-13.538925404104116,-8.590221905747624,29.12674193601196,-23.11029050952325,34.20060602153023,5,S02
1000,-0.2693763165253723,-1.985609951917678,9.906682134317597,-11.550397604480107,-16.6672174133008,-2.300650178763836,26.405883022389606,-23.91622127525248,34.787186388242844,5,S02
1020,-0.33882131686121253,-2.1061989653001483,9.73310243776287,-18.508984870539486,-25.024990089384353,-2.643850803008903,25.184380316219197,-21.000798038020072,32.794398886907395,5,S02
1040,-0.5121904871709452,-2.1841384459299786,9.516326505996117,-21.05711691417825,-37.84307113133177,9.136012264520957,26.950657711456458,-22.983295065435932,34.51093872361644,5,S02
1060,-0.5024638899497563,-2.1121848698151187,9.569023790836187,-33.594839173011856,-47.63791150328184,13.342550247779396,24.978051153117597,-19.26820926654894,36.75552572552621,5,S02
1080,-0.5443114724819067,-2.2223397808668173,9.604047011381475,-40.06338562416871,-56.847496737943025,13.656403540577056,25.034419069344274,-21.485516047685195,35.49922430456776,5,S02
1100,-0.5638945958232014,-2.096030130872149,9.34233462861384,-38.199290317283115,-53.81866384960008,15.180891990693752,25.639425367325973,-20.98871117087929,34.90277590788061,5,S02
1120,-0.526634921246862,-1.970175903294353,9.463397249108501,-37.686409952976106,-55.87246127348604,19.971438041895773,26.43773849137528,-20.024763953605664,35.83145644653844,5,S02
1140,-0.525209170586188,-1.7768770413135602,9.418258385145206,-39.072103761449966,-49.84918262137927,15.455067231558628,24.479466404527635,-18.532836885622032,39.2519420527119,5,S02
1160,-0.28961479017872704,-1.6366716831646233,9.47517271593107,-33.254283561070054,-45.39265561682148,20.541368948513018,26.35734537277755,-19.68451921887315,35.61509036828889,5,S02
1180,-0.2783905542637318,-1.4804106670047594,9.69744249955143,-28.61179953051416,-31.25158078794052,14.34781048256742,23.579428261515233,-18.359538263865744,39.402850300124946,5,S02
1200,-0.014436140520521168,-1.1907451535949385,9.61866259471562,-9.335889918218466,-10.787399713875049,15.917626398921994,24.59998605506395,-19.01943569015929,40.217556093599256,5,S02
1220,0.2050825406383247,-1.0590455759614077,10.235825194286983,-5.82705891612127,-0.0595723310974654,12.342012113108314,24.74816632015476,-20.33461706913766,40.36285973565156,5,S02
1240,0.4958171224211445,-0.807889477993978,10.328079168100171,7.113433508026566,21.612960191055947,8.476789156625507,24.571477131924397,-18.241660888949554,41.145233687453675,5,S02
1260,0.692894212823792,-0.6517747677937027,10.463227542243711,15.17592833876186,35.799672207109346,5.4669485166156395,24.635806541004108,-18.264916551548303,40.242395905713416,5,S02
1280,0.5281234685172131,-0.37551278974872865,10.679455690312203,23.774742236136543,47.42465936877068,11.414101984515023,24.55321625146699,-18.022877316852615,41.76334656311281,5,S02
1300,0.825705627175993,-0.25020938537156834,10.780082307537693,27.296964487473,61.35877368964453,0.8314427057461734,24.76857018185038,-16.75708815792716,39.75023354778715,5,S02
1320,0.7244855724878629,0.05655050120431607,11.092759105349552,32.004659537393955,48.19589152064092,-8.592460029268157,22.78198917872379,-16.357942036886477,41.86700526122996,5,S02
1340,0.6706178648775508,0.06477747163788614,10.998114709370189,28.65160822309284,52.2359211970539,-2.350590058614326,25.41869504738787,-15.121085644856862,41.195201278669316,5,S02
1360,0.7762682245733739,-0.008401975822923478,11.239039358061412,26.268458605425806,45.8491692586373,-4.937238862970488,27.191747017496752,-16.99740605740808,39.571811908868305,5,S02
1380,0.5136834262206676,0.083364550772449,11.398915566608116,10.197066771455116,34.07658908488662,-8.715917309253328,23.337982870967462,-14.196899874652747,39.783740852860966,5,S02
1400,0.5795914326839249,-0.10401616040321215,11.175171391317521,15.869982041171738,36.19533109709169,-14.144137175771498,24.823424760930223,-13.337085730062196,38.77160461681023,5,S02
1420,0.4483442294081208,-0.024342854676715646,11.154066310237532,9.501128878316287,26.321092813984784,-17.55395861738941,25.175406687772572,-11.947338898157039,37.97010382775981,5,S02
1440,0.3155627398475962,-0.2565508235297609,11.372257744598338,8.257908079320007,16.165222663884627,-13.679910395147703,25.938116029782257,-14.430486203507492,38.28453436113067,5,S02
1460,0.1074341876516,-0.5514886693018168,11.212582383516104,-5.732634875508743,8.614488131765182,-11.44718462810266,24.158473130606943,-12.202629614360081,38.41568832042408,5,S02
1480,0.29164200309091354,-0.6904739189144127,11.010109485358903,-1.0251970679657871,2.955017031444658,-18.690119504562116,25.487542333523926,-13.178663469225224,34.634532311634175,5,S02
1500,0.2898261981415501,-0.8163050366576532,10.790900611572443,-2.3464207513989344,3.7686634407126656,-22.206400776484177,26.646463625635693,-12.032187608907932,34.87459907989568,5,S02
1520,0.03275767725339389,-1.0944581137949985,10.557881899017541,-8.207127946723176,0.8183511274512425,-17.311934258932116,27.876143863705643,-12.240358345235656,35.00209633305191,5,S02
1540,0.012041987272776736,-1.3909159730005727,10.392266721244422,-4.503595526556027,-4.599859903002212,-16.30009642281111,28.09158299471542,-12.503352036417054,33.44084974001014,5,S02
1560,-0.018851778632406085,-1.538065146487017,10.033859354680331,-9.21970838109213,-9.817732727090753,-4.352231477759601,26.26471665790715,-12.59641764109675,34.39631059846934,5,S02
1580,0.09905645775460283,-1.6237563554895524,10.049178080273755,-2.47582940167219,-10.729093763135808,-1.0777398834055982,26.62736754470974,-11.983356321512485,34.459731190941824,5,S02
1600,-0.25332266911442125,-1.9922681516234604,9.832396122181443,-10.444254803046068,-21.110912405779185,-1.4579308648816385,27.094391702634823,-12.83945506108585,33.6306832811275,5,S02
1620,-0.22847055398870078,-2.0235861601908676,9.628240390539819,-16.49519061658029,-26.418830695118775,7.936780233097493,28.362116651277347,-11.671225397283918,35.19805249405893,5,S02
1640,-0.4514263413473054,-2.0270737730118777,9.836876639765299,-17.29879109516459,-36.86925807267861,3.1987865270472997,26.701846823254794,-12.460076690452302,32.820621344939255,5,S02
1660,-0.48088018835325375,-2.0915429690207343,9.336546359787597,-35.285389581289934,-47.7660986610429,5.215093852204017,24.943949165833693,-10.434849506573947,31.79245570369626,5,S02
1680,-0.5081566665301771,-2.0279022068918073,9.458010564841484,-35.98302156575588,-47.45599695321323,13.601415134661504,27.447974684521963,-11.76000830517982,36.37926788341664,5,S02
1700,-0.6261924031617712,-1.876192724693853,9.424590508755998,-41.02239898416406,-61.986466732518416,12.034263981663683,26.452157658385737,-10.766633111980731,34.764820576017186,5,S02
1720,-0.6489722857628443,-1.8626696660952655,9.240781709543473,-38.595641059490184,-60.49304086729738,17.10508099731527,28.961843144054622,-11.4431533173905,36.187579695277215,5,S02
1740,-0.6695424960485431,-2.0165909968278504,9.361327882798985,-32.3748249301065,-48.561193336475114,17.21165800232412,29.308009662461508,-11.381721126824367,37.02570671464852,5,S02
1760,-0.40922060232174173,-1.7844861843313822,9.564933466021314,-30.95282739596564,-49.64635415740243,17.653483291247703,28.867094374921116,-11.326054922572276,39.49112548952969,5,S02
1780,-0.32704291999083457,-1.4599664983580825,9.620164377922288,-25.949146509764294,-36.65570989910897,21.581861312060305,27.85821471161187,-10.203215740551725,38.7151447554647,5,S02
1800,-0.23092880968710763,-1.445427900196547,9.866020103457151,-14.495504107074293,-22.801814245382257,13.942576220013231,28.894450648151693,-9.192818988110805,39.13080701604821,5,S02
1820,0.17357784626046469,-0.9562501763176303,9.918601697148468,-6.265317836074943,-5.69641018627711,15.073267235050944,29.172332921447097,-12.341584628988816,37.90079726058244,5,S02
1840,0.38911910194832555,-0.8323717795636967,10.127784266446996,6.098717302646787,13.682029267708328,8.488528046839706,29.864191461187055,-12.336818984529662,41.57634828096016,5,S02
1860,0.39071671848505496,-0.5889933333273243,10.441751226667298,10.243827830157866,33.828154573747355,16.07991971592025,29.757750392925697,-12.434069054024214,39.12247486739078,5,S02
1880,0.6065305345901194,-0.27917343563402636,10.561579482781374,24.976347840905266,40.17499956890058,7.018773588311536,29.777560458184766,-12.379614993179167,41.988978021042705,5,S02
1900,0.7019133236903785,-0.1339700113515941,10.645894351492174,21.43579805697034,48.21947484871427,1.8052307633846154,29.87436825895858,-10.820254549200992,41.810991619448934,5,S02
1920,0.9058772043468158,-0.1647953280016167,11.074587398377238,31.325953066509992,56.93586506240187,3.3837654680849054,31.377887778934994,-10.548136111825666,41.29376271520274,5,S02
1940,0.8617479750555178,-0.08305207695482655,10.922551685171616,29.105554882071385,56.6779728613046,-2.5397303363553525,30.0308770025053,-9.549810718993912,41.05521627192877,5,S02
1960,0.7833511854199823,-0.13214057860500394,11.097987834328135,34.20896407875182,49.17596554374549,-5.820762525206373,31.562852653777444,-12.254971455855207,40.99976467734221,5,S02
1980,0.7157131381366668,0.11394103538624367,11.153136983112539,21.150595848958456,44.54736571987823,-13.18117092410086,31.931952865363066,-14.351924533710498,39.79269317122134,5,S02
2000,0.6761062235386447,0.11727813127863385,11.517347040733327,21.110614483412153,34.9860775592805,-16.27050710692766,31.178760373096075,-11.733112182840507,39.030826481878215,5,S02
2020,0.40441957308815835,0.08916833071430402,11.49116679885677,8.0299848847311,35.14890380760566,-7.231223105972413,31.283614396219946,-11.708552889879648,38.310904573338114,5,S02
2040,0.46204251400607577,-0.07759138056417725,11.352650029507592,6.99942085549634,20.940042327264866,-17.396258423467433,31.805707434468278,-12.859203738999284,38.143973637722674,5,S02
2060,0.20342868040959716,-0.44085796942379957,11.237932624787792,4.3331202153345805,11.466029183825386,-11.819090689149524,32.27230548980716,-13.512291091479565,35.76867996307953,5,S02
2080,0.04956054222408272,-0.4239491128542059,10.861877151918684,5.388212711893424,9.17419111567684,-20.175269594777344,33.17680759367372,-12.24234670824908,37.425216397664414,5,S02
2100,0.21136807910008976,-0.6955977348776019,10.896719777054361,-9.567162548500722,3.7797852715246316,-15.693740971303816,32.640370337116806,-12.823819898474886,36.28826165785137,5,S02
2120,0.10529826333388839,-0.8787246506583233,10.640118874343761,-7.631534627889012,-2.7158280057787914,-15.691536146654014,33.22616220721333,-13.905273678316721,34.4847980760529,5,S02
2140,-0.05850340862295658,-1.1367817800729878,10.590765729928288,-4.9007550050038375,-8.769433969446743,-5.364900519582161,32.847430984870485,-15.214370327420271,36.22070897763858,5,S02
2160,0.11852099013233873,-1.5104902487802447,10.322594302684957,-9.104680466229777,-11.834429553086899,-13.21560424027639,31.080555871474136,-15.595069152794437,34.05047731803343,5,S02
2180,0.03966360594278961,-1.7591325903206414,10.023459038781716,-5.771445069818023,-9.810452143079685,-9.708224742095851,33.019684194830404,-15.208631180110146,34.39682161426918,5,S02
2200,-0.03402772754984276,-1.7020243120573189,9.975403660407022,-14.971444720169039,-10.46566754250446,-9.360748824845304,33.002288843730014,-16.07369355164819,32.98767834592207,5,S02
2220,-0.2732156505343304,-1.9840859130085189,9.709428200656305,-20.375396660361677,-23.976924740276687,-3.046184305826347,32.364063547959454,-16.28439050432653,34.11832891079654,5,S02
2240,-0.38380730487554005,-2.21782016730758,9.625441130604193,-22.089371426606267,-35.201865435262846,3.8576754083670797,32.51596072775739,-15.360416558707517,34.00712975425853,5,S02
2260,-0.26610834198412125,-1.956914503374775,9.634162998372062,-27.810282335950255,-42.54212129304086,9.558191104859404,33.80177237819673,-17.330021932747716,32.64280661494146,5,S02
2280,-0.6271321428610515,-1.9723552005235079,9.373025022249779,-33.405988640947015,-49.079239353539414,7.980319516569981,32.388993959465935,-18.272968896738913,33.07983601173968,5,S02
2300,-0.7480065071050047,-2.2451897369037246,9.566078269468665,-45.56587641344455,-48.85057525779284,7.912252552486751,31.923820166755984,-16.523868149641586,35.24627466333122,5,S02
2320,-0.6976080655406918,-2.016632801811281,9.43954264014992,-37.25371287352418,-51.83042090112811,10.702668560893843,31.18614822802684,-18.86011621445466,34.61629195969054,5,S02
2340,-0.5149693699099304,-1.7583725496227156,9.377537302386546,-39.42040597866802,-55.77860422616925,16.480694045731,32.34507385278707,-19.96091249643719,36.5103201788618,5,S02
2360,-0.5484226608966524,-1.850939390933788,9.557767925157687,-37.307669647459754,-49.65696559027315,15.13538179107328,32.89768685161577,-19.484670698946587,38.77890085821095,5,S02
2380,-0.33940575313688304,-1.6917074006462534,9.525658844434226,-31.325084588724103,-41.763118963079684,19.883704300829802,31.710580996840317,-18.679493496072332,37.81282275462571,5,S02
2400,-0.2956855055825117,-1.4511731781332278,9.789264887498875,-16.629498514407324,-29.86953593061535,18.428697680818853,32.55428649682081,-20.759446661706548,38.82248041189883,5,S02
2420,0.05645181349044773,-1.215405523140305,9.672495747991029,-8.037590526300864,-3.9356007111547413,23.354932608283796,30.802218940522774,-20.477801006373685,40.507258149024636,5,S02
2440,0.22657386430975493,-0.9133668745235526,10.039458355643966,4.132814184999114,7.773450411776223,17.833698511908445,33.19719834655719,-19.30714586821755,40.64683749139093,5,S02
2460,0.49513070202267995,-0.7469174473700635,10.329901917733007,9.839910214294154,28.89189823300181,13.090083056869702,33.489565618090154,-21.49396699821012,40.84279189419467,5,S02
2480,0.5797826945581467,-0.36269405879046346,10.328425884528732,23.311478357660874,34.928487394169466,9.034778601813732,32.427951358264174,-21.57535188919914,40.97068664894362,5,S02
2500,0.7782702190288489,-0.45853572275114246,10.80355139810474,25.28640967584664,45.411132138317804,5.460245956569768,31.865473208699676,-20.61416077681892,40.911245852203585,5,S02
2520,0.7309268096684997,-0.2579532777189414,10.999367079349689,31.74882024321209,50.223165589068714,3.284201525363303,31.283998658140497,-22.277268417572067,40.63082326034037,5,S02
2540,0.7498868019125976,-0.05265891323854647,10.997996357165858,24.351624284378506,58.11248314050528,-2.7750958225388476,32.77556729650986,-22.135351185413565,40.58632233378725,5,S02
2560,0.7761812951624606,0.18965648247004624,11.170551952837316,29.37730384072537,45.819971465115756,-6.455510130147118,32.40751215200323,-24.718190029447168,40.05402115625383,5,S02
2580,0.9222757948960938,0.09760031198141969,11.247658826606942,20.94735443465665,47.669069626252096,-10.219404301939528,33.933267188234105,-23.596388216590558,37.79182225989618,5,S02
2600,0.6872115945965789,0.15088776355829558,11.235022460457134,22.023182403476383,38.8356295834674,-10.144429333253,30.569031836588035,-22.308345390157513,40.97763983075208,5,S02
2620,0.5737440290377678,-0.022115116803925743,11.357249257526473,7.965081552256058,28.92987368730451,-13.26338033166319,30.7107438016916,-23.58005560267101,37.85118262693629,5,S02
2640,0.24455991224650886,0.012023091061246577,11.252649694500665,9.151805172763666,25.363784525184805,-17.512465454453377,30.482313074256535,-21.90524759532932,37.381485389190814,5,S02
2660,0.2306283238182582,-0.2531978891711741,11.310963882645533,7.6887276211468345,12.052751232543416,-20.403341473391592,30.134053463955503,-23.002442494250236,37.15633849035117,5,S02
2680,0.10878024477602458,-0.7080420944596686,11.184278697194314,3.342512392973802,8.407496560583304,-15.882973387894632,29.429956906695672,-24.77495385893891,36.062199902819465,5,S02
2700,0.19319514170631735,-0.6869738679079462,10.829787863739817,-1.2176423061206938,-1.4754286901474971,-14.575716282854533,30.256276807345678,-23.415066609808644,35.77308842928589,5,S02
2720,0.19185080894168122,-0.9373519179011955,10.71218317680639,-5.832542335513319,1.5678335749502843,-25.705952859824855,29.17034803925672,-22.725690353132528,34.20976533088674,5,S02
2740,0.08069585147426928,-1.1742001086773242,10.688128747250863,0.23296704957716763,-5.492401580992444,-13.81332040652768,29.465650846736573,-25.14916637579499,33.81373927644648,5,S02
2760,0.08549464337501647,-1.5157310403822095,10.339729042414676,-2.9569667778805324,-5.7924510533506,-10.472967485311734,29.788744262588175,-24.003833351398935,35.06003182967385,5,S02
2780,-0.09538289111232157,-1.7648681137059399,10.05729310413459,-7.236247258136201,-11.627869580057157,-6.465837602762743,27.409540750686322,-21.836353232904035,34.71726915082243,5,S02
2800,-0.23007186176889646,-1.852509833143705,9.78318886521777,-5.966913854084512,-19.043545487589714,-7.252450112733653,30.742974700689885,-22.960958419139544,33.39649550410357,5,S02
2820,-0.07946716043188853,-1.9478302037801256,9.756887677618378,-9.401050829357997,-22.554992055690334,-1.0363665969514986,28.31945957605036,-24.436789120855337,33.681587752062754,5,S02
2840,-0.31386573279348395,-2.0279239370001734,9.871790897005408,-16.84261729825256,-26.47435663445746,2.7183504924764716,29.489396593900576,-21.659639307842475,32.02738991908117,5,S02
2860,-0.23034220203302133,-2.1317242137135777,9.521070090951138,-25.57899743355824,-35.89831956296181,-0.8590374992223181,30.25521477741846,-24.6132082522638,32.051334903348234,5,S02
2880,-0.5358893355080958,-1.9071011289302018,9.5539824051228,-40.2536460932193,-54.96912037893398,9.656804146247783,27.31285065397298,-21.86385493896219,32.791705724385494,5,S02
2900,-0.432539391922633,-2.1038192880485886,9.484821217017831,-33.08962022351794,-56.232450452543105,12.236875088893866,28.900358749218906,-25.103152586167745,35.32247742146219,5,S02
2920,-0.7911735798901144,-1.9629009627025975,9.65673111125293,-35.28137402401699,-61.27156555830834,17.924617871939944,28.2181022484285,-21.829908573311684,35.823539038058456,5,S02
2940,-0.7178516360766222,-1.8366995583530643,9.543636393413829,-41.119241415727615,-55.8616863691782,19.970256909866624,27.862176155896176,-22.541541163146547,33.74612066177586,5,S02
2960,-0.4315224679436508,-1.818399150134375,9.433423635795211,-31.12927738054243,-51.48109107046334,15.493680164706483,27.955541969164475,-22.651234419220955,36.94689353242953,5,S02
2980,-0.40539415937597056,-1.720305172503908,9.67121100080858,-28.70935909908319,-51.21595326420787,19.006897040760332,26.748126111530016,-23.856910885084076,37.244478580243594,5,S02
3000,-0.2625955696668786,-1.6096608170535682,9.639317315690683,-22.416149323952105,-34.10626461527442,17.539273958032748,28.648346255381504,-22.16599162566881,38.47311372100755,5,S02
3020,-0.12687042290933875,-1.1856393747885554,9.785349841150564,-12.510071458912847,-18.99572623333765,19.677850416278062,26.263230577112274,-23.771291712147264,36.805733568968996,5,S02
3040,-0.04698577972409196,-1.0332305904372394,10.099701975003814,-4.991358228321644,1.9051332285873415,15.270989293176259,26.16805741911339,-20.53654665448175,38.490999493077325,5,S02
3060,0.46501685711751495,-0.9670417231079336,9.96966112451517,6.559547551079043,30.131360448935435,7.485944101690608,25.647006207888342,-21.078404993880817,39.9687915916739,5,S02
3080,0.6322388466292483,-0.5267887716648736,10.465804548618983,11.808513367017337,35.14574474024115,16.01901723492461,24.57154382719482,-19.89863110988189,39.724093666150544,5,S02
3100,0.7201567282931051,-0.3173437450889931,10.66304816734214,25.966964181195003,48.87995836689998,12.174738129438756,26.429249074399408,-21.17378821692752,40.05604799683534,5,S02
3120,0.6747457649462325,-0.13102580771482064,10.871365910360355,29.818505567308723,51.29930789140495,-1.5151974855233923,25.238541704054413,-20.243259369106035,40.10800964520168,5,S02
3140,0.46688970054208934,0.04887180641697593,10.927702950439015,32.75309622340319,57.401697201341875,-1.538618815649622,25.50843858488354,-22.215839587549162,40.919641693129,5,S02
3160,0.9385460679869317,-0.0019236624400765373,11.246977684829075,33.46104582776691,57.305494690501185,-5.973878383044509,25.993251212955155,-20.17741474922295,40.088204758701636,5,S02
3180,0.7763938207212527,0.003880751774086477,11.024428354475795,24.26771847941313,48.80619874946511,-4.133050505024029,24.873975013100143,-18.054589318756996,40.84212545804299,5,S02
3200,0.627626619236902,0.004348350040382976,11.273219583908315,23.49022442828478,42.097394943906416,-11.422366948080473,25.53318207534886,-17.848771507691588,38.74757115293236,5,S02
3220,0.5291099049438975,-0.22771854748540143,11.400965204164768,16.641448068419788,33.742489471169876,-20.838601416109867,25.564951897041606,-20.171337747229245,38.32179727747882,5,S02
3240,0.4272873518809527,-0.1783815669282431,11.290633059648782,7.54628633519603,22.063053711759817,-9.429086267521916,25.049353112879054,-19.209502865324502,39.10198377831795,5,S02
3260,0.33853369346970363,-0.14708778785659885,11.049100595135565,8.268288656973851,21.132755269403905,-15.257885800944965,24.89735789116758,-18.466054548625763,36.41272004283211,5,S02
3280,0.4062307972679211,-0.428291186406015,10.952794983884687,-2.2107170565779053,10.863888140899917,-14.26516369837526,25.65418810439344,-18.541359042882362,36.52664729877745,5,S02
3300,0.06607210519643847,-0.7105673355729163,11.110223147029094,1.052178699173294,6.127254237867738,-13.234963624514611,24.351439042002852,-15.88355212380419,37.99109793459111,5,S02
3320,0.1928457891657266,-0.7153438596113433,10.55579311330173,-1.988893767230031,5.958087225941135,-16.34911429666482,23.539719829124685,-17.68947452135624,35.88305391790213,5,S02
3340,0.1731738543309973,-0.9188983680601592,10.542254664773857,-6.577290825235723,1.0956440142889614,-15.148413907486253,26.285988760293996,-14.48283727062785,33.42229448288893,5,S02
3360,0.10363650018557313,-1.2893074412533239,10.593703321428794,-3.2277293049624864,-2.6920737453761925,-15.977248895939818,24.42533881880607,-15.605332516190568,36.84750578193926,5,S02
3380,0.10290611807039379,-1.5377870409047651,10.170010488704847,-5.466340432027936,-8.752795271958384,-10.578995858510883,25.604826810093584,-15.340014303875236,32.29434140839571,5,S02
3400,0.012092930429269844,-1.725979847389103,10.019745650406513,-9.407567101693807,-14.826470782843927,-8.665857671220717,27.57841360995129,-15.94359826983328,34.51441994461534,5,S02
3420,-0.2865772824702273,-1.8715859524919203,10.054215694300947,-7.638965583934997,-18.92285087541665,-2.5312187269398665,26.33220615040265,-16.786009677104,34.95977324753543,5,S02
3440,-0.11049483782996442,-2.1058354770144243,9.763379869998463,-17.29934178636405,-19.348472473988064,0.885947938222802,25.289413194863357,-16.72916301232401,34.8137429665031,5,S02
3460,-0.4230667751739189,-2.0863838262121255,9.633979772100046,-25.04019494473469,-31.18636072817972,4.001626802681945,25.864149045756314,-15.009202361056701,32.82735299099826,5,S02
3480,-0.366549132306878,-2.1078460770100826,9.598434775815898,-27.082430289179037,-46.07971512472357,9.38398431095318,25.75385669855982,-15.903753546666259,35.36605676007757,5,S02
3500,-0.5311293967280221,-2.141858284186013,9.427486628569078,-39.992859450672455,-47.39732406143584,9.126436500041967,25.66027716963482,-12.846278375759237,35.59853093669048,5,S02
3520,-0.5122917982987467,-2.200418534143791,9.395782060050507,-37.19166942544711,-55.26667622837312,16.03503494334426,25.914850377507904,-12.960103087370118,35.916265873930854,5,S02
3540,-0.7670699779181319,-2.0176605384023762,9.63742316620692,-37.53626826741369,-60.27795352521709,16.1625519478439,26.11303381808828,-13.154859199433005,36.4236412949439,5,S02
3560,-0.4592753807716542,-1.879288542807957,9.26439196802478,-41.41568584085112,-58.936634199716615,20.707638497751372,26.69739800358983,-13.11232314925126,35.72064001410919,5,S02
3580,-0.5471963956695464,-1.7373631900837925,9.62765686023281,-34.11392567739608,-47.82673410559814,20.50516332237555,25.46738420382436,-12.807240896431065,39.010610929577766,5,S02
3600,-0.3839795446992864,-1.4353432840985858,9.588949421603694,-21.37331995014982,-34.25728648048731,21.069097198790757,26.96613344138375,-12.575944881851509,38.702213989020784,5,S02
3620,-0.14983065697532694,-1.2848408053179547,9.60660777998494,-12.525006705052927,-26.5799604995138,19.563011502973787,26.084634108480625,-11.007575042740186,39.70218049119332,5,S02
3640,-0.13858907711801166,-1.0633987824528528,9.97632323586805,-5.649710269885663,-9.593082814271654,15.3304152706601,25.4193784510171,-12.489047060497573,40.305150329646686,5,S02
3660,0.3184440427516041,-0.6964550726128849,10.1048442265519,5.977798439269949,15.994825291880588,13.964584249926714,27.6067435848355,-11.364069777707346,39.51320806883828,5,S02
3680,0.3414653610067556,-0.4527945204212993,10.442166518270609,10.639374259507921,29.298740480623884,15.916880860516704,26.800306586389,-11.090631842602445,39.385034192782285,5,S02
3700,0.573420917297955,-0.23951289768320377,10.41339548846024,16.889300362693483,46.63302015600814,7.704310062545261,29.29482344406181,-11.227501254720089,43.069197207887754,5,S02
3720,0.8713835907171039,-0.608097380722525,10.873573885758141,26.270913074763293,55.87211777127738,7.748935643840365,27.55874169946787,-11.814255805652884,41.823036965875566,5,S02
3740,0.7695022213864158,-0.1543897082107163,10.91775961977876,32.82737527813529,53.6195945856747,5.878034230758166,27.351312442389265,-10.54207628256735,41.36186282087804,5,S02
3760,0.7312165017512157,-0.015096446544491313,11.177249914943557,29.788645138966192,57.96803302628243,-6.272662256854167,28.358167026713286,-12.116824359094407,41.98594906258543,5,S02
3780,0.9231936976335389,0.030429763048443872,11.382442379326818,32.37236569334765,48.34650508964151,-6.2541693861138175,28.1779851244322,-12.489539680936153,42.0887122244852,5,S02
3800,0.5178669257058817,0.03139071986312904,11.24527801722857,24.451421583667127,45.133739117240076,-9.419526309378925,28.209529500958453,-10.948869581790571,40.49577386342063,5,S02
3820,0.5125664963200441,-0.07267808434646507,11.11102105627753,18.647274846144594,35.669434879215444,-3.71651139235073,29.469280824599018,-11.99048650358183,39.66602137079043,5,S02
3840,0.5473012737203634,-0.1860528482973517,11.335071860948862,14.585702366015301,18.861774379309576,-20.628285183908726,29.08806889497832,-9.379777902823696,38.84943737037967,5,S02
3860,0.2050255127925263,-0.005445609559261669,11.191503678270852,-0.8740742088768414,23.08363793067022,-10.259305948804199,30.503196022946,-11.036467449623832,38.106774347688614,5,S02
3880,0.08552683725598084,-0.26153223050340335,11.255026546709356,8.642997871015424,4.784469322023929,-22.36205906769643,31.306360664863423,-11.912945904857548,37.5040881511536,5,S02
3900,0.32133727061054396,-0.644212337847164,10.994800951088541,5.051260710250891,10.900746187132786,-22.284781279294336,30.151084549443215,-12.95945051816421,36.377458492602294,5,S02
3920,0.18290657207266012,-0.7298489266992882,10.950631143637,0.26421986940012765,3.6519695730288078,-21.687877561720782,30.98613657616295,-10.649253178866871,34.70370710962007,5,S02
3940,-0.05184409490390951,-0.9578782737726241,10.698158293497004,-10.316889650244876,-0.710179532432087,-21.401911123372802,30.99335647633613,-12.313260736060158,34.70576480389455,5,S02
3960,-0.15323838323889674,-1.1349316027917256,10.627312262769646,-3.1003456227128185,-5.441533508990556,-15.264981454385298,30.132749799098043,-9.446848986546724,35.274855762133015,5,S02
3980,0.10794536153074073,-1.278791756289042,10.263308985431548,-8.001213576610226,-9.147561464364463,-17.562045398216455,30.60376493642644,-13.84428082754855,34.38333174903738,5,S02
4000,-0.09518460007222346,-1.514616413422732,10.200790432442195,-13.362940175789703,-14.895649322322877,-14.948960435631962,31.593608974931378,-13.341950515109255,34.90968608408126,5,S02
4020,-0.11558288638995123,-1.7378760026122,9.936528803668704,-12.01001083051025,-20.851240743954726,-5.788062996742009,32.138342325893134,-13.36694172187038,34.549716595016356,5,S02
4040,-0.2495127291826358,-1.9363703786308135,9.866406623862469,-13.24089649909888,-20.417180842755734,1.8035871817956024,30.39727561679428,-13.060623453365533,33.14816919857458,5,S02
4060,-0.30262912892352234,-2.1751436479073347,9.559571465817367,-25.876222734509383,-32.23537013121857,1.1826418495465423,32.19293167694356,-13.019702071352597,34.30930240599994,5,S02
4080,-0.37408820026001655,-2.117959693326564,9.459421191731868,-18.306960180574436,-43.664432978346234,5.73971073745323,32.20684406721619,-14.11002184066431,34.80412335228837,5,S02
4100,-0.6270202095818254,-1.9970948184937742,9.54677651105016,-36.93325554410356,-55.411837367183736,11.25122043805591,31.93413828072251,-14.740556910010291,34.244144327952505,5,S02
4120,-0.5647869244139168,-2.105285667593064,9.472648718391188,-41.33364417424671,-53.29045456204433,13.988305001142265,31.424423193022157,-15.79926261046274,36.93894847426918,5,S02
4140,-0.6474315181107355,-2.0954173578744717,9.524948501632034,-33.31778466100671,-56.146819439609416,15.837404444144202,31.9915038380221,-13.541219926982235,35.405745459237494,5,S02
4160,-0.5899326901606943,-1.954003923951623,9.509637807213682,-34.35048376227155,-58.45016729810933,12.376702088102315,32.03462833370017,-15.60553360965522,37.38694166212073,5,S02
4180,-0.48462590742797607,-1.7910285211015249,9.483291594854624,-33.80190684571247,-50.71283201115609,22.986361097889606,32.90970164243032,-15.535338935878459,36.460600788527465,5,S02
4200,-0.3682582849854297,-1.637906668574544,9.613303858198881,-25.901296369651117,-36.326429697590754,15.463819468590293,32.25980371667552,-16.19403961651161,38.252860140994514,5,S02
4220,-0.15583959611823464,-1.1831173331963554,9.418945696508532,-20.98804484225215,-22.853050238058582,14.070772540200448,32.637457901754615,-17.193248817177427,40.35457611274849,5,S02
4240,-0.032921654118999305,-0.9264941455449964,10.097739020676142,-15.449370915179195,-8.249035243890809,22.49421786303636,31.787841788724773,-16.816648098105034,39.457676059662326,5,S02
4260,0.23344415789925696,-1.0586704564046767,10.106536570735413,-0.3645029857123876,10.185195694138113,11.526691295941145,32.56504284399949,-14.854299118658213,40.45154016969895,5,S02
4280,0.3273259722647702,-0.7369484317994914,10.229538355668936,5.659653761526676,18.09415270073833,15.643490821280128,32.10070840656054,-16.56541566677933,40.5687552421296,5,S02
4300,0.5608531124462637,-0.5096879908334262,10.512079868537892,26.39917060945084,36.52774710550159,11.492131112924259,31.150954471062303,-17.509029122962474,39.93165308014716,5,S02
4320,0.7368820869989047,-0.3980176294849987,10.530718431572986,28.014531373252073,46.30236148729413,0.867889188641055,33.18898556567355,-18.01926669522701,41.27789757816305,5,S02
4340,0.6162342955913511,-0.16032146425649285,10.984361286489504,28.875524653103984,52.47057418806759,-2.061512343193957,32.735998510468605,-18.740694677789776,40.5076820407681,5,S02
4360,0.7940993510776081,-0.011416228516118905,11.117371542884008,37.951045268176664,61.487576440635564,2.6101019820155416,32.00760547390817,-18.423910070270633,41.7440801492163,5,S02
4380,0.693545384555834,0.0695502625807912,11.192436197224616,28.410599434065386,56.84375350819979,3.595360344323445,33.21708978637851,-21.225746469902724,38.835669306153484,5,S02
4400,0.8071924283667296,0.0642918832681166,11.194611299817439,20.648416421145374,45.014518224141725,-5.522557097009077,32.21063193383681,-20.517890415772975,40.57882723119868,5,S02
4420,0.6684408698503889,-0.07072637925696877,11.359511214012288,23.44668226617669,39.80226869156828,-12.779019710598034,31.796148559618732,-20.304768590448674,41.28408752109306,5,S02
4440,0.27713431290319385,-0.04085188139880512,11.325313382329329,5.757966507652774,36.33902883829151,-16.13573097714036,33.36617726635096,-19.290167068501322,39.25469635672377,5,S02
4460,0.34317738154961996,-0.2008079618029267,11.334351958170926,8.846050360338083,21.883219010874072,-14.623252944711785,32.91714659371273,-20.99002621505293,36.74982501471564,5,S02
4480,0.4802150844255031,-0.2921841157797359,11.323886771989157,-0.4814035929140532,16.968875913406055,-19.878156654951653,32.73757684037665,-22.43756438395218,38.20703532373351,5,S02
4500,0.4096079708684318,-0.4649798112883273,11.2116843396246,3.2527920313992595,10.93063000346885,-21.952922270008806,31.191845299253153,-22.368969935979365,34.625732077917554,5,S02
4520,0.22704928498456814,-0.6064734868763544,10.956701156699806,-2.4657510822288407,-0.06160527011419448,-12.513471799515774,32.26494845067674,-20.85979352249599,35.61064100477371,5,S02
4540,0.1023346293713653,-0.9016433659542153,10.687051547798248,-9.241116042624311,-2.4717705997661747,-17.629067492954945,33.11517377612723,-22.275767443849002,34.120504201208135,5,S02
4560,0.11391433835249976,-1.1234256945525343,10.718962300216383,-9.301601963617411,-5.479921792774673,-15.164837502908378,33.17826801223839,-22.216937607114694,32.98925253975607,5,S02
4580,0.14902563118078785,-1.3860444005068813,10.293908194860391,-4.99380072918865,-4.908141922335288,-12.772939986072977,31.875340210632807,-21.993323741728577,35.34385660664986,5,S02
4600,-0.14012851496649315,-1.6098079236890137,10.280249119962585,-10.924723557431562,-6.522106356737781,-10.873851704704583,31.40490921992663,-22.660767888841853,31.898812741086303,5,S02
4620,-0.0847486976014202,-1.8859797988788942,9.953389598520554,-11.958166973051732,-8.955252540407889,-6.201172275084801,30.682639791470127,-21.614091898797938,33.62621653916109,5,S02
4640,-0.11488696039106516,-1.7789322167059727,10.025372714405947,-16.98213656280688,-28.448325411998194,-3.435399468527201,30.703157910137598,-23.775842356431273,32.95920726407142,5,S02
4660,-0.4424918770430095,-2.0786895289262644,9.579865812688396,-13.218143019201456,-27.778665200817066,2.623780264045614,31.737393144312655,-22.541232552311122,34.41885384350917,5,S02
4680,-0.3082780033514333,-1.9757666169720176,9.557367639106303,-26.58964865644167,-37.679542503248456,3.544822052856368,29.179143786075972,-22.241571475234103,34.06189983662375,5,S02
4700,-0.46268057822751807,-2.0656677080643076,9.56500784992671,-29.19478170521687,-44.358612501246014,4.431933340576971,29.755241607984175,-24.230282527520128,36.13859508053989,5,S02
4720,-0.7343149000298115,-2.2213189798344746,9.514150414241763,-36.97263173788529,-53.79893009411849,14.744241097298652,31.188600106681157,-24.077391614149263,34.932813657345676,5,S02
4740,-0.6242176397729294,-2.1754945104669257,9.284310419691796,-37.39514227631106,-61.472444443375394,14.695187068674441,28.251678406024816,-22.663577835704253,36.384285284254446,5,S02
4760,-0.5530821816227681,-1.8598842611405848,9.298995629682398,-32.54968426237998,-56.81615012588872,20.034302262506255,29.766185508251656,-22.389237495605183,37.35759880808686,5,S02
4780,-0.6181013139718339,-1.7338821505029158,9.455110537663007,-46.26536552839322,-53.98921872421484,21.465734868589344,29.316179239558462,-23.424041240514818,37.81779884833356,5,S02
4800,-0.433091130267101,-1.6786723078989452,9.407601460487799,-33.018905277998336,-50.02832176150087,9.595204948497878,30.747563996174268,-24.968087980059423,38.57878033226614,5,S02
4820,-0.17750903186907482,-1.603347900312476,9.631093187429821,-16.18887542218841,-33.63558876733192,14.365654494835004,28.724992650152167,-22.405877779760594,36.8147465179321,5,S02
4840,0.0014109515055515665,-1.3828744112276312,9.877678129882417,-13.021739573798293,-21.9815360171941,21.04570599453168,27.48532229387896,-23.86272769056269,39.5363437679885,5,S02
4860,0.17273191994522147,-0.9693066798186181,9.967281808206295,3.9268829160009266,0.2354955706933004,20.898625335163626,29.05997933912553,-23.552613560549204,42.0891361783559,5,S02
4880,0.20669017588991478,-0.9587930637198507,10.288154709721182,13.0998811725044,13.021580740172872,13.752454765291775,29.27394293245699,-23.143724762197916,41.38123047118828,5,S02
4900,0.7203780929447291,-0.6072373842988739,10.313685896870924,17.74024719189237,33.444906794308096,12.304110453220744,26.459324116441127,-23.826437337832484,40.70108536550468,5,S02
4920,0.7724036075222844,-0.33622049239156965,10.734122074091545,27.590072238028522,47.556176498724,7.561006203945063,26.191923416667496,-23.305217596930316,40.43844262401098,5,S02
4940,0.5734079593731584,-0.20093062870693668,10.828728056034032,34.87907298302716,58.234386774237706,11.555142313678951,27.767045027005697,-23.997720631907864,40.89665710842335,5,S02
4960,0.6479293750030514,0.09197338237895494,10.820796769490853,33.55011352131201,55.775598519154386,-2.073906160137866,26.648653324952658,-25.443336293772866,40.82632508480839,5,S02
4980,0.772005560438798,0.10126273049413687,11.166360202189663,31.133289973900556,56.13742489136236,-4.703128629765619,27.442894472318017,-23.113452963967987,39.24156351402839,5,S02
5000,0.7320198445778531,0.11545300643735318,11.198384307957774,22.855906424748856,48.44695045827306,-13.968329159849057,25.850452516650577,-20.80738309190302,39.03490682878999,5,S02
5020,0.5716940208713398,0.19581566725235194,11.251224875357371,23.425513257766273,40.29782997978608,-8.958998147952178,27.040127467209015,-21.732420723326115,37.02299148689367,5,S02
5040,0.610872597742184,-0.06761519269260924,11.21931366304185,14.871687727998573,35.02161404622078,-14.084773078474875,26.924661014795046,-21.58664175535462,39.814560568258095,5,S02
5060,0.49732088027631294,-0.20615704605177823,11.296227410801379,8.661734645199424,32.74321804306608,-9.067901360493037,27.28367864149004,-23.060694583707555,37.94564919964938,5,S02
5080,0.4056831079043146,-0.19167080688660332,11.256009263830821,7.904665415257331,19.029550946674078,-20.280618976954333,25.285143178455233,-21.31520119483847,37.18058051188238,5,S02
5100,0.19236922231343037,-0.48953739364865917,11.116187654371227,-2.0175005082116098,15.274172337103504,-18.62609439305919,26.61831336375804,-22.137845973912007,36.09379143274564,5,S02
5120,0.163384912013379,-0.6988464218291806,10.981283061012501,7.3516043940695335,3.8222203085108104,-17.86611234334809,24.173453259082578,-21.40855936394077,36.383542142500026,5,S02
5140,0.135918286494142,-0.8257474681756312,11.013454677464313,-4.300052988654738,0.7847985056960705,-13.299321668985568,24.999028564931955,-19.813899343929293,33.97824491005535,5,S02
5160,-0.039644890172024244,-0.916751162722014,10.743358710510146,-3.8932561332234634,3.571010457693773,-14.612365793685363,27.39969383472132,-21.549927331238635,35.05653252866685,5,S02
5180,0.204114619614931,-1.3521561065434424,10.415844049835991,0.2958880770945074,-4.076296432130959,-11.997629244082662,25.58693825999599,-20.948807295387905,33.87748061246919,5,S02
5200,-0.006160503875173584,-1.5886218191928145,10.336992448113824,-9.401845149012981,-3.0164943011682395,-6.890352410362327,24.793528130847736,-18.54433828348375,34.04275581387651,5,S02
5220,-0.30115705497206224,-1.7390883494350993,10.17880637573191,-8.780453390255612,-15.812071184553972,-8.130909858458478,24.598752694456138,-19.053823945017633,33.34382656216518,5,S02
5240,-0.09197695493141006,-1.8837834622457306,9.977522688324953,-7.150050085400285,-21.831881718827333,-0.3361830853047093,25.63135066792117,-18.55595525954392,33.413016225302556,5,S02
5260,-0.24949918605737967,-2.0503711618769143,9.842778748959539,-19.27478430076289,-25.013375913803976,1.3378055264380526,25.462053075300517,-17.574275717983237,34.28080978823321,5,S02
5280,-0.3739350481689966,-2.0031524073361715,9.61055180249732,-20.159460251193114,-30.307470248743623,-3.573278215352477,24.668341488772292,-18.161528705320585,34.132264555824264,5,S02
5300,-0.6274857519603089,-2.233824268847866,9.443908097311665,-32.82065900182767,-41.02331732669949,18.509558118305183,26.102501126953495,-18.133519305311466,33.95002168125201,5,S02
5320,-0.4139145506533335,-2.3474562053419765,9.46323459017387,-33.94735365052991,-55.023698628029656,17.910404488021122,24.985847924551223,-17.90820749451195,34.89775831436201,5,S02
5340,-0.5642485962004943,-2.0250182409241235,9.535547957119395,-35.626260891291636,-53.69713641640728,5.075830489256907,24.811734140656462,-17.037533612471073,33.23020030004059,5,S02
5360,-0.34206349267128067,-1.8902883259422198,9.491396286694046,-38.80932227430741,-57.11854753260047,18.285279429170064,26.600085780690424,-16.118989461040137,37.181570210989825,5,S02
5380,-0.5899494782000236,-2.033636975210171,9.460934472994103,-39.64209027082548,-55.38580327706771,20.568573392961333,27.14286033265613,-15.179102228698568,38.07360990717096,5,S02
5400,-0.5943668078210473,-1.5848562013808032,9.471028070430044,-27.6468985161619,-49.54484570899056,15.861866818683978,25.14107497477285,-16.931235576138924,38.18790345257205,5,S02
5420,-0.2069544426834697,-1.4622869149816842,9.66653046974262,-29.17171133777585,-35.83650319629033,21.946909256123682,24.612345721631858,-16.498115962722025,37.93907256348193,5,S02
5440,-0.11490678058224885,-1.526735610098862,9.832812472818214,-21.293456523246324,-20.058438727350044,15.314418863337888,24.98939425613198,-13.584772210456503,39.46588444909881,5,S02
5460,-0.07568852758523073,-0.976428975735327,9.780112945811577,-6.7022626872598,-7.318039125943568,12.242302146655364,24.687883771478738,-16.793728000530145,39.61633624569596,5,S02
5480,0.0775666762317542,-0.8438084991185826,10.128744618903069,7.6427140808411975,11.033441310149755,17.771958222992854,24.240599333241384,-13.600878935011693,39.975699143319304,5,S02
5500,0.5181041587591048,-0.6913195735840443,10.34502824103025,12.419935231835183,25.58147035727405,9.754110158394772,26.784724367595757,-15.270240443565537,41.033509682451665,5,S02
5520,0.5707243171118592,-0.5612403732052355,10.521399896184278,21.339873110882404,42.43126852823515,10.785064416945632,26.731913313838213,-15.407334750235016,42.17478248790782,5,S02
5540,0.7664161356082099,-0.2389139152441176,10.610771091092937,26.847195183947857,57.41705355352867,6.425883997519359,26.36895379519516,-14.937432472816099,40.13816355788955,5,S02
5560,0.9753826853340265,-0.2559307093954094,10.992658239720983,22.389017583773846,52.2957268426936,2.730290340781087,25.678609255633965,-13.071864985497779,42.07699445106605,5,S02
5580,0.8514984507036829,0.05080613730761703,11.204482109063102,28.74234805991117,52.30157129324914,0.48505011164166933,25.921772436861634,-11.985605001427919,40.23892732889652,5,S02
5600,0.7331070118203253,0.010411279470589799,11.384639661069007,33.102033595741005,48.36820798458228,-5.649185444991296,26.034579637184468,-12.905563054908564,41.42504918560162,5,S02
5620,0.9175293483849591,0.013502290383140214,11.365318486470517,27.83570921271878,39.975878228626364,-16.368258843430787,26.035967072038673,-11.19699155551584,38.371363547652635,5,S02
5640,0.6137119088948934,0.18014141677957074,11.434596818659925,14.804657282803838,44.98131935395039,-17.64570812138276,25.63418615678913,-10.133825524070495,38.141117673948294,5,S02
5660,0.4688912449406284,-0.016800289896538548,11.424080486631771,12.147525308233117,25.004447566223064,-15.044719000053277,27.220547064983723,-11.22279215413354,37.93267982603211,5,S02
5680,0.46109777125303264,-0.1323925240302225,11.279125877984674,3.101649078669067,21.42787568094693,-14.592897839279033,26.189722562358323,-10.821793595098745,38.65262486888722,5,S02
5700,0.1577008003898096,-0.39648823009009104,11.207036663147964,0.03916837746580537,15.367519308791433,-17.578042748234832,24.921861065229187,-11.582107116398033,35.76438380626137,5,S02
5720,0.2540540067733135,-0.5568867369833999,11.149155102955966,-1.0362435252425777,9.267854591881225,-13.496355012998908,27.61814935795552,-11.964553557907696,36.52841868946169,5,S02
5740,0.23620171644792978,-0.6848294480580008,10.937883119240167,-3.954090601898045,5.264395222421826,-17.56587906470848,27.543987827980345,-13.290474548743731,36.40633151536466,5,S02
5760,0.17085466373512223,-1.038749189337908,10.696182991901871,0.7586887276743477,3.3300969787109134,-15.468301595548438,27.808778808830528,-13.030494108549426,34.19176056532676,5,S02
5780,-0.06289472371485502,-1.1672954909812878,10.504937923066139,-8.45995352634464,-1.0564103871874497,-13.729952511843479,26.615418333933185,-11.056487914059883,34.14119616810406,5,S02
5800,0.021431086413084027,-1.2903449430106655,10.339486370675402,-7.522260203356131,-6.358427283513801,-10.120367324399338,28.429727831173512,-11.152001500192387,35.08526862632536,5,S02
5820,-0.08907022937642037,-1.4889098516974255,10.018817880208461,-7.259925903252935,-14.39435840049063,-17.233385705917044,25.690668081712253,-11.650952549571363,33.034440808451805,5,S02
5840,0.02018761454547989,-1.9164720393187489,10.0468813744664,-11.99112888912279,-13.146337373439623,-8.56264161263489,28.802274594590447,-10.645564778289646,33.348605421391674,5,S02
5860,-0.1945869766874246,-1.8906775467330375,9.823744695185114,-18.041694816545693,-18.02671444152744,-3.658846880847389,29.795313682109512,-10.474319870619894,32.4229182958515,5,S02
5880,-0.27110623105216114,-2.0608259201156693,9.512572910522696,-20.24229572109553,-31.99701729452233,-5.187130648848244,28.44094262815571,-12.458266131109761,34.63400797332788,5,S02
5900,-0.41966452040777813,-2.1615925123998663,9.544852415602538,-29.532907533362636,-39.78568557245442,2.8683202090642066,31.306023068498988,-11.68922240760947,34.8669941949451,5,S02
5920,-0.5293729208121578,-2.170243968317545,9.248467652027276,-33.38120943370578,-52.531307985945574,6.188053942911597,30.491330072875783,-12.805521353612814,33.71866625920127,5,S02
5940,-0.5905597694500531,-2.2034926785373847,9.415745391511141,-41.7791040885922,-50.30999552559595,10.581712775777365,29.0991462124832,-10.76910944811771,35.850586892109604,5,S02
5960,-0.5433426665861725,-1.980501954509462,9.399628883829378,-38.97806428333824,-60.71837326506146,11.257027797585236,29.435526576904955,-14.301974696417162,35.90588587161284,5,S02
5980,-0.4977389656072079,-1.7137976053506507,9.612442708395918,-40.083240033785174,-49.03537740935208,15.700663574408102,29.940738626097502,-9.718682100431998,37.54831779267285,5,S02
6000,-0.3938299487335867,-1.5754720520196273,9.572883750103493,-37.275390771134724,-56.73183582074166,17.599523505762463,31.223510908977005,-11.824576451522255,37.41551807098152,5,S02
6020,-0.3073645740706824,-1.5155607205370174,9.73623523069315,-31.65445450951951,-37.398247775420785,17.48883460566496,30.797714525715936,-13.58329929350965,37.614346057243644,5,S02
6040,-0.32126434881877575,-1.4232454837002542,9.875862359278424,-28.755994417197076,-24.635374702249425,20.710694543012757,31.0960820163208,-13.010422379148725,40.03600002198118,5,S02
6060,-0.06894449038339728,-1.133094974464551,9.903401265051407,-11.240468676395736,-8.960117088723441,17.6090465679984,30.816564951532055,-13.131991521726452,38.917699437938296,5,S02
6080,0.20630437603881535,-1.0782806210460938,9.960992569904109,-2.4740712818293846,5.1392976108784,9.43973818930557,30.96375280970554,-12.784849725563046,40.55996314937673,5,S02
6100,0.5117512414801209,-0.7289454074264268,10.060432020247541,10.163598904421239,22.428266255608108,14.409101221074023,32.24628165396213,-12.109461559607812,40.50994595039009,5,S02
6120,0.7034857355374539,-0.4691116254103053,10.49491150377805,20.943024519201142,35.27519367609581,5.477265611735484,30.97053702506808,-13.405997162258569,40.518731709420244,5,S02
6140,0.751572553926714,-0.4691329292695404,10.802467574233459,27.836294341667962,45.2774730468077,6.602649415566532,32.676944003110094,-14.347493544060185,42.46192855512957,5,S02
6160,0.9428503297125278,-0.1036399361932579,10.865311522263175,34.34687280991737,54.54305944230759,0.7179899513926599,30.465306903411715,-13.592475708542707,41.18906552723934,5,S02
6180,0.6445444924538708,-0.06860200745620484,10.994857651538824,30.14488840105191,59.66595373440289,1.406171085830871,31.44448783687224,-12.771678973190808,40.65917137523512,5,S02
6200,0.8283536777623665,-0.06715565201638005,11.26412364859114,26.326616115608065,49.20142236754782,-11.400234829846086,33.80388989452989,-17.50466016962484,41.116231781521115,5,S02
6220,0.7646161250554054,0.061084119856138264,11.440927263446685,18.63453937852032,50.819079111135835,-4.405063933506369,33.254952019834306,-15.736562541985641,38.8238356556219,5,S02
6240,0.6336846712430737,0.0034451183883018044,11.32734764334708,18.655288982477366,40.5675178652136,-14.468616968790526,32.311642928255694,-14.40461789355858,39.124582141253896,5,S02
6260,0.5648459670592931,-0.05350752625287014,11.425523247799596,17.38647407650389,27.663907752119304,-11.304274693665898,31.55567267254448,-16.455971119276555,37.35527151010442,5,S02
6280,0.4084678873969837,-0.2393562499712874,11.207136361617605,4.25882641750058,19.8743776339206,-15.796005167196098,32.39054689836297,-14.981687270765683,38.31717128938422,5,S02
6300,0.39563942205847513,-0.2152162309394362,11.211526784595048,1.28312467028515,19.1711779576633,-17.801609431921094,32.173067311131646,-18.198863803970383,36.8403441406416,5,S02
6320,0.207746309202537,-0.5228409649164505,11.140117300415534,0.09313251079893092,9.201499765732352,-18.23252232735936,34.19914622388438,-19.396782702652764,36.89162629234951,5,S02
6340,0.3699293619433738,-0.7245524912552328,10.873206800786233,4.505884948299566,-1.4270546384230192,-11.604019955257675,32.33343216593502,-17.87100395089561,36.7483021260014,5,S02
6360,0.13251574337118055,-0.8349641718702951,10.69038072342309,-4.152958375986328,-0.9670969501463702,-22.901811803551254,33.34121316240663,-19.545163730369328,35.80683127510193,5,S02
6380,0.17929661848852746,-1.0593184938402085,10.613065216058665,-9.568945873542855,0.11332476850428641,-9.954974566070325,33.53572443505885,-18.86320297510524,35.626579192779744,5,S02
6400,-0.15256591457776467,-1.3344984014335324,10.609816662260315,-7.1798551812065,-4.710951503830615,-16.76039533675144,34.16362656883083,-19.718935049077437,33.68393655809096,5,S02
6420,-0.06302537899141689,-1.5380848967388867,10.124416294004092,-8.862345333958665,-10.081198701602085,-15.668869775081221,33.551459887607635,-19.416030483820897,34.751323084907014,5,S02
6440,-0.21480691472617766,-1.7844023908382765,10.129379476318267,-5.587702783338092,-13.743839681195036,-10.296161597146723,33.72266982875277,-19.95652327519241,32.15612291503058,5,S02
6460,-0.24486577586889754,-1.9719746230199495,10.021483574170414,-14.445503852538653,-23.560754214503056,-9.208536080416366,33.45038392946934,-20.48990822651419,33.09028031939059,5,S02
6480,-0.29377878971508375,-2.0302704417731086,9.657542394357343,-18.358526709528405,-26.609313753953177,11.13887754888427,31.97002602329409,-21.504195201978476,33.742282872744724,5,S02
6500,-0.3240569441745399,-1.850051017420426,9.764230385993008,-27.559832027923896,-36.79174121811508,-0.7167307965357256,32.410293400045234,-21.514341487031896,32.79082541563152,5,S02
6520,-0.23380590393578551,-2.0738844324695136,9.681258362013361,-32.95497704496949,-45.506783812083455,3.3159733598632752,30.831870095066343,-20.47809747548217,32.83677394962982,5,S02
6540,-0.5140639965404543,-2.159604733450278,9.486407889698699,-32.12582890834591,-54.24688077114539,11.827722287745686,32.66909694370227,-21.340220455957027,34.217567079248084,5,S02
6560,-0.7500022361263551,-2.050180369864738,9.275967739273852,-29.908337257139618,-57.73806166737344,9.87158473792206,29.717214878074074,-22.160261849565973,35.155473546745974,5,S02
6580,-0.6420640778927063,-2.2184462804879774,9.520234028753014,-42.228044614327324,-59.65623371472242,16.841989145330164,31.26743480462273,-22.065836315335048,36.98251848358098,5,S02
6600,-0.6033589886852099,-1.969837978289672,9.432909865521534,-36.904186392129766,-50.32857275813675,14.870277110970873,31.406921478883405,-23.47235689259648,35.87293598257308,5,S02
6620,-0.4822052798097919,-1.7039311654747777,9.587499996268427,-34.20828831164061,-47.690308503440484,19.12912413383918,31.139642599453378,-22.71138683406121,39.11889747872,5,S02
6640,-0.2608308357603908,-1.3741284882207547,9.747199617584336,-23.94144507715589,-31.76319124765999,21.865905724516065,32.13001383034923,-24.810824153699514,37.89006357156251,5,S02
6660,-0.031171963410746684,-1.1521187391944068,9.909565749725871,-17.27776826926645,-17.61740103568664,24.656571116239206,30.93514736106879,-22.677068844058777,40.76069612770915,5,S02
6680,0.008839311867426258,-1.0306904528287837,9.873715232753048,-3.6135439996135563,4.297855951509591,13.864899908835048,31.728023317700647,-24.585228146127776,41.56681694672092,5,S02
6700,0.3824343168779908,-0.7742675438453182,10.221758429366309,3.185218202608218,17.082063023365855,14.030919104769222,29.139317985505617,-21.567510757840786,39.10304906838412,5,S02
6720,0.5445973075930441,-0.5147981757477063,10.237369550293254,18.389722422636584,32.754123069266846,6.864039497824001,28.868620261169415,-23.93300677769232,42.27798520549236,5,S02
6740,0.3385904205728827,-0.46357759681218025,10.652682737861918,27.23312461012296,46.164240023902046,0.22610014600828554,31.592723954169745,-24.989099130234063,40.15001628620343,5,S02
6760,0.8145489868531378,-0.31796802899993337,10.92576261487239,31.92765015805028,52.74354872883314,4.020013076553508,29.979377188216723,-24.171661020731324,39.96094430335018,5,S02
6780,0.7127197511736425,-0.2842238602878496,10.737774196045383,30.177212408748705,56.149645438580315,2.8267136934029753,31.339949408080287,-24.001651395932225,41.41899520971072,5,S02
6800,0.7647348728920892,-0.005249612719811725,11.323476397528275,30.186780627056518,56.51041387736389,-9.016466231664365,28.297928486187114,-24.44957506528222,40.096023014073445,5,S02
6820,0.6972692263554561,-0.008628066865237857,11.204506395446401,26.189314717033234,52.35064926484469,-7.799488803596606,29.490568165861653,-22.94043186148026,40.04591301733905,5,S02
6840,0.6755606479729307,0.0026915727987253113,11.397185668538794,22.822009233021838,40.82228031458872,-9.00894808298134,30.24676588514348,-23.704606410209966,38.19202913490723,5,S02
6860,0.669317536156498,-0.0786385697800116,11.27054610199174,21.866306443772487,33.02348316402937,-14.347248270118545,29.635472504103785,-22.475125580180677,39.83350989262371,5,S02
6880,0.6431534402039312,-0.3097663663235193,11.538178156474883,12.73300730918141,26.77263949646732,-11.442571047730675,28.87074607258604,-23.745243251102583,38.450074000108025,5,S02
6900,0.4174928616226651,-0.10287795429008753,11.177935164309712,9.81621066000216,16.16555476136237,-10.73494086680107,25.798594371252594,-22.8172308753364,37.47167973830703,5,S02
6920,0.3838648143406619,-0.4796557723009482,11.391987704060345,0.9076918689667819,10.064711834791611,-17.951763114069625,27.455392589376814,-23.99333727699234,35.93984735481826,5,S02
6940,0.1801801146684605,-0.72208528773819,11.003795670926262,-2.5971544080180857,5.2958811971012985,-15.951050880293502,28.09800494857588,-25.101874793501533,35.18611981965576,5,S02
6960,0.2704799526285696,-0.8800217849319405,10.81716379469745,-3.376562255497287,2.995428658330753,-15.067973325651101,26.07131786611746,-23.55809957917108,34.046135990629885,5,S02
6980,0.026557017271903696,-1.2861792766991031,10.616603026265809,-3.539364744183782,-1.4459592639384327,-9.116771793279101,26.113939424122325,-23.900175999957174,36.24922361347933,5,S02
7000,-0.04780836298501892,-1.2728030809538404,10.630557729277337,0.5103989354974274,-5.846961149619046,-9.703268019815335,27.29662646984016,-23.610108693704273,34.32877129174736,5,S02
7020,-0.06004436756705492,-1.5043135493579936,10.46705096560994,-13.26869334092903,-5.600898167153058,-12.993776547324781,27.937090830945962,-21.892881502861435,34.90546949574767,5,S02
7040,0.04982808673675143,-1.7336391926671344,10.00098980982326,-9.44671242386303,-13.738883841239002,-7.555913832821668,26.671011495863755,-23.084307037626015,32.51051631462343,5,S02
7060,-0.30020863194387437,-1.8655696774769763,9.76350007024265,-15.706329555174023,-10.159975402858036,-11.938514046890196,25.870558237084296,-22.36718736872701,33.470134753811635,5,S02
7080,-0.33927584288936463,-2.1130990809169807,9.674173535926217,-13.18540593725865,-32.41472738455085,1.9730972368043682,25.902063994057077,-21.339072900860916,35.33955993029933,5,S02
7100,-0.42835066304891745,-1.9299786823725438,9.416928688252781,-20.19709787948554,-23.094096638604327,3.688184800763746,25.829341243271934,-22.232014135345413,33.71799958648557,5,S02
7120,-0.5304804740049616,-2.144992181307012,9.686476586979193,-36.48504001483894,-38.44246895526078,6.474813729487337,26.71159821187757,-22.474764134217256,33.53028846936071,5,S02
7140,-0.7660095126203276,-2.2108311516770303,9.442063177728645,-37.57493467314754,-51.991372678972695,7.828450563452895,26.39710326244519,-21.330912229902175,33.32817998101672,5,S02
7160,-0.454373928838091,-2.1540753029257473,9.490608895302437,-38.50584209104352,-59.89393214315088,13.950137890096054,25.46996333055363,-23.517091510688534,37.34887476752883,5,S02
7180,-0.6812952819882906,-1.9201335029130684,9.301080139529358,-33.442474338038465,-59.961477298051776,14.716470306703505,25.233160226579862,-20.66476259693377,36.75200743492048,5,S02
7200,-0.5267542109092994,-1.9726604089108721,9.368684858495916,-35.439126811032864,-58.17204487572507,12.2627153214645,25.190840103256363,-19.34962532770983,36.79293328297806,5,S02
7220,-0.47555977169929387,-1.6535955742216997,9.553778413656312,-28.856180052604042,-55.52285101530439,14.900195929317306,24.133665395775225,-20.78600584784256,37.87635018080019,5,S02
7240,-0.42617650398761,-1.6156546878232019,9.726235380500365,-29.03061769647203,-40.26483745545726,20.116794452095547,26.217810911042587,-20.667303978239815,38.63237587376394,5,S02
7260,-0.18175097904264745,-1.3422145541884642,9.832548864403286,-25.011967898682258,-27.191768855030464,16.833620135427402,23.921939484642785,-20.870605326761,39.020742124147915,5,S02
7280,0.09450301210807978,-1.2805106348199642,9.966235825553644,-11.271819037788227,-3.1175675013933253,24.200539503598623,24.292948230642878,-20.29495095083411,40.335627901405,5,S02
7300,0.3709532090018892,-0.79720747640929,10.168153762399673,9.166841074169998,17.218573937807033,14.875895100585554,25.11800312410758,-18.897286936428237,41.61547105466311,5,S02
7320,0.41085680960011584,-0.6905590208533277,10.407857639326762,11.876871446459084,24.38549499626855,15.777694420561343,23.412957131699507,-17.434560208194526,41.14459049284406,5,S02
7340,0.5843604990370113,-0.6089590059086836,10.520636152091432,24.125690880277816,41.874649082476076,6.132942350990683,23.576709039613093,-15.836826370308195,41.029754085094666,5,S02
7360,0.5803224804169496,-0.3781496393198352,10.741944953635056,25.29608116425599,47.60213457257725,-1.7527270336091383,24.086236169103636,-15.814967726758862,41.87329276196403,5,S02
7380,0.8226855272460724,-0.10223218872357054,11.039577732163727,28.275588559113277,58.777506391792386,1.8645134653447082,26.050257780753878,-17.303219964032728,40.91136534428316,5,S02
7400,0.7253452623432207,0.013411105929199696,10.969367869939974,27.98499541073667,52.39470284414429,0.8496477817057454,26.05749508728082,-16.82100511746125,40.202985594100014,5,S02
7420,0.7928294275868403,0.16239874367535342,11.214604919944652,25.80151083489039,47.6329635313057,-8.13867769935017,27.215069265919812,-15.708543762320273,39.06955671235272,5,S02
7440,0.717704404049856,0.18205137705781932,11.34989143237063,20.766546340435937,45.133078521874836,-12.684035949008573,26.321257627613427,-14.342036236833323,39.466467943491224,5,S02
7460,0.5205141589948522,0.047367881965551806,11.424714170874829,14.744781472439232,43.75868226174205,-13.259198198732744,25.303323867360938,-15.194865716689886,37.84609742602383,5,S02
7480,0.4851956265083096,-0.19446746888597022,11.264681204426044,7.514521310706814,33.90631356022664,-15.970092752809036,24.97188182159728,-14.901001152344397,37.408224881133584,5,S02
7500,0.34461566749451034,-0.29551808539685326,11.262271212913518,6.886522678754912,20.386403405329517,-19.833969778425512,24.31536263216588,-14.194843191591087,37.61390627567327,5,S02
7520,0.11851682564613865,-0.25086412658912627,11.272456443280106,5.330147321960035,13.55723223437595,-18.996730641300267,23.824314140582004,-15.682215381825241,37.230867695916864,5,S02
7540,0.20844826517882176,-0.5485888209299767,10.976032306285497,-3.16872718114306,2.3743251671522287,-17.686156329087154,25.315739675884124,-14.97720533633909,35.8314409105118,5,S02
7560,0.1234924774067576,-0.8394603109643173,10.864957853548491,3.2434580133463875,1.9435274050061182,-23.221401830324087,26.856248897088822,-14.819338274040483,34.402467041339975,5,S02
7580,-0.08601718435913525,-0.8329081581253825,10.756637063352864,-5.787362304819013,1.2052298373478647,-10.83932891176766,24.0334963099001,-13.0893873041035,34.73315210646524,5,S02
7600,-0.06756972581635604,-1.3359384950126127,10.604836198059793,-3.5307710679847832,-3.9422683983298406,-9.080624465211002,26.129569951984234,-11.71050397031917,33.122796170784184,5,S02
7620,-0.2811181502099225,-1.3917216976446825,10.449478026833717,0.21079280571297598,-7.170346968244818,-12.223203821297313,25.654984592081554,-11.699012977142424,35.49168310051106,5,S02
7640,-0.19414008857714357,-1.41952763219657,10.021143624924461,-10.792763845386698,-3.114804581205914,-4.712417722559162,27.696909045990218,-13.799438726764713,33.73974693930936,5,S02
7660,-0.12377669642043293,-1.6682004104300097,9.87984253894369,-12.18467492593929,-11.93734366601728,-4.835511960501324,26.475956278694156,-13.55090969095362,33.5834250099533,5,S02
7680,-0.34286984806473,-2.0295747486859175,9.750702609212512,-17.02737304526688,-26.50774236044295,1.2239052600101843,26.436382595484222,-13.254417828532443,33.546698605222886,5,S02
7700,-0.49400878169345963,-1.9622303987118714,9.892013628166898,-26.304139048424677,-39.12149469168668,10.446912529923322,27.150345577406537,-12.379197072389994,34.692567352339054,5,S02
7720,-0.43096363351252087,-2.0506744079476493,9.40019000420532,-23.771907648779695,-41.18768371345943,8.201838661117218,26.74231292223367,-11.422846544564578,33.36963489547484,5,S02
7740,-0.4785677574336755,-2.1727396972216164,9.364461155350803,-31.41644044323638,-45.48670317645062,11.895927067427378,26.71731355977674,-9.711861429762443,35.56220207688641,5,S02
7760,-0.7170295508398233,-1.9745786007533013,9.662904210007827,-29.39143316343814,-56.39563775054844,6.826802965165116,28.689225036075808,-11.347201734372144,34.672029118042715,5,S02
7780,-0.6514841658282354,-1.9371973745169777,9.44357686543151,-31.12429496113089,-62.11448824310598,20.075113319335706,27.447331880191676,-10.885939847670471,35.827873923866036,5,S02
7800,-0.6307965894119488,-1.99495371350739,9.419942519085678,-39.65810470615043,-61.425053052309856,19.609680462349676,28.798053377407907,-10.288702769172554,36.448865463973014,5,S02
7820,-0.30690481264027936,-1.8282232911029102,9.383167246820088,-32.85900345662632,-51.253011171925415,26.630612248103823,27.671004373925012,-10.277661201643372,37.08915672312635,5,S02
7840,-0.4963229962197714,-1.7745149587139628,9.68098841408576,-31.951041632957804,-40.851870301367875,16.590613314384758,28.96342869954618,-10.149353943913447,37.83366389257805,5,S02
7860,-0.21991652530219777,-1.3131766868539099,9.612211373204321,-21.134520459115667,-25.308942163516345,17.49988156857852,28.64305978248137,-10.917916830433605,39.553684975541586,5,S02
7880,-0.0399739585376879,-1.0475835733049903,9.78764325995335,-3.739594480017149,-14.196512675978719,20.61473281377198,29.090388716448697,-12.577316111114087,41.44233323274684,5,S02
7900,0.12148738918000895,-1.010910045321023,9.947249745303221,8.49443941877838,9.891850452308136,15.439618966611098,27.62267850760579,-10.11881579126719,42.76516828219768,5,S02
7920,0.2918338927071265,-0.9033123662357514,10.205461004073332,8.36982832088978,17.11363409649021,13.196777892322542,28.678291693836808,-9.02823122754369,40.15004945889866,5,S02
7940,0.5720927883191775,-0.5089994299762994,10.380407197379249,24.582412390888226,36.11744242197808,11.572082548861928,30.664233673860238,-11.327741746406524,39.46777771885702,5,S02
7960,0.6176570633314592,-0.31475018964690454,10.659590308147179,21.556331343355765,49.583001843661634,4.35036176625529,29.3711566359981,-10.809670090994722,41.73724660824653,5,S02
7980,0.599996539152682,-0.21038889841667457,10.903520671535212,31.073452291004823,50.04365434283831,4.596562372522657,28.82717371775685,-10.58207140380101,40.52661514864937,5,S02
8000,0.8366718758355817,0.011510929381837606,11.084113352453446,36.29562942519082,56.45106830184471,3.911857725722311,29.144451460007865,-11.87961103046888,40.34193117306405,5,S02
8020,0.8171477214967242,-0.09687492643994756,11.237356204911293,31.913441922156284,58.22834071042316,-0.5934601763070836,29.239600524019508,-11.496024465036669,40.65744261047823,5,S02
8040,0.704596197973987,0.10303964772206572,11.269294875013673,21.44914523355267,51.23761453827783,-3.2639133361602535,30.748457258094657,-15.105297294621279,39.75696909642513,5,S02
8060,0.5965387961194708,0.167759430808484,11.488423142751415,16.25387712411248,39.947224750848974,-3.699681863068681,30.83596669114646,-12.733352633660218,40.71411225045931,5,S02
8080,0.3363513282377735,-0.18449096280798188,11.319194065305844,14.806284137916741,31.8158265039314,-14.577760857289407,31.95635499050799,-13.104004359689517,39.05091894952668,5,S02
8100,0.4431188211150666,0.16742468794005017,11.475358802266095,16.24773311006871,25.945855383283416,-17.956858115881587,31.646343821879945,-13.508808410082146,38.600206909332,5,S02
8120,0.2798502904475781,-0.26980848315850164,11.213831217533798,11.09796387615987,14.609096043320891,-21.390964610357468,30.774839994654258,-13.687699470017664,37.410798334439995,5,S02
8140,0.23192382363868103,-0.372775338392665,11.253622106439655,5.270775563267292,12.698732915586838,-19.26330587085649,32.75712253077913,-12.928591384112645,35.79148548902541,5,S02
8160,0.1960410636297891,-0.7101574719331751,10.94443942546174,1.2430678907607229,-0.5002752540052666,-19.10747549157398,33.19332042487885,-13.053439619292206,36.76271302847008,5,S02
8180,0.13486028473097433,-0.8395184214520697,10.748903758988513,-2.1806545531363737,-3.0654365329121482,-21.6476757287762,31.00225504981779,-13.46736328821206,34.93450158653758,5,S02
8200,0.058627880183295095,-1.1621532817381748,10.524138048281207,2.070908074912616,-2.93264185090771,-15.096066421850566,31.34972829111295,-16.09504307313606,35.677622161941585,5,S02
8220,0.03275601690953947,-1.3813310284992457,10.281108280787363,-6.901769250200452,-6.316793530301483,-11.519850978214578,32.08838378267251,-15.646529610851225,34.78015185901881,5,S02
8240,0.024052217081516378,-1.5924059440109495,10.302197570583008,-4.3283065412934345,-7.469622729304727,-7.442234874727818,32.301162124517425,-15.864185779765865,32.08413961396856,5,S02
8260,-0.1380265050561597,-1.7506708381897014,10.152513398134582,-14.64847316707342,-15.088412201224418,-11.028738387969684,32.552843080675316,-16.70219031620465,32.88724649837128,5,S02
8280,-0.11472202738434598,-1.9054246254749694,9.912274959327105,-8.340677545333604,-14.576970129529393,-5.775851827517501,33.14076045909352,-16.05913513145942,32.12547344431731,5,S02
8300,-0.29670033617033986,-2.0437848400699505,9.503735365150055,-19.785892611273233,-31.178251071813744,2.2659948765454256,33.377091064159785,-16.948848481150335,34.54311412431093,5,S02
8320,-0.4529723102363997,-2.2893957049267053,9.394093215003931,-20.295339328566865,-44.22226652877139,7.026547262043613,32.54682300586651,-16.027953390043855,33.107521673771856,5,S02
8340,-0.3941543882173165,-2.138245649520752,9.573005159375574,-24.864085635142015,-45.961860770697804,10.851458457561385,32.49024757124933,-15.414278235907963,35.027931595058035,5,S02
8360,-0.5826437145301083,-2.0416074117063503,9.596716336147768,-40.510702860607864,-53.33445835052246,10.311160597458693,33.69314664099443,-19.050133374751397,36.10093881904583,5,S02
8380,-0.5974105308295463,-2.2169225104911217,9.335695946613333,-37.7724565331121,-60.4937987508608,13.254372018702838,29.8306197857503,-18.423259016091333,35.401204726148094,5,S02
8400,-0.6792198522857605,-1.9718281630470549,9.297982249664448,-34.873998209804824,-60.54940188681775,20.504584056566326,33.752866840751345,-19.478427731074106,36.77131831859692,5,S02
8420,-0.38622336637948307,-1.7882823129928422,9.36918012362482,-31.01589746326002,-51.91236255113291,16.387404493690845,31.715178509456464,-19.355494065810895,37.02011605719786,5,S02
8440,-0.4608472829604081,-1.6833755342350651,9.596106618245242,-33.56152207756733,-44.860239081257916,17.543170453280716,33.13207014192547,-18.918546398070628,37.44039386164923,5,S02
8460,-0.240811878445606,-1.4179561809834649,9.62946407424573,-17.424119295204925,-36.906524507266596,12.709209746218276,32.93372557763114,-20.487402686359992,38.66376521673985,5,S02
8480,-0.03472309189059328,-1.1792730444890838,9.82055893007166,-18.754087299416046,-21.74598918363616,24.082340214936636,32.660412231720095,-19.480833222509467,38.57409294542781,5,S02
8500,0.12036656562956694,-1.1907293888828592,9.914978077565634,-5.226662485304237,-2.4433386990206927,15.317407838659696,32.83411951087659,-18.918524715076337,39.51057488071074,5,S02
8520,0.35858084883498975,-0.7456911849990855,10.10146142703661,4.936070712936082,14.14403390984324,12.01819941381723,30.99313062089749,-20.591839026763076,40.03549786564014,5,S02
8540,0.4678503004056731,-0.5629454067386825,10.397895706039694,11.857012544235719,28.539958323099434,14.718381910553541,33.00930030836935,-20.270860599137777,40.25707478382942,5,S02
8560,0.5494322938413821,-0.3051050114517053,10.612682164240853,20.37240997921091,40.397562543111775,5.671635596428803,31.801001628979844,-20.552412303664504,41.63515054520743,5,S02
8580,0.7008285335803702,-0.2172362875683389,10.840329229605208,26.745345034717044,45.370768140304165,6.717433832831697,31.076854413669484,-21.231655385239666,41.67563286528514,5,S02
8600,0.7439345275817509,-0.019338815392791198,10.889844213946217,28.674090881217555,51.0710568959844,-0.25414287861251383,32.97863782765149,-22.991204463997732,42.01237671784072,5,S02
8620,0.7197681024438152,0.07884580417603879,11.140423261812117,32.85006703670167,58.10089305299473,-4.249017318883942,31.881136324608605,-23.7656028448348,41.20850111301123,5,S02
8640,0.7637990688789,-0.05732781418780213,11.165693323260049,23.355020444057267,48.22272378018332,-7.107246948768976,30.92061059349273,-23.08020444255083,40.11157535929875,5,S02
8660,0.6343263335358615,0.16824044599877652,11.265724678281524,26.879593133938894,42.22386538562367,-4.604257636142103,30.728299189919845,-23.91848336007758,39.34074928001932,5,S02
8680,0.5693765604591517,0.13311724202565872,11.41465989806074,21.11951630232981,30.907319258411594,-6.189993198599991,30.88239313726175,-23.429683415117474,39.142212066719786,5,S02
8700,0.49759163395477723,-0.21016388300328048,11.356984266516049,11.04286831450736,23.685217844850758,-5.564442456744908,31.416964671219933,-23.004270484090327,39.694665515202345,5,S02
8720,0.2951468651881701,-0.3049040956723814,11.351021213141186,8.5509009057334,18.749736070583594,-24.229742280672056,30.657734952292973,-23.385196670899493,37.9161428490932,5,S02
8740,0.12129717693598449,-0.5045387450530764,11.21587961461636,1.724577740597966,9.683787214657439,-16.46565253573188,31.12588840419299,-25.048022159053872,35.283644726544885,5,S02
8760,0.28743681411220867,-0.5542009304421605,11.051289215328337,0.6400594998825522,4.782375405227477,-19.990901050494983,29.108095262379443,-23.11956624177253,35.559184104796,5,S02
8780,0.08441768382277941,-0.8673114416884196,10.875490849524196,4.160919087228183,-4.408710080080526,-10.502133974053757,29.836990606414542,-22.740869973006753,35.0739536684476,5,S02
8800,-0.004676334123891679,-0.9688050859464987,10.676086688691145,-9.181226051510905,3.979135294406926,-15.981656685813691,29.582682073860322,-21.739428651365955,35.50617723510659,5,S02
8820,0.1105001242452871,-1.341594130202847,10.500958831756225,-11.09794712548514,1.0983298220548134,-16.41520559579744,29.764696005370038,-25.501432271929538,35.27030088372946,5,S02
8840,-0.18532951489600832,-1.506925391672074,10.321714259825663,-4.84536091224955,-2.4590223131115847,-17.238998707994597,29.74814248085685,-25.662602106743996,34.58684260769398,5,S02
8860,-0.037353575427306746,-1.5725892673035662,10.067843872549252,-7.177599916471174,-12.557302228297923,-14.420770992408897,28.805866037407522,-23.403007890596616,34.35266658855357,5,S02
8880,-0.07248413009075036,-1.9046327368190956,9.782309257429471,-15.930077955071155,-19.301475497671557,-8.833228603813012,29.190791617093435,-23.919948518487832,33.86888743860299,5,S02
8900,-0.366503302032973,-2.006309767265781,9.775331182778855,-14.427225843656803,-27.595196674392408,-3.8813603624829187,27.242349049852418,-24.157609273194577,33.387197719937774,5,S02
8920,-0.38858037374310694,-2.2017299864239326,9.6756619789587,-21.600599544470352,-33.38991759224456,4.542231281054328,28.512490068851807,-23.84456927202045,33.941737668947965,5,S02
8940,-0.3354709624563794,-2.1482628607584147,9.537332051375007,-31.35026888973991,-35.89502583169754,9.881151450682196,27.9470320745294,-21.948918112494056,34.093341396517445,5,S02
8960,-0.5268161276720189,-2.1940681590285775,9.431602865320336,-30.501588338674733,-47.398993932114486,12.983241147968648,28.90328562241336,-23.188850570458385,34.69444279226332,5,S02
8980,-0.6747664672644218,-1.9158814415013092,9.3316708024317,-34.84947736922684,-55.76027134759066,14.107655652701267,28.77075865727376,-23.599184770274643,35.71143511230886,5,S02
9000,-0.523333350074469,-1.9517048094645961,9.410866973611093,-34.45709800126684,-56.59318384684332,20.823306958688107,28.16289769319794,-22.344503275202293,34.34310735937942,5,S02
9020,-0.6443258514142279,-2.00360779623342,9.454943050053128,-35.749872919193045,-55.39141351844653,20.087129438351056,26.517051742618268,-22.943859472607055,38.20865973422472,5,S02
9040,-0.7468946744647154,-1.5832004307449221,9.396337287177694,-35.14508542993576,-46.96878859393288,18.716149120815455,27.08312929551162,-23.639466495568946,37.67020721306792,5,S02
9060,-0.4627660653986886,-1.5230127674401384,9.672888746513134,-23.07988466086711,-38.900805437194194,20.22422909188897,24.709098025021564,-21.418606208112685,38.43078234668267,5,S02
9080,-0.07426676154661527,-1.3142383415020826,9.71233838850418,-20.395298111382854,-22.682047621485502,16.84758767139703,25.59862675971754,-20.885725415555815,40.02457955783303,5,S02
9100,0.07694192476878305,-1.2351887864720252,9.698347730880544,-4.944563205028848,-11.59383902826186,19.42351916726179,27.083941707044353,-24.479501746726744,41.16599230801224,5,S02
9120,0.1794181148079243,-0.9357560038332755,9.96494476445941,0.061883003865482955,4.546979128127439,15.572571265227038,25.95674407388109,-22.232778504116467,41.81694939841453,5,S02
9140,0.35111278114449584,-0.6057610544370329,10.182765185349893,14.663598876265802,22.749835937661487,6.453503313307851,26.50076739140919,-21.859999676996054,41.69369755306514,5,S02
9160,0.6169755144446966,-0.39603980806105055,10.594368141301528,23.85908842396233,39.77916029069668,12.048905951548575,28.270773450465885,-20.516377641796304,41.933971198796165,5,S02
9180,0.832324314818703,-0.15473957202157462,10.47755497402481,27.421083351599787,51.49654576575844,6.847023564954121,26.432909151071115,-21.418312017869297,40.90997309758199,5,S02
9200,0.6514878418435949,-0.06535574445831996,10.95959683014915,29.333586896611312,56.4555752368325,1.6527972121327794,24.90748569302032,-21.529063452538256,40.57046781645651,5,S02
9220,0.8215838880252873,-0.08558932856838614,11.074369222651757,33.14703248741031,63.36057893885365,2.53700976880107,26.73624065884511,-20.751098873898286,41.000491420561524,5,S02
9240,0.7655245903226942,-0.011166853773507776,11.118861417861357,30.045823252713955,54.80494375541991,-4.296069364486988,24.48851525188716,-21.10002831801424,39.635810703187516,5,S02
9260,0.6237400207388231,0.05247038576011624,11.385997569243381,24.51087573297863,46.31691067628482,-5.3191129418579255,23.304943996571282,-21.586746143543095,41.32906428065258,5,S02
9280,0.6323860496891895,0.15894768900058534,11.313066697973593,18.782164811189293,29.891401703776438,-12.734475417793366,25.79832386581451,-18.482391585263905,38.6222053789778,5,S02
9300,0.56052120805432,0.03726820494931393,11.263664083945148,10.18186916856681,28.228312409850453,-14.606191730759821,25.15364757916646,-20.59741465741964,39.16148432992785,5,S02
9320,0.37978951824091867,-0.05310378184611539,11.149817045707653,3.984630795049747,21.075355826522127,-21.63139272581883,25.415337653578145,-17.991758663968277,37.11419056110434,5,S02
9340,0.3458932519530291,-0.3920043086022315,11.232644653406537,0.19386776900974123,12.935589757934725,-13.421733940078015,25.54830092077584,-18.061469474267057,37.103344195358765,5,S02
9360,0.12326508973766218,-0.5422094364533705,11.21951581985924,-0.8991264326182531,5.751799699526218,-15.818805166663472,23.51027841789852,-16.832593306629867,36.957960332898445,5,S02
9380,0.13935512238616748,-0.7425855955159226,10.963160213095167,-7.665851018743642,6.9075747144117186,-22.040642093872307,25.235053639050967,-16.822483449548194,34.21404062639263,5,S02
9400,0.13312395480491646,-0.7760864205323501,10.868940612016138,-7.487128845953698,-0.9253328393840572,-12.4055518961789,26.761475790898057,-15.6783087737569,33.813361462627114,5,S02
9420,0.00028688391826463266,-1.0917836006223296,10.641599989140964,-6.673087525960675,2.352265421096763,-17.471714303999796,26.198250155755236,-18.035787266630294,34.987421601845284,5,S02
9440,0.033962259762567226,-1.4159380050517196,10.348925000475226,-3.377939839983193,-6.669950857290969,-15.203759667304885,24.408705849281265,-16.785235242890337,34.66807787291927,5,S02
9460,0.060400889544886836,-1.4408765672713242,10.135951862933373,-7.177195324940177,-8.638996613696003,-6.970186356353172,23.31031415678266,-14.94784809538656,33.61179038109192,5,S02
9480,-0.07880188078270531,-1.716901384311629,9.765994370486723,-10.484654229738101,-10.382051741114383,-5.913522649552175,25.089163275838185,-16.751978135173072,33.0824582106694,5,S02
9500,-0.2436041529527164,-2.00777185776326,9.950728828137066,-10.897176115057581,-22.81711718623438,-6.848161051649521,26.99771837803865,-14.396052567384043,34.06311830749935,5,S02
9520,-0.3873717928244308,-2.0790010877337104,9.743469504459007,-19.095876218373874,-23.864486466507074,5.076695989657166,25.0398621231393,-14.213710100582116,33.36909893204915,5,S02
9540,-0.40299760814942875,-2.233473957112468,9.414390019016444,-25.296578261564086,-33.78919670354591,1.5763053604256152,24.584156105087935,-13.203275587958323,35.09347313413025,5,S02
9560,-0.5260072946179657,-2.1262002133106517,9.534819851446636,-24.457350054765648,-52.887877521311495,4.618911954295197,25.950301290969758,-13.458869353525476,34.34739221495907,5,S02
9580,-0.4983059271135186,-1.97173382356878,9.36155974927999,-37.195360732643486,-57.38029207584813,9.323061972828611,26.04053523998141,-10.83816334956394,35.75370364544035,5,S02
9600,-0.46191340374426815,-1.9747967620670237,9.34735084979752,-43.53744745137672,-53.01012239033839,15.56779547226397,26.569720299396348,-11.875445236007053,37.01753139738248,5,S02
9620,-0.7773447148524185,-2.020166387535031,9.46735324653681,-36.754521148689726,-54.69273498506734,14.658181460864915,23.75548214236041,-10.515630295998736,35.565291062775216,5,S02
9640,-0.429504002830316,-1.7945187801880145,9.61150320257372,-40.298920452904255,-57.798827292507795,17.681522638082882,25.588505010377105,-11.405080058770332,35.58291005797247,5,S02
9660,-0.2299037837266775,-1.6044771632807282,9.656942820485963,-27.497171684237262,-45.15786954450246,16.996611246589342,24.999101808422196,-13.73857471987143,37.32246911269527,5,S02
9680,-0.27770024647336167,-1.494110278956606,9.640790682278272,-18.79571973305523,-23.610020084418903,24.524301757819906,25.033448270927064,-14.07856820465636,37.6398374985799,5,S02
9700,-0.00635193400439682,-1.1799653089748834,9.559995001152874,-9.073998109086261,-12.891165729449424,14.975746579780774,25.055380372426846,-13.097157772339603,39.13320431120141,5,S02
9720,0.2585611886696443,-0.9307873218404181,9.986526678199407,-3.0096310794960446,8.73954602173499,14.417305382703589,28.359738826717436,-11.399177130781014,40.205497056341294,5,S02
9740,0.16737047097983163,-0.7108747042524162,10.19174595307425,14.387866564902968,23.492078812636215,12.371557073056684,27.07046435138432,-12.859272669189297,40.67736592278585,5,S02
9760,0.5303774304340712,-0.46603108673114507,10.449157707627874,15.44267764792545,37.21570505883847,-0.06680118374577904,26.610208742001582,-11.389022801142886,41.57260024065152,5,S02
9780,0.7318220745845418,-0.3679282395968246,10.627909383949763,26.732359910188702,43.76148150235128,3.0343598374100123,26.761282856534873,-10.09658298040424,40.712536195680464,5,S02
9800,0.7007996345961663,-0.22633272785607428,10.92076109196707,30.777093611839373,49.80981333842681,9.59513373633076,27.949066849932553,-10.883369586851543,40.66722513969025,5,S02
9820,0.7771028021845533,0.03758336606090512,11.177831232482017,30.387640300948572,59.15072099724997,-2.603763617752908,27.833588087089773,-10.598548177130478,39.785257699851165,5,S02
9840,0.868157665549694,0.1981621794390407,11.12777588430162,23.83786618204016,54.31021925771872,-10.58557995277524,29.97735496175807,-11.729974572216005,39.5581666940317,5,S02
9860,0.7187046285913166,0.025376580316806285,11.261046552289208,25.73067079213507,51.100822427904625,-8.44988288460979,29.616842639228636,-10.618190131603589,41.934953441995106,5,S02
9880,0.6512975435920211,0.19210599194335704,11.123980912628156,17.667370266272272,45.9659086434654,-10.759005339702153,29.18778409146915,-9.513576066967795,37.822187798420806,5,S02
9900,0.5420970113690577,-0.11130061869794827,11.253195481823525,16.143632755235707,32.40640899661907,-11.60302276740022,28.352852945033487,-10.40990536163844,38.78549142580106,5,S02
9920,0.5592715624796651,-0.006765880354984391,11.352067961125943,10.331658041639905,20.300935989910705,-14.655096782737639,28.878711997194287,-10.739446288067597,37.576460501854804,5,S02
9940,0.3724739051429671,-0.20055215855648903,11.151754724687663,12.439803262999309,9.758841567220907,-9.379219687082593,27.910332789937684,-9.598269959169599,36.14463527637496,5,S02
9960,0.32388030785298527,-0.4224637900701599,11.11057106840928,0.6526271982572096,11.934391988979707,-19.913157294659037,28.090394032480418,-13.14170679976044,35.582126684125676,5,S02
9980,0.0653730440342652,-0.4224366455406802,10.997253898088005,-4.23141207453405,5.014713522322959,-18.064207463294846,28.932198272755226,-11.317575264239343,36.830692016976236,5,S02
10000,-0.02464160346898102,-0.7071788366048342,10.946527095347633,-2.700538829971825,-1.292923303441342,-11.914418328815756,30.636568743685082,-10.806417613624875,35.79887726914481,5,S02
10020,0.11616574472536348,-1.1178417209131528,10.467855949895464,0.35129711895032045,-1.2853787071742335,-14.282149869938555,31.208736983355372,-10.220554411220604,34.9523406008049,5,S02
10040,0.0557736019640236,-1.1164601992950447,10.54349496837961,-6.549161242046923,-3.5724351146145095,-12.971554680236265,31.051989500332237,-11.350189374451933,35.07267068017332,5,S02
10060,-0.03570829562514913,-1.4471168075027654,10.488449715204338,-8.662898847240118,-10.62643878260862,-13.248849579642249,29.40657677303978,-12.017188523670603,34.701643779971555,5,S02
10080,0.12514584803312628,-1.6432033356417997,10.008649092523807,-10.409933369022394,-6.916148770250076,-7.907224059249458,30.829155200774924,-13.062356951681531,33.75467484916464,5,S02
10100,-0.13355770239638415,-1.9293529028461984,9.961172877083982,-11.226848182190274,-22.507118000422576,-6.17422648061873,32.166539781485184,-11.7479319783671,34.02196428608789,5,S02
10120,-0.2348497997945629,-1.8049538330845638,9.613702010826565,-24.376288597172856,-24.05927418063035,-1.2752216775541143,31.75343301729857,-12.683120889544906,32.75514017973366,5,S02
10140,-0.4225817930250778,-2.184169357723019,9.613842131473646,-23.300469563269985,-35.1175647440927,1.291899426844671,33.66337965149105,-13.515753555822148,32.48421144061173,5,S02
10160,-0.3413940438155505,-2.099632583651006,9.57957793784433,-29.768293374595018,-42.38048084856841,6.681663938077718,32.97981322444801,-14.43696910560798,34.66821642829922,5,S02
10180,-0.48980959500636456,-2.077171632786422,9.51644445104959,-35.66961478812577,-48.455135422875685,10.261120705213255,32.77155305072404,-13.224212258482389,34.37265727380927,5,S02
10200,-0.554788866649523,-2.296239265314657,9.362311946525375,-38.612624293450594,-61.143679233261516,13.432146273767657,31.47322165082519,-14.146681980303931,36.1144086017855,5,S02
10220,-0.5853756186578487,-2.077374694824432,9.605003096071297,-36.44441082650138,-51.15592309821184,19.785805463629014,30.856789115579165,-14.023357696692603,35.555202791437885,5,S02
10240,-0.5315597413004078,-1.8439789454734823,9.394520342960236,-35.853160664478835,-55.58206165052323,15.667881786873885,31.728998622921676,-16.01055669180043,36.657201425525784,5,S02
10260,-0.3920821539672137,-1.8539043105474784,9.6000461402775,-39.87830831319146,-46.91805374960576,22.137286131099145,32.91226061932989,-15.611518291850539,38.3730617930466,5,S02
10280,-0.20403943183364878,-1.3947062627512377,9.605270098145228,-22.656057292725883,-40.71542566296439,16.202553830920806,33.01581694274803,-15.86864288975986,37.510559831960656,5,S02
10300,-0.2768690745877018,-1.366154278715022,9.692474552836646,-16.18480322179488,-18.66503595515245,18.32253155445596,33.162888269130306,-17.08556437572379,37.22043250948916,5,S02
10320,-0.03687659512430591,-1.0625930522988518,9.974834630050504,-8.272073854734153,-5.381647961541165,12.24510962123029,33.10770453154286,-16.879574829776622,39.364395132802535,5,S02
10340,0.16208573510558494,-0.8554276903210787,10.014371815766305,6.144671215573941,17.23585836075294,13.133571339084076,31.985102794487442,-17.09228963424026,38.907127450636985,5,S02
10360,0.4793534448861032,-0.632905718675516,10.380638378102885,19.77836600996296,37.58378437056107,10.633574711314624,33.28573042127593,-16.449122813622346,42.792426491709605,5,S02
10380,0.5393265657911156,-0.45618419864413645,10.725878996273668,27.481365473439126,48.986998964502625,14.421676150999192,33.11339723172376,-17.836600396388484,41.37262258857242,5,S02
10400,0.6632627889444238,-0.30573946159051185,10.7865122625898,23.655005958116913,53.14734735053515,-2.761600989470969,32.69215746451721,-17.75536352309596,41.070410812115085,5,S02
10420,0.8454568724704804,-0.28271883919437024,11.018315072693174,31.271991370283704,58.57715890234541,2.5667256885973466,32.25452115122817,-17.3747777707104,40.00545926300728,5,S02
10440,0.6811986603276782,-0.06977244597548614,11.069277681251965,27.77150438117059,55.83916561115437,1.4901915052061456,31.082797407367707,-17.19293558292531,38.837670143562605,5,S02
10460,0.6883315201280962,0.0264579466935269,11.449740055796589,27.492716236051816,49.354500230577486,-7.984606602308643,32.6736209033426,-19.32056509258586,41.02261893440039,5,S02
10480,0.6809788614883293,0.19346878948419016,11.371410332040105,23.289824459104786,41.95568015423621,-11.114059107690762,32.86995504443684,-19.997406510932166,40.30559286772424,5,S02
10500,0.5257715514613569,0.21620359996854066,11.190167707955235,11.291642027411932,32.737727154839895,-12.197577509654105,31.16667146240279,-20.45306641502843,38.780248732059725,5,S02
10520,0.43230698445847093,-0.1279344447744361,11.327408592805625,13.781533486112664,26.591005791529362,-16.818148264673482,32.38414628211898,-19.275167553829853,38.0107029256679,5,S02
10540,0.20993332285764618,-0.24721763281273956,11.226822771769577,4.151076430246726,21.39709100742717,-11.64703900553001,32.531902883312576,-21.615064480207298,37.52344939821948,5,S02
10560,0.27475978452418326,-0.2716126910227802,11.160386779329817,0.47598512752429123,12.768242587990855,-27.121379710060214,31.684730032065488,-20.601884120453864,36.97452865944583,5,S02
10580,0.22958295467203452,-0.39756657724937466,10.97908201645694,-2.561785599109502,-2.0553041112422177,-19.956225447527114,33.045459395019705,-19.556045574443722,36.81487295507148,5,S02
10600,0.047764666936994674,-0.5667695841093083,10.90352882667203,-11.05925469621836,6.7148449957032685,-16.92821015423817,32.705466808932805,-23.503048953034696,33.274517906558,5,S02
10620,0.08719683187493299,-1.0507485066579665,10.78961289062652,-7.585525698472235,-3.380141820574888,-16.854679080508575,30.645714064188503,-22.54400129958639,35.464298067787055,5,S02
10640,0.29198071972761175,-1.2666284576735174,10.63715969932043,1.2466293788678149,-5.783865878047188,-20.644067624067933,31.678449241174217,-22.622945977821903,33.23763314579578,5,S02
10660,-0.06586877290998586,-1.439997204080148,10.308439495569703,-7.519083836093339,2.0069070663582336,-10.054982043276942,31.045963013947215,-22.025342495944003,33.83761232446337,5,S02
10680,-0.05787612600126446,-1.5548815290611384,10.165737325691804,-9.210687712031138,-11.393596856345079,-2.6480326552775124,30.055665097161786,-23.11061392400483,33.57672444792447,5,S02
10700,-0.15248666011046866,-1.7691616178350653,10.051335630223862,-7.753476927049516,-17.795531586110165,-4.189680942865263,31.090268312529822,-24.422726940647657,33.31795309465105,5,S02
10720,-0.35470110172502844,-2.060793208260203,9.763651366117413,-17.93831690511886,-25.604860082082187,-3.6223873935765964,30.41215120674818,-24.15564315136883,31.140551925037382,5,S02
10740,-0.3417745351794361,-2.1402856923384204,9.491952259032278,-28.364520777668854,-33.63539585686869,2.7167119696675974,30.817339926034983,-24.461318842448616,33.15520376132121,5,S02
10760,-0.5012542516832286,-2.0888111496981234,9.395766489457957,-22.307928012539733,-39.321278182854805,5.871102508702636,29.00217531613396,-23.91145619335406,33.680674518018364,5,S02
10780,-0.2985293644880238,-2.360045487545659,9.482246804702823,-35.07622636567771,-50.42057995434133,6.222737306903528,30.26020553389805,-24.780451464473742,34.3491981935622,5,S02
10800,-0.6009903385865479,-2.1121051944492515,9.522185337710862,-31.391453186871292,-54.33994027872296,12.698700658467425,29.029727179628033,-22.796746999884718,34.80134872626074,5,S02
10820,-0.674793758420453,-1.974106059018358,9.436250259121943,-39.932269080341044,-61.34767757711818,16.27428838770379,31.525426776548173,-25.08865600327858,35.899523069092865,5,S02
10840,-0.5870702257928014,-1.913352712973306,9.422159286373816,-36.81936787999006,-53.891128714945864,19.09871510722313,30.0407071400308,-25.330992869570792,34.21715756550364,5,S02
10860,-0.4898461409257193,-1.7542987782943749,9.379129586018514,-39.16608559271812,-47.89225920847879,19.77987502815073,28.98814283998914,-23.075928861353074,39.777029909101515,5,S02
10880,-0.4062000524242477,-1.50343938211605,9.632610670285882,-23.147048306471635,-40.06344247681282,19.10173850550996,29.172404421273082,-23.97839323115472,39.32324739239532,5,S02
10900,-0.2246384460174816,-1.450038046256468,9.728179783441526,-21.306315987959263,-19.296737547472755,18.233231840965054,29.02931036135185,-23.62228865691949,39.12897761577633,5,S02
10920,0.051127879639299496,-1.1626229824964813,9.993442421024902,-5.631693791206065,-8.53783380257841,16.62061920551065,28.641800178365177,-24.538406966794664,40.08367871783614,5,S02
10940,0.29521987150300855,-0.8839209120390064,10.02035170013293,3.858900103939763,6.829826178103374,13.371772584712387,28.459598637910048,-23.401996630038344,39.53217249912211,5,S02
10960,0.38553527004499444,-0.7403204285986174,10.29668613142703,14.839186037150792,20.990961837548298,6.406407567958729,27.377412295130284,-22.148442201328393,39.33751137452438,5,S02
10980,0.5883103646725748,-0.4356362343857043,10.316528107718117,21.397452443675103,41.30225891868935,10.015074563176656,27.254627559891148,-24.209851847768327,40.62052240753895,5,S02
11000,0.6888577544930362,-0.18637839843641527,10.700072447514485,26.425731644625387,48.990021288314594,4.537823804142794,27.70765814229034,-23.098449495406093,42.09729678717357,5,S02
11020,0.7632316084271954,-0.1761918736551807,10.911385816255336,27.900740221619852,55.30157807141608,12.071514054465082,27.446418034608566,-22.737592691978087,40.93601457496782,5,S02
11040,0.9788112226294764,0.038202980406093476,11.060722207741433,31.12493952685293,57.72411047590746,-4.959261855111874,26.58471833056592,-21.975662438270994,41.19329298937532,5,S02
11060,0.7087917629349245,-0.014123411288821296,11.188387343977768,30.22797118173256,51.63726060396829,-6.110383794710526,27.094590028654657,-21.16614237683893,39.03386456829931,5,S02
11080,0.8398442341407311,-0.029602973201519688,11.30212561928252,27.63854815270821,47.46480318019832,-4.242641570157254,25.398930194010617,-22.923439545618443,40.455397893549375,5,S02
11100,0.5853505276110761,0.1539830941905356,11.424811583190014,7.950757704875389,40.906124402853656,-15.380776829444132,28.470272342520225,-20.34615489989212,38.61912406601281,5,S02
11120,0.6476316719400624,-0.0375634649551916,11.383309922804996,15.679080415535008,27.99125439236053,-13.335518698562336,24.917828089334492,-22.12016209023911,38.88576416552441,5,S02
11140,0.3832152870732737,-0.13805058333579065,11.307481733317797,4.157264322583253,22.697731007706935,-17.225421807198675,26.25920801075867,-23.018393009416506,38.808139106482336,5,S02
11160,0.2665331305328661,-0.32339851916826384,11.151518986215269,1.8028188621738943,14.44272480312442,-26.093746035055055,27.60856263030614,-22.347391612017777,36.29082859233107,5,S02
11180,0.3113701590020787,-0.38849832058109757,11.006941417209703,1.2981269806569893,13.363447237758248,-20.666428296886707,26.473874716801937,-20.22662876417269,35.06754861367616,5,S02
11200,0.04938560462287386,-0.5832434684357237,11.158096593145805,-3.1829053396075793,-1.7662535174230605,-13.625901166576186,27.281853045008944,-19.31954034226941,35.21050643756334,5,S02
11220,0.07094403297221136,-0.9577137067692414,10.692326862580199,-5.1342716633904075,-1.7395882315970141,-13.386720776250499,25.45282658530863,-20.053035015251055,35.99841782696973,5,S02
11240,0.08455565737021511,-1.1236538626561485,10.785465905417313,-3.9473318248639213,-4.686904481068104,-14.857866574760743,26.12138875320349,-20.409735071590717,35.068535134498426,5,S02
11260,-0.0429512368260824,-1.3190450898309596,10.372261046429237,-7.87117189218239,-4.039389276712887,-10.271321502517354,24.158068308816546,-19.312324234348118,36.13827848398991,5,S02
11280,-0.1589662532750762,-1.5746479883705433,10.181252180889613,-9.031256243110125,-8.240546026954009,-4.696406793977435,27.038006666584057,-22.174275868249673,33.885993828864926,5,S02
11300,-0.20915535951008105,-1.7773126802055927,10.077345506863546,-16.723595544411573,-15.71779902554565,0.020534723195525628,24.469663350494542,-17.327176358483456,33.16394551327927,5,S02
11320,-0.25922795052809655,-2.052504378145671,9.85809287820103,-11.666321699836566,-22.689683984927765,-2.700552361579457,25.4707233859523,-19.477144041443403,33.686885960711926,5,S02
11340,-0.22416651380633293,-1.9349058397423111,9.681876901815393,-19.954244662689817,-25.471477470304972,-1.2950673586272279,24.425827734459332,-18.550939171600227,32.84288983135587,5,S02
11360,-0.3231294243542552,-2.0390562576963394,9.611938521510359,-23.00107761888908,-33.77972735636896,7.325993203327117,25.925695520467904,-17.410018576228218,34.49498412919358,5,S02
11380,-0.44619815540597907,-2.191258501104317,9.513568952271266,-28.328096878016243,-44.29226295579634,6.9067546532698465,25.043499789024303,-17.82186135638618,33.87567855031557,5,S02
11400,-0.4033794340905862,-2.0398767860868037,9.447669417618503,-32.287212451770124,-55.407017393415934,16.82683417999793,25.35642951740179,-16.88940931250049,34.24509014814359,5,S02
11420,-0.6146569547059287,-2.155158296706125,9.453142559584263,-37.50052673793381,-60.45081439001788,20.489178862806988,25.185439452444133,-16.825000017735174,36.26991310138901,5,S02
11440,-0.6010852087156126,-1.6602960806918343,9.572620225426096,-40.58107071985002,-58.08246857708878,14.051007505783415,24.658664402768594,-15.881673697182926,38.30152375382382,5,S02
11460,-0.4748276231739982,-1.7766308457250697,9.361822190874213,-40.41920220885062,-52.92211606147629,21.011176531156977,26.480578346532955,-14.616099338776964,36.93765564330422,5,S02
11480,-0.3728373925611226,-1.610611752370694,9.603435691858174,-33.12394727296859,-43.29339826142525,15.034003493514465,26.207166923664598,-16.29531163681957,38.44000630073103,5,S02
11500,-0.3215978523802636,-1.4547704099040322,9.633758972793798,-22.347759258743285,-31.63722178564026,17.878810978024365,24.75286592975069,-15.492893641338151,39.17091002436363,5,S02
11520,-0.042572942693417104,-1.1068934162342574,9.81829388679515,-10.651404357920985,-14.978435604352333,15.145254166728424,24.21178124405232,-14.32000774981112,39.256035475405895,5,S02
11540,0.12842401571554432,-1.0442090099282793,10.070128948990353,-1.7412448317146056,4.351401054153883,12.186121906118943,25.21025246262666,-14.644831664055733,40.01570015396718,5,S02
11560,0.3707108743744073,-0.7701556696471252,10.184913318679332,8.853489727144378,12.516664446800412,9.823776549757083,26.532931238799883,-13.689463924726388,40.160585960621006,5,S02
11580,0.5079357634429852,-0.44278494237616456,10.511205990466056,19.651033843642406,33.071648704686496,15.26489352337306,24.763501508781623,-13.47948126743179,41.309037089309655,5,S02
11600,0.8326880589805228,-0.41372520453582856,10.643382892487654,22.883830710855115,46.23625626246023,12.840383110415123,26.73869461851127,-13.579178451977675,42.297865011044365,5,S02
11620,0.9750353332914926,-0.2081536686030809,10.962678028626739,29.09584120504117,52.09215661280074,-0.20131585204356528,26.2941158121659,-13.221954211941558,42.043278434072654,5,S02
11640,0.8529481285533321,-0.13988273859591538,11.024129307653988,24.466804264785676,53.2492007594061,-3.825784058145437,25.804938713874755,-12.443536219680414,40.051537426143504,5,S02
11660,0.8306514968833681,-0.018580707487987326,11.102812289945206,32.51607552697263,61.695386609190294,-4.823873428677469,25.760474450896375,-14.36793346309408,41.33225279678056,5,S02
11680,0.6247541319771552,-0.030532727360868844,11.269957525120843,29.656923738810843,46.03593305626393,-6.655469230966331,26.75829509643049,-11.337209182994686,39.51819823245188,5,S02
11700,0.5169161526740138,0.05442239146455562,11.44558515814951,19.784317534200245,38.90796857449396,-6.611644454956306,25.94387555480916,-10.215458742087552,39.968366883591926,5,S02
11720,0.623659335575696,-0.07752651655670621,11.453086552226235,15.552507018100457,30.272989710450204,-12.665413009679707,25.962301603797147,-12.011650956518253,38.35229223735385,5,S02
11740,0.47579195610074443,-0.05192020837316991,11.276319513166657,9.09049050713018,26.74865478825699,-19.225967373859625,25.714189683890453,-11.62902323794453,38.06023568097137,5,S02
11760,0.1583557444339529,-0.48626772556523173,11.274280502625126,10.10359839483371,12.655005026291775,-16.944870214532603,27.569649823709565,-10.905274893316886,36.659198678634176,5,S02
11780,0.25222578673136753,-0.40119758470067735,11.09600805584448,2.0642951690608884,10.06441434531733,-16.63434656780369,26.82550217044293,-12.224662453258007,36.950440839191515,5,S02
11800,0.36159760457905177,-0.5848786542360891,11.031571550281877,1.7680414940584788,0.3030715231947323,-19.22976876418123,27.33791945473142,-9.399076570497531,38.510431156274635,5,S02
11820,0.11385262888355714,-0.719422265468018,10.97292476520441,-4.9079622932960305,1.283012565284159,-12.130467644735608,27.202984280826747,-11.838479953509815,36.329521181762225,5,S02
11840,-0.08991699223530908,-1.1060728149882686,10.820353053670821,-1.2720482679247684,-3.1324822652478,-10.908125794883526,30.022751600917033,-11.870221065353464,34.70427729900949,5,S02
11860,0.05795107577774985,-1.2470988467780157,10.406212890651727,-1.3773290294571714,-8.66020506470874,-11.618426832388783,30.52546075568706,-9.602452724737343,35.449584397788456,5,S02
11880,0.04797561349805618,-1.2965477635614993,10.388813799993807,-9.354946941195902,-12.13501380763486,-12.204842989925709,30.878738923928353,-11.697192552666866,32.55227959205449,5,S02
11900,-0.16305620299453585,-1.6039091839336836,10.186977707967445,-9.930407911411283,-18.147726476558685,-11.497670423309161,28.722931490503147,-10.641308287211725,33.58311552210532,5,S02
11920,-0.09577210335253275,-1.980832292659602,10.037369599645528,-14.678783973750186,-15.73578641725091,-2.4642823500643147,27.69216598761568,-11.933536981818389,32.14503153389995,5,S02
11940,-0.18688587089840622,-1.9099723377447024,9.626348169836177,-20.390771364328398,-27.178902413564792,1.9011404386230741,26.955151246942968,-11.052202887937064,33.82751243414042,5,S02
11960,-0.24191918357714656,-2.1524321591223403,9.581142584774296,-21.584042336988748,-34.018137534614986,2.9818064420899906,29.334507335694905,-13.299568611846562,32.652876830917776,5,S02
11980,-0.3981438759851904,-2.069349659093497,9.702792328741,-29.873615485064246,-54.5690409756626,7.486424144709796,30.389275992242194,-11.16206531792662,34.820984528204164,5,S02
12000,-0.5939962292959239,-2.0384644846220863,9.717944583088995,-38.19996867400455,-48.903457715238716,7.344713287875687,30.979880254211587,-12.15464253247164,33.14918035104206,5,S02
12020,-0.5906529061148269,-2.0004869927059286,9.419780652656494,-38.8514567566017,-51.90838609496007,7.965453777592485,30.193876517738754,-11.177970788175148,34.70382785182954,5,S02
12040,-0.5020724929301925,-2.091734795435771,9.30066264580252,-47.4926810264562,-57.16549663382304,12.656376311689167,30.024591378187683,-12.881276455904278,34.93726813419366,5,S02
12060,-0.6966562980553916,-1.7640629830314698,9.552235546120382,-32.210234272483675,-54.91191360538009,16.464857893578394,30.987465486100053,-10.755385806667611,36.67234499050243,5,S02
12080,-0.5478586840185842,-1.7598819815111668,9.680857716873618,-36.37533598316626,-53.74336046801821,16.101041983481878,31.799795149275294,-13.066208088820293,38.15839860290954,5,S02
12100,-0.1730535366615545,-1.4904608827507313,9.387171669185507,-20.64751966792884,-38.71112240709012,17.670726525875484,31.275340793455353,-9.652753017083244,39.03063342858514,5,S02
12120,-0.13821845956401296,-1.406776788645383,9.675383519460686,-12.668953263435867,-19.761297116486105,20.167864943144288,30.06606730838137,-14.648925071933403,38.446589044931166,5,S02
12140,0.05823298188256429,-1.068250769069479,9.809685313040022,-2.7485067897860884,-1.8769345156383646,23.229919099363684,31.883242128767844,-13.7252569408315,40.8486134880733,5,S02
12160,0.06332961717337764,-0.9572727351495847,10.042645675747746,-4.473767280528013,11.650837099671845,17.929787135091264,31.014735065597343,-11.30546955829978,40.56835897556096,5,S02
12180,0.4718645630720507,-0.7120204569262247,10.311590863011174,10.551661822844363,31.309799085040236,12.226303740191582,31.686494894484866,-14.083190871538502,38.80102266491766,5,S02
12200,0.6335054779281502,-0.44795110795006127,10.523554615245615,22.06763346293069,43.56271652040147,5.044097955017598,32.28632073373804,-13.876135091537282,40.016151920243274,5,S02
12220,0.7480013925630313,-0.10211842226202651,10.757595432275119,24.599732575420543,56.45538979995451,3.9364553666256614,33.09186632841774,-14.987336738026611,40.42263863241395,5,S02
12240,1.0138855334173236,-0.26193048422453546,10.929294852498895,29.961838629250035,53.144732723092936,9.708129389572795,32.88843825992712,-16.892773813527718,39.43925136881216,5,S02
12260,0.7597017763539654,0.05621243779704299,11.02487018797811,26.776645488603034,57.480243151080636,-2.7582697045300035,30.835640580630436,-13.804479821389727,41.24234168502937,5,S02
12280,0.672972898114637,-0.00839933867702046,11.248177902258497,26.95007188180723,52.96969461426144,-1.9672963466087077,33.50144689596969,-15.698847865250823,40.87295398037179,5,S02
12300,0.5471712817221998,-0.17267219161680375,11.41025391751581,16.726013572430144,43.43554495392458,-6.743724334011143,31.80441962861771,-15.461133387941508,39.020546576485415,5,S02
12320,0.7404863015614654,0.1627573178656817,11.429156793540718,21.731788077361852,38.66473056765491,-18.555509151130668,32.08458936164898,-14.344984360929038,40.2945046658518,5,S02
12340,0.5083973917917046,0.008549586757925429,11.187385383879056,11.465650527098099,31.229452944405953,-9.627629144051477,32.26391970007424,-15.486362928718599,38.78817488525186,5,S02
12360,0.42079825206491783,-0.23368241914405508,11.232362033007991,12.86592090951444,17.08339001614442,-11.946516778427387,32.244833899649734,-16.782215620175833,36.52393969543516,5,S02
12380,0.43236174349525214,-0.4315654249896021,11.24803838897506,-3.7383742514472607,11.169342552904507,-21.163532812826695,33.833535697813296,-16.76706570302133,37.070550252886754,5,S02
12400,0.042367694459991015,-0.4321186978617226,11.113300107402196,-0.849247831876379,2.856613653772464,-21.08026243133898,32.30673865594083,-17.865668707230228,36.7228249246132,5,S02
12420,0.2847001190195574,-0.710409253287916,10.797649004614115,-3.252919929654246,0.9758042550930661,-19.886965241093268,32.51279099518676,-18.74266463686672,33.72497535397617,5,S02
12440,-0.011634049402264257,-0.9950642635339737,10.66472775080614,-0.906822781228672,0.637309538681772,-18.780772844853203,30.773995398734744,-17.478180788731713,34.10005219487348,5,S02
12460,0.08064379789969738,-1.2430199291588493,10.710493012104527,-7.692631686428024,-3.7464380927256338,-14.692763415830079,31.24365362044416,-17.716432963979152,34.78346712580413,5,S02
12480,-0.15487650476743445,-1.3795890886016717,10.272632050135579,1.4618345363648606,-10.53271440357723,-14.352039390179229,33.20534702078871,-19.24254941645059,33.089911751067476,5,S02
12500,0.07299044313740324,-1.7798613050640113,10.275423209368457,-7.306393517396282,-1.3880165980490478,-10.446813907827723,33.05477707382424,-18.950350913980234,34.077119922655385,5,S02
12520,-0.06574277097815323,-1.809163416081295,10.050099915700313,-13.617264107845031,-10.155387151430574,-5.919711179365947,32.36338365953149,-21.238824546333667,33.862882637267575,5,S02
12540,-0.22275600567061718,-1.9749331490563764,9.687183015244539,-17.54109591519571,-19.779268102148404,-3.48655136973863,32.571561864294765,-19.904153229021713,35.8468961100876,5,S02
12560,-0.42834514057204076,-2.0518148656207695,9.60619637139979,-21.289448328035153,-38.186559044399935,3.743335209737063,31.36346742266183,-20.67262709608834,32.58054680351893,5,S02
12580,-0.32590504178711555,-2.027654957713451,9.309783061338313,-25.605692094930703,-40.23931192001731,9.318681901675086,31.487034115293252,-22.12103378900369,32.78005722209675,5,S02
12600,-0.5401550363997673,-2.207784383066013,9.564868405975599,-31.81314118382265,-48.28692379073384,13.06511322910566,30.731111696368437,-19.436153949849437,34.37644210890042,5,S02
12620,-0.50846122511694,-2.246081107463338,9.468456204777134,-31.390152447945116,-51.41629422141719,20.545462522409437,32.42561311650604,-23.086940833150404,35.3754619650104,5,S02
12640,-0.40701755199030276,-1.997585204511544,9.400430845343038,-42.515917010838365,-62.61343332957838,7.6178739211118165,31.725425861885125,-21.914303558031577,35.0389883687283,5,S02
12660,-0.49867983266452964,-1.8892430796626984,9.46056053208745,-34.741791532095355,-54.99713980695056,12.861181582218189,34.071197586079236,-21.841708792577357,36.20724963925315,5,S02
12680,-0.41046058125991425,-1.8450639390677794,9.566798241768018,-36.30557395621186,-59.21482539164943,24.289209907817675,33.0118996903198,-21.84104737368498,38.267677371087316,5,S02
12700,-0.31092831203948623,-1.4108022055333187,9.860884519628895,-29.052177135847774,-41.63791067614949,21.592692109860412,31.026204776107708,-23.720793086822848,37.07226989532387,5,S02
12720,-0.279953069703899,-1.4682674043061623,9.627443278408311,-15.524247108814272,-31.54243360904958,21.591282406183804,31.35089623105902,-24.205895957788147,40.66043105057893,5,S02
12740,-0.07180638096893724,-1.3861638032303119,9.68518145765951,-13.871284509487516,-3.0625753894810153,12.158290835251604,29.933673233733003,-22.27766741283833,38.83093869624471,5,S02
12760,0.04633156887569855,-0.9654275952110916,9.874157700045787,-2.757980288377002,10.39840188508221,14.140315210435656,31.303933752031828,-24.361226751376698,38.636320603785364,5,S02
12780,0.4357209838041213,-0.8107574247603397,10.09479824252894,11.144683106221027,21.12148482913406,14.909107816000951,32.17620129924909,-23.76694001489351,40.36794777315975,5,S02
12800,0.6538112811829033,-0.6333429427955062,10.312856507009503,21.380740602393526,39.86078838831728,14.824717716409873,29.224936170158006,-24.346567737481788,41.544846464807364,5,S02
12820,0.6773010541141242,-0.3307500499233592,10.658782287919223,31.04780225000344,48.317984975861116,4.5074717282566885,29.52982636851786,-23.53253696812203,41.19634785087089,5,S02
12840,0.7481963064364083,-0.12489058144056499,10.884556639540374,27.986470832681352,53.42833088848901,0.3534185711875163,29.91212101422952,-23.06050153955357,40.7320061566482,5,S02
12860,0.8476047194514497,-0.1171348726217997,11.019207272103637,29.373468657998902,59.39251191461359,0.668353666232585,27.903486081150366,-26.631576471516876,40.141658751914974,5,S02
12880,0.7600278104770779,0.03513345703550087,11.219829045113126,26.739597555636482,61.384233430863254,-1.1015875865063247,29.80566644334011,-23.666801452445608,39.52060042231434,5,S02
12900,0.8577459157927615,0.06964590187248809,11.113616382736124,26.007716021104518,47.340297860275165,-10.261133402260882,27.500300355103832,-22.083368851418747,39.17739558426112,5,S02
12920,0.563311272085707,0.0541518717740927,11.325989656218384,18.780635223456148,30.886172606038148,-13.384565687932175,30.21312621824234,-25.401732097934808,39.72184370313623,5,S02
12940,0.4549016266329803,-0.036667841864037265,11.370577040838146,10.500369443398501,34.3661765209212,-9.434616395119285,29.418249818402415,-24.88625250687124,38.173812912425475,5,S02
12960,0.34284657617017655,-0.2678460585928273,11.310366750450184,11.784836663725262,19.900625364870038,-9.238289126610283,28.899197214877965,-24.679417322960035,38.48384403989594,5,S02
12980,0.32956009374671275,-0.25673029503537154,11.314347364598618,2.5034944919414093,9.013459119654424,-18.046797340471464,27.068652725823117,-25.21517304831966,36.50395211547748,5,S02
13000,0.19535418221842618,-0.20505471874291134,11.156886690601603,-6.597519636318259,8.220183352558395,-16.239871011371353,27.49355096410413,-22.556135576647176,38.074000625857586,5,S02
13020,0.10347774625584427,-0.7460641083619499,10.756526710258372,-2.3559281171066138,0.40924785984777645,-16.762401612684236,27.92317140045737,-24.365749534650725,36.406489350404044,5,S02
13040,0.22067625446107622,-0.8731304647061298,10.79414417218685,-2.072238220327187,-0.31939125517871403,-20.482844795943628,27.344224322817656,-22.767076178326164,36.08497992628056,5,S02
13060,0.1458803689842909,-0.9770885763386452,10.662986935960276,-11.320870026226423,3.1140411948996034,-14.404737936474689,26.90075050340131,-22.95522002539669,33.74167383360184,5,S02
13080,0.11136462230557373,-1.2796815354206195,10.457753438871263,-5.391381516275524,-11.546170540752572,-12.508788980944805,28.290507750941572,-22.54816264562572,34.630963539658204,5,S02
13100,0.06890462863161412,-1.4837132725371918,10.088467440065815,-10.1583122420369,-9.466118991145137,-3.9420425543684936,26.634403729841196,-22.530647208770247,35.312259740066786,5,S02
