timestamp,ax,ay,az,gx,gy,gz,mx,my,mz,label,subject_id
0,0.14378383318915855,1.428663599357496,10.085169996026115,-9.659515724503073,6.079871606075473,16.744200037157768,30.173274637172756,-11.768411438212324,39.4690558469706,4,S02
20,0.2466632279157824,1.6273734734134888,10.186086441289316,8.606989464695555,14.953886857155524,8.062851867245357,32.116070758196216,-13.515085625269005,40.41294994698778,4,S02
40,0.39089813582330246,1.9288088921678352,10.531450930079105,10.195736443088542,25.016527749343993,14.965798124017448,30.082978898079904,-11.458953869114465,40.21514701576435,4,S02
60,0.5198469781002721,1.9208822845842963,10.692343029973774,19.94224400070014,33.650066014764946,9.669236184027682,30.624347600432188,-11.651710888546281,40.24857429034837,4,S02
80,0.6485595852048863,2.369534684980824,10.997417904875757,21.067983725540255,41.17660174058834,6.158859601427349,30.75718098113281,-14.189697789054579,42.61980837441463,4,S02
100,0.7843863527868252,2.384736467357864,11.189164287812424,28.643898739956736,44.951520060291756,5.436226722189653,31.559432285272987,-12.768384711325137,41.64149326417032,4,S02
120,0.7849997089640194,2.514690185365372,11.463844802024953,24.643079190502018,48.52575222983076,3.416213242548682,32.72481381151849,-14.991685445853964,40.571971084611306,4,S02
140,0.8728993992743641,2.634124879708615,11.652989598963059,18.672755701559474,48.750195408597996,1.40231204446299,31.522938777424365,-12.605344482624371,39.983877307476796,4,S02
160,0.44856193804388234,2.579568968936614,11.571929896260567,18.39654781187204,45.38283317474711,-11.885025976885354,30.419800614707373,-13.04754650305008,39.951191463470884,4,S02
180,0.4921370863281729,2.583687395342717,11.574969658589463,14.129219284528528,42.025238277928736,-8.755228741706885,32.72685675295516,-15.389948602013234,40.45786224527731,4,S02
200,0.44981828178446637,2.5491722533153833,11.42563972929866,11.789090453461391,32.50876955116216,-7.666319543171005,33.71818863475829,-13.731288367423698,39.090878928954595,4,S02
220,0.32524429019287493,2.481406012167267,11.47640223009129,6.563187758453945,22.272250995733025,-13.255434864609835,31.846223398211404,-15.624374211528133,38.70179508991086,4,S02
240,0.31381930355079357,2.1567692818487236,11.337872150229224,5.060586720934666,14.704678710148448,-14.570084563866875,32.58217824236475,-13.834377900930555,38.31095954936247,4,S02
260,0.06492649210963695,2.22685934389384,11.041216958622748,2.2949708074288218,3.371591328829436,-14.577049326564726,33.473533085594774,-16.862013622031448,37.10953219615794,4,S02
280,0.20756035796615885,2.0251446866710032,11.009230854868456,-1.5846386807547166,7.0475265683992605,-9.647901083522571,31.061168357613482,-15.51924175430022,36.03916544030347,4,S02
300,0.1323281418880648,1.608529959446745,10.704254335869994,-2.3930291746038144,8.457261408519411,-13.807486853081391,32.248570792345575,-18.32971325569491,37.001705207918874,4,S02
320,0.21384568223406825,1.5506596508297987,10.349549503464676,-8.768024646746992,-3.6272579692156457,-11.300117119420177,32.98818522411027,-16.000506599705325,35.21906136518853,4,S02
340,0.05935532125956039,1.4770651824757153,10.32485872386793,-10.665383560315387,-4.5632011884887484,-19.341372495860085,34.540403504842565,-16.84092283453861,34.45753589208249,4,S02
360,0.03737348430789611,1.0272916499092812,9.997025338883887,-10.427651188057876,-9.078670234976334,-6.19827850170545,33.012090102880705,-18.166226768346085,35.411342286008605,4,S02
380,0.0968525747720167,0.6685673324187564,9.594147936583301,-11.197192859683458,-14.385998401145104,-12.678160135469067,34.05807204227509,-20.67796086536164,32.145198655408976,4,S02
400,-0.0826891455003601,0.4051934890062954,9.401616145885964,-3.231610965069577,-17.137670970232552,-6.010383668016964,31.535264103267725,-19.055010861685496,32.72797242957628,4,S02
420,-0.21153676379669514,0.4640844166916536,9.32009093992946,-13.818771396215126,-14.52120954737194,1.2664869375893408,31.578831079742994,-19.62133236159446,34.14196469970565,4,S02
440,-0.35860152958864877,0.3880435847449668,9.009857665690678,-30.84656831004244,-31.201513208585364,-1.2224072230313592,32.21251484310278,-19.67999929579868,34.17218359292213,4,S02
460,-0.27114921136887726,0.2823146183826575,9.12122256802505,-22.279676920544194,-37.27870014671573,0.19165195910578958,33.5685760002214,-20.775270353829413,33.48472704370741,4,S02
480,-0.41163079233988853,0.14987198523642856,8.959138817715825,-28.63171586429419,-45.733108848531764,8.680093155215934,33.01513578523574,-19.982734059455524,34.52443850424533,4,S02
500,-0.6535272081123114,0.1689942201234136,8.959403627367175,-29.371692960399738,-46.18750540312571,5.058696634350025,31.893843279889634,-20.31773573463673,35.05394700834839,4,S02
520,-0.4769478627077741,0.2062011889154478,9.071832592885235,-32.89159167935794,-56.573967048908294,8.688753542486438,32.8953577985429,-20.124589389627687,33.2403069872304,4,S02
540,-0.3403488564169195,0.32383633393104055,8.892998830827619,-37.33896952020522,-59.755624924473246,17.797731061150223,32.43662049714106,-21.08360726594508,34.63253308291942,4,S02
560,-0.5902092401417715,0.43199584954653664,9.038021923986859,-32.800489192945946,-49.600218265597434,13.530101170991461,33.54438044800019,-21.90376628691416,36.799396556359554,4,S02
580,-0.3349536904882232,0.6004040633641146,9.511703202368441,-25.366922702531536,-42.092361937931415,11.120910162074514,31.31103985807477,-20.838097991094777,36.47817923566118,4,S02
600,-0.25692264555840516,0.9510107709997009,9.509692389118834,-30.530851387379425,-34.375883480895816,19.93658082238047,31.958677595718367,-22.346445828850477,36.42222694222622,4,S02
620,-0.04655905973594049,1.2801613106527456,9.73880428156691,-16.028039829258848,-15.654738467423226,15.333721456163762,33.12866378703436,-21.769976475039922,36.59614624417823,4,S02
640,0.15568051917077066,1.3674093018879865,9.936124774150231,-7.616268118264793,-4.4075564029819505,15.409568895119355,32.73921432978762,-23.491016916246473,39.210728016495715,4,S02
660,0.4548269906041472,1.6796266488170457,10.08666921016771,2.492327383861311,7.079297954635758,11.794819202755603,31.105784398608535,-22.269452621411595,40.24093395009037,4,S02
680,0.42276406213773254,1.7395878343957705,10.421397589186864,9.232866283729692,18.21201471598366,4.297915612644575,32.116023318011536,-21.9241175307468,39.54378209482752,4,S02
700,0.34978697719865626,2.030530781081618,10.743550770994949,15.342117559621745,33.99385255925861,15.692703170487862,30.615404426133182,-21.015022389883885,41.71993079211449,4,S02
720,0.798942210543697,2.0921277270173797,10.875866699477594,22.606252305472186,46.073977514440486,3.461099977505939,31.22101150664202,-24.430634270712847,39.862854530117446,4,S02
740,0.5156798764435685,2.300879737260883,11.372952649973843,30.40882466293456,51.48301960984118,2.6809744364440076,31.205526841692155,-24.02781356180822,40.858929801235476,4,S02
760,0.9005652491582806,2.412920624947806,11.373911627818451,33.49982254553542,46.5090935345335,4.146131635245003,30.119235951492495,-23.57747741272772,41.308405322705376,4,S02
780,0.6487129695646832,2.444771311128554,11.619703402581253,26.613992684754592,53.15182666640571,-8.978614054032363,30.888363953048287,-21.00881112702377,41.80994821652691,4,S02
800,0.7989925263625611,2.550882168587519,11.635121643074113,24.909286781052646,44.16889838148077,2.7865488171545008,30.269230581993476,-22.844585746275204,40.080492103361735,4,S02
820,0.5267404496302848,2.408192169710987,11.54790460119381,14.173730522667597,35.05862259260814,-2.4315961588734702,30.753315226380046,-24.704379300293404,40.923450381287374,4,S02
840,0.6582044473775084,2.6738434378159344,11.443850030274255,10.917205281627943,32.82865244238933,-0.5133877247596491,28.443057966881415,-24.119600071218674,39.64562741110074,4,S02
860,0.37497015249970833,2.262019535698148,11.624713856800533,6.041229022641285,22.40291945328377,-11.310965288270742,29.182666759116735,-24.329288678762097,39.63969577481795,4,S02
880,0.4140758064101707,2.268314123361747,11.081324701260932,2.846669353979906,12.543057143069412,-18.115091770347036,28.20616737602401,-23.30438296320479,37.27462928535676,4,S02
900,0.2594474623443598,2.246784088094285,11.077687069978547,-1.4261374295360185,8.116808593356112,-6.982700255238601,29.10863764525353,-24.562395867307927,36.13729790636803,4,S02
920,0.15596106250620612,1.8220532848505278,11.032348700529907,0.32931271988692856,3.365985365986636,-15.24554669043934,30.54656391920938,-24.709970046082518,36.73598118287402,4,S02
940,0.0464666088610419,1.7347644623424405,10.810866203561277,-5.404620622339527,2.1743035111437523,-11.639273485611463,28.235767346943856,-23.47674189605395,36.4553565305273,4,S02
960,0.19372973971912563,1.3852186564354028,10.54140063561314,-11.062775989294668,-1.3645854522077072,-17.84610418691492,26.626038351676456,-22.94314583008579,36.29122055179694,4,S02
980,-0.012949587702880974,1.2990114398770274,10.283665598130291,-3.7635280124436337,-7.023470045487409,-17.06916386499782,28.350196979807066,-22.345569173937513,34.73826854930434,4,S02
1000,0.06017675430963672,1.0565582361010653,9.876198400467366,-10.09962870084405,-3.4829687756316874,-7.061706617005635,27.76358490598387,-25.70394540297876,34.00662296934976,4,S02
1020,0.0653973670343749,0.8496414753968562,9.818525014981057,-8.651207607894285,-13.397855696440194,-11.515683449112068,28.687311685614258,-24.453336704283526,34.715277557979206,4,S02
1040,-0.0645147509286845,0.5731378253568646,9.672517051772985,-8.95755072780921,-11.83828310891437,-5.3407985791727155,27.080125219286117,-22.151494646484043,32.984037860060454,4,S02
1060,-0.008937476017227691,0.49218862855321216,9.187323780295387,-21.525831205132274,-24.149741268274656,-5.353000689516653,25.831002542577366,-24.007642767259675,32.89969002558059,4,S02
1080,-0.31700351277792194,0.2915697366208129,9.10193902018046,-20.778394768045125,-27.961404310229405,4.452854303098316,26.94113464152025,-23.364081223021937,34.060067777987385,4,S02
1100,-0.42616840066271133,0.3262593358714018,8.962955242953758,-28.071891552171312,-32.262016877887724,9.531533880134528,27.719430427692103,-22.020440414901266,32.84793639257028,4,S02
1120,-0.5807875766833673,0.057136365057401245,8.877456731148701,-21.208687198199204,-39.158475520056726,9.461454873215954,28.192822315962744,-24.833303580612526,34.34398415300559,4,S02
1140,-0.4809586732124881,0.4244219429178968,8.894555972332897,-34.43185249566284,-47.973920897924835,9.105280251592376,25.39023809866879,-24.60779142445908,33.369334995842166,4,S02
1160,-0.7025277517547297,0.3342205804088093,9.003743821025415,-31.65412785884617,-54.166799267162624,13.642195338377148,25.41695941965375,-20.65928547491426,34.183115838770306,4,S02
1180,-0.494469508944929,0.28115208832675814,9.11903803902291,-30.611615490107013,-53.56504520362972,12.022285420154027,25.70925858966005,-21.87895411028726,33.72928580314631,4,S02
1200,-0.4227004393711543,0.5186408724472995,9.126831579894933,-35.29629131365726,-48.18624670424737,13.784903739986161,26.812071464572938,-21.178071953625178,36.002984609290976,4,S02
1220,-0.5534137100711469,0.6629597359455575,9.400439849787652,-38.25647861435267,-47.976709815514226,17.654241224480252,26.001900318805944,-21.562521662988125,37.803889557206354,4,S02
1240,-0.2158335746269324,0.7912144759490947,9.472384736142544,-26.97812186457351,-31.165537152898644,11.872577112751388,25.894285193277938,-20.36385972750565,37.71153592356195,4,S02
1260,-0.30332833303517426,1.1354412959086737,9.599006958761999,-15.517436721258015,-23.63530254494671,18.970298806980033,26.43415533630782,-19.624562280194553,37.601239438591406,4,S02
1280,0.041710236776470774,1.182642648648115,9.858124580193493,-4.454450474445649,-3.9397235778442328,15.827632738243363,25.79253692630929,-19.95189107088092,40.28261385354003,4,S02
1300,0.3370368699578502,1.4730395479898284,10.040294811227405,0.16395143232768206,0.7700398260626689,9.622687730875255,23.0124988373465,-21.199402544552783,42.42331355213455,4,S02
1320,0.29276077259874445,1.8309973183920283,10.302293170903098,7.495839016631636,17.60224570822674,10.773999928130348,24.221738433619677,-17.635057486465,40.95902276054207,4,S02
1340,0.5280732927685231,2.1091578854901436,10.628699869669264,17.230917453891074,34.481028947942,9.359381123815012,25.623981233817197,-20.04671836267078,41.26278584550676,4,S02
1360,0.43894373744163795,1.9989134952787044,10.946113804123565,24.276717246888566,43.836145875829274,8.218703025404967,24.272685999486917,-18.27988078607408,40.25076425276129,4,S02
1380,0.7068802623342343,2.3718803690558365,11.290367319380909,26.884771603186145,44.34951364776989,5.9277431542549825,26.132541168116802,-17.913917032026443,41.89921167945618,4,S02
1400,0.7918138595818286,2.5536064206909947,11.329347565899205,20.158810652419543,51.44569871218447,3.721142418891825,25.32576170305095,-16.98587701967111,41.879854434807974,4,S02
1420,0.6275031546922859,2.571959169224949,11.491921471687439,23.974034340260726,50.561372770942455,-6.821088650033965,25.65068769162881,-16.855591124906525,41.64644973060617,4,S02
1440,0.7711754862719635,2.514197563271348,11.62478671508474,16.33865333935981,47.875716897670955,-3.2981812159789303,25.179534591133503,-15.575138694621911,42.265030912328804,4,S02
1460,0.5638360335909102,2.555589400962737,11.696529358163302,21.58817382637824,41.12944673934744,-1.8389066924941795,24.037625317369553,-16.601349097418318,39.72766927353943,4,S02
1480,0.4176686794206995,2.5110605772125973,11.484835925486756,16.937337869929422,38.44639737073784,-11.001245991000978,24.452975628621417,-14.375440341371805,41.43193395665078,4,S02
1500,0.41371713156529644,2.428351539167288,11.415745633589507,15.361854923377734,16.79064006188041,-10.499953794687823,24.111819205984297,-16.189462205281075,37.87440901696131,4,S02
1520,0.11329857041290581,2.275633168124064,11.347920702650164,8.323251132055631,19.217870558634626,-17.11776327431011,25.273909146022433,-15.072380914370184,38.75414754501527,4,S02
1540,0.1765568885465318,2.2804633344618184,11.275309764602314,-0.9204499454935564,16.596936731040895,-9.896060226674798,25.469508773237607,-14.756478639233242,36.83277298342543,4,S02
1560,0.12641819572492918,1.7301009471634452,11.155936859714803,-2.433991994781712,8.760600322833088,-17.289511527617694,26.7826215004903,-16.196567549792732,38.325773693828296,4,S02
1580,0.16364044304038922,1.6921334196759006,10.839492388323942,-0.4170790523412524,1.089810417716876,-17.34428599115814,26.84876294008164,-14.882469021075705,36.14892505787327,4,S02
1600,0.029937746498917214,1.4730028586080703,10.328239470268898,-2.542427251805563,0.23132855825904253,-13.301550043786321,25.655420869070635,-13.128595259006834,35.86767682889832,4,S02
1620,0.10499541933051776,1.2140553662197473,10.263931929015524,-0.5078395433574614,0.062453372954700326,-16.640660062071646,24.31642200915647,-13.733009025637802,35.869304749950935,4,S02
1640,0.13018147306236674,1.1433269474238497,10.070224943715765,-8.994112012736238,-10.885098573203297,-11.382623372264517,26.097408959645623,-14.068900058793837,31.146558926099928,4,S02
1660,-0.041181501739976256,0.8220473435931035,9.761863463478301,-4.585103482573814,-13.30111392177197,-1.8008728923488815,25.191649854745943,-15.105257186833152,33.59747757593111,4,S02
1680,-0.07916720927298321,0.4859305322114494,9.503261417587467,-12.947959864462838,-22.830436321031232,0.6323665572973839,26.058541272237044,-12.846639422617395,33.948522151355746,4,S02
1700,-0.03531098148352341,0.5214932287312435,9.383510894864367,-13.095954528867331,-18.263960957024604,-6.418499824607691,25.64495084483587,-12.43881502662979,33.75219551416981,4,S02
1720,-0.14329251759951375,0.3998385512688414,9.125224549736147,-20.727181662242753,-26.523148121377847,-1.5523365206791278,27.175629546259717,-13.641638782012478,32.921712438785974,4,S02
1740,-0.43075423574614624,0.24804702125435568,8.985318519063046,-26.295341481495043,-32.1484782439643,1.7924864238268121,26.202076168653257,-11.905246251075376,32.39255290963342,4,S02
1760,-0.36197270343339005,0.2511343502541891,8.937125225739155,-26.136933460624597,-41.94968124296595,7.550346416006677,26.466095832462607,-11.385123356404431,34.87166834880263,4,S02
1780,-0.5086688144958754,0.4084789628547994,8.854908908914162,-33.251357732056114,-49.61909783751802,8.750458126057708,25.933651062815525,-10.620820734905129,33.59342711969449,4,S02
1800,-0.33513050253736854,0.2609791826332319,8.773489198355584,-28.462016082691413,-50.146379607081215,5.987755719815549,25.57267788948648,-10.239104770894667,35.06135325730906,4,S02
1820,-0.6255828270500963,0.4903171918167473,9.125560212172406,-37.56049544318827,-48.750949589269666,12.325702815976426,25.55601345782787,-12.556388701210423,33.84267861123509,4,S02
1840,-0.4678539381085691,0.342605384442891,9.093759637307524,-31.408273565093815,-51.0539551199784,16.71694111975235,27.283017724470955,-12.091319343087997,37.13931814186725,4,S02
1860,-0.5642055199083927,0.6726267292210635,9.259110746997322,-34.743446666360704,-42.00067694982245,10.184131305883112,28.07206016581992,-12.006952890436644,36.55109941082497,4,S02
1880,-0.4705882998370309,0.9688291602094692,9.426228337757967,-22.546955277359196,-41.39584037245952,18.177047577592848,27.37916618363011,-11.07595646127745,36.89192970719268,4,S02
1900,-0.14393438055022906,0.9940649515469753,9.604898071872169,-20.227811568561393,-25.98493565437084,15.83782376215367,27.92838644041102,-11.960116379898281,39.130552814548864,4,S02
1920,0.0378591019666959,1.322401016301284,9.706701521969235,-12.192730291611689,-13.228745488381259,18.612212793602083,27.486336272777088,-10.861901302782051,39.634244344888494,4,S02
1940,0.06333486876640729,1.4937065849796212,9.963522417597565,-4.540244961027556,0.08654979339896252,14.402721337234041,28.352767549825437,-11.815808696895159,38.73507217599725,4,S02
1960,0.27542214022796085,1.6019698819428128,10.304160600136072,12.66792616937374,19.77458644345416,13.992250682923448,27.08863556326089,-8.838282801891625,40.56008647568014,4,S02
1980,0.38426474714118475,2.0602178116006615,10.589806776257051,20.851415285145006,28.044753441059626,8.219175851545899,28.22933998370792,-9.356371686900207,40.3787420899848,4,S02
2000,0.6396170032137249,2.2583357971558606,10.995221763264553,21.106685482929223,38.39257860947286,4.962145591074709,28.434571550693203,-11.212682696328223,39.930259857417326,4,S02
2020,0.707091543361949,2.1773774121127323,10.999047451020202,30.382196626456466,48.22105432840567,3.8727243329950363,28.210436388335516,-13.053488988864073,41.349542445451185,4,S02
2040,0.6264806531832718,2.665728137835912,11.246837240642286,23.47658377132481,49.01887069060751,3.4221615529306884,29.32684748839763,-10.37149681831343,40.0401863568333,4,S02
2060,0.5448588760754335,2.5635795265621972,11.470151606932058,28.572711945324908,55.76176430763787,-2.401801391593487,30.22626591307075,-12.919981629062406,41.22933726811171,4,S02
2080,0.590340786814775,2.5638725030215213,11.538913940569078,24.878939135261543,44.029752361398494,-4.062357923326017,30.32713392892193,-9.4419886894365,41.19097633437536,4,S02
2100,0.5723587585192537,2.5041542933772964,11.48003590792723,20.384115462551645,44.02160072405668,-10.16726275868112,30.89518519551738,-13.109171927067486,39.8160007356578,4,S02
2120,0.40568457759205434,2.662702282300593,11.502020186064433,14.557255302474069,31.836253247825073,-9.967023099199949,29.760397134274882,-11.495027767793296,41.05694733121607,4,S02
2140,0.472421117649255,2.531090563883295,11.516659107784914,12.343010159094217,27.78260507181398,-15.867192373140634,30.30803266742591,-12.550843735159964,38.916994730291584,4,S02
2160,0.4965605659672713,2.3387858937709867,11.17946422631215,7.066809091471407,18.625728441548823,-9.59438683259385,32.363123217432246,-12.893824420597376,39.30144004440516,4,S02
2180,0.24800561638377425,2.017642877998074,11.287311035332866,0.8581907361225607,17.782110419013012,-12.918992505971266,31.574865120733385,-11.304787291854556,37.60667102636639,4,S02
2200,0.0853607830423594,1.9522987573718995,10.889742193727768,2.858181214906007,11.666392558568958,-15.540091765666672,31.483080214182987,-11.42177193267753,39.5916061847971,4,S02
2220,0.024084212293163418,1.7460916450855328,10.799892570919296,-3.124577341887309,2.9865173483576894,-17.810146862495237,31.516506078475672,-12.818402785037122,36.69137775363144,4,S02
2240,0.10798599255011346,1.4482570570640916,10.531168174142456,3.7132519739147254,2.3070102805970505,-13.086574265458971,33.62236460098446,-13.3289038304362,35.07863375034695,4,S02
2260,0.41088272468053977,1.1970723927555644,10.402054742219864,-1.5164238845817266,-4.071387181191533,-5.5012346535071455,31.69478574036122,-13.781268606984746,34.98078248094711,4,S02
2280,0.14290757882114938,0.9810744857328546,10.0804039080428,-2.6083423288984706,-1.8692584712079883,-6.466337580204322,31.756954135656358,-12.572166679596219,35.381176332712286,4,S02
2300,0.09835336484837458,0.9957431024477323,9.837742427678855,-0.41478696803580917,-11.170272082508149,-4.705141669903045,31.51989240081314,-15.144036021849482,34.607186423925285,4,S02
2320,-0.07740887829264051,0.7378923204646097,9.694913552454514,-14.1879576781838,-9.30316106186475,-5.167627006372548,32.87394331298307,-13.234052024074543,34.22926336389321,4,S02
2340,-0.019062947504396383,0.642787738183394,9.260341056975456,-11.186412950499662,-17.328290617358462,-2.7880919912092605,31.30645123141865,-14.732423772006374,33.6081349904733,4,S02
2360,-0.050533873612431196,0.2477200564539061,9.254998970296898,-17.527322769721525,-30.40892673141976,-2.5593593927784424,31.450617152347267,-15.88655142965571,34.39230991749219,4,S02
2380,-0.203026793707656,0.4816293311161532,9.13331125316863,-23.542367598157323,-34.317304124547796,1.1566474304127372,32.542030168533636,-14.982196570612956,32.03328739609177,4,S02
2400,-0.3889087527474232,-0.03603292942688201,8.854723180408634,-28.646538261163254,-39.83929687986382,10.734015195915228,32.5684781503837,-14.895506084479306,34.372853476610786,4,S02
2420,-0.48462275992937554,0.16182477639445528,8.74021090067122,-27.419105423630054,-50.03394707845092,4.915794167102958,32.26041195934867,-16.271863481638796,35.38031083814522,4,S02
2440,-0.4171070256384176,0.31475675542581183,8.818638985000494,-32.68752654463692,-47.52628931290087,11.643695712169148,33.34331126622331,-16.59513442557921,33.56765957606133,4,S02
2460,-0.4158716989860244,0.4004718500675681,8.92235425011295,-32.30841445123489,-53.96595055164062,9.227339803885448,33.00566090601012,-16.578833016948824,35.9818026166838,4,S02
2480,-0.39050387426920596,0.3877161029194985,9.140925995989152,-37.13849244466428,-56.72160221378746,19.471153737029987,32.235448344808106,-18.5610636485793,36.59826845570099,4,S02
2500,-0.4711232208093533,0.6717175035533232,9.054876233093895,-32.909262721887195,-52.13203736439591,11.467119969791572,32.12286096004064,-18.170180975968485,34.903564183850335,4,S02
2520,-0.3001933041342366,0.8800516713624034,9.315569744377457,-17.71639101769428,-35.40716266128894,16.760327505305476,33.17291798129316,-18.437779844496347,39.2236209873986,4,S02
2540,-0.19371138823734943,0.9978216448548838,9.429948402697336,-20.624256537314555,-25.2843291215606,16.396419281354227,33.3628468831549,-17.570178894838907,37.48394121749157,4,S02
2560,-0.1549015567603856,1.1842838431058091,9.69951717543552,-14.411537678793724,-12.867108496155547,17.054733933207824,32.8659814583729,-18.566299004926385,37.66296764078418,4,S02
2580,0.025929708219421643,1.3762895559888462,10.040587296401013,1.504901379576907,0.9433310373201198,9.253737276933753,34.736196001081936,-20.070174986529313,38.76565465473789,4,S02
2600,0.2287675714014473,1.8078619273734255,10.385283017245081,2.5215721692013604,16.639384388912944,11.980789685792345,32.079959848545,-18.21703887612629,39.18958069835452,4,S02
2620,0.5357469233368293,1.750401012968963,10.492806027731124,11.558546163501099,34.89700160515725,7.055658190527607,31.022498275181402,-19.404104687698272,38.883492388098155,4,S02
2640,0.48112636855582125,1.9647951466376272,10.744307086446016,23.174182513598534,37.34527795386361,10.34901504704471,31.45716731322819,-21.433582442157455,40.13378119676475,4,S02
2660,0.4608067548013056,2.1777137596151324,10.962261763352465,22.645831036544276,50.82219682469764,5.269085882095727,33.17610233042895,-19.394879813431395,40.63864419109396,4,S02
2680,0.74298094830039,2.401570733018888,11.287286887993845,27.920301924815522,53.9043807796915,5.797808215408339,32.921908029534826,-20.0046439054736,41.25140085156005,4,S02
2700,0.8392740762611182,2.421706573418061,11.464223455661047,26.448839964087863,48.99617289616652,0.4690097582382989,32.20288206985403,-20.448470668567563,40.919421898685975,4,S02
2720,0.6543641633490886,2.4495402348267055,11.532280701324932,23.55993354262851,50.04024115881507,3.0248456358321487,31.199221059936008,-22.524100126685923,42.25723058493194,4,S02
2740,0.5124019115324862,2.566943217246963,11.665913941242696,18.38348441498331,38.135191039731545,-3.690914971732059,31.459099010315043,-21.767270345587725,41.91771706714457,4,S02
2760,0.4791556111042724,2.514719840962931,11.54680064360984,14.084746481599954,35.01628477434437,-8.560218944112213,31.237464538209448,-24.08735384696593,41.267554821885255,4,S02
2780,0.379136691732189,2.4939530714018456,11.479604341747825,15.728025679656884,21.829518492536852,-8.16027704508587,32.19145960562219,-24.071619318458666,37.80671283619692,4,S02
2800,0.13436464997412512,2.4470519509706192,11.613759859333243,8.629531243281885,19.791942998310887,-12.701278356782076,32.67848371614569,-20.41034172301503,40.662250080664464,4,S02
2820,0.1539330728853135,2.3008317999619234,11.071848271017403,5.315972120286745,14.226020670222416,-10.748678126658062,31.089683506847003,-21.93344834848501,38.616958205497234,4,S02
2840,0.23794103765674063,2.190690829307712,11.013830188915982,0.6208231769679555,6.053071105334274,-17.673767029093256,30.81108724583504,-23.144638986569547,35.8660120028744,4,S02
2860,0.28529353437545096,1.8432107732146432,10.972119661315865,-0.20836584065029484,7.480613015808053,-12.39593013449718,31.805174720547043,-23.42551783512774,36.82670405413952,4,S02
2880,0.22347142584111285,1.6072151165322661,10.657879574119145,1.1717088044692359,3.947354793653737,-12.818147771957223,29.937500005054854,-24.502588051335458,35.00446130537759,4,S02
2900,0.13713563196866235,1.5596772659182154,10.485309868135397,-0.5116602379588837,-1.4569762751077215,-15.510534169620813,30.091450940484723,-24.394618875407037,33.37278673866985,4,S02
2920,0.23646021923441432,1.2136582369577105,10.236353127970819,-0.1685262633041189,-4.786489310094616,-14.249113123680326,30.441488363384927,-23.046113595033187,34.714935700549155,4,S02
2940,0.10474846591776217,1.0403457861207779,9.913409661499838,-4.317957424265279,-6.279388186638438,-8.020292115243384,30.69118251098061,-24.51170969980374,32.81702630234717,4,S02
2960,0.14798794430799922,0.6421405962164439,9.750398570042439,-5.273825159040779,-14.60549387207314,-8.49706262113169,29.240876866444502,-24.931375840362644,34.495726859056774,4,S02
2980,0.03912342457612987,0.6353252384946513,9.32044607727885,-16.459174126365163,-16.068320002455618,-14.953887255401346,30.634945532902638,-23.46435222679801,32.69873295925963,4,S02
3000,-0.1534331156513846,0.43980384520383037,9.185216228958293,-19.497224435092296,-25.960264828296697,-6.280407286659432,29.214432958373962,-23.084263309673883,32.86399455998621,4,S02
3020,-0.2562729542000556,0.19711729259145605,9.118368233592713,-16.13525848976271,-33.215881614349726,-2.9487301479927166,29.918265868386264,-26.11953201102974,34.12142988440815,4,S02
3040,-0.43412958771842747,0.24800021169165165,9.079931731089625,-27.534962042968345,-33.50659491202597,4.759959054517614,29.69476341221233,-24.150652535910233,32.267354781973424,4,S02
3060,-0.3025599645942336,0.27785346287148777,8.906462993000524,-25.733692763610186,-46.55914658035571,16.161347600280948,28.94487068274501,-24.71246418270007,35.260097266640116,4,S02
3080,-0.6472206545550152,0.0074122965468251395,9.106607344446294,-30.494570124498892,-49.45006827757192,11.238067220158056,31.07263342450013,-23.878181080203625,34.59825366752692,4,S02
3100,-0.686633626410242,0.22357119546614518,8.94991106380984,-34.99282424651435,-50.88764663023132,13.52341525035274,27.737533837569757,-23.81779841218478,35.6472436195466,4,S02
3120,-0.5686574439221606,0.26114783719209683,9.208111139674193,-33.06202560600541,-50.93421334856151,8.575808361692678,29.378282283307072,-25.036884752069348,36.009107585854885,4,S02
3140,-0.7444682243871559,0.5555342810180282,9.030550631993815,-35.54192633600105,-45.88245771036973,15.34053140365419,26.7980191494174,-23.4632969424574,36.11288410473794,4,S02
3160,-0.4775002170895586,0.9029413335943808,9.372361982760053,-31.698822551738214,-44.05130758715968,17.15679625943753,29.370472781188838,-22.886064576327605,37.100671630070075,4,S02
3180,-0.4732094878728905,0.955443353502176,9.588673095163825,-22.912428397359932,-24.031537467242917,12.813833158525329,28.143481123292062,-21.66786248237107,38.185132069019,4,S02
3200,-0.073388312732238,1.3280108082262267,9.819560519720048,-17.583473198441435,-14.792535044249197,17.325425351197506,29.34978343313288,-22.688324137018732,38.56904089805524,4,S02
3220,0.23009110932638122,1.3873340005559376,9.864440437126845,-2.7836340456832462,-2.770549132840719,16.312585910936704,28.365409572726936,-23.634651494791065,38.328465400347596,4,S02
3240,0.2852839819141238,1.5856751770947652,10.455951611744789,3.871941807292596,15.493161972985973,10.937855831792996,27.21737750841522,-22.977616197879616,39.42388929842256,4,S02
3260,0.5629219749167235,1.719444565623328,10.61287075550933,13.143047080205164,28.03437041862337,4.759587795360294,24.07115643661455,-24.163511998543974,41.64961904323667,4,S02
3280,0.7109739062224507,2.068446679985387,10.91964004972885,16.075331414819228,37.81861988653257,6.159401428591522,27.523041605378953,-23.616773337831685,40.157891019995674,4,S02
3300,0.7766465102677924,2.134392765408959,11.060248044107665,20.08834526651839,39.286634590482606,10.961933135592949,26.12929307950576,-21.375710912480404,40.99231877272458,4,S02
3320,0.6231272172813835,2.4879123217201973,11.167451323120304,24.529493614329986,50.7993251296049,5.329430276035396,26.38134027237868,-22.178398458999066,41.26581451346845,4,S02
3340,0.7296977990631373,2.483409036095325,11.215699624629018,27.38047098693031,49.98001273931155,-4.6061223136996405,26.033573906611835,-23.45763868426336,42.459711874015845,4,S02
3360,0.6427457438451202,2.405677638434884,11.454664266993257,24.284685447816052,54.22128794060093,0.7955340673476127,25.78337676553746,-20.107961655182628,42.20697093584895,4,S02
3380,0.5448137299306182,2.397781274999611,11.547671577967495,26.79405808811916,47.40168680633796,-7.910676381304057,25.079073065769812,-21.288929961593418,40.82608530000229,4,S02
3400,0.38215063575609176,2.654236881872555,11.61074074359454,21.159520889531553,39.032208006844336,-10.062774202520092,25.99802081086263,-21.06567324266625,39.75891307516693,4,S02
3420,0.3489132152888919,2.3633392301969605,11.580473091454841,13.377089138020999,29.532489703106297,-14.367515471320996,25.030316715865062,-19.069021866784468,39.13832657619321,4,S02
3440,0.36262218079577957,2.4682077502298854,11.315325280208539,6.134040658722385,28.635421357757405,-18.95906937334535,25.3563422552214,-16.85150506389894,38.4754250180708,4,S02
3460,0.1038722952873395,2.164189071333905,11.252093722445466,2.947878496602489,19.293200314595822,-15.671126814156077,25.34790503974468,-20.038789693510253,39.39868858138713,4,S02
3480,0.08391704012964055,2.0870863941401985,11.14615161977171,5.12150104921241,10.594586662753594,-18.66642971287282,24.236281408664933,-18.39100169039478,37.86182658898719,4,S02
3500,0.22002301275794417,1.8019066626490805,10.885389035168318,1.7732784392279273,1.9607340447437178,-12.45301601990599,24.530900185238792,-19.55361438240805,37.85803029491472,4,S02
3520,0.1844118091412984,1.693271947367604,10.508716569666648,-5.189892433963109,8.765891292481143,-18.025758596323996,25.321292200138277,-19.057896254758212,36.09380967033405,4,S02
3540,0.31010595623525355,1.3489476386754509,10.498665324535342,-8.95380414243983,1.35509089421534,-13.184853606538514,24.877545731507414,-18.394773067435587,37.41530610900527,4,S02
3560,0.03873599556220841,1.258982659105896,10.224678197991407,-6.285361949491626,-0.49900797133559815,-13.985253946877814,25.713058482680754,-18.83469387594652,34.66626761941572,4,S02
3580,0.0897830071309345,1.0460680621388005,9.962464516731865,-4.63631316468164,-3.702132634045846,-9.182503746595488,25.35581522736225,-19.013290953638098,36.10458103666434,4,S02
3600,0.08901707207869686,0.6285392436696295,9.779739725918168,-12.210863943834596,-5.994990747085466,-10.502206416967939,25.60373328424651,-17.686992537067614,32.60021999629504,4,S02
3620,0.01180334492190628,0.7623685366738571,9.258972867280574,-13.305693891301836,-17.716758702322455,-7.449741404807115,24.82142356097021,-16.199718690625595,34.090916908176055,4,S02
3640,-0.11211115315951758,0.3137215500853621,9.27683722675891,-12.165594458665625,-27.135036530619875,-0.6219069688681361,25.341750212100123,-15.64049704495411,33.91090950012199,4,S02
3660,-0.22544537697245423,0.3766546539557564,8.998254330065622,-20.489588478392612,-29.207352938009528,-3.9222003470344045,24.229031515504843,-17.16570266866855,32.677717875218924,4,S02
3680,-0.3334243476824934,0.2904533708575094,9.141889035164562,-20.70882318974068,-39.20189130730167,2.897822346349601,25.523185762384806,-15.798312186970808,33.47041996434325,4,S02
3700,-0.23977877443443293,0.22634591964324008,8.873461507401302,-38.08780896664882,-40.443143059731156,7.024685031003915,24.63097203670715,-13.809308064050214,32.51210651776417,4,S02
3720,-0.7056268382215007,0.2817421296502139,8.950924812177258,-30.25882433855632,-46.410178928460766,9.489607151959698,26.058061970193304,-15.835013122022287,33.06556992254623,4,S02
3740,-0.4211138566337028,0.11563679273138328,8.925713737628213,-31.166221300526864,-58.239190670598965,10.508776984782788,26.67180633862445,-13.984663090567707,32.742986137546936,4,S02
3760,-0.5625182571394574,0.4612856631918196,8.881864621841931,-32.856433183395986,-52.16177843818937,9.685028248069555,25.952556958676556,-15.115210857460301,36.38462621941687,4,S02
3780,-0.37425278091070113,0.513254995618371,9.043090930797915,-29.05523747767562,-49.213983062738805,16.328334785639058,26.260747030655647,-14.122723129282239,33.89339420198556,4,S02
3800,-0.4014771584213034,0.8550601016198744,9.426106400237027,-34.44174630613601,-36.8287402656435,14.426699984806914,24.89566573697534,-14.755690365441428,37.07876530782588,4,S02
3820,-0.19305316458801272,0.8108135079139951,9.281495391439364,-13.562012499195259,-36.99998261404693,11.577972238525357,25.676140776906976,-13.199889305523351,39.336827083636805,4,S02
3840,-0.1498825229386124,1.078547779910864,9.875855395760789,-14.2453152009864,-20.301098727150634,6.613954348021588,26.12863945573496,-11.359446119443206,37.76772885993309,4,S02
3860,0.40037126867514927,1.367050745914323,9.900296576247959,-7.721806918451936,-9.968936822604515,13.173952892349538,26.720314827300932,-14.085398057075956,38.71184297540318,4,S02
3880,0.26910002258297194,1.5458526846833809,10.153330921954023,-1.684657483787288,0.9973287576580667,21.310858668760666,24.27029656939058,-11.827219294893977,39.881781583721285,4,S02
3900,0.3648089018543993,1.7257414587595812,10.441355113691346,15.97637310085317,21.13996980758926,11.456699395863808,27.232203048367317,-11.157475739105948,40.61590522569586,4,S02
3920,0.2942103514062333,2.232349538789479,10.827167756073475,17.812122262996105,33.31276802138732,10.347438452075233,25.467645561206588,-12.415450311982275,41.55932537131476,4,S02
3940,0.775576153484716,2.118740902855528,11.09098863366762,25.481347345070663,52.62800211524248,6.210506552822248,27.120415382782355,-11.286159663491635,40.42568603994882,4,S02
3960,0.5866026581377181,2.349237041601338,11.167267102744427,24.831974705482956,51.339581371709656,3.5624153505932976,26.168100326997557,-10.010569759659173,42.71355155812962,4,S02
3980,0.8186648075878934,2.4885218165120393,11.414915587858205,21.887987306075797,56.98987147811752,0.20047015434190607,27.912487615432298,-11.290697675163795,40.64313436904054,4,S02
4000,0.592802690479562,2.4042351170515204,11.37671736642412,22.510081963312135,44.89813682997337,-1.0897055516554226,26.813227372009635,-10.293482996418412,41.49014005439831,4,S02
4020,0.6275672706824844,2.5627700739706993,11.324966537609257,20.352937821671713,51.19379369390897,-1.091225642686982,26.910631742184048,-10.305594053702336,40.53244340025075,4,S02
4040,0.5649815564138996,2.639314298432724,11.496358402913625,14.34169646729173,42.94046771632183,-5.924088976127866,27.975693623725153,-10.762490932171302,40.383383890433294,4,S02
4060,0.41844286691708843,2.5560384429597574,11.572075594849512,12.250735562097642,26.882497623736676,-11.32441416372567,28.385930922508027,-11.177519764123597,38.725747106741004,4,S02
4080,0.36078960246728375,2.537495055140949,11.487198788668412,9.906813220903796,26.542880913017537,-13.990578502941647,29.207913737480517,-11.412766850424328,39.22814905511482,4,S02
4100,0.2531674779253467,2.2940912985583135,11.321296071913961,9.727866636609455,15.0542066349654,-16.779462722895758,29.12588036914361,-12.058693128950093,39.977433602024774,4,S02
4120,0.5021511331313329,1.9728137905369019,11.123217122945809,6.192205303854316,8.419031169048983,-19.643883349844693,28.407957764134164,-10.758946332539352,37.754663740267866,4,S02
4140,0.015448323145291237,1.9064906356892428,10.87851400923705,-1.6673577531834516,-2.569791797676685,-22.458589658258973,29.393556392515947,-11.610635727476748,36.89555505234265,4,S02
4160,-0.004018179258213489,1.8769535399761796,10.713218517964103,0.9529505083006606,-2.0725230951934197,-17.309320716294085,28.141223301147697,-10.17809200155547,36.51678694036832,4,S02
4180,0.042163614949644365,1.435467087919835,10.51731903401096,-0.441733967978335,-2.1833078311303886,-15.947309711796242,30.007991597931735,-10.312857520284078,36.06116753829905,4,S02
4200,0.07165775429254441,1.1976642807854212,10.26233245649008,-5.231407566472749,-2.617597954777899,-14.130501958235477,30.371177188416162,-10.316524910290344,34.33085031774183,4,S02
4220,0.2963902661506972,0.9628354570882092,9.89453426033156,-1.029721635330505,-0.8342632215141641,-10.081591682472052,30.30393883981125,-11.270824551616375,33.51124815098042,4,S02
4240,0.014663644433049697,0.859698257817143,9.765952063353726,0.6297220470860241,-13.46622650690314,-6.103695931789708,31.066399363850188,-11.316094718396737,36.88160477672855,4,S02
4260,-0.08184823419772336,0.5317016194184987,9.552834845702263,-14.764555590416592,-12.894340744967073,-8.235306974336625,30.895567303908845,-11.002309103536222,33.17324745923368,4,S02
4280,0.011113764460213865,0.47489866645756723,9.147200003829528,-11.0875975412979,-26.363627649424494,-8.849158979275915,29.99661399196321,-10.595914473560956,35.20394189191654,4,S02
4300,-0.1303319038149103,0.14578110964290425,9.129334180402456,-17.800725861467985,-29.98232149387062,-5.705563297739667,31.532139169617942,-12.401470747296859,32.377148083331065,4,S02
4320,-0.3337947980612367,0.40291846467541736,9.222436522609367,-23.953921758649198,-35.64375747148168,-1.4087140241280243,31.423861601433625,-10.956333280057114,32.94182969319626,4,S02
4340,-0.2397022564700028,0.29145788704438563,8.75114147716286,-28.627309942238803,-44.40620631999725,0.5335381527006303,30.548735185649413,-11.342670956288522,32.75503986164159,4,S02
4360,-0.4232193979604032,0.2991181586006476,9.08604275054176,-32.114556132773146,-52.79807054866567,8.291324297653913,31.302152234647814,-12.334290497017514,33.86600852033352,4,S02
4380,-0.4078695451642982,0.3385793159871098,9.105344980001131,-30.144842870244982,-53.38120781040951,5.37323909526381,31.1169939198963,-11.594499804935793,33.76233210518261,4,S02
4400,-0.5741631089119137,0.19835240338925852,9.17530413446963,-34.15706997985333,-56.46932738558419,20.009415990383967,31.819291903943473,-12.715030710935718,35.866853664201265,4,S02
4420,-0.5875983251234388,0.36040000798507627,9.21613184493089,-28.731122946618047,-49.65199667887832,13.595885177672919,30.29161177641896,-12.945977787663741,35.012222027160334,4,S02
4440,-0.508661809719258,0.6512149534831255,9.322868214876431,-33.48030526651558,-40.968514150207056,17.251894968916538,31.38134591625115,-13.404473806641176,36.03522635926475,4,S02
4460,-0.31993203361500666,0.8641845278229612,9.42705807527184,-29.219515376563717,-30.160152593094413,14.342783238272057,31.79687023770752,-14.929370218932458,37.75661109802501,4,S02
4480,-0.27358274817633066,0.996922893268005,9.46788616230867,-14.435719827351377,-20.689417945912485,10.047420489970735,32.56012842097425,-12.909033330611972,38.2150110413597,4,S02
4500,0.014271572427596232,1.3970371562190858,9.757341556251586,-7.261566151869289,-10.66245986999116,12.740233418268721,31.10056767906608,-14.939068575119403,37.100572090145974,4,S02
4520,0.17243273505312745,1.559304158715841,10.027726432178374,10.487650158525327,9.500922962531376,13.701913815236113,31.60720153905044,-16.650584862633284,39.76527703352531,4,S02
4540,0.5751997151756651,1.7838093418092897,10.490651481162269,8.894000885332744,21.107291554545053,10.682872578539238,32.64798341107861,-15.473424342179122,38.625262160105926,4,S02
4560,0.38723396072132843,1.8459614663404578,10.835781192484843,18.06986650276485,31.09835902772046,8.803306548923272,32.260476343501665,-15.166732549154457,37.62082422510626,4,S02
4580,0.6202553283541508,2.008415223003792,10.69202525985692,17.945917313050998,38.94417320537812,4.7095810320616085,32.07395030573696,-18.106522388143034,41.75690388734213,4,S02
4600,0.7322649596573767,2.2518352482614916,10.964345133331252,31.752950351665934,47.35298789194131,5.630958682563904,32.19168740194499,-19.292616131095095,40.381238185657054,4,S02
4620,0.4938031595081217,2.558946655886364,11.098623171185492,28.899023461378963,56.371465107968525,1.2222865084320613,33.21279706230467,-17.809881026946854,39.59640999430271,4,S02
4640,0.7074516666473444,2.495069170972909,11.42330438399192,27.386918679609092,50.57797656262881,-5.058391940260272,32.351728643882176,-16.414646405870236,42.62602077311682,4,S02
4660,0.5192540084927243,2.49110010487764,11.51193593720289,26.126246699652665,43.227184354639945,1.4729459646664034,32.60290770589947,-17.870741657696932,41.24475599773326,4,S02
4680,0.4722145612318801,2.7609381930067682,11.537103036322618,22.980401649876477,43.27378495332051,-3.175370006416171,31.663144078829703,-17.21096073439424,40.53612354827836,4,S02
4700,0.545568202223258,2.820517023050929,11.53377711915587,15.44180070871008,37.10470224157005,-7.366464409247551,32.781801335947726,-18.16327044692472,39.925037942845506,4,S02
4720,0.5638649214888435,2.4601279416210673,11.331176074277105,4.662575033672749,27.095108168899344,-7.2141974785537775,32.906230157587274,-20.17264391745063,38.81121315201173,4,S02
4740,0.10451514583514648,2.243592136836505,11.432707812864859,8.332567668084206,18.778361911274192,-8.7701964548346,31.792478398803404,-18.0787081717207,38.54120716943173,4,S02
4760,0.2746183941809035,2.095477891095847,11.06939952529744,3.4052540662263713,14.318525786848074,-13.215350745011065,32.86953377593169,-21.541519263924535,37.755080305815525,4,S02
4780,0.1839213418920687,2.026514481335448,10.936288821282698,-0.5811268506543099,8.03335637005492,-10.72506998257344,32.97641287470435,-19.489079787918058,37.841260273482916,4,S02
4800,0.039820510452354886,1.8239064785962458,10.785469959282663,-6.367938032605673,1.4162484206920027,-17.413589058093027,33.64874703430422,-22.56258502602203,37.17032372541929,4,S02
4820,0.08979785160687556,1.6088399182030135,10.56868108153648,-0.5289986502318209,1.9615446182769818,-14.36433471641458,32.62069593482771,-20.095256737603993,35.775050916011125,4,S02
4840,-0.11420934223404372,1.413428457532906,10.390958041588577,-7.750885384302919,-0.10899543240713583,-10.72971226968449,32.080696472129794,-22.349644073066614,35.980281273133755,4,S02
4860,-0.005164222060879006,1.0777388445396416,9.901886045889356,-6.831781262212145,-4.545296267493466,-11.155449942839953,31.285866085599288,-20.72758332973035,34.63952370491262,4,S02
4880,-0.02358779295495657,0.9137002127737563,10.053655577778326,-5.581687033238027,-10.989439693822526,-12.538923844083671,31.279632692777447,-22.261476853991173,33.93516770150798,4,S02
4900,0.037176660026567554,0.7170219931213269,9.515858119353855,-10.983418258626546,-16.172189035983354,-8.898196033981327,31.816243258497927,-22.19567821719631,34.33237655192848,4,S02
4920,0.14956409576560303,0.480150657285683,9.315771152566663,-4.366420404502331,-17.096496655299397,-0.953860393407295,32.439985167916085,-20.238053053760304,33.23065835524049,4,S02
4940,-0.30417142738650893,0.430211730586548,9.30107396799653,-17.87017601673596,-26.434824122662796,-3.882063893146763,31.936132620352556,-23.318949463626574,34.07114385087322,4,S02
4960,-0.3264687925284009,0.38688329406248817,8.972240039016627,-19.587116924988145,-34.831611332139246,10.76933579485369,31.987189072741288,-22.918246076873494,33.05808754559712,4,S02
4980,-0.2849538913622356,0.036026952135801885,8.930241132752002,-29.459678631120266,-39.87365095935572,4.63113006319855,30.85224022988497,-22.30561533654736,34.20355971369649,4,S02
5000,-0.6796317490557258,0.17837916139421353,8.807972981661777,-24.463655818092843,-52.62120941241464,7.606778714438602,31.200022251909672,-22.019540102652442,34.45629311154225,4,S02
5020,-0.6081368202897552,0.028266381934449955,8.879230297017264,-32.47357566113941,-49.88256742613105,3.054354975106883,31.8603258695826,-22.624246201684546,32.31989596630318,4,S02
5040,-0.5362934726232388,0.2402969338940567,9.037049565881166,-35.31386333449913,-52.08995839023152,17.384738101273648,29.386931579210472,-23.448068848334692,35.82159990024003,4,S02
5060,-0.364395886794448,0.32584608743197024,9.15463811312458,-29.82856832085443,-50.75733322585761,7.264918019295792,30.51757592606395,-23.703531880272703,35.00479812751485,4,S02
5080,-0.30758327984984657,0.5617478714940043,9.354204804615554,-29.998598479815648,-46.75771471146943,19.84092769096084,29.67874742194306,-24.19872264809096,34.068461713863854,4,S02
5100,-0.1205275081203398,0.8821012067875356,9.239414884868937,-27.925279123907888,-33.46904276047936,17.53493736483432,30.80409033837272,-23.268496612849468,38.48013037207139,4,S02
5120,-0.15247994850922283,1.0595769395451409,9.437011508763545,-6.2958097159598685,-21.404662352596215,15.661797468594866,31.453446236794306,-24.244757142694823,38.65694706440413,4,S02
5140,-0.12899796448125567,1.3135818787888096,9.766015333586672,-10.595128469488763,-19.31082904494556,17.279172589931843,28.458117456673364,-23.678820008865593,37.26445838402968,4,S02
5160,0.2541786704099608,1.427375440664908,10.058519068018668,1.1793391752690967,10.098481222722015,16.20067349061762,28.23009551344466,-25.20811536132292,38.831137825193,4,S02
5180,0.27011682181084523,1.817768888553968,10.300786868336615,6.909240604965858,16.00317278305663,13.770437424285893,30.241789737175573,-23.009388246855938,41.8404830432839,4,S02
5200,0.6188911909864918,1.9603492801678273,10.683277014430306,10.100074284604226,30.513066160478083,14.965358968611762,28.57105693502104,-24.7664506027627,40.68991062200178,4,S02
5220,0.6839272524382661,2.0571375342084957,11.05058842169144,18.043190669454717,36.860424681622,6.107233376861485,28.832131827927167,-23.698031920813435,39.31781156710463,4,S02
5240,0.7784792319466706,2.3784370488639768,10.915988809525054,28.827428383174404,44.18658845382396,5.6368491493045205,28.52763688876482,-23.59488899227103,40.74818798331785,4,S02
5260,0.6921455807267303,2.3592350318893334,11.301759782340909,25.35520255903307,47.19921661015032,-0.40729556719654625,27.98618845217295,-25.19034638545192,40.68170858529335,4,S02
5280,0.7775647094036403,2.559423731316559,11.410323444783153,33.521781436643444,46.36706338177146,0.36894458102717953,28.204548681548832,-23.063852131973032,41.49881191831515,4,S02
5300,0.743404609026691,2.608561340826924,11.370708465731772,26.084866152829893,40.5732439709678,-6.267541556575622,29.681424844931172,-24.353193960067756,40.23259045011376,4,S02
5320,0.29913740677788014,2.6273885110887854,11.443257933752117,17.34574609962684,42.59497637140393,-2.170997446103302,28.43519954090379,-22.200271910272093,40.99864761110598,4,S02
5340,0.6214631977444004,2.5747054405714542,11.391230592295278,6.755915616215481,39.75664576214821,-10.317562880509708,28.870952940627035,-23.466598980675343,40.36021314259406,4,S02
5360,0.36921477396939395,2.5444797097175225,11.514977354364762,11.127480190536627,25.287149482651724,-9.949131423703845,28.395816468440508,-23.23154571221638,39.50046992047235,4,S02
5380,0.3180188703309717,2.3224878637832598,11.170429993368819,14.922713305583915,13.842743236573497,-8.341734256508113,26.913150819848696,-25.228244272099428,39.50266152672051,4,S02
5400,0.10757354687568518,2.114466187796436,11.233438338143554,5.80722795369119,13.716142304682139,-11.045636416933945,25.8916389399086,-22.482863851319138,37.918005833165445,4,S02
5420,-0.023099207619752232,2.0514915430423115,10.98595774097346,-5.081280886670869,12.421393258393833,-18.473274207948418,25.917052814702625,-22.36262380095359,37.095393940311105,4,S02
5440,0.1859236658488591,1.7874578779553794,10.796365129516689,2.5524586449876194,2.2492196451914115,-14.763410036677014,26.101223516846662,-22.508247508626656,35.91600405807087,4,S02
5460,-0.07603774321306955,1.5601472022692853,10.435472704482772,-2.687839866797312,-5.097539331487332,-12.357068209802382,26.07118306045792,-21.93278660079524,34.685192200214104,4,S02
5480,-0.023941017649541166,1.1538545959810607,10.488994402071603,5.110411066136453,-3.7049528557427474,-13.6363525953487,27.371829424729167,-21.603271057991247,34.58349135407916,4,S02
5500,0.11438158066198462,1.1612087885570406,10.168296426154392,-3.183382435260245,-1.423497375543347,-7.26332596483163,25.89439945160664,-20.576790700449212,35.70955953284382,4,S02
5520,0.02961212350854965,1.0373233590326914,9.838123769526252,-10.266972133520468,-9.728086746181548,-7.1281674922324445,25.379928347875087,-20.802006705044228,35.060345496990166,4,S02
5540,0.08208880142680673,0.6998605824541404,9.609509954709402,-5.013520035471369,-8.003585258344291,-5.953659172118652,25.559657636301942,-19.5554393132102,33.20045681708349,4,S02
5560,-0.1728386656381082,0.46860534922084934,9.228845630024342,-11.954535664026658,-17.889552596327373,2.722176581731477,26.922570037601623,-20.438666702502285,33.357135956589445,4,S02
5580,-0.17525681858107137,0.4538992999764793,9.17244882189121,-18.183239829563924,-26.696416521400643,-1.1061028630454173,24.868544161219944,-20.850415356173112,34.09083040522502,4,S02
5600,-0.2702129693984884,0.28446501812018066,9.149074807599458,-20.023104239326095,-39.23011989558996,-3.8620576200815413,25.990568091743455,-20.685494793112063,32.89019902391129,4,S02
5620,-0.3898978968223318,0.4104831066505143,9.00950806723474,-25.059367098809954,-41.491123089152495,1.2817314720797044,26.558163369993572,-20.107238694771493,31.424294507482397,4,S02
5640,-0.48902214656236,0.06610918943965446,8.89503944893736,-33.45355599120977,-49.67848349712087,2.1703777527708117,25.911221257766755,-20.20538851053144,36.80029563793504,4,S02
5660,-0.40843440414127263,0.10207426238127826,8.804961782795946,-36.014193779824986,-50.372581058404265,15.879834357644311,25.969848677538458,-18.018004960436556,36.22595552991955,4,S02
5680,-0.5027387714630742,0.32257013845094934,8.844863447881131,-34.644535512733775,-55.404432022775055,9.792701634160727,24.695522728602683,-17.183920570311933,33.192566731874265,4,S02
5700,-0.4382046260971303,0.264798354856256,9.022905781308236,-33.911615109937465,-54.22712150762681,18.433486929607255,25.819622188796583,-17.345326556733518,36.54481217314906,4,S02
5720,-0.5791427942144327,0.4944522526131799,9.179853861809438,-30.07523920743142,-48.790827778378514,10.408687065743974,25.310707809406736,-17.178914819777425,36.72181114802609,4,S02
5740,-0.21974854166123395,0.7433016687679683,9.264168474740902,-23.776745907257112,-40.472055221831084,22.898327091002127,26.340504755567395,-18.88635836351734,36.34511860428353,4,S02
5760,-0.345169938592057,0.9599642788854084,9.53112829305826,-21.174705354853206,-29.138024424082943,11.297094419074424,25.749866202544677,-16.75911256055097,37.99687376461149,4,S02
5780,-0.0261652140360098,1.146598175818948,9.837440898464251,-15.278183345659262,-18.09643913720104,13.631323102968054,26.83595842894155,-16.63372184579419,37.46342139946483,4,S02
5800,-0.005292879616028409,1.4348579509436399,10.05458419014354,-4.801271639127934,-2.151774769468788,14.60273892255078,26.09821545273022,-15.450609714080903,39.441850826891496,4,S02
5820,0.14952570911203433,1.7908569192278398,10.383537801544728,8.2536612186681,14.610384578985554,14.275489950968383,24.129368845179307,-14.827313764884941,40.020189823599814,4,S02
5840,0.2724229840132996,1.7253682070144094,10.632111392303607,8.705974949395298,30.714190576388333,8.422272492379955,25.90156686751313,-15.457238716981756,39.020016442480134,4,S02
5860,0.7068043444281594,2.0725676928333483,10.858116145374836,24.20072244956049,44.078944258623594,11.897740120588184,25.02774888097774,-15.53518737630143,39.849477179107254,4,S02
5880,0.7333525750681065,2.2097542694834735,11.119205584203895,23.590758500616296,42.207803104984066,9.045458200931247,25.385725703308317,-15.661830380179648,40.36845856353591,4,S02
5900,0.8493152055104706,2.4368955897715887,11.160978959496013,25.616669056024225,51.44946925510776,0.21738017909038898,23.638247792001977,-14.82757978784986,40.59872051282486,4,S02
5920,0.7986015052381721,2.59711166637707,11.376671132204898,28.666871309172397,54.01272459254148,-1.3954814624194483,26.168454541103223,-13.069295793164414,40.65882544465568,4,S02
5940,0.5777576039497684,2.585745522520083,11.252222001835934,22.253034803774305,55.27028931806888,-1.3604910060980995,25.977458427984438,-12.676590999673348,40.604314825249574,4,S02
5960,0.5591017591141473,2.5515160141641147,11.66286930104572,30.008315927439217,41.830295567759215,-9.843024601391877,25.994583243213118,-13.929971197823253,38.66814011030604,4,S02
5980,0.6165940663802442,2.614937834611004,11.589965148094473,22.772995771265716,34.722687504790215,-5.872775134330047,27.02032277120614,-11.724187474804376,39.312989731375566,4,S02
6000,0.46543694645115186,2.4457309701396053,11.376955422576948,5.843690205839633,29.713205730660942,-17.476476511780916,25.995344044013493,-13.797921836758496,40.39435394884739,4,S02
6020,0.2686351565642806,2.343236269591989,11.315583611887503,9.772938884203075,19.278463212883864,-10.552176520258042,26.420883849801076,-11.869729055474057,39.227444205544494,4,S02
6040,0.26769252923720943,2.127998027847256,11.116181663090588,4.459646607791817,15.133486103493361,-7.142589489113906,26.202664675834267,-9.906345470216692,40.12735675930823,4,S02
6060,0.12271979761005058,1.9668463672312153,10.987656492562268,1.498016304271487,6.472085138234255,-16.47486125345914,26.996132512564273,-13.09928800961795,37.595998411541416,4,S02
6080,0.12353623277507271,1.7877804495705307,10.932199924919033,3.557228730138453,-6.059819452200537,-13.113670968887421,26.887317788002587,-10.285980938675511,37.59316179737744,4,S02
6100,0.16078470081304147,1.7386439556446716,10.650324001575324,-5.655231541980717,1.944825937955737,-16.999161714724295,26.454062736286893,-12.566971376151065,36.83974846981737,4,S02
6120,0.09170826382362018,1.2913526714365213,10.515664749380408,0.9272206808740782,-4.435649145656744,-7.425785277549414,27.63729691655758,-11.992753081952186,35.927974423884436,4,S02
6140,0.3173508763747074,1.248468249706301,10.178715598294687,-6.709344570859573,-7.825261127557312,-14.068684250488667,26.827632282801492,-12.59688337675168,32.67317124638197,4,S02
6160,0.19626792564687218,0.9720640799954108,9.961094993393937,-6.880527366491328,-7.8743025165690534,-13.487293936525655,28.90225945871239,-11.801280013835301,33.84860036486364,4,S02
6180,0.10893164124074795,0.7656221686030029,9.498449483530933,-3.311377659260839,-10.732007338851135,-9.1227332954111,29.325775564023004,-10.286740030254197,33.56810715501982,4,S02
6200,-0.05824038569966469,0.513839102983954,9.335282458647038,-8.2416066868547,-12.982340793087648,-5.840105192562544,28.84747168891479,-10.67755604790208,32.103061475027,4,S02
6220,-0.06332865738684926,0.17581175201626412,9.255915855885991,-11.707034340634465,-19.831482770635663,-6.7469717143511545,28.862298419449964,-10.98101547397664,35.83354095401055,4,S02
6240,-0.16851634362153697,0.3491903923369328,9.0459973154356,-23.286031146729538,-32.568978658367,0.35151745779061416,29.51112990571174,-11.161385542973782,34.47615423166448,4,S02
6260,-0.24809047203733722,0.11580291590256056,8.952342568825632,-21.425720434216476,-32.88700667987632,6.387875887795981,28.543617583432695,-11.079120161080748,34.52998763118924,4,S02
6280,-0.42154491475982636,0.20826024110563252,9.049707514439616,-34.54159822032971,-47.232214141760885,2.075745040809823,29.71368708694339,-10.741252392363922,33.208836988807754,4,S02
6300,-0.44342456409839837,0.4047468307243691,8.909867716467975,-29.998536850954842,-49.94282685027313,3.146596239778004,27.878999721189636,-10.819175087613868,37.04821665740355,4,S02
6320,-0.6019473777311268,0.3540245982340838,9.013707239041183,-33.41519742792741,-51.57242578819639,12.006427928566355,28.197785658714423,-10.70006801550317,34.94615883303723,4,S02
6340,-0.38664340922113793,0.45552039243657055,8.950180557800913,-34.61641146842892,-54.799302134572784,13.010623788575666,28.269670165877514,-10.146274076341728,35.431819602474604,4,S02
6360,-0.39519540175582,0.5591343054574878,9.23380298927669,-37.285080823531366,-49.83104142929337,14.023323870874636,28.471055636749647,-12.862697964015858,35.61226299114678,4,S02
6380,-0.4192532320573028,0.740638352372953,9.278078623339042,-26.225892753596323,-45.238562288174485,12.101751966368157,28.77874822342701,-9.75147390821532,37.537411431077786,4,S02
6400,-0.15326592977028083,1.0488599531731524,9.56440930389986,-24.539356412564597,-29.58360670886074,11.954041197808934,29.662663580792028,-11.306574291102434,38.00015091058999,4,S02
6420,0.008001580315824222,1.10597849922619,9.49038295657184,-13.487221239164217,-22.075632977624753,17.066218798995042,29.416897066435023,-12.66931449234714,40.107576148986446,4,S02
6440,0.01209163568810237,1.4433944104871907,9.949862726227611,-0.7358038677959038,-3.494822138655353,11.195214636937537,31.329111367408757,-11.338995631125815,38.7050461322634,4,S02
6460,0.16317450562041136,1.7188776561086339,10.235412595504693,4.597891865117966,9.536763146299315,12.222163111611843,32.266648329794805,-11.70642209559324,39.60973459848156,4,S02
6480,0.6081619044058103,1.7610375030565715,10.409487167260519,9.823709499295347,30.471025082882793,13.138377926515902,30.614074120154072,-9.850308573735461,41.22374868626367,4,S02
6500,0.46493043339615747,1.8826358715108018,10.768359382837057,24.37114641946672,36.41408165840436,9.28433625337971,31.339799118505436,-13.38337803159811,40.91225840188566,4,S02
6520,0.8296054578395521,2.1652492723943686,10.995051041717836,20.747099348093304,41.37986470080681,-0.3341221384173002,32.087252459229845,-14.404936338405278,43.10373831580762,4,S02
6540,0.7219276046405767,2.4999025582342895,11.022892946427978,25.62990487745845,52.6639798155314,4.355609344443549,30.966678079175832,-12.987003120868426,41.412769945084754,4,S02
6560,0.6668204105082752,2.397989856540297,11.279541457254737,29.335183828505276,51.324556019617994,4.243218758973912,31.088674065739674,-10.935849137440087,42.200638539933294,4,S02
6580,0.5231905898984793,2.5261950993825337,11.592799949080938,20.134599756665633,48.904494629376885,-1.6379698095824375,32.38594607717498,-13.52081167406648,42.133739189697216,4,S02
6600,0.4072314616695908,2.6676666672498643,11.526758214559132,21.734965685718524,44.79847426355467,1.165125206337962,31.94344007063426,-15.948735704427047,41.826300212966935,4,S02
6620,0.5575496522022825,2.528465555561536,11.495075806288854,21.62493950090279,43.2354934126964,-7.3132576210627604,31.16581391207787,-15.438916954000893,40.044086737087305,4,S02
6640,0.4125214226055578,2.4548075139049423,11.523752657083847,16.31779728573373,32.21537635924161,-10.626684228355476,31.813668415772813,-14.969605621701621,38.97976787606974,4,S02
6660,0.3254460186285575,2.400118930903499,11.448706342116472,5.403440972076672,23.11352070113955,-10.363726256259945,32.985022964713124,-15.722773038825622,40.20137318002873,4,S02
6680,0.33228903355647454,2.356837080269925,11.346485160048129,4.9827338833929735,20.291068399485596,-15.780064510318782,33.12034362836752,-15.659396247446576,39.52467532447241,4,S02
6700,0.05217032781849612,2.1163861316736865,11.10339809263456,3.075985260810774,11.15239199975104,-18.47982055662633,33.25963034346659,-13.94802543366395,36.59478095020927,4,S02
6720,0.2377666493626022,2.0294834227422003,10.980539220495166,-3.355229165118594,3.0451915037702966,-16.19434701992068,31.211776093340244,-15.482057154388203,35.891678513476165,4,S02
6740,0.03544810682713008,1.7581870598832898,10.834949696851691,-3.0906307930980472,3.3719017852270134,-13.601399756482358,33.53449348169398,-16.702439555242563,34.864277174861314,4,S02
6760,0.2735258153028676,1.4239125676890125,10.378922919007625,-5.272828228857897,6.526587504602557,-13.390211109368146,33.15090258056524,-18.131017442880015,35.02137256471208,4,S02
6780,0.2377701530066868,1.1553831787935884,10.189602439360893,-2.714493876463358,-1.0545774920517992,-12.226807772718105,33.90462291201541,-19.456331953329787,35.20806609479121,4,S02
6800,0.11561206874229815,0.9115680468394733,9.893154566620382,-3.752562720791148,-6.088653733311784,-14.898296136975526,33.21983090626156,-17.923933956615002,33.99681332034889,4,S02
6820,0.034360275596004464,0.9021871397213552,9.466590063814047,-6.894696674202107,-9.570925566597015,-3.8321214376059305,33.34608475254229,-20.523100920573526,31.975534176601354,4,S02
6840,0.015494236735999256,0.6710686929519265,9.411241560953538,-9.802738766894151,-20.416833106477387,0.0378011414720113,33.74594647180828,-21.56392289641169,34.69730622580391,4,S02
6860,-0.27347122915977984,0.43479995656622145,9.218120835512375,-19.92270100380447,-21.690485668101022,-6.764294020844825,31.469408898129164,-18.251828735667484,33.11027912722262,4,S02
6880,-0.13268070737109772,0.341241898005947,9.073826325406134,-21.592495513884526,-27.050020003746212,-0.9270788167002472,32.33824910114059,-21.527726945440268,33.620193762593914,4,S02
6900,-0.4201219151196349,0.40702771957799794,8.877196208411164,-23.758379461836572,-32.45273526414574,1.9004562671554286,32.727779859478446,-20.220279880507693,33.286085859106024,4,S02
6920,-0.4341694667636694,0.1938919951781154,8.908570464306793,-27.2033232793327,-36.05947520213419,5.081066980725312,31.540587226213603,-19.98688611667514,35.70506103389788,4,S02
6940,-0.37892011532221237,0.2519948053179676,8.947896355806545,-33.4234927682993,-47.40796549010602,2.920819989001259,33.478885977137686,-21.91506738916449,34.261010815669266,4,S02
6960,-0.6659672137577329,0.2263308361211276,8.936810281592011,-32.880584203173,-58.52001875509886,14.736019462828152,31.84195588749233,-19.390727648872577,33.69331697547081,4,S02
6980,-0.5138464446175067,0.39251252958119065,9.155902573656038,-44.12781088277222,-51.33139666900545,12.555854999480466,32.08044751731828,-20.31805105293252,35.37339063866759,4,S02
7000,-0.6211134492525086,0.5168235746392027,9.112067351009747,-36.34842353205211,-57.51148911277647,15.160208989650231,33.35389059529825,-20.977685826033337,37.12734575833515,4,S02
7020,-0.42632106914427426,0.6812175626096548,9.23550229928079,-29.453771561729205,-42.101094654240455,12.045554086251814,31.623041886761527,-21.997882847981447,35.15935302063002,4,S02
7040,-0.26415817250100426,0.77593449748884,9.627474955284137,-26.40025710446639,-26.695782273044156,12.734245399205594,31.887411407840293,-20.18985395348615,37.33691775659432,4,S02
7060,-0.09034103458151907,0.9676868693474403,9.533250750746967,-16.241268817645835,-19.031932957805427,16.044348581649707,32.86642351572243,-19.99304818631159,38.811733998385456,4,S02
7080,0.10129832293434031,1.2541925686891926,9.996911322567035,-5.624294481806558,-3.943887246615354,18.04508225834702,30.63422446930577,-23.62139935802519,38.69476951174393,4,S02
7100,0.4060230450248071,1.5692782612681468,10.186413976585346,3.85516798054483,11.979196555690255,9.829948140483488,31.679499591442653,-21.223778593940363,38.08952999922147,4,S02
7120,0.37781762398971863,1.676072966885742,10.513456718023017,7.441862622446563,18.43881953591492,15.991101596851356,31.25571548348133,-23.361460035820954,40.63456093266737,4,S02
7140,0.5847953289507397,1.8624685290320802,10.583253268108486,15.103666867546266,34.03709804513964,11.004565743881793,31.14382406925879,-23.929972972793504,39.24672599070635,4,S02
7160,0.5862594885995294,2.135354709155732,10.832194041401037,17.712286316770516,40.88435962492432,4.1231967071965006,31.889143467030795,-24.005972106448528,40.96012332795942,4,S02
7180,0.7139843189811964,2.3281728939479125,11.235084376622055,22.14200882185271,48.212475591491554,3.422599822431614,30.00534753106064,-25.187071468915644,41.98934905634874,4,S02
7200,0.7728817857000932,2.398621082447397,11.289009634649956,29.99548590594623,51.22325537219107,-3.4185586279309486,30.98008434173337,-24.981186714633047,42.31805037405034,4,S02
7220,0.8594643034621272,2.703822384770793,11.584646759505628,22.478582541861922,52.25733235446243,-3.4423579148848327,30.24589240074862,-22.94837759730249,41.0603460037305,4,S02
7240,0.7996923338054885,2.6765550890695162,11.494002693276006,15.711924770143835,44.38389939109127,-3.8448615637474917,28.473759231261198,-24.452195522329117,39.57715175331714,4,S02
7260,0.5407178252305672,2.579013795336171,11.568628384645393,18.988201761663408,34.019676961984985,-2.9295824828620187,30.126368989335393,-23.540520761312692,40.11337085644888,4,S02
7280,0.5467324679271376,2.5385293205711936,11.599340494181055,14.823560156792784,33.02639693786214,-6.449278521015111,30.232909385797527,-23.527613443113495,39.25161235635543,4,S02
7300,0.36924012682372676,2.2828444571838866,11.465857103593958,17.17774106323395,22.979038183155364,-6.262737416433977,30.506290122656054,-23.033082428937256,39.771574121906845,4,S02
7320,0.17758848236735336,2.351649809162269,11.294244460661453,6.36650145861126,16.308558439612373,-13.267388466159135,29.351241322826215,-22.248003422073126,37.74571996142752,4,S02
7340,0.34586460126867746,2.2704857133085072,10.92850099880649,2.969366676122192,11.249541420974364,-18.36430644639157,29.448291166917674,-22.512922242104906,37.72659302360137,4,S02
7360,0.2718023056649689,1.8047565291274534,11.034968802229018,-2.9209362007040163,2.7412366070254732,-12.537915246842616,28.249679149771126,-23.031340030933134,37.93152651033119,4,S02
7380,0.08029581998221785,1.763701583047079,10.775998927634824,-1.425627120936518,6.9013171907838595,-16.731924075488482,29.713968413756255,-25.120818261439553,35.42240467298599,4,S02
7400,0.24528407786747058,1.4392833220161871,10.275673153016182,-5.922863089658616,3.5083172779286516,-13.878723725377823,29.03452120824515,-24.203470008608488,35.72500572293105,4,S02
7420,0.04087958657636275,1.2400155585519756,10.178377254171778,-8.951362513778253,-2.287461097395119,-13.41720164082604,28.780843876469756,-24.296821754732854,34.82550844907427,4,S02
7440,-0.23220795486751775,0.8539459782142664,9.893930601332848,-3.151777225761165,-5.3309798715172905,-13.011796191902992,28.67813505434131,-22.839391650130207,35.13319494058157,4,S02
7460,0.07457700516686533,0.8491557444841265,9.672146309543797,-13.790687538834423,-11.359030626121985,-9.083378311797281,26.62395081312204,-23.349670569195812,30.834531861095822,4,S02
7480,-0.05115154534210206,0.5659666447849523,9.314275491388996,-14.969948743478515,-23.565891307459456,-10.167098582780529,27.60376865358899,-22.984873291266638,32.79033620250094,4,S02
7500,-0.25373353400256493,0.4089257293054898,9.306340555582642,-14.193441821898713,-25.259224483191968,-3.91999987616231,27.40392920749467,-22.43293094168944,35.06040230651726,4,S02
7520,-0.24142115030235076,0.4405123643889172,9.159483497259915,-23.33245212957222,-28.360234018061266,-0.45933122439674523,28.39676100830175,-23.06181890996929,32.12549857156762,4,S02
7540,-0.4687864433105151,0.3532424397223907,9.03707576492518,-22.599695795241868,-31.325580563877654,6.873273716096089,26.631284205109367,-22.46102254942521,33.17311334294253,4,S02
7560,-0.40164912927494234,0.2506037073727842,9.001001265052096,-28.88261304924783,-41.69418790726037,1.1953287091565512,29.294457238514276,-21.11822871231537,33.70758979434305,4,S02
7580,-0.5112548928397034,0.24555564342076852,8.869105442065676,-32.540671845178004,-52.27797334289228,4.97526105752955,28.25153159560238,-20.513078706186192,33.24477241747505,4,S02
7600,-0.4936236419164626,0.2424655210558732,8.958675809493862,-33.646487983870884,-49.59704745735612,6.687286378220541,25.75142068866804,-20.748346698759093,34.08167578046034,4,S02
7620,-0.4653465367010894,0.20086327244553498,9.10203872968946,-39.457438039189164,-57.749600961950186,12.290486028048472,27.076661796729784,-21.16801859803735,35.163101730046186,4,S02
7640,-0.5219277586370342,0.5438473305818159,9.046746970758432,-39.44974535625583,-53.44921065254453,16.568847103724305,26.134208342079567,-19.877742489212256,36.05443207625309,4,S02
7660,-0.4678454565233805,0.5713292038274025,8.968882559968398,-26.537635006924944,-41.917288322450574,15.953640135592021,27.18247019671835,-22.027668528054093,36.39880156599305,4,S02
7680,-0.3491323925724146,0.864199264408702,9.308556012034066,-21.63921092858482,-37.68337589113792,13.931787347124438,25.99294684415986,-19.214196233283168,35.43783750261987,4,S02
7700,-0.14855879213671566,0.9487152162393118,9.379349471016353,-18.740166966072362,-31.017313960222303,13.657013829447981,24.209861954431744,-19.75017209304367,38.89967229546532,4,S02
7720,-0.19287632360031456,1.3594428695662066,9.84123711249006,-12.823121531215815,-11.063036603972648,13.777222758282345,26.063194045151974,-20.106083811505318,39.70986866606214,4,S02
7740,0.1675006723086026,1.6052815665560685,10.117958941309205,-4.716790323370342,5.792189775175314,13.375239052482797,25.745696226477328,-19.319665582968916,40.18535121318707,4,S02
7760,0.3902066706336741,1.7290727586377046,10.447142885312402,7.892850198109467,17.956464706422647,14.151792040879938,25.9221034638082,-18.558646758169747,41.44686272451721,4,S02
7780,0.4046058096261924,1.79835015470366,10.677600568554489,12.473577855755678,28.671682631274383,12.007366932279176,25.890486476907263,-19.013778471533584,41.75313280141221,4,S02
7800,0.6118558002181697,2.1066358958797715,10.884739950193813,18.016457301191426,40.868558522732535,3.2777380519723835,25.154771792661435,-19.197174451068086,41.300024224259516,4,S02
7820,0.7599362640583199,2.473543809213779,10.994020749926383,21.365735953132223,52.09343032186216,5.2522606573945,25.59915720347871,-17.295877741981073,40.10853088303578,4,S02
7840,0.8469773666704221,2.4451680272328598,11.231643075630688,26.623502321437357,55.200140604976895,5.07470419812009,23.791234598344687,-17.44732876088325,40.479414030461626,4,S02
7860,0.6077677558225517,2.388883593005079,11.501603041374107,22.811914382648503,51.193750487074105,2.5800344854323893,26.033906922372573,-17.129987621902956,41.17791482712991,4,S02
7880,0.5815954767537356,2.5714669422175787,11.285474110808844,23.231616518382097,51.79412376192725,-7.962450179850128,25.681506563440095,-18.970296540143814,38.959379749090445,4,S02
7900,0.6855104767612386,2.4518622911114876,11.371012358478986,21.372608203556847,43.853687313742434,-11.043606039776584,24.555225668137638,-17.62499279103438,42.22373550760094,4,S02
7920,0.3803423930513957,2.6549851274078073,11.58255608077884,12.889152570115726,34.88366231730832,-7.960838862686556,24.602251509468424,-16.76762871578561,39.682161481618984,4,S02
7940,0.34627722402760197,2.4308515025882524,11.302966699947143,15.705503379379106,31.834175469817136,-8.570104364122098,25.599776172891506,-15.788317171380562,39.39087088416865,4,S02
7960,0.3325935890250514,2.275458935348789,11.384536191431733,5.0001293465210574,18.07682321176211,-19.184849183068902,25.52389718376068,-15.745900170668504,40.2193390992648,4,S02
7980,0.30122652503239755,2.253144145082271,10.919450876351233,1.2992410097687523,6.912948442393346,-8.966080465851649,24.71440665933367,-14.143746920404789,36.88881558873058,4,S02
8000,-0.08147024060986743,2.021315343647241,10.955311108725597,10.216810796777633,6.2358485873724385,-18.755831649886858,26.598784242873627,-15.380009363039436,37.20070554294713,4,S02
8020,0.2094508487106041,1.8960536635434158,10.860904432004634,-1.5726969087641134,-0.1550950241708342,-12.558518550978354,25.16615010061152,-14.14112204949684,35.08356348743689,4,S02
8040,0.18674693626039612,1.6417188754502572,10.713113652094085,3.8573235744657124,0.19593011400786176,-14.152030803076661,24.846962855751755,-14.939792806159002,35.4338620664957,4,S02
8060,0.0659481138120595,1.3230072040650371,10.311751753848277,-7.588455064721657,3.2220676668759465,-18.211788504777267,25.37906966437353,-15.333807575231527,33.56471725647462,4,S02
8080,0.014423322460814264,1.1954866128678687,10.108116037958942,-2.818465791700371,-11.613276289080382,-14.191556809067775,25.139496848503605,-14.391738914966584,34.78285942569832,4,S02
8100,-0.008001678419138458,0.8341023757486652,9.814800238624935,-15.014039766653028,-10.636487441145588,-9.008840024583646,26.3379871856848,-12.848459889614585,34.58501169337964,4,S02
8120,-0.04822491266032933,0.6865944414186573,9.375596481669668,-11.94791313357458,-19.04227900605142,-1.260406536542217,23.18168811367665,-14.347056302205175,33.01770415770807,4,S02
8140,0.08083671702034845,0.4282854559166005,9.312078992646978,-12.841646469805461,-25.085049676935174,-6.063482055409423,25.500648509085458,-12.54796725972649,35.41522523800984,4,S02
8160,-0.2557940133577553,0.33383195852837205,9.290659742543157,-14.109377508836765,-30.175353399608163,-6.792563859726023,26.501896871809492,-12.461743563769456,33.52489089325664,4,S02
8180,-0.3174934025797559,0.33799557735159935,9.084281265571308,-19.748007810642363,-26.56182586882963,1.36939711947765,26.550004432357394,-11.718010065433543,34.87354185022903,4,S02
8200,-0.4541586160804575,0.27972014493623837,9.007003234827863,-26.672759886484467,-43.30209835837994,-2.4344278403740653,25.928997277384568,-12.462548764117976,33.74186285429134,4,S02
8220,-0.3308183588369169,0.23970630252014363,8.882145047150402,-24.442695588879943,-45.61096899328204,7.071840306932608,26.91831733702087,-12.310574806051061,35.24446354082845,4,S02
8240,-0.5713138292472597,0.008986815102272463,8.786985205996837,-34.74694359558546,-49.95027304616844,7.5611383108042,27.56148107281767,-13.191174718766662,35.30445022249688,4,S02
8260,-0.4813579524409115,0.12426401051958741,8.84640924298733,-38.18437408198042,-55.78939439234142,11.80731937884768,27.997196743253898,-13.588328768943633,33.914564593550935,4,S02
8280,-0.4560429354691192,0.2963468153863437,9.069822457242612,-36.32541705585875,-50.55034690178965,18.38683412272652,26.866364827622338,-10.977170319221527,34.779930388578634,4,S02
8300,-0.3273399288078781,0.398839236310487,9.272965006947487,-32.92637818595282,-38.967653379685515,11.193505700647775,27.69561917455665,-10.907400662055974,36.034320025912315,4,S02
8320,-0.16217191609931972,0.8115946112340104,9.484470237239483,-19.11907823952233,-41.75839600001653,16.79868732375351,29.142120958915374,-11.679849389685426,36.27688881010804,4,S02
8340,-0.06820057942741489,0.9532264355229889,9.4700805945007,-24.17760651071814,-30.100609095682717,18.35439859959904,28.231419436076745,-12.517485146632382,38.04861358310701,4,S02
8360,-0.021387149391422597,1.2193623858002816,9.760230371572915,-9.166010041220426,-14.108359776507859,12.52011066713476,28.092329158838517,-12.456910919191357,38.42475668541539,4,S02
8380,0.29186701873496096,1.420044228991383,10.044606229664806,-0.5634926213156657,-0.5273994269690216,14.761594628740431,27.37179653892448,-8.77848990953471,39.0051596056963,4,S02
8400,0.27181582721788766,1.8588852161054836,10.404299185197141,5.874722939417569,19.6739259872593,7.060443775308247,28.914161607255544,-10.214280648839894,40.57429265958792,4,S02
8420,0.500653819969122,1.970668656240026,10.5862770003503,11.364576968652006,27.99245068134576,6.528785064187199,29.57781603212842,-13.041094777598802,39.84310089901403,4,S02
8440,0.384438616180953,2.2045889138073633,10.824256949027975,19.602339441891857,38.550857021831625,6.807849756527029,29.74300337533039,-10.434501178503897,40.65842982605411,4,S02
8460,0.6890198866067453,2.4353954503308013,11.02219460259519,23.707833568522016,44.45813077605146,2.9365858841158112,28.530425390537776,-10.716480442981101,41.15922802922619,4,S02
8480,0.6915856741292724,2.5386332910866023,11.391496968682283,24.33519678089272,49.819057573609946,7.004623424536897,28.926321179244393,-11.332693670150157,41.10684190736947,4,S02
8500,0.5502101875668063,2.6276379631312636,11.319754999436816,24.57503087460886,51.84098044732767,-3.2687763259808196,29.496124240296222,-11.016581759073084,40.730210094460126,4,S02
8520,0.5718925708430865,2.7167049121451203,11.522572824958916,30.199900321919262,41.27430647617501,-3.300258376850016,31.175894991645393,-13.105028309691452,38.90292707708803,4,S02
8540,0.2640495925747839,2.4458023756363767,11.566876849802139,21.07165982461823,49.86430034163601,-5.411023745297792,30.961461268326897,-10.944197888408656,39.18074824978232,4,S02
8560,0.45495399982086393,2.401050750333857,11.5309316119572,13.07744346635608,34.95754693583291,-5.682481250829399,30.877605523806643,-12.467578924435108,40.96710713915517,4,S02
8580,0.4444710791095262,2.5197676736845147,11.439843948420892,14.006976146623387,36.00113500243166,-10.080124701823664,27.78734758428696,-14.869602439706483,39.61530012389254,4,S02
8600,0.2733548250478236,2.4399303415616425,11.299723887168684,8.781782460087541,21.65355009863486,-4.303915605651244,29.649539475146952,-11.066613917480481,40.05707475691961,4,S02
8620,0.1301060358145501,2.142565061435994,11.234528197235745,3.0610947222683995,19.32307239472136,-10.448817416371817,31.25738276894972,-12.418475098241828,37.52695698909699,4,S02
8640,0.0884720235105211,2.0296214663124292,11.144988224346902,-1.145614631514674,9.713966948506267,-13.179376114103752,30.521495241831733,-13.705320936426471,37.30829405240311,4,S02
8660,0.0781109553131317,1.8532886601874419,10.842498488439587,-1.1272476925835213,6.6454156613474895,-10.719607414125754,32.078251071895124,-13.576764338876789,37.11230328193468,4,S02
8680,0.12975950234347197,1.7484394087658803,10.624576033345269,-10.783564046367253,5.867968205839257,-16.85537280607601,31.8943209830992,-14.123136651191343,35.576550768098585,4,S02
8700,0.1344633202428039,1.3172785348375915,10.341521052571892,-2.818211204885895,4.238687061813463,-16.688041734128486,29.345596786346132,-13.594346219044736,35.82704760147239,4,S02
8720,0.0968656528885853,1.074442172587145,10.14371062887239,-8.891024425096983,-10.818532099046372,-11.395468658032517,32.23750181242407,-12.45041298563237,35.97395297052862,4,S02
8740,0.15319581230057389,0.9295289833064853,9.85622647858102,-6.4631627714541695,-8.642419603860555,-8.200601580473698,31.285810495602803,-14.076980740694587,32.89444619338359,4,S02
8760,0.03553905591709228,0.8279587298314417,9.584699196422834,-6.987353842372219,-13.731733993280638,-8.119014832073109,30.923657213176792,-16.71425669759661,32.620665538776464,4,S02
8780,-0.13096426561160782,0.7684211866615323,9.34970444999504,-14.886607318645726,-22.16282845398469,-5.318296762233058,31.11018972516669,-15.017846436485263,33.07353561938891,4,S02
8800,-0.06411208635840226,0.4426971150514983,9.214278568073672,-21.435326975470197,-22.008053483562424,-3.6524546463613947,32.03025798915474,-16.322914746700004,34.134046068071775,4,S02
8820,-0.21891788920203767,0.3338840019701534,9.174451505512053,-19.64271938153689,-34.28424596020966,3.1806891910195776,33.36233262794227,-15.254279462057669,33.52679742955337,4,S02
8840,-0.36021214695091275,0.18536420773984408,8.894259968899652,-24.495919780640854,-42.50282082371665,5.223360977623769,31.422115473528596,-16.092770208581793,34.51732622047598,4,S02
8860,-0.5470475783335349,0.20891390243346725,9.158128456516344,-33.0346686657684,-45.033634606846995,6.741428989484059,33.220910130989544,-14.935701520630225,32.97274437682202,4,S02
8880,-0.5040808686559695,0.36159158055120366,8.98726149283655,-27.96562909111864,-47.60817549697234,6.232053029415205,31.96703970884246,-14.993727106002888,35.32298712252889,4,S02
8900,-0.5348113819193059,0.2236144449878137,9.055542224253177,-37.5264102501123,-55.30656731647654,15.500311788010478,33.00562029479868,-15.082577998302108,36.10241488028515,4,S02
8920,-0.5188095131129474,0.25723957827186117,8.865102840214913,-31.19193346927748,-55.11159703740363,7.914612367460643,31.820620304461837,-17.234915862447572,35.4457869826733,4,S02
8940,-0.486038627004581,0.7496278241598546,9.117207548283845,-32.16451573269962,-42.767359727868495,14.47793017786957,32.164735563325905,-16.454638894313113,37.61718466312559,4,S02
8960,-0.4187468422542894,0.6855818413646526,9.399955096013974,-27.437393200601424,-43.06149025349562,11.42085265498658,32.13725431448393,-15.759952578306866,37.42773631614195,4,S02
8980,-0.17621693871155433,1.0113609872061722,9.624217408839394,-23.50027724565069,-24.786259699923587,14.38242287698573,32.64684459515367,-17.194642816590076,37.71816642975621,4,S02
9000,-0.10907866140980926,1.3857387987617218,9.648856876806649,-14.685016354407491,-16.128946092960085,18.69507648738082,32.97365965109344,-19.364333969343637,38.58313792184462,4,S02
9020,0.03249600851798262,1.285886237350638,9.824016056801462,-3.876240254471628,-5.696787797231637,19.126687653766343,32.17036043977553,-17.888509948999552,37.6993115676591,4,S02
9040,0.1605835179219962,1.5709150454558667,10.236997501440896,-5.2695230967517235,19.147125508143525,15.85419669969018,32.61854624240604,-19.72996770233719,41.36005220741999,4,S02
9060,0.3977265314587528,1.7916346250839827,10.39163831026781,21.960652684206774,25.283327166010338,18.655385587058582,32.49660901110782,-17.647441870375513,40.60801374896382,4,S02
9080,0.5733930856247981,1.9156069834437606,10.774030431770774,18.704081721959827,38.90685929105951,12.058038871597029,31.273285067471484,-18.81655931708191,40.31523403841439,4,S02
9100,0.6584454246411359,2.110165473889092,11.17554158952059,25.370082735652378,50.40280953303896,7.859776414777606,32.54033124442765,-20.431224016102632,40.86562937108425,4,S02
9120,0.7701426331070746,2.4569539407340057,11.26719552829343,29.392513800670958,47.96145893203851,8.068005651500526,32.09822568754836,-20.120691736683128,41.394407758026546,4,S02
9140,0.6305981304716082,2.4199253994975205,11.22809783771273,30.048928669405246,48.01132456349957,2.355229472885591,32.82280643351936,-21.570384887927837,39.992233912451994,4,S02
9160,0.6061538482586563,2.591808547480402,11.517610690515813,20.26124830463758,47.92881634446573,-2.7664410022038473,31.618133578550843,-21.45168813321978,40.12822720354438,4,S02
9180,0.6859219333788613,2.6403000498930655,11.582593900758491,32.928004993011626,39.9187008770487,1.618495622810396,32.75957722328617,-19.068156669034018,42.382728953835105,4,S02
9200,0.6298836353784513,2.5031055962315762,11.460414961957332,14.547834572625046,41.523596768857686,-9.60808745618257,33.323049664673555,-22.116801117767984,39.7967089471891,4,S02
9220,0.5081304777311785,2.44049124906097,11.551357884834447,14.39214343455377,25.38963950646995,-11.552918854808397,30.88952576816049,-23.139623447620536,41.36182463082433,4,S02
9240,0.43582773836681965,2.467524661515721,11.592104517531284,15.29278151944386,20.944790066194443,-10.608888825288762,30.19991888732889,-20.715078667970296,38.716296361936976,4,S02
9260,0.15882199283772236,2.147914842876214,11.406411551112141,-0.08277629548259657,22.56202070287957,-11.077438177959538,30.21227449799142,-23.270275835660474,37.34240573101283,4,S02
9280,0.19153576377894502,2.0725186538722444,11.26550904352144,2.0152773430561917,9.643211560739461,-16.065284128675376,32.30546208004054,-23.249812947500597,38.760231708686206,4,S02
9300,0.07206975189024534,1.9005662208436072,10.954322474859284,-3.5971526579657236,5.01740175417448,-17.607532721306484,31.028106473379076,-22.782414735873843,37.20275821451879,4,S02
9320,0.22698808092817863,1.676180242645446,10.672522826815626,-4.687613337658679,2.4212958312126815,-13.383681355491591,29.767189896503563,-22.660467292382016,34.804623910410534,4,S02
9340,0.18435161452952525,1.3870643291992057,10.395184868301454,0.19573663439845124,-3.3171566968108452,-16.807176459313055,30.95306457604747,-23.85691296548007,36.38252313181483,4,S02
9360,0.22252912382422163,1.3098205115946397,10.117803064447662,-2.884111290743281,-2.6247322658864336,-12.424453126569993,31.32751991888487,-23.110959795173656,34.88435045539851,4,S02
9380,0.18694254607924823,0.8980387473674796,9.750822881942854,-6.593541744394614,-5.690990292284468,-7.8781740109563785,29.842287569719886,-23.56238482414084,33.85491512311475,4,S02
9400,0.1097322872077396,0.685870425067332,9.658150813310716,-4.981786989910954,-20.107942316378146,-14.35233171578807,31.175105157935015,-21.57099367099069,35.308749961114486,4,S02
9420,-0.15527866017586175,0.4164004274389056,9.394943602346942,-9.430256197900707,-18.75709603679274,-4.723500679562166,28.264224225167414,-24.092561664917454,33.97424859222222,4,S02
9440,0.05269586922317223,0.34914805617068817,9.306906983168586,-14.669622132392174,-25.902256894023523,-3.4948662229908076,30.219600396660066,-23.25288359386539,32.725071828495025,4,S02
9460,-0.3369863152986078,0.09898951694217381,9.184331158900395,-23.715027298176125,-31.34549657591162,-1.5709005586699178,29.824607048077585,-24.54867670483827,33.47624197936707,4,S02
9480,-0.20079981128712296,0.1436884945983547,8.943646923687758,-21.305534780554837,-36.88300233287767,2.53645331498516,29.815482907191132,-23.32100894563603,33.94713701055281,4,S02
9500,-0.44770001927312786,0.2663245200939273,9.128936461302587,-25.146972075573498,-40.67417173536359,6.597007348269676,29.182967250709186,-24.2140480040752,35.17502316181872,4,S02
9520,-0.6092324867048724,0.06431084314081592,8.917264080095105,-29.387387871256347,-48.88655672461283,8.4746382741988,28.699766091848982,-24.230913139232516,34.573649881620085,4,S02
9540,-0.4960222170370556,0.25062604877245814,8.845926583604628,-35.375123291341374,-48.41493754775635,9.494976660531206,27.236193323505542,-22.407778924692835,33.49622017547844,4,S02
9560,-0.5265331334233937,0.2883873874898039,9.039478684271335,-40.77732998173051,-54.17461315872586,11.347234986854124,28.756122228639413,-23.3787912515715,34.543576103848466,4,S02
9580,-0.42150410778323444,0.5159519778143662,9.172976955652436,-31.361429349613545,-48.84331658657631,17.23470098131624,27.180441375051352,-23.72766331558405,36.118968649514386,4,S02
9600,-0.27315506214525354,0.5885647786037247,9.28779417180166,-23.863699145524766,-47.99264710218348,17.794409210284467,29.51679732582756,-23.174565552517933,37.07934240955905,4,S02
9620,-0.1554627130590426,0.812349692698388,9.444010309416463,-22.538094886017273,-34.04697086549506,12.972866860571683,27.63827133834751,-25.021444933406844,38.77680645040824,4,S02
9640,-0.23784191987604916,1.0264545228882573,9.79114473673204,-16.018848015616374,-19.588009174205315,11.790039315019005,26.36526584364104,-23.142505922126958,38.79883448410113,4,S02
9660,0.03886933428287261,1.2398527223776363,9.982785942330606,-9.9118492008071,-8.209956898015447,17.02756561946738,28.064173529086453,-20.49625169087956,40.659690202095,4,S02
9680,0.13552308592987977,1.5154116172942673,10.162023911812074,1.2779300485405942,8.292403794753014,11.276600467977795,27.459796231124418,-22.655931822561445,40.762642353552884,4,S02
9700,0.3022463088709307,1.7553218107186002,10.455029376562724,10.316602523400999,23.785800916934022,14.454000578501766,26.718802798035004,-23.676711026515157,39.39196947088701,4,S02
9720,0.45094017631613614,1.8807953572060188,10.724835895258066,13.276220392168003,34.90161691368886,4.169737838407024,26.049057051573683,-25.495728796221037,40.36928353685859,4,S02
9740,0.591821076844561,2.35361516257344,10.803534531703784,22.200251752396404,43.60743114504245,11.189685295037942,26.809297149148993,-23.152909914088053,42.053578270845485,4,S02
9760,0.7600239752720502,2.3960665467747444,11.254171020109606,32.218893442448454,54.20938116154508,1.9616473946335424,27.33155836947508,-21.724558372516114,42.390469254677775,4,S02
9780,0.7410290800764332,2.3757661045714364,11.546146947006719,25.990401098169396,44.09844232651764,2.4191733267367757,25.32098585440879,-21.492317460700633,40.95345290485816,4,S02
9800,0.8483089400552203,2.6165259853020846,11.622588015552656,26.848145828499142,49.98651385593487,-3.9673415225860853,27.204125909847143,-22.247528485063768,40.923845000793975,4,S02
9820,0.6619725532593173,2.5802715730077237,11.49708924293432,23.450278610915866,46.36499354875308,-4.498793287989473,26.57661275809784,-19.105695758085986,40.90868178978603,4,S02
9840,0.6419076570493698,2.6257586646421953,11.720737719454606,17.85235067520217,37.66582748983204,-1.178949603410333,25.457200464645243,-21.037745923316937,39.047373613319856,4,S02
9860,0.2745762465743679,2.8049223206704137,11.306203456765964,19.246145147602977,28.178073950149656,-9.25068187408947,25.62858978000206,-20.057801012807687,41.523478902614315,4,S02
9880,0.4202343686427189,2.237014563507287,11.424032022421668,2.8337143034300114,23.54833101434475,-11.809265384092177,25.989067205599152,-20.588032821573506,39.831984123804716,4,S02
9900,0.3600494425172215,2.3295854485320797,11.337488784472308,10.208720941475043,11.44854119773062,-8.385181320073693,24.93901387708106,-19.007015710390625,37.9749703863984,4,S02
9920,0.07262994282982974,2.150548984114213,11.258938374239031,-1.2413400640333228,7.233026635829556,-17.363446656602086,25.72411410692203,-19.395256073984264,37.65406024569706,4,S02
9940,-0.14606048143504063,2.159050452307075,10.986498350147597,2.241562149770587,5.352558832952405,-15.599240621736906,25.236898731674412,-19.02956406280444,37.085014124177135,4,S02
9960,0.17361711657344697,1.6901743287629563,10.754240606989145,-0.004073463038383629,4.898557312578933,-11.112480756381077,25.66822452348515,-18.68476380754313,36.04869899157185,4,S02
9980,0.02995556036290134,1.359670610272933,10.326969058505865,-2.8516895290282402,0.8740762499587953,-13.140696051045595,24.237384987723146,-19.12741624057698,36.31063054585346,4,S02
10000,0.015296471944662035,1.28930381124957,10.264319995756646,-4.2628152121704925,-5.060766746336622,-19.097633699444387,24.766294214997345,-17.701307449003096,34.93188779780228,4,S02
10020,0.011245765534046367,1.1063576869738532,9.90623319066783,-9.687121404927435,-4.907573694485948,-12.267861907534913,23.795469517179534,-17.32505160891437,33.90041158767373,4,S02
10040,0.020766899371820136,0.796259994349412,9.646782855769567,-8.018000904633972,-10.25505416713147,-2.82138975314528,23.021108935215125,-19.277180342499463,35.914944913259305,4,S02
10060,-0.13406887874464793,0.455859282909539,9.418560006225814,-10.539630364878395,-19.427872791313145,-12.944564946810988,24.920300905695797,-17.113651972167027,31.828975417505937,4,S02
10080,-0.03111608030069435,0.41716990481193317,9.284759640038548,-19.094133879764048,-28.97617604326499,-3.4160818881125485,24.893714019116523,-16.189164767438072,32.58846760623173,4,S02
10100,-0.15924169176260397,0.4451671121318323,9.094035710259224,-13.917788193055454,-30.529282215068875,-2.1950121805212492,24.51789725510543,-15.058640171980159,32.81455655854279,4,S02
10120,-0.23353614501202344,0.23607120092567024,9.034321183925641,-27.866157939484555,-35.63392825125903,-2.434053779183409,26.053543912436464,-15.768445050295036,33.548021041719686,4,S02
10140,-0.3388637318382157,0.30316440226084757,8.98331074405346,-25.04775262146121,-42.344877816111406,8.737531172051591,23.887092373177133,-14.442476938497979,33.499332854310325,4,S02
10160,-0.3175111671514923,0.36763208901050703,8.936836533223834,-39.40148580775365,-57.27570570556644,11.392690109450662,23.95156584837236,-12.608123674066546,35.07207526358576,4,S02
10180,-0.6419398744874727,0.244773428129339,8.979176249154737,-34.43375325192671,-48.526330565290124,12.090689384063706,25.595386099216586,-14.837223863928397,34.300283028074375,4,S02
10200,-0.4618221010774868,0.5641909284823301,8.805053295027943,-35.48449581554763,-58.226874857535705,8.5224271774939,25.661159990179712,-14.210053396443106,35.0980665413178,4,S02
10220,-0.4083420941610717,0.5426378110161223,9.126126228648756,-34.40700793426585,-52.02192094103792,8.844634651334314,25.1830683385219,-13.128153749352006,35.45851732411221,4,S02
10240,-0.37309711914102295,0.616020476701969,9.203506853936517,-25.414975178004685,-41.29811488637988,13.153992700220357,26.46226632417232,-15.446438526037142,35.576532468657135,4,S02
10260,-0.12457744181160141,0.9099807184910489,9.242666196832836,-30.12863332512475,-35.66808787081937,15.293776333374607,26.860636643227494,-11.905536951458835,36.46530775114748,4,S02
10280,-0.10874278226124587,1.016830998276653,9.49769960993954,-15.377314525446636,-21.1416815509412,15.175704839294307,25.409080605778325,-13.53232304207112,38.265531151649604,4,S02
10300,0.1413183831493705,1.3823428998708667,9.901699302116977,-10.466264133692487,-8.904226540021693,19.179688250096905,25.363866606905514,-11.341602859357653,38.94707017849052,4,S02
10320,0.08307933595264434,1.4114169973681987,10.08029082600349,0.19774056239708493,6.106024943467431,12.151534615573132,27.355268794820024,-12.646698972202728,40.86510725197824,4,S02
10340,0.4679157799169005,1.7416983402874278,10.650876769816344,10.672096546299162,15.19811956907774,11.698269396619732,26.06045710573864,-13.065334200245857,39.168478246427476,4,S02
10360,0.34966969241519186,1.8445940481177197,10.738743157965828,12.289868739217216,31.84979479868382,9.241828554088684,26.862223590182925,-12.336302118052524,41.72501019487286,4,S02
10380,0.6622534674188896,2.158323341128717,10.874175743195583,27.9810765309314,38.40593429012038,2.0373083005762926,27.288715646765258,-13.31025303056337,41.26932124093982,4,S02
10400,0.8085337813799328,2.2965812986464793,11.034005983728708,21.501825963124,52.97108405318971,5.486611185322595,25.774846922471998,-10.34484212096355,41.692476978218494,4,S02
10420,0.6668649297134445,2.5055349208257196,11.237491096541993,23.863074431229343,45.92490147340894,-0.24118211682032908,26.677699634809297,-10.716217452109102,40.73448208579535,4,S02
10440,0.7559250424113514,2.584703336102209,11.42684915488167,26.71885424540733,47.12246449544648,-2.170656327239263,26.538929165627646,-10.974474411720797,42.38045068261581,4,S02
10460,0.7257058536195657,2.4792287796886705,11.545255823971774,21.266133525127835,43.45099891739196,-2.5480132150786443,28.97993035288771,-11.947742362652336,40.829748263640106,4,S02
10480,0.5439489306365212,2.4165132343133036,11.393482623783132,14.850312973805341,39.58360975344972,-4.773954457419913,25.55883493313661,-12.27854258823249,40.41302247134783,4,S02
10500,0.26602753546503366,2.67276203601053,11.48631005884489,8.215325030598667,32.14920518335881,-6.552768632837012,30.340446919228167,-11.444422193312857,40.4094778424436,4,S02
10520,0.40230126352890183,2.3752302438035007,11.362546262876414,9.151802576001575,19.805209168471716,-9.769736402091967,29.510656168207674,-12.417825816284079,39.12949911704513,4,S02
10540,0.25048255389247337,2.4499586741293937,11.535911453055427,3.1690539527941395,20.574975642851317,-9.155275724186842,29.180671505887787,-9.713825034075956,39.019096437439195,4,S02
10560,0.319686670177606,2.060707432565162,11.270824926474617,3.210089902882328,16.28142097505498,-14.440069079050604,27.839926445172285,-11.554975642549314,39.010162704087506,4,S02
10580,0.16213286124328438,1.9651394867137395,11.110452372672968,-6.462387578200296,9.203788868763612,-18.290809919192696,29.73409726021734,-13.048844025054905,36.027543742994816,4,S02
10600,0.21521537821496672,1.727169316532843,10.797344560220475,0.7972287620573484,2.3049957997389603,-17.509522492500427,28.605926489776152,-12.369631927247456,37.531856040837376,4,S02
10620,0.07974889414983004,1.5748196167492818,10.581694608005023,-4.937470690953408,1.034406912421851,-17.64858301993242,29.167403894771883,-10.704337176006678,37.25801315827497,4,S02
10640,0.08795641731802653,1.177881545207728,10.163248748817942,-7.340160317783436,0.8155368887573589,-9.987496110385772,28.962054491590937,-12.391218386249395,33.889726064311816,4,S02
10660,0.031482959735768756,0.9419864135483678,9.952648946829548,-4.781524137743955,-9.602012439779658,-11.897721990538576,29.57580012137051,-11.182688887694704,34.66796163312259,4,S02
10680,0.03768390255067551,0.7083414105757384,9.63478043043053,-3.0647329167534307,-7.0352545997143965,-12.259868118275511,30.275345931753836,-10.833165415681208,35.038949682907116,4,S02
10700,-0.224460489219639,0.8192395580606857,9.546267838378713,-13.948401271224995,-18.32656155013028,-7.4622995123538605,31.908772416383353,-12.019113374259229,32.56942167537322,4,S02
10720,-0.08807571415506357,0.5325067416993163,9.31239104987252,-13.006103943349967,-25.590943809542438,-4.164156568654931,29.251471941420096,-11.467345461505207,33.4635633683277,4,S02
10740,-0.2841642105263702,0.34768899492003996,9.147276889998702,-23.093669613532537,-24.656108351605685,-0.7129338575699219,31.568250455629766,-11.359139041511968,32.572877913109906,4,S02
10760,-0.15115436281952557,0.11833565646822022,8.939072107083533,-17.53085356910646,-38.13043347866477,6.334220532093991,31.359588617457614,-10.243055635042499,33.38109730213425,4,S02
10780,-0.49320977929953125,0.14826524465687183,8.870611743630178,-27.22052953901769,-40.209858294688964,5.3442055964601325,31.556484510332282,-13.340057021444878,34.564523548496766,4,S02
10800,-0.6025695126858693,0.0576290769351675,8.75412097692643,-27.481702486658588,-41.42948931196484,12.991687278717736,31.21687761441865,-13.46998366310975,33.62603051237527,4,S02
10820,-0.48731193751242685,0.20465978975670912,8.826604146137544,-34.48364205823803,-48.74934341627456,7.344366329026911,31.37690882217328,-14.163234136536953,35.465458988366464,4,S02
10840,-0.4302134202897767,0.3342592927536687,9.073045885207712,-34.60355762118426,-58.56485535173338,16.646693268679194,31.84591093499979,-12.45249887436804,34.50629705777607,4,S02
10860,-0.5081795240329436,0.7079366387162602,9.151318986142341,-31.336558179650847,-57.85597848355103,10.378851916822647,33.2841274061245,-12.610241886485237,35.57209333154304,4,S02
10880,-0.4996174113842121,0.34988565473947214,9.033294623551413,-32.07475158296816,-48.072636368137935,16.08115311952723,31.47159546172359,-14.532585275812815,36.00066492747996,4,S02
10900,-0.2476558950802857,0.7219314827657539,9.252812124404445,-22.30865212882673,-41.54507042386747,9.627660034225501,31.757619027342898,-14.547660337314731,37.70157904419059,4,S02
10920,-0.22096314518775165,1.1083831060029354,9.644366613285964,-15.967642017056608,-23.47591054969439,16.13570953864855,32.10251143109626,-13.187864314112906,38.350339548135594,4,S02
10940,-0.05496371119756055,1.14021109967646,9.892385142199764,-6.883688868340281,-13.071289456375993,12.844457865591862,31.967720790693456,-16.398041897615833,38.26290694050276,4,S02
10960,0.30112912828060845,1.4521453254447039,9.95921324650512,-5.1196371887395555,1.7592950869474422,17.671310747814047,32.96720142932796,-15.303502765516612,40.985428498151826,4,S02
10980,0.33845980669607056,1.7058257347605945,10.408118032734638,5.600040955795461,17.676422021980905,8.764651191704784,33.560625631871076,-15.251887019793335,40.3350280564332,4,S02
11000,0.5335407282699408,1.9120766353759293,10.77547466400947,13.889105379581945,32.26941376652962,3.880268337613327,32.76175211889548,-17.84018497795163,40.566187608186524,4,S02
11020,0.6243467376999244,2.0844382346272132,10.935398126376231,20.73063903700012,38.16853289845554,6.639319515068196,31.971849697199794,-14.63098052068696,42.03034206925202,4,S02
11040,0.6438198152743276,2.273306219824406,11.236933490255101,21.358164826890206,52.654518890307585,8.069774722655497,31.102338301988233,-17.84888772766682,38.977495387728375,4,S02
11060,0.6546582922685252,2.354935981240528,11.285137229834001,23.746405144877887,49.39616201655988,6.567599563359147,32.05119252902488,-14.623590221582507,40.57569193178933,4,S02
11080,0.6833708099255601,2.6321331717222405,11.417310732216034,26.180108486387777,47.670341658968375,-2.051317648970459,33.07324310561785,-17.14245358010107,39.99630989537109,4,S02
11100,0.6023813765887879,2.6622201660985816,11.283383189561375,28.377792384136608,46.898187411928696,-6.2436307162509355,32.790591732951114,-18.608302168153326,41.70145163640574,4,S02
11120,0.6013087461319052,2.513846041833061,11.630306490266218,22.618637014050638,47.07615681751796,-9.234262965149123,29.922533346277575,-18.467943993047378,40.809802747495986,4,S02
11140,0.43011927063975974,2.557909827797952,11.571490891675657,11.67169174940145,33.80466419671124,-9.220451607383314,32.69328089312573,-18.582819071857713,39.21360921993137,4,S02
11160,0.28670551766110663,2.3906967458138872,11.38360160792997,5.583375354717673,20.960537387483217,-12.01340279611822,33.10317050680101,-19.26700349565748,38.40987224607548,4,S02
11180,0.5023778948380192,2.3286563106647105,11.195976495525786,6.666258482370458,29.03787203190804,-17.913237794596583,32.386257686380205,-19.158850322167932,39.153798778145394,4,S02
11200,0.2100712109776297,2.3325875168718033,11.221833803532213,3.7490834625684704,9.432990992701672,-21.17623292331448,31.973020707068873,-21.625119066896314,37.93501200894492,4,S02
11220,-0.07278222644190452,1.9966113968679642,11.12503491389905,3.242338882870489,8.22521550702161,-17.107247515228362,32.97043502171279,-18.847352137655303,34.14761159393283,4,S02
11240,0.25736060346390066,1.7184060067200468,10.827418215000169,-2.0407504240930123,4.443134824277009,-16.546246261580393,31.69093593834069,-18.105354413244413,35.94303210627286,4,S02
11260,0.00402045946062006,1.4858778533642891,10.653155643660996,-1.999736694826931,1.2562322804739445,-20.680795752007022,31.838097530070275,-18.684314415565087,35.72041349623545,4,S02
11280,0.02349762447558612,1.2480257954358032,10.379766438589884,-0.011758064478610386,3.525837908090635,-17.551533943483538,31.482511456259328,-20.319974500212396,35.34919466149415,4,S02
11300,-0.05403420797375358,1.1301467718829048,9.971113901186799,-6.092073065509371,-2.254524794374614,-10.167156384492985,31.67394923475944,-21.882869523960714,33.71551299890511,4,S02
11320,-0.024755564477338066,1.0171550178724298,9.730779711189179,-1.8263544932489637,-5.843947196158424,-12.898922104038453,31.15535495367148,-19.626898428778084,33.52154989520024,4,S02
11340,7.400486845046683e-05,0.856226800241354,9.449418383617976,-12.153920233066195,-11.537469871067717,-9.312434696146513,32.243389454222005,-21.70065650426084,32.25211839616445,4,S02
11360,-0.27844212375224575,0.4345541765554413,9.233482630139438,-13.989122408597517,-17.49263675044191,-9.884528334179489,30.84327296324487,-22.490683829195245,32.513615171058774,4,S02
11380,-0.1979418466117802,0.35313344016665765,9.090450072752907,-18.61841862002533,-23.193504829015826,-7.816274655427838,31.624492731418563,-20.767924694147236,34.017200100670976,4,S02
11400,-0.2941629792934043,0.33929390331778575,9.12136675344871,-26.215513480838577,-30.371301966029495,2.282949997311204,32.56955702664746,-22.152390494946665,32.5804580948687,4,S02
11420,-0.2271314598721713,0.1149385039185063,8.963095938389966,-28.36133187183587,-36.30729292301459,6.716667455378811,32.04164029838972,-23.827675846955046,33.47888679200098,4,S02
11440,-0.354287161701932,0.14270635342393675,8.818142315441593,-28.43900790669911,-47.49217292528404,8.891856961473264,31.34982058539908,-24.84715382949933,34.45104493533737,4,S02
11460,-0.302174974671933,0.21175708372608315,8.858133002945506,-35.11105266850044,-59.07937679727423,5.570073424546646,30.30350233275935,-22.849885167101036,34.92201159529584,4,S02
11480,-0.5312828714856899,0.5415237513715421,8.919213222746036,-35.93962368785265,-50.8714058656502,6.501467272607992,29.98751965547641,-22.280892689179765,35.07068979281266,4,S02
11500,-0.4507954233155571,0.5724475327537435,9.151179461022075,-37.21481395549938,-50.817974764451684,12.237007406692754,30.176348450639214,-24.164867131002953,35.60314035318939,4,S02
11520,-0.42306642812210216,0.6702578335422986,9.057716628375859,-29.701072398827044,-45.693791045391265,20.475887055993923,30.73061651143716,-22.07165721146638,36.02321927499097,4,S02
11540,-0.5157195870162538,0.8109476183237292,9.439141626937207,-24.582787084660275,-35.46075118787601,17.998708759883762,29.78591927995546,-25.133462902779176,37.87377030288927,4,S02
11560,-0.012199510786257861,0.9882294852475095,9.404379368878534,-22.681158103285252,-31.706377122509096,15.26153633849356,30.1165832638766,-24.293365326369848,35.65369306393079,4,S02
11580,0.05608880479016189,1.1184242254598902,9.549924451785955,-7.6089579991862815,-15.673480047941817,18.13615486785786,30.245502230072045,-22.27378653640893,37.975771677596086,4,S02
11600,0.1596556038714335,1.420978124907995,10.081457953379557,-5.990598185393413,-3.2217406068143886,14.160391364945854,29.72828188644478,-22.496967419329366,40.29470774869845,4,S02
11620,0.22110474514980952,1.6792765000195267,10.31546922338817,1.7095217752727656,16.06936438978283,13.670659885741086,28.229570285771793,-24.87900996203329,38.74343731453126,4,S02
11640,0.4187490894324831,1.7894763295380887,10.51750294038412,9.034307746059145,23.459248777707177,8.16486204493051,29.105994533624443,-22.07032646786352,39.67008734882795,4,S02
11660,0.48303666450588834,2.0702410806357867,10.703052240973651,14.663328934589163,38.145237589805404,7.9063411066080045,29.870733908724166,-24.19428458808505,42.299730273859915,4,S02
11680,0.6661277335138156,2.2365163811305653,10.922317055036812,26.074367165501144,45.96089093589579,9.35967649995443,26.937086371333407,-23.010148178800804,39.675864624391316,4,S02
11700,0.6351756844668232,2.3364655269564225,11.232527307655358,26.407845198421438,45.12326509749809,6.740217383294273,27.796865095611096,-22.144366772127597,41.266569582973524,4,S02
11720,0.6483274682567316,2.612312613623812,11.24562727862171,27.484042405468497,46.46036562026933,-0.9672339746448778,28.734024092307774,-24.572474249097173,42.45721345522418,4,S02
11740,0.5395491903217061,2.540605521103876,11.467140427592533,25.95472332434858,45.292721015777744,-3.9172956895831876,27.4152479823855,-22.304852848390027,41.954438142335235,4,S02
11760,0.592925121193352,2.4182926319198286,11.490734542309673,15.980238081753523,41.75160954271621,-5.556880337379853,28.103138905749972,-23.470205983348592,40.06581419538275,4,S02
11780,0.39292186280744634,2.564695267997277,11.52965919068319,13.01795808738878,40.90164636632468,-10.689527861548088,26.398291812416915,-21.633397935877937,40.91578501465211,4,S02
11800,0.6239399370015717,2.4018740008051065,11.600521547904291,9.845558945462486,27.703553357382216,-13.076786414458333,26.427817330810676,-23.409402868620113,39.82277425987371,4,S02
11820,0.330072334241713,2.3050947698509527,11.277485495391412,2.4266716651810656,21.84650679114033,-4.508073850039158,25.470609943440515,-23.57532646153103,38.12568315408901,4,S02
11840,0.3211420780863685,2.0314875317846672,11.349613128863858,3.254948545759352,7.153344012018292,-10.755852904126295,26.630065446460886,-23.233091862745372,38.040251212161785,4,S02
11860,0.08614970300405488,2.1124270380719437,10.98352075531736,9.202274810245804,9.137935378649958,-10.968852013142618,27.736086620522606,-22.331488327095784,38.825724371685794,4,S02
11880,0.23534939664289165,1.850420915186686,11.045160443723834,-2.858961838348467,10.216983930683323,-14.875153098228095,25.56703710993392,-23.93560669270208,37.50843641002902,4,S02
11900,0.2309551966958426,1.513004724122307,10.71261317461733,-2.603465944610371,0.4765662451570476,-12.61862695089428,24.39128401705291,-22.128736396989,35.474328254571205,4,S02
11920,0.2253345010661546,1.3477036412361056,10.49431474178609,-2.4851135917366487,1.937898233491176,-12.558979637883054,25.90342969980092,-23.985389913821308,35.20369186380724,4,S02
11940,0.25363006978920233,1.0407936398469069,10.066616835392951,-1.9643496076630074,-5.1233450688852304,-8.96928152515868,26.38934574664308,-23.421304350738577,35.409579191233874,4,S02
11960,-0.020619279850745992,0.9411456447781328,9.911908613767256,-7.36318373701185,-13.871844645990125,-1.7189198052057058,25.08514657850511,-19.99015038261562,34.059173356993995,4,S02
11980,-0.035932005803377326,0.7700243264652928,9.660201663974966,-7.477459992762654,-15.746834017060849,-10.370912003493375,28.507620045988897,-20.510625268316122,34.20288323673001,4,S02
12000,-0.16478782951383594,0.6963791224072589,9.464131192234946,-9.19489769191328,-17.89351327179608,-6.262253659081457,25.269576529006073,-20.745168712357483,36.06070728633359,4,S02
12020,-0.0882319918110755,0.33748362803565646,9.227976171392562,-19.133386562821716,-20.675072314818586,-2.8688726776562685,23.3896209566404,-19.673906938498337,35.10469722336181,4,S02
12040,-0.10154019722389035,0.42138089766364684,9.181871819802153,-17.466522562786878,-30.469189738646666,-0.813898365298377,26.857311906612484,-21.438292944304642,32.042100973419636,4,S02
12060,-0.41014061297889326,0.3159983051956808,9.122476508316774,-29.901163375329485,-36.07542518968234,4.764730368262075,25.34278450264842,-18.96930635571712,34.203201785960786,4,S02
12080,-0.4106186269450982,0.1567230102318582,8.929905606737496,-34.383653172246476,-43.74392452335398,10.576330031321946,25.466625063483306,-20.27923613010133,34.04176905335631,4,S02
12100,-0.2663447112080485,0.09369626972136166,8.879581650790303,-35.613567596574676,-49.08613267228194,7.932140638556704,24.311369579929107,-17.450368655684237,35.375552251743464,4,S02
12120,-0.5263977051089032,0.19655528511363263,8.937716036446426,-31.829749915937256,-45.49707959415854,11.513370066575437,25.777822817157706,-18.823775051839533,33.80794090906961,4,S02
12140,-0.5353645316598478,0.4083312635335808,9.066855648060129,-33.936571604526705,-55.17127152338211,13.407063652792264,24.575766868735514,-19.956853801742117,35.855654171903964,4,S02
12160,-0.5416125022814737,0.4372722343929451,9.101460132453326,-33.09810474952403,-47.42788916765645,10.67746858910713,25.000151315861437,-18.300857298522246,37.071204419727444,4,S02
12180,-0.371606927337393,0.7324030036876052,9.189165946922772,-30.524353815184284,-41.49106650444337,14.670286225929582,25.426111154757997,-16.665954589335154,37.32605849259022,4,S02
12200,-0.1478645469513568,0.9423284191544652,9.251374054469736,-22.02983004249031,-27.59955520379537,17.139284450566624,25.00741768523219,-15.96140759942923,37.39061540098007,4,S02
12220,-0.08210254372301559,1.128304895528096,9.66263465780786,-12.40919621045538,-13.638558987054587,21.523162899126607,26.67132834977051,-16.170699476910414,38.89211178522784,4,S02
12240,0.10494332069876802,1.1634615084676763,10.002671290100109,-12.576529935306198,-1.7808073161860658,11.872975962331635,25.417522064694268,-16.45972920530702,38.1637080502739,4,S02
12260,0.25299398718861077,1.6769980913703826,10.20915448327321,8.312966050774552,10.889149583596673,8.998320574028268,24.798762321958,-15.871458508001217,38.889708985503084,4,S02
12280,0.3813802445670995,1.9087395120700077,10.564256287785543,13.218893530022939,19.224342239800496,12.855800548923478,24.22049435562186,-14.699560816464786,41.016693633653034,4,S02
12300,0.5111613301966078,2.179208945077722,10.709137365128004,16.802620937942514,32.76197814507727,2.664080210720321,25.441354046287422,-13.591313419146697,40.274412175623226,4,S02
12320,0.5407600905898572,2.231567542920479,10.82680631058936,27.217943948497222,46.835158888461,-2.352630431400349,24.94278427453104,-13.718216579388724,41.662704551339424,4,S02
12340,0.520547570761442,2.143749983630097,11.272833927994851,23.414928320632253,49.888987951027914,-1.6126561730782223,24.39247771480275,-14.56931650303374,41.979700688381506,4,S02
12360,0.6748550345583364,2.4940676994326156,11.333471924784755,28.35429960216717,51.01069204932055,0.09193828245099334,25.5779283300296,-13.724610982926048,39.263272067859425,4,S02
12380,0.8219062693310403,2.4592061130146687,11.586709337794176,24.395248445445617,48.43662343330026,1.6244305405897288,25.846189367397212,-15.627842185122354,41.59001510771185,4,S02
12400,0.6437896630380575,2.6841232842823244,11.684919487367656,20.5734095680892,45.884547131011686,-0.13762170407210095,26.47534805417743,-13.730626273100446,41.053561649044624,4,S02
12420,0.5555278395583789,2.6495961327451547,11.463285846748262,15.822662160773277,36.75643659839028,-7.736412636156087,25.30653722137395,-14.084579368094634,41.128037251455964,4,S02
12440,0.6041409356941998,2.761754409264951,11.412127740360823,14.382250856745717,32.621561580572,-9.505928584357559,27.074805108698726,-12.610223695472076,39.58608716481394,4,S02
12460,0.22477902496448904,2.460564932946007,11.344447087078917,7.286796218992593,16.918087747149304,-9.823825876082617,24.921864933626715,-13.211903638652931,38.62523475786416,4,S02
12480,0.33805494727798435,2.2382976780223305,11.363933940843022,-0.4911869666533981,15.970273914801766,-19.740277032139943,28.056979123279195,-13.979863921846432,38.70517811671015,4,S02
12500,0.418559491859267,2.0493032629179675,11.205095459890014,3.357157366751766,9.913697542703972,-19.130638694534053,25.55552143964713,-12.555275078772823,36.77265062600999,4,S02
12520,0.21358173484749454,1.8877916491352247,10.82531963356256,4.916152502566429,-0.7903616960997482,-13.657200703312776,26.315078965347023,-10.77888345059947,37.316521820577705,4,S02
12540,0.03406971867498208,1.7097719000415068,10.586085053043384,-2.5517111317077497,5.62723206743287,-14.638220289412532,26.83578881215191,-12.28997937233058,36.85503481485138,4,S02
12560,0.17427346162889013,1.345139744397105,10.551533844842144,-3.804928397917332,3.4177491149137165,-14.95484819545962,25.888773058565654,-11.595674653924215,35.81464020886994,4,S02
12580,-0.013168141343417414,1.105897211048084,10.11960451092827,-4.237622759758446,-5.150310596796281,-8.55561911354738,27.70223037995728,-11.24245020145947,34.648370702743435,4,S02
12600,0.01537966211570238,0.9326931274296499,9.944327090853804,-7.743230957383414,-4.906768708395773,-16.82806388787142,28.310750919790767,-9.55438637870763,35.20458733559609,4,S02
12620,0.06806642318934467,0.8500016452300545,9.535791069105406,-7.591352228316946,-13.521845905028428,-12.147210552201283,25.889349343918457,-11.122732818189103,34.332804354580915,4,S02
12640,0.022352573657546476,0.5696054834625821,9.359112534036486,-10.210890527850566,-13.675755978186892,-10.531085443786964,27.4137059071093,-11.119500173622543,33.531316161565776,4,S02
12660,-0.1618096499610117,0.4151642129700392,9.116402970346746,-14.444421458527682,-22.012130403181658,-3.6497596105163805,29.400350448718925,-11.100400204021236,33.65882558965147,4,S02
12680,-0.20264320646765835,0.2746311828999335,8.929795596080979,-20.840714787853294,-28.411207331951974,-0.1329417171888695,27.743470239241915,-12.04183029267713,34.98339377934411,4,S02
12700,-0.21387977494619967,0.24966106524535442,8.998337978182322,-26.661841865743526,-43.798475249052636,1.5516170922949026,29.93834824846762,-11.676701569725868,32.23500809679463,4,S02
12720,-0.4222654143172442,0.23029584292225952,8.945903158765265,-27.7391142277406,-47.8081480872538,7.3277343488885744,29.163709933961105,-11.163701345230262,34.83797942464322,4,S02
12740,-0.48925735003637805,0.30437097726436885,8.850854627353883,-24.63247484811495,-41.21352270868798,6.643489736833132,29.112462087671933,-13.26497499240055,31.99768841516244,4,S02
12760,-0.5500280680540949,0.20691479640727578,8.944082622103238,-40.08861523648363,-52.233041381752436,14.615025799471237,28.807881391791796,-11.0265972284314,34.94660629206646,4,S02
12780,-0.43091264225297654,0.22791140596399606,8.908893951465352,-34.63083097566771,-45.94896627280899,7.4689383487954135,28.463988449173176,-10.206054797478778,36.07709176665112,4,S02
12800,-0.4989622361874626,0.4556727478347919,9.279864451146183,-32.96275288140762,-50.13155097700431,9.00758898619127,30.92462667230593,-13.020944192049999,35.05920211208586,4,S02
12820,-0.29539275619689775,0.6060579052304529,9.271688540897516,-29.95055427042299,-41.02850195438101,13.992282229492579,30.20867817467414,-12.736278816015616,37.131728209626935,4,S02
12840,-0.2693181494175283,0.8937579514103287,9.606672083154772,-21.036679230529263,-30.902156229492505,19.68754822958037,31.304180773462466,-12.155661639736188,36.94562444728819,4,S02
12860,-0.11266247741764257,0.9934866925828298,9.698574880568886,-13.89353652375075,-15.266304154856346,18.026001323827188,32.0403934918359,-12.620964743539908,40.784190328219594,4,S02
12880,0.0539766247823305,1.4496116643980146,9.786893646591238,-12.790731597052144,-4.172095001576992,13.009329214570274,30.247933004408146,-12.368346607937657,38.585272479193975,4,S02
12900,0.21330348885979145,1.6504123465362943,10.228272481696946,4.377728121969198,2.8232359303906964,7.415890040431962,31.60039547769041,-10.656031317091026,40.5641276195419,4,S02
12920,0.5936103747279264,1.8409525232733328,10.643855803404916,9.039495142093159,20.761229401377385,7.0430160814958125,30.735942456211127,-12.622457463695532,39.37565138725061,4,S02
12940,0.4930723714873755,1.8539948634321188,10.752393465275768,16.577367349742232,30.291712712941887,13.378452621157617,31.376403743159372,-12.232594651912773,38.58096915848299,4,S02
12960,0.671434489594284,2.3334493321142067,11.004748511064651,17.936487887377652,38.919441697462574,3.96765207564331,31.095582422122444,-12.608571116604642,40.38189123726843,4,S02
12980,0.7129768220686322,2.320420146941263,11.318038180420709,22.236446670575287,54.86884835324046,6.332947267761068,32.903078535285545,-12.139343116997619,41.04843849903516,4,S02
13000,0.7593825332869204,2.643249989908089,11.351535709582777,24.20669693516573,47.62419926108146,-1.35736683342749,31.43393952637805,-12.542349790080776,41.56555758432851,4,S02
13020,0.6457902741779038,2.518286174175978,11.55880070902244,18.04461612088307,47.274258279994754,-0.7765596349342881,32.554685684447875,-14.063638505090495,39.86835482321179,4,S02
13040,0.596322653628783,2.4651823856617896,11.580086629128266,24.196558421507433,50.206939438480326,-5.501701273597258,32.79666829356596,-13.335255027641093,41.99785320450434,4,S02
13060,0.5213674577604634,2.5144056212655057,11.543478828970635,19.699818428187886,39.48071313325248,-11.800619350344254,32.90523446190581,-12.704400090234689,40.08754862518046,4,S02
13080,0.4918915283261436,2.5130451868138577,11.518220299036189,11.323342496657425,29.42811618156389,-9.891633800461404,32.21595768017528,-14.788642163481812,40.84635486732182,4,S02
13100,0.357408644270267,2.43589889022051,11.32532934517561,9.01692690503716,26.864757966465916,-12.11009938573728,32.485870776845985,-14.370507024496746,39.92176486740755,4,S02
13120,0.3028046357885327,2.5550622918823853,11.158882963663647,2.243196175832132,24.251642761164778,-13.519625649994511,31.222877400434722,-13.829954496398026,38.13564374046162,4,S02
13140,0.2097505916830717,1.9698573890769622,11.143259368469321,-2.7176811556307143,11.309641960175576,-12.40316925759675,31.505063447533004,-15.929537231498486,37.97989378150711,4,S02
13160,0.22538593927065978,2.204383933815048,11.12958099135458,-0.2123759911828369,5.791941216935268,-13.839843792163474,33.57444007461754,-15.015489519048877,35.91422729388777,4,S02
