timestamp,ax,ay,az,gx,gy,gz,mx,my,mz,label,subject_id
0,0.10031073789325669,-0.06353264963245626,10.144968578929134,-3.941912991113678,-1.076081742325334,0.33026338841425074,29.5869721781495,-17.069819565534182,38.17551621049277,0,S02
20,0.10099373494918167,-0.06579612822089238,10.142078713904674,-4.078940353211261,-1.4534876059732331,0.18932504711082054,29.476421584858507,-16.91452369638182,37.97683008045526,0,S02
40,0.10328899593107933,-0.06681117968032182,10.142818200355908,-4.1871676822952075,-1.2866515701758332,0.8330062705368143,29.763724102494546,-16.400659485543216,37.99785528310767,0,S02
60,0.1013379646537036,-0.06437323131131528,10.140297649421258,-4.285531775740474,-0.9695317625965938,1.1034933254688788,29.893729807183888,-16.89606706569574,38.1299043700077,0,S02
80,0.09677098773836638,-0.05957759617112269,10.144958774419061,-3.716744417827114,-0.9119041700641702,0.790312184519995,30.035285175840578,-16.828148951465813,38.10027425366765,0,S02
100,0.10878461974276482,-0.063419232147544,10.145015778274969,-4.353972366190525,-1.778833798786597,0.6423844789546342,30.026909152564563,-17.10701626233191,38.357783699106314,0,S02
120,0.1067436156585981,-0.06001935920841373,10.144916179787872,-4.149362003705747,-1.5170655978848802,0.4166270229430404,29.229994675873467,-16.177424951280756,38.423088755400556,0,S02
140,0.10689355439782797,-0.05835712076079811,10.13872380181936,-3.9816536006223986,-1.0574825246973931,1.010324766402312,29.74207257108977,-16.175345733080484,38.18426191692241,0,S02
160,0.10660089133054522,-0.053433707248671546,10.146787479745036,-3.7643411601823904,-1.1205818944618304,1.0226106452128187,29.274521948336044,-16.851037963330498,39.25950897050406,0,S02
180,0.09338365578986843,-0.057395055732451385,10.14355376154456,-4.150113582343506,-1.195593828391482,0.5192021946020251,29.787476695190342,-16.8380191624277,38.58880268939954,0,S02
200,0.0970308252952941,-0.0497172857890606,10.152262565460722,-4.056586767244944,-1.0751265485454602,1.0894555821446894,29.606592003525176,-16.69185000527579,38.543912218315306,0,S02
220,0.09993647568579686,-0.053858686226978314,10.136159464978878,-4.814907194556403,-1.369798165251197,0.9706069863188544,29.316093181106005,-16.735717309640243,39.27103301691167,0,S02
240,0.0979725702776078,-0.06568680540769434,10.152961098921478,-3.75198356371769,-1.3384488021668057,0.4763699430881583,29.781702418457694,-17.31897224212234,37.88995674030274,0,S02
260,0.10233976033574738,-0.05874217879534791,10.144901635282972,-4.009622764832352,-0.5932380894075764,0.6597587173035112,29.86197232550865,-15.684941791228498,38.22162560538919,0,S02
280,0.10738767866244289,-0.04843232256150818,10.15504047171803,-3.9459260607669977,-1.8411289522688805,0.5496872180611274,29.550721272060557,-17.592121401045443,37.999023303874566,0,S02
300,0.09637086247706723,-0.05801762944065558,10.144818629983616,-3.775898267717638,-1.303093246802441,1.003793260814635,29.715245692033697,-16.545128383712527,38.06105798311836,0,S02
320,0.09455408323635585,-0.059281912898768635,10.150630700952563,-4.156989168551232,-1.1968931735243884,0.8903209219912596,29.17621205080681,-17.160863952764927,38.341515590266546,0,S02
340,0.0944121362527606,-0.05372372149620332,10.14466538104293,-3.866581586201208,-0.7310579586831079,0.8177248714726877,30.27320830486334,-16.078948954669592,38.5345309448007,0,S02
360,0.09737402174595308,-0.04413329929314988,10.152987837963517,-4.420494160958214,-1.2043414984281435,0.991410693790639,29.780702073462596,-16.50108211796583,39.17315080006539,0,S02
380,0.09772556402556905,-0.05296668618083236,10.150136067239695,-3.785238638587816,-1.2660933599851814,1.0194083680765706,29.476918048214113,-16.07848802408951,38.48758196973124,0,S02
400,0.0985312257883194,-0.05961858185219435,10.142764792898255,-3.9609543164406977,-1.124535628031628,0.5058993215727692,30.219027919821983,-15.779095465794192,38.34814343815574,0,S02
420,0.1021319110823059,-0.05983199910938386,10.146497327198114,-3.6363467751587635,-1.2183199959447046,1.1580983870194002,29.55642596836006,-15.958950808213919,38.091184926762686,0,S02
440,0.10775430109467679,-0.05572562184796805,10.139457417131206,-4.363213656248206,-0.9887652805098508,0.5462284525668408,30.243044054676044,-16.267110836046463,38.33930196403664,0,S02
460,0.11285016019381959,-0.05298875803127473,10.15288416787809,-4.234588723050596,-1.4005264915459803,0.9644843021796343,29.748564166786114,-16.59792021244416,37.90664588952741,0,S02
480,0.09856249512691259,-0.055667721564850475,10.13855650340314,-4.606493483943984,-1.3389368545155218,0.43972151828826267,29.19582645407195,-16.594190015301898,37.67246437030998,0,S02
500,0.1049230617335423,-0.04556530056259708,10.142031494725982,-4.765090467635234,-0.7456570858390739,0.7158491952840782,29.771050195386977,-16.808651517749084,38.34571080601353,0,S02
520,0.09967498574672544,-0.05670533679293818,10.143072115829929,-4.372959903032102,-1.0561943709231016,0.36761512369118265,30.0744022698132,-16.4291958429388,37.93506003441824,0,S02
540,0.11400678743809478,-0.046130779932630976,10.14281401561286,-3.5054256879226413,-1.070739399005237,0.9054594636720064,30.38470660725807,-16.504288321974173,37.99238561514013,0,S02
560,0.09903174187356084,-0.0591256076291132,10.150874670673378,-4.018486495966391,-1.7619845000738787,0.13384742250793402,30.014356905840557,-16.18875719489108,37.7910531174336,0,S02
580,0.09994960975889627,-0.052514655017249,10.151322986085047,-4.6531642724501925,-1.2235309900410711,0.21482099556393985,29.44144077179336,-17.443391097562596,38.546953082577545,0,S02
600,0.1028885763143345,-0.04576001125106925,10.143859100231946,-4.559382245329759,-1.3293923110735866,0.5588482270038747,29.70836076656936,-17.510409871296677,38.18896312566151,0,S02
620,0.09887112371971876,-0.04580629392264422,10.145325905031795,-4.284905320598729,-1.7728462128210523,0.7661664359642146,29.856761164332674,-17.284243255644085,37.82748356756249,0,S02
640,0.10128528430358794,-0.0523758885541087,10.140581827450767,-3.7110488059826445,-1.4350876905428858,0.6262288097265951,29.668886054370265,-16.748142660093993,38.71136449534541,0,S02
660,0.10568532987672348,-0.049118665009690594,10.143855686369962,-4.175258556067117,-1.3454380870162808,0.3110570275635407,29.49449705726469,-17.290444167956995,38.176190925217675,0,S02
680,0.10742352180345942,-0.058893120720310915,10.149521140408881,-4.478475352338565,-1.3071626291494318,0.007114459943893037,29.960600222192898,-16.760691030509342,38.0384621813682,0,S02
700,0.09857444224067008,-0.05581760147602544,10.145118040823311,-3.7551312421027774,-1.6976961557492296,0.849832884570939,30.09144311092976,-16.805120591021378,38.52219538100658,0,S02
720,0.1019055066645617,-0.04660502365944833,10.154086234825202,-4.151447600811535,-0.7607987424301371,0.44565161959426575,29.783029853988463,-16.095131346834556,38.10193484778661,0,S02
740,0.10230381975685404,-0.04793621072230865,10.14071776137801,-4.08095826533041,-1.7041461924549484,0.21955126405428416,29.56968854267299,-16.156212775945797,38.35516886070126,0,S02
760,0.10738732045063294,-0.06329468403777307,10.1475648920987,-4.547360529139349,-1.1898339564622107,0.4849138553331689,29.656645863507443,-16.83966699299218,37.61294726769549,0,S02
780,0.10762262737524507,-0.052491179668972654,10.146445652666928,-3.858841660844191,-0.9847333125232061,0.9194952977968965,29.757111447168803,-17.11770200744023,37.897152720034164,0,S02
800,0.10466408556075107,-0.048176594729743276,10.141991795610286,-4.674010111162129,-0.7707098560346479,0.3551369148257305,29.712363575493587,-16.61309567141119,37.895492774960736,0,S02
820,0.09683739785549766,-0.04208879629370538,10.144533032599094,-3.6070741834865263,-0.9501166662568343,0.4812151791607327,29.81653932703289,-17.02179172977275,37.95704253822325,0,S02
840,0.10283443471067999,-0.053076077395960035,10.150885895420128,-3.8205239327327107,-1.1719852340673655,-0.27046550552251547,29.49843123832688,-15.983713560929198,37.70268542711111,0,S02
860,0.10891932776809624,-0.04921585378014907,10.141967378977462,-3.838770624112521,-1.4494240870777864,0.762237465064429,29.49216207456465,-16.880032364918563,37.81755731780881,0,S02
880,0.10287850599727918,-0.0594480834329175,10.143142376542382,-3.806186307531604,-0.8033764180489789,0.08706778088408929,29.65791427228802,-16.80885845793773,38.11232516262379,0,S02
900,0.10320764641864054,-0.0506015519619689,10.150176607586387,-4.341062783944142,-1.4685699793157752,0.5169303324873943,29.303440463979896,-16.77628192962561,37.94779063388984,0,S02
920,0.09689930372065009,-0.04446361337415754,10.149082099701625,-3.907935097730707,-1.0927727420685989,0.5692469316963473,29.859616903219596,-16.717382874880986,38.173433754653814,0,S02
940,0.08421661895383072,-0.051160939941568576,10.145776220643771,-3.8112536117925333,-1.7173072660175368,0.7892810058412993,28.927803794505586,-17.024022288979225,38.53385521675071,0,S02
960,0.09510815289072788,-0.0515089391061267,10.139493623167919,-3.9269966043661406,-0.8703976909088413,0.7493267543730133,29.742184845852407,-16.00152610195785,37.90904138528104,0,S02
980,0.10111879142544714,-0.05349694862116863,10.14604822775692,-4.139381824460262,-0.9491652123729559,0.19720162952508752,29.652837463026493,-16.755355373372044,37.96633441898956,0,S02
1000,0.10602198928199702,-0.05142380640637821,10.142855974099065,-4.298426309459566,-1.3639437282503921,0.22623208763186475,29.553951645211765,-17.184279149441718,38.32309469256854,0,S02
1020,0.08928640844227817,-0.056785513984722244,10.144828426801958,-4.717624687633771,-1.4338421127169323,0.7589938107096086,29.427697777580427,-16.580467120184945,38.18376557229335,0,S02
1040,0.09052909838513368,-0.04837043867810714,10.150678998069633,-3.9055382710579543,-1.2951631884496129,0.24854321567922166,29.74764709320417,-16.184452062452717,38.26451833478354,0,S02
1060,0.10362217481698012,-0.06043680068056965,10.147513164408933,-4.20968528306837,-0.9973168129100106,0.5090070213363357,29.57174939266395,-16.58146050906778,37.08903884379833,0,S02
1080,0.10027005295789009,-0.0529991244314579,10.143466882470594,-4.4313452838615275,-1.333673221794139,0.5390335675629141,29.751922971138875,-16.549486119162463,38.96767803412068,0,S02
1100,0.09526457666290182,-0.05407034050525337,10.14795648331981,-3.9620120532575607,-1.314501622816322,0.43801655360293756,29.159272745091506,-16.441656130820903,38.109618125860635,0,S02
1120,0.09459649138464957,-0.052814170024095115,10.147087164333895,-4.280261503058976,-1.2952848090327291,0.07351377351275834,29.790960019234717,-16.106088339883467,38.8818972905585,0,S02
1140,0.09468273042583583,-0.05973894582984645,10.143701703701034,-4.027183719465351,-1.1089203777263354,0.6023944098248247,29.775885610972015,-16.586707464770683,38.135723181806355,0,S02
1160,0.10030418660469685,-0.05775642190810688,10.14875139571966,-3.939605564168127,-1.2552913210793373,0.26857643958041144,29.211782562854122,-16.79672049374135,38.36329150786076,0,S02
1180,0.10033544461032833,-0.05611488045874469,10.143611062547564,-4.579806816818923,-0.9993614556641581,0.3000148981313073,29.43078451612583,-16.032784190352935,38.44329005993331,0,S02
1200,0.1048629073630579,-0.06173599197426877,10.152401826821672,-4.167003480127228,-0.7845796866247918,0.6815431669672006,29.879388050245627,-15.654589325396678,38.11700600740137,0,S02
1220,0.10036971931894524,-0.05604616110291553,10.141855186547886,-4.656947285320468,-1.1238022025077672,0.432378326715687,29.930202522848457,-16.833767913056665,38.56569811850851,0,S02
1240,0.10310426479898417,-0.055797067733635845,10.143373989359223,-3.7750322434937145,-1.5251616851578182,0.526253666088158,29.85513522118347,-16.951712422693873,37.593463017371086,0,S02
1260,0.10722864610069636,-0.0588840233745464,10.147820145407195,-3.6176048046700506,-1.3057799966024846,0.3466880859022313,30.094612496155253,-16.79823138077467,38.35579894857972,0,S02
1280,0.10140603207315087,-0.05918971004964526,10.144068311677477,-3.8474717064939568,-1.5444792741805344,0.4180051589239428,29.636533109382203,-17.412415967571842,38.06601727249643,0,S02
1300,0.09435695219624103,-0.057938489802653356,10.143755217690535,-4.272536132562684,-1.67559550045293,0.5874629442716417,30.166433630888935,-16.954754573469447,38.01720112326178,0,S02
1320,0.09376570627699932,-0.06118855221735481,10.145045080709732,-3.8854341327635855,-1.1815821440801477,0.8251003778282181,29.73161737825599,-16.617030347927603,38.684959652605215,0,S02
1340,0.10480024802466663,-0.06294605373767061,10.141546425227908,-4.567166364612038,-1.3090780873098855,0.9470800092413443,29.1863155677759,-17.140768925503522,38.91776157075372,0,S02
1360,0.10040709209115503,-0.06005693099977159,10.140280286020804,-4.173855680250362,-1.3240738393739833,0.5687028884278452,30.102365179863952,-17.397893465870133,38.46363341692976,0,S02
1380,0.0928071439466466,-0.06028241022385698,10.149431328884257,-3.2219025946409716,-1.501358665302862,0.13586862044690906,29.14349085241215,-16.756186133380176,38.74465405383795,0,S02
1400,0.10303306105132227,-0.06193997559457689,10.137051381680141,-4.399894263579109,-1.0707119077780576,0.4812501881257254,29.77091894427605,-16.515119431749568,38.05381725049015,0,S02
1420,0.09448238698624335,-0.059125053965237165,10.152330775157484,-3.9450030839097425,-1.0222449624495558,0.829651457711162,29.92925038078316,-15.623844851290242,38.1421220032277,0,S02
1440,0.10470451262873567,-0.0542209375718102,10.15175319399429,-4.326399441864006,-1.5075336879783938,0.554186900937474,30.123988964473142,-17.412249500227713,37.77558359598911,0,S02
1460,0.09727972442431146,-0.06655167890760363,10.148281331703249,-4.409524922326412,-0.9316707531554536,0.8802573226423094,29.790938512675268,-16.47759943563061,37.939797995502616,0,S02
1480,0.09983100048131238,-0.0731464928590109,10.152252834279055,-4.289288761385165,-1.6901713785571555,0.4250594843839311,29.884768436171875,-17.171366673737978,38.3949723375126,0,S02
1500,0.10543720507206682,-0.07785474110270121,10.155837625233545,-3.9220808744402706,-1.4043044642173412,0.6565459061361495,29.53073983002849,-16.762176022219048,38.6471260502274,0,S02
1520,0.10623230673315134,-0.07269745729759465,10.144390245699537,-4.339543397102998,-0.8642445972944166,0.4174954379452814,29.549358556983343,-16.86280084101447,38.05114052710461,0,S02
1540,0.10683085422522996,-0.06789923204025887,10.139852327490614,-4.195995746922814,-1.4905655373561448,1.1449665321806939,29.94360639584577,-16.478398321526054,37.97306906098586,0,S02
1560,0.10665465393715326,-0.0736014765942691,10.144360785492681,-3.995687523145702,-1.1582520996221084,0.5645686092102661,29.95022606053868,-16.995778434543958,38.18417186589345,0,S02
1580,0.09434082894609132,-0.07025942079399432,10.14824537565333,-4.273422620943549,-0.9646879670323016,0.38685268028769293,29.249794411149345,-16.643129430418632,38.369363530479674,0,S02
1600,0.10407756990557027,-0.06961889698543847,10.141853196459737,-4.017354744076855,-0.9297465053343171,0.2796269733410612,29.69557884570764,-17.06984700155037,38.26016880414325,0,S02
1620,0.09818026520787078,-0.07637432839615113,10.146989958348051,-4.117647289953653,-1.0392700786937585,-0.07822074919397648,30.15148031945937,-16.299649099403183,37.82371815070337,0,S02
1640,0.11094200815544106,-0.07166852193548673,10.149632302240676,-4.227209132100265,-1.8888087076802842,0.5676881234179417,29.924524971194785,-16.364431114170323,38.44553069742364,0,S02
1660,0.10511696865912994,-0.07328462242769851,10.13884060466792,-3.667480569178913,-1.0430073376076976,0.300314479973231,29.64956985251127,-16.48416429918526,38.071555629656395,0,S02
1680,0.10079491339220137,-0.07047831760238073,10.14208593583293,-3.747817248230496,-0.8625584157011872,0.7530804344395519,30.163728938055314,-16.817922965726893,38.520246915367814,0,S02
1700,0.10523702722943931,-0.08365239079628041,10.142621273602531,-4.016153383964747,-1.3123741789324106,0.3443254927789982,29.77613487358539,-15.944827631303713,38.306739184122776,0,S02
1720,0.09547866008652778,-0.07651670750923079,10.146099368764865,-4.4223113576433155,-1.2801995960652748,1.281119667231198,29.853302371418078,-16.472693262144052,38.307610934124654,0,S02
1740,0.09848289261236734,-0.0755774931207823,10.149358748539827,-4.052918589811615,-1.1108190067131463,0.20998797044981948,29.609797676704506,-16.589636216407218,38.3635761791711,0,S02
1760,0.09377347519905652,-0.07834285214404935,10.149907066380175,-4.053990591557743,-1.003761295214011,0.9330499458604512,29.886816836284567,-16.17180456399945,38.26176774752647,0,S02
1780,0.10408785440193903,-0.07826845607966357,10.143334840450063,-3.8533473868000825,-1.8243787344396918,0.8901640471886554,29.362750440340793,-17.08320186669385,38.83795010950467,0,S02
1800,0.10367131297268067,-0.08058865824709828,10.141837552489818,-3.9355398867238756,-1.7314680512586373,0.5270307252010769,29.399397421129514,-17.231918239903283,37.35680184503719,0,S02
1820,0.09845079057463826,-0.07126023658688008,10.143746640493902,-5.010472615300209,-1.519652753693618,0.11680683820803178,29.783038138624885,-16.790277965388924,38.52528997847864,0,S02
1840,0.10198659880943355,-0.07975108616793851,10.141358844507433,-4.098199882059086,-0.967896509337109,0.11869294442737766,29.06526126164999,-16.74754940027276,38.24701602695751,0,S02
1860,0.10224872780538749,-0.07767861629490584,10.152301939559075,-4.1669390606604075,-1.804161844371109,0.8721468028035679,30.0698498783094,-17.063384196375345,37.69104968462904,0,S02
1880,0.10366821403484197,-0.08069375036531486,10.143752072279533,-4.5508753593101385,-1.5469825702610662,0.43918598708305717,30.101067569293704,-16.446794398184117,37.41830770861578,0,S02
1900,0.10113109554628778,-0.09108126498434868,10.141880946876308,-4.329132429978272,-1.211889013194904,0.7015995088296483,29.755023174070693,-17.080376625867515,38.15760967926809,0,S02
1920,0.09762044489238904,-0.07584990718126258,10.14666774336798,-3.874665216783558,-1.500067798864506,0.8014126072164259,30.50480587807789,-17.097462886852185,38.03213014698647,0,S02
1940,0.1054802575722004,-0.08127953649862717,10.138026653704985,-4.702826166253291,-1.397047211544277,0.7983215379578419,30.138366954998993,-16.934000807134417,37.693305184856946,0,S02
1960,0.1009634289989203,-0.07570447938694079,10.145378527147843,-4.145614624748741,-1.223497760511401,0.4771254566461674,29.95359170363835,-16.40032116336971,37.62892505951767,0,S02
1980,0.10259388491029081,-0.0819296579016031,10.135214454953454,-3.9642327510925917,-1.1465191336669434,0.3660301770003336,30.161368029371936,-16.72198618147697,38.684654263388154,0,S02
2000,0.10483288099965432,-0.08580341817451347,10.149539753494555,-4.394396596541934,-1.2718984599818226,0.338636012532315,29.21221195949122,-16.78656338842484,37.98731634150726,0,S02
2020,0.10166642569385115,-0.08138282697913772,10.149426188968953,-4.001144699241513,-1.4826857414436128,0.5504772071689963,29.828320619349796,-16.229714689130596,38.23550190911243,0,S02
2040,0.09873426112440921,-0.08853448094309382,10.149184774343963,-4.463391430038278,-1.8026717290485756,0.6050916850221633,29.4311093326115,-17.11662427759007,37.94443640261005,0,S02
2060,0.100160151062304,-0.09133466688809311,10.140657386416015,-4.638403433824889,-0.8956244888705471,0.7452948390995154,29.1534813278752,-15.892961801304605,38.29120327557564,0,S02
2080,0.10546462123355199,-0.09231735914406557,10.138800065517428,-4.677850680120237,-1.48627000179187,0.08618385881944424,29.295992403514855,-16.435937243429077,37.769292224323756,0,S02
2100,0.10013983015517768,-0.08708063023382881,10.146779021140778,-4.713372771126268,-1.315573327503865,0.9662102206004313,29.112617255303295,-16.452200417142294,38.5264187484755,0,S02
2120,0.101712061345604,-0.08986749749709208,10.145276723135954,-4.3909445902029445,-1.3204980504766288,1.0220190258206718,29.994116570741262,-16.596596010351632,38.48077984446676,0,S02
2140,0.09274177972582338,-0.0918222788557536,10.152867922753474,-4.090832823805859,-0.7172641755985898,0.1788055398699625,30.005931079470898,-16.23556467142018,38.619631319143835,0,S02
2160,0.10094111042690163,-0.08831630727497418,10.146244991143027,-4.511438776072907,-1.3576784090421516,0.3000346611850291,29.287318988926152,-16.036464292084542,38.48229839647915,0,S02
2180,0.10692749460990303,-0.08798680144597375,10.153770080545588,-3.711322220339905,-1.412487287327421,0.5224564316548754,29.5499384701389,-16.512438143906273,38.08698390365554,0,S02
2200,0.09540491716200312,-0.09552853056225924,10.148744509236778,-3.9801624177192356,-1.1829063035968186,0.481744280599025,30.052799763542033,-16.585200453613375,38.66402143166799,0,S02
2220,0.09567877208779664,-0.0876855637451982,10.149986140480449,-4.221505605042929,-1.0567727033896783,0.4377913271375825,30.082790456442016,-17.30481446548005,37.8176977175792,0,S02
2240,0.10391880836503017,-0.08906877552590498,10.153405942550325,-4.144359145715771,-0.8084477343424913,0.49523628224502547,29.630352530695394,-16.577881221196296,38.234561188645266,0,S02
2260,0.09383238309558015,-0.08814042050510529,10.156943362364004,-3.702070237665716,-1.3252372454857966,1.135536540991469,29.870193968336096,-16.576674779517823,37.89995721478954,0,S02
2280,0.09593332590771912,-0.09369538285636826,10.147015326707319,-3.9285496677436518,-1.2425020141759755,0.632063172341227,29.400740053114344,-16.534824878450642,38.706146556320995,0,S02
2300,0.10911248840013762,-0.08192922528063096,10.145120338951186,-4.376767384106148,-1.2250825054553103,0.5812016449403918,28.69142987661793,-16.34771781181176,38.82866108816591,0,S02
2320,0.09874159246710554,-0.09304621689171418,10.14937857365733,-4.435547241791834,-1.1136018337375644,0.5696459396509728,29.61847381566183,-16.387702288393626,38.23818148148535,0,S02
2340,0.09925774134181249,-0.09497874927416108,10.149141132995279,-4.328561503847694,-1.2657350675945531,0.5809695054983622,29.6490505365313,-16.590029101930064,38.05441142361972,0,S02
2360,0.1002073359859758,-0.09083570488258977,10.132552859852954,-4.074099679798579,-1.6089917977632082,0.7282447465919638,30.19407338525708,-16.13908757370824,38.67176668102419,0,S02
2380,0.09860400603925856,-0.09201811596178386,10.142288979470171,-4.357088173641421,-1.9464013044229436,0.08941439201343682,29.878499035287508,-16.453942294597482,38.079250299080606,0,S02
2400,0.09587853089680584,-0.09235860323591101,10.137750798133451,-4.095667733008217,-1.362553719583601,1.0715936429708082,29.334136083399443,-16.722360100587927,38.35583252574726,0,S02
2420,0.10420638226355503,-0.09247260854167957,10.14482974414125,-3.912021707959379,-1.1422144757375194,0.9332417126916506,29.341277427918126,-17.200924599086033,38.29529098595262,0,S02
2440,0.10402552507801965,-0.0843379850809017,10.147383815017603,-3.8380112629840863,-1.590486395039362,1.2652970021479766,29.911397578418118,-16.687072609532933,38.11850884019941,0,S02
2460,0.09072388412802569,-0.09708537388826402,10.144266414427584,-4.613710728580647,-1.017229111615601,0.8734395483059479,29.30978296100788,-16.280260875948745,38.32696278475036,0,S02
2480,0.10413991601946197,-0.09337121834355584,10.13721417168489,-4.031956176770165,-1.2042945735855417,0.3998963277407356,29.529167764329923,-16.689003208958564,38.26101514823408,0,S02
2500,0.10042359935871724,-0.08646014673525343,10.150795618926344,-3.88953273967305,-1.175049620133599,0.6350532545447172,29.89460410746638,-17.10814639094043,38.47757888648989,0,S02
2520,0.09065168184399336,-0.08938171237431898,10.143321425058565,-4.442517729277088,-1.0216085767930898,0.5934922942182584,30.32999202966943,-16.48950110075016,38.14940054274549,0,S02
2540,0.10039867704029416,-0.09078434028470543,10.150712180597887,-5.055402965334717,-1.1598832737098523,0.5210078437721898,29.37202230719305,-16.25283289272059,39.37006947367231,0,S02
2560,0.10441961777553388,-0.08656894114685597,10.14523362468638,-4.0797587981354555,-1.4706825612090642,0.20108048137652945,29.492028856494148,-16.36285303532953,38.611017130170964,0,S02
2580,0.09779573350266788,-0.08941166935439357,10.144146643794997,-3.948283502661421,-0.8993910222979363,0.7725145123923642,29.420644687142566,-15.761995713757472,38.38529403322206,0,S02
2600,0.10229028983752451,-0.09368836209722825,10.144724454035485,-4.5145631049225265,-1.101460174536541,0.5037225451541578,28.837807094547568,-16.306653069836962,38.45526113446845,0,S02
2620,0.10772530938621343,-0.08366883796437932,10.144091407473448,-4.610075945083687,-1.1843314839789842,0.5829047704133958,29.79566778566503,-16.80713170812244,38.288906558130044,0,S02
2640,0.09733898503615583,-0.09379216134711368,10.143146705687297,-4.283054338162602,-1.7724815645238143,0.35115293509548967,30.487588715647185,-16.494090925348797,37.706660509325424,0,S02
2660,0.09543828366174166,-0.08938465823907991,10.14585413926312,-4.072371113533148,-1.544119490507945,0.697334092403653,29.1495650697438,-16.799884506662757,38.08387332960312,0,S02
2680,0.09695688100954426,-0.08118071993595286,10.152171593129859,-4.676032024067963,-1.4031678582100635,0.3260143971288696,29.539890564812637,-16.669840222050535,38.500711728251275,0,S02
2700,0.10206568820607065,-0.08163600381768922,10.134774465385656,-4.443105997257691,-1.7057598624804262,0.5050914292009517,29.227240755542706,-16.522678705061562,38.335994201605594,0,S02
2720,0.10041018087371671,-0.0823381595894404,10.156167522776016,-4.902029460181377,-1.3185156491242314,0.627726251976444,29.89696762825078,-16.75436846155018,38.4349004248571,0,S02
2740,0.09450459994054403,-0.0884626703591051,10.146855748534717,-4.423802778689411,-0.49855099795564795,0.6275832908051077,29.08952485966404,-17.09578467085275,38.112701553169906,0,S02
2760,0.10152055279527719,-0.07803720888995978,10.153356083255403,-4.499010617403999,-1.0429433328470934,0.6963798773068548,30.246397242594735,-16.432814642802775,38.03812041131568,0,S02
2780,0.09593994873976665,-0.08840331456699813,10.144790802800019,-4.3203411196354,-0.9524074036065967,0.517323594429039,29.9727815798752,-16.686072369362368,37.739890384223315,0,S02
2800,0.10178958387640082,-0.09279556847089679,10.147420691195068,-4.014812060622273,-0.5062264773315502,0.34423672995591387,29.7338595959694,-16.948188780331318,37.83526050111398,0,S02
2820,0.10662104716132384,-0.09285838400877361,10.151557856696929,-4.42561368668726,-1.6635040692443395,0.8066263398198538,29.651232455650938,-16.20128043309436,37.60662688807064,0,S02
2840,0.10064051449897653,-0.08863016306189905,10.144148752467947,-4.134628810459219,-1.7355265955889343,0.2954682087659948,29.429034258443625,-16.64139444689785,37.89970996354267,0,S02
2860,0.09812689197561848,-0.08250579814766312,10.143655790920562,-4.484600056679427,-1.8383299111050238,0.9307675158146937,29.579070452343707,-16.824941770625422,38.46875755651413,0,S02
2880,0.10622884562358507,-0.0996355132542934,10.13650349475642,-4.065067335426758,-1.0554564425979063,0.9299613545485061,29.59091051185569,-16.589452585278195,37.883004598826744,0,S02
2900,0.09897435592333002,-0.07771702144403177,10.156883341847855,-4.137456537025004,-0.4699995218003352,0.5438855756950357,29.533658989197175,-17.090702670437658,38.110130063951296,0,S02
2920,0.10146424785934574,-0.0763995637578803,10.143170307175579,-4.563800221595282,-1.563214751370472,0.7856239391134742,29.134010406777428,-17.05077672737307,38.92042741918596,0,S02
2940,0.0960135755346205,-0.08116416428350057,10.151315442441843,-3.7937988881087263,-1.8194324256677086,0.854845663389931,29.892573468423592,-16.28397815986176,38.43201572466275,0,S02
2960,0.09610958526373424,-0.08000756132661409,10.14247850922537,-4.491478801566378,-1.0486378728208243,0.516033023701086,29.568078085114443,-15.696352034028102,38.1531924054011,0,S02
2980,0.10012003162660169,-0.07688068458106652,10.132708948443314,-4.285550180026212,-0.6467621710320619,0.11799015432641913,29.882901343299483,-16.98029508975252,38.40229385975606,0,S02
3000,0.09802002551422548,-0.07299356813115783,10.151258802775951,-3.8908106510948426,-1.0525645011712568,1.658672757729497,29.37394281411502,-16.80291475348584,38.54841478875627,0,S02
3020,0.09852749833029924,-0.08145941114489541,10.14971020167999,-4.223911378586359,-1.1348985190234024,0.7430803127493228,29.858770793505442,-15.662174116202234,37.698008158681915,0,S02
3040,0.10895223405205447,-0.08575708751925942,10.150202441764584,-4.406341714451205,-0.9666911917282999,0.9127355882774957,29.91539345147333,-15.984951355850564,38.64201115628294,0,S02
3060,0.10657843721496299,-0.0806271888089464,10.154154410542002,-3.707522833223892,-1.7867367305939945,0.7725211952235054,29.356873871794537,-16.487844235590465,37.95505442442086,0,S02
3080,0.1031781423838961,-0.07292947558985291,10.140727065393087,-3.7196462366351026,-1.3847203558982575,0.9923690616167158,29.317960670633987,-16.76043091979811,38.61895449147406,0,S02
3100,0.1008498108099173,-0.07286175207329643,10.151451771363055,-4.306030404657129,-1.3108145890603202,0.8503341524633852,29.34368738156125,-16.524203404675667,38.0589196829204,0,S02
3120,0.10528599535030289,-0.07891826323956097,10.143007503568473,-3.772693307230886,-0.8295354681426432,0.17949897747768068,29.8039112112509,-16.70060403056851,38.38383260963243,0,S02
3140,0.10428294368307725,-0.07152356935166386,10.147694281299774,-3.9998097673399666,-1.3338169714504873,0.4096149372412461,30.04897123108615,-16.211359506393965,38.457175924129615,0,S02
3160,0.09659378737558025,-0.07645252140512007,10.150464204947054,-4.091222748006781,-1.479288990203636,-0.02904144656065355,29.58251528609062,-16.401830978196017,38.225680645657945,0,S02
3180,0.09798813555520727,-0.07622969964196394,10.14896130141339,-3.5213053463874187,-1.5011019016672824,0.7160768794642921,28.830767342538305,-16.801542349019556,38.75102717337556,0,S02
3200,0.09446955025247747,-0.07566117501907949,10.141952351220613,-4.2612763755106435,-1.540203648899847,-0.07686382771792832,29.371752410452856,-17.569375925326465,38.02273848125963,0,S02
3220,0.10647446702826814,-0.06850893216095262,10.13888891266886,-4.003216723850459,-1.0538816691023343,0.24731949932974168,30.1062199057246,-16.437424265640797,38.65580240428675,0,S02
3240,0.09897328851758198,-0.06650528774516695,10.14895265922582,-4.4830147281677295,-1.233002998798182,0.5252418534384944,30.071653308558904,-16.171277506575176,38.00469433451242,0,S02
3260,0.09848949551016488,-0.07128611359508596,10.140770229442948,-4.427521909133072,-1.2167621530141295,0.7501226729011399,30.296511224795104,-16.17622458432029,37.462330192115886,0,S02
3280,0.09765193841868136,-0.06368826824953458,10.133843664356105,-4.534052557660039,-1.0349425488501545,0.3648809002846063,29.506185016112934,-16.45543712826621,38.78250825327497,0,S02
3300,0.10502505069146185,-0.06227379154696827,10.151379051696562,-3.822568522638425,-0.9744331620587117,0.7882625102900251,29.48485084766279,-16.37981253209978,37.60450855030358,0,S02
3320,0.09328559360170052,-0.06387132554652708,10.135694984076075,-4.195543378147076,-1.6920880612365587,1.0914558951344515,29.060536712796818,-16.93661211855292,38.52048750517734,0,S02
3340,0.09291076342740166,-0.06342749060508734,10.149382994452592,-4.380465130008604,-0.9900224423821674,0.7627154462639614,29.561667695566346,-16.45347832214788,37.53392737404689,0,S02
3360,0.09427942939879984,-0.056337652580548195,10.146963484595407,-4.23357868458616,-1.1252059843428728,0.9141734366775589,29.17142058766801,-16.929943592440715,38.70183068116134,0,S02
3380,0.09765995512990706,-0.06443385409038545,10.144235907155219,-3.76560489560661,-1.545751468027078,0.9391283314235235,29.620166237263458,-16.127583122394704,37.5596206881313,0,S02
3400,0.10129027900571806,-0.060950167369637445,10.147053841689425,-3.987660648504657,-1.066055904350938,0.6351864036017882,29.213869315399275,-17.415094901468414,38.241575620621546,0,S02
3420,0.10399737808621111,-0.06763374683904956,10.143327688505146,-4.1632535114656815,-0.9645503792804939,0.5620727057277645,29.100033316560697,-16.264271108715405,37.526906350249284,0,S02
3440,0.09764114463831126,-0.06717217253113994,10.144727926287164,-3.877207482775193,-1.3174121410721567,0.7480512245555253,29.66771026382124,-16.910128850305988,38.10854912490454,0,S02
3460,0.10492695048726833,-0.0615507681078475,10.148506304561115,-4.403533975270981,-1.4587621563397473,-0.408094220709038,29.705255687749762,-16.001124605535523,39.02189343994309,0,S02
3480,0.0890336141805947,-0.05683402537535574,10.144639996320585,-4.184482128583863,-1.2711643559457235,0.2642529916636891,29.45937188161317,-16.36161298786372,38.107863676427726,0,S02
3500,0.10252869584702246,-0.06499610977069631,10.151379494381327,-3.7850475904596843,-1.1738034487949127,0.5085062717501271,30.145081222392463,-16.581068079916534,38.28869355806404,0,S02
3520,0.09963809091240293,-0.0646888713783491,10.14440533339633,-4.7422703218047095,-0.9773147051047256,0.3086746682661703,29.87095619027851,-17.241174134904696,38.37803714145478,0,S02
3540,0.10330034818612968,-0.0547135414911101,10.14701546491845,-4.0278452383191805,-0.9757660504062853,0.9524196362800678,29.36379606755227,-17.220868625412827,38.69511922462674,0,S02
3560,0.09995282918819408,-0.06225095630674106,10.144857850502287,-4.216093127431592,-1.048520900671634,0.29612058573476707,29.459124126682415,-16.367107666080095,38.62071368484311,0,S02
3580,0.10249570713460088,-0.059116656011876566,10.155384121569142,-4.072134050598361,-1.4310139700365438,1.0301130887946401,29.673501593009078,-16.684476749245253,38.11071113416041,0,S02
3600,0.10438203067920843,-0.05920065234185464,10.135151236386445,-4.443306624582201,-1.3430509706768337,0.8038302072060723,29.67317868049457,-16.15062457621885,38.48629711006751,0,S02
3620,0.10700862346072175,-0.05767916382959992,10.152353905939515,-4.375275577616387,-1.0581107244105903,0.7245961185447249,30.768111539099653,-16.8867805478258,37.40775170008885,0,S02
3640,0.10565678193917857,-0.0653145753111153,10.143636214641134,-4.094468392673325,-1.5843049262573143,0.09911926964402684,29.47441019001882,-16.690627645657067,38.198566636709735,0,S02
3660,0.09658429010346624,-0.05426161737798785,10.14771318972782,-4.446146861436833,-1.5466009122982949,0.3120342882671543,29.727697641086632,-16.874923352375525,38.3464949329074,0,S02
3680,0.09747528912356708,-0.06200274448392579,10.15190503004149,-4.323132934053732,-0.9086925927667044,0.48564313872776854,30.438964207252077,-16.55456478850703,38.148430966435015,0,S02
3700,0.10318338072090712,-0.04645269389878083,10.15177132893732,-3.911767255226802,-1.2533556243082595,0.765097668050461,29.693198198256333,-17.41231066481952,38.73100636509916,0,S02
3720,0.10904157835929279,-0.05259405399106047,10.145348774720178,-4.689733216338638,-0.6931842649461643,0.6180561525628911,29.345245419130013,-16.866496264424654,38.68221931023445,0,S02
3740,0.09735417948792321,-0.0466782923468792,10.13465288480825,-4.212828077662011,-0.9583936287559838,0.6556125290802413,28.936840770710965,-17.023410526580857,38.38282498818258,0,S02
3760,0.103052899095089,-0.05446564158839483,10.148918106507782,-3.986724971220132,-1.1653462137619588,0.9265654158909058,30.115484434506303,-16.43019820465777,38.03441310943756,0,S02
3780,0.10268957690270912,-0.055875460936704244,10.146464746885751,-3.7558723919479777,-1.1944570941742463,0.9576612376333498,29.76811544194452,-16.726965353330506,38.53148769530101,0,S02
3800,0.1051599980675426,-0.05666945254551686,10.143689102556595,-4.089170857966233,-1.6214891033025196,0.5251198274321102,30.045143541262583,-16.285925527504155,38.29552221986676,0,S02
3820,0.09838684810379268,-0.0582333358428129,10.138816344037185,-4.190110116540249,-1.4265190475513294,0.3051832768972932,29.751740852359674,-16.608111110166924,37.9435218834953,0,S02
3840,0.09495955530548479,-0.05484032790857874,10.14798186138547,-4.144292280079067,-1.4854954035272736,0.6043659962823502,30.521543943284897,-16.056055245377102,38.344943045709705,0,S02
3860,0.11218380657329391,-0.050361714649589565,10.145847737623932,-4.505978763742389,-2.0680480494654456,0.5745967664002398,29.6835100870338,-16.446319973411065,37.9584626846954,0,S02
3880,0.0963822721808671,-0.0404752088115811,10.143916499570379,-4.628990027977121,-1.5048851001738341,0.7885851616777655,30.234818086223566,-16.81698215570043,37.53245540482337,0,S02
3900,0.10487944639393304,-0.05487992633882813,10.140666334602058,-4.3924916461560235,-1.0842922884731474,0.8931019575189626,29.3194944710764,-17.47716933379762,37.92945974810293,0,S02
3920,0.09434298175157049,-0.05095952408089926,10.14642587779376,-4.513436802955151,-1.4324190118764817,0.5721356514283026,29.573134280461332,-16.412447613737413,37.98646943842843,0,S02
3940,0.10970280763738004,-0.052890253036405474,10.148876051749316,-4.182534825601688,-0.8720704755937205,0.8923651783301926,29.78341513101323,-16.82057943099918,39.606071672399196,0,S02
3960,0.10992423711673784,-0.04546786452732471,10.140248478293433,-4.709460554385774,-1.1181736920078704,0.2264122249355332,30.539613330657602,-16.81764145733835,38.20299313446498,0,S02
3980,0.09656687590615895,-0.0503247502810521,10.137601317621725,-3.972659571372307,-1.1757597524606707,1.0351565358138384,30.19545171838271,-16.619455755386223,38.357042432055245,0,S02
4000,0.10914868443565863,-0.05047147004308581,10.146574494930723,-4.523178407653205,-1.0349514376902127,0.5553917038788457,29.59730567770768,-16.44199274524204,37.72239926888641,0,S02
4020,0.0980642817839955,-0.047689334367998854,10.141121650250714,-4.4858478937912345,-1.329289810927755,0.9839862828305727,29.933141273271247,-16.65276646722904,37.45158215853039,0,S02
4040,0.1025579725862671,-0.05443410649182107,10.142076558077774,-4.2848553124759,-0.6386182932020188,0.06760856081442301,29.753721073546664,-16.5842216167106,38.081123375199255,0,S02
4060,0.10223144720025043,-0.043189656956973396,10.143518488634987,-4.084999340623833,-0.8791289555015661,0.25208599375994795,29.47949410573869,-16.929086584468237,37.83829756192542,0,S02
4080,0.09904116373254324,-0.048080402235299066,10.14758283037848,-4.166961596293631,-0.866473582280365,0.3821889863754192,29.43837959341935,-16.634092113113443,37.893053720689004,0,S02
4100,0.09966340060959368,-0.04820554934163848,10.143738571609289,-4.2765990349294745,-1.4466562950606814,0.7733181908479967,29.391610026008287,-16.793742300597618,38.02039052013187,0,S02
4120,0.09458466117655775,-0.05618304136497548,10.1561878721349,-3.839329115178128,-0.9700332282001993,0.20045568537732505,29.214396312362975,-16.57249396227907,38.505220602907734,0,S02
4140,0.10525716961528567,-0.05888883613907828,10.151856361232596,-4.537556040105558,-0.8532710665270664,-0.24520268970857828,29.73193921370761,-16.0437037980397,38.47869749080795,0,S02
4160,0.10345727164278752,-0.059434309323026915,10.155745728324641,-4.3274849485170455,-1.281445293887931,-0.025029040286619453,29.651101635022677,-17.742496257652284,37.93987007892395,0,S02
4180,0.09933082036016931,-0.05413267030647453,10.137454818932765,-4.395925482344649,-1.4373523605857108,-0.0016007665978113872,29.857934069884788,-16.28077409007984,38.21375688566902,0,S02
4200,0.09865557093333965,-0.05221894397513793,10.145738737209234,-4.0457363991265565,-0.43439109634403006,0.6847546941740816,29.58037319555327,-16.291740156343565,37.75234666922602,0,S02
4220,0.0942968495240235,-0.053677050738572395,10.14830830844442,-4.849583869398878,-1.3273786679495634,1.0059120556411476,29.278446670234562,-16.634202754403233,37.91246614963093,0,S02
4240,0.10334876702219993,-0.0532230241957396,10.140253612102285,-3.9090365763306045,-1.5814289673293964,0.36699621112847886,30.377284610863086,-17.416391085518633,38.2872781175699,0,S02
4260,0.10349042922274725,-0.04697428497384169,10.13947000327214,-3.993814945840332,-0.9010140111720244,0.7673293717067218,30.14781883038758,-16.099729818018673,37.92583849531539,0,S02
4280,0.09755558406165535,-0.048537790606750744,10.147370916266206,-4.289863439123824,-1.093996382727759,0.1975283225923733,29.456871148369864,-16.679253095237385,37.936670347423394,0,S02
4300,0.09513557334248372,-0.047484610913956164,10.146797780573031,-4.065327738194908,-0.49891592304908716,0.49084693700261817,30.00732307531043,-17.278261380864087,37.90568824856396,0,S02
4320,0.10233043304529231,-0.04703543919734353,10.147024274658412,-3.8414477532265305,-1.134888616264207,0.38003236047516475,29.72320158764165,-16.930525873935416,38.45412811920224,0,S02
4340,0.099191078531782,-0.05730889399621476,10.143755990155165,-4.330726046076645,-0.6428455689465532,0.880924807871916,29.67203505498798,-16.1773257714319,38.19847895376416,0,S02
4360,0.1028200859914901,-0.05283492225774256,10.14425039382168,-4.087804567482153,-1.1875482337655283,0.5608186226927484,29.9188960992737,-16.643391939165472,38.01452212584434,0,S02
4380,0.09209597614122213,-0.040009240137155275,10.141660587170644,-4.492984247801903,-1.1889978587795873,0.015774586159686632,29.914509196124207,-16.72753136643076,38.69342788691927,0,S02
4400,0.10753065228039677,-0.05079304043856098,10.147239254033096,-4.151673897831218,-1.491067846305996,0.8794554224851721,29.350411655479768,-16.433189024640747,38.588572850899176,0,S02
4420,0.08925092078035347,-0.05486946038240395,10.147450228848227,-4.469165688959968,-1.2052971402375392,0.5664876195363282,29.31988932413499,-16.810848650020073,38.14563356971531,0,S02
4440,0.1010544287416589,-0.06321020793518872,10.140247175483939,-3.77805704080232,-1.0581434553985758,0.05779447903556034,30.818808801217124,-15.615093814659136,38.00119174676344,0,S02
4460,0.10174334309015193,-0.06524278496516991,10.134339774886472,-4.253832348927547,-1.3061499120035893,0.917951914472232,29.56081265534927,-16.07983162881215,38.52781025472724,0,S02
4480,0.08882531522757547,-0.051791952350349404,10.147338947638197,-4.458351518133297,-0.8459482627261424,0.4472287268452163,29.75568477409565,-16.82362156601379,37.64568767122765,0,S02
4500,0.09376617739552323,-0.052770511696547014,10.146433362694017,-3.919671295858113,-1.0854758686522719,0.5116149534729358,31.161962573695888,-16.86360714897119,38.155653902274274,0,S02
4520,0.10538895063979661,-0.05783306210774705,10.15224840795745,-4.209007916235706,-1.085898009372353,0.8841911744112922,29.939483898996347,-17.597468030238957,38.31434984550158,0,S02
4540,0.10746074484730095,-0.06727939558117728,10.148938371993248,-4.816717516626505,-1.1495592283906375,0.5346144300718081,29.143755279886165,-16.60110570255836,38.40496099508307,0,S02
4560,0.10924008004724213,-0.05651863905254681,10.147363959275907,-4.408699519714721,-1.0372812078733022,0.6671605264242797,30.186049514636544,-16.955909165518687,37.9530627669003,0,S02
4580,0.09487835723497147,-0.049435913675261026,10.13531274579548,-3.661549552064023,-0.4022655695286266,0.7300342211939712,29.752591290367803,-16.6616423050005,37.99494389489188,0,S02
4600,0.1070012384566746,-0.062610666868522,10.136400279941414,-4.0018539480107975,-1.1921875182644999,0.46140329048664125,29.640096141268067,-16.619256015894685,38.09390972543237,0,S02
4620,0.09720105253413916,-0.06639938766656948,10.135589568161771,-4.766737820405124,-1.6596031807191791,0.4524547035358763,29.216897833959266,-15.88881664630656,37.705485523519556,0,S02
4640,0.10200438636602763,-0.05633312701770075,10.144652486772568,-3.832045602216225,-0.6916830471775197,0.9070703919313531,30.09425067569259,-15.519954780850348,37.914760614251776,0,S02
4660,0.09916179954097035,-0.06398080295328,10.147685432138006,-4.339866705107419,-1.2302894564530966,0.6884651031567526,29.892107653319194,-16.614284741923363,38.02556969792074,0,S02
4680,0.09776226402783884,-0.05971406196393267,10.15914973225676,-3.514283251774195,-1.3430469595480499,0.6401802796101181,29.321971824415666,-17.57655481212447,38.0611200048876,0,S02
4700,0.09967930213733504,-0.06447687167102847,10.153483030163537,-4.442536079220439,-1.0701766828336834,0.8892646668906923,29.67965125237742,-16.666306786399524,38.15248654740301,0,S02
4720,0.09872231571288557,-0.06754648096236135,10.151090617040644,-4.310458581827272,-1.270274497750971,0.09843541322081728,29.70083825785048,-16.385320837049356,38.274886142787814,0,S02
4740,0.09768506794690233,-0.0639173003972029,10.144316517162892,-3.8822817255059014,-0.8011463284592342,0.7579912624850245,30.722797118797374,-17.920388402714845,38.32594617334627,0,S02
4760,0.10136114767739952,-0.06476643785393571,10.142388156864596,-4.2415396445223585,-1.7192096027363957,0.6110204225726115,30.385810516356393,-16.850732688943296,38.229014115716225,0,S02
4780,0.09673087619229158,-0.07013585896742726,10.145639359099,-4.120996223302199,-1.086946377506166,0.3476092253990809,29.767308558404665,-16.359714272539808,37.91461750672236,0,S02
4800,0.10679155156436261,-0.07030789187202155,10.154263625278094,-4.422453582940563,-1.2778711380885577,0.630767480019693,29.3686919895915,-16.758522393690455,37.97618801136601,0,S02
4820,0.09645271584652886,-0.059137910868284405,10.1439632836471,-4.077354844405732,-1.9251464153541802,0.4445136482585944,28.9310582528394,-16.726060007294112,37.8966120548491,0,S02
4840,0.10071244932779902,-0.0704645689119506,10.151302660233135,-3.9676190594303957,-1.1261316841449638,0.9181336528913933,29.656083258822775,-15.6886848861071,37.90708310923176,0,S02
4860,0.09728517835879465,-0.06957590136214689,10.14182016259244,-4.240823631756596,-1.281269634133065,0.7356159005147054,29.700193190527457,-16.750469798205692,37.99241189110815,0,S02
4880,0.08802002517307063,-0.06645399632059822,10.139036045636395,-3.992432307262849,-1.238324343104229,0.9406775021143954,30.012167338002683,-17.130342940632957,37.99650963522719,0,S02
4900,0.1032845850521449,-0.06563987077232054,10.143237716547304,-4.097692617465397,-1.4944738090888396,0.38364983788171747,28.842660472190698,-16.440263804074903,37.97448856850393,0,S02
4920,0.09786945362808858,-0.07119857780463452,10.149236694649531,-3.422139855946151,-1.2923224379398914,0.44401566606242254,29.125582909832403,-17.359248100016938,38.32396122560476,0,S02
4940,0.10457680524149418,-0.06764202363091269,10.146847772853606,-4.474389844454763,-1.0332433288256926,0.2172967111399679,29.61069150700698,-16.413097405566184,37.9701405238577,0,S02
4960,0.10684259684835166,-0.07027209025986776,10.152308481649209,-3.990546773159735,-0.8248508495803035,0.3386422401898534,29.696247021716907,-16.45367624602394,38.27259797368989,0,S02
4980,0.10106203662545751,-0.07113486952451276,10.140208548510063,-4.321634886600856,-1.0249560528512287,0.4076782711065109,29.65109672822619,-17.360322847034467,38.38898899234118,0,S02
5000,0.10264522882287985,-0.07518315490086691,10.153682582240283,-4.2115375485318625,-1.6997224396091053,0.46177424155930363,29.41755152957268,-16.31075668694131,38.14576708775192,0,S02
5020,0.09828060043780096,-0.0703514068954397,10.146675425215005,-4.3803048452417945,-1.1376270826345323,0.24670929865123276,29.296906759918922,-16.43312517631681,37.01172242569074,0,S02
5040,0.0892225019248479,-0.07138378671695622,10.147191060911211,-4.064041225931681,-1.4736812517680409,0.374564561660612,29.237972810881082,-16.189019513001206,38.892518343617546,0,S02
5060,0.09554277750200452,-0.07349919953938905,10.14938973878714,-3.922143992134658,-0.6569742064263389,1.174673155880027,30.426691777239462,-16.655360586482566,37.81228404665687,0,S02
5080,0.09515759830325818,-0.08191423399707759,10.147996981575533,-4.242152334677412,-0.6512988807054659,0.29953216830998297,29.551215681922613,-16.190820508721327,37.699104485009066,0,S02
5100,0.10588001491610224,-0.07708380104071451,10.13834871015786,-4.508422256305619,-1.7757688341672693,0.8978382332069549,29.32363774097641,-15.456726129588684,37.900274801604226,0,S02
5120,0.10034463049426268,-0.08337587196718563,10.144497688637799,-4.7145369559797174,-1.9253101884419945,0.22793256867434003,29.324529916596706,-16.846060068080334,37.29099747810132,0,S02
5140,0.10578781411424709,-0.07306064585181929,10.134573769817536,-4.510780377744705,-1.7880354127028752,1.1832691433588236,29.625359249746978,-16.52192670915592,38.262172933435,0,S02
5160,0.09415819744311958,-0.089230268802789,10.146051711110156,-4.2849484160187945,-0.8339428714831564,1.1093600508322972,29.71507009607118,-16.75704481010913,38.414559866152366,0,S02
5180,0.10125602396958566,-0.0806193389449508,10.133347875893245,-4.295247906991935,-1.0004592120726385,0.6979331269857159,29.35269344760738,-16.390550335068532,38.04060873388471,0,S02
5200,0.10503819961299193,-0.07630239128014685,10.146446201675667,-4.780330709195171,-0.7874933178798785,-0.22503988219122972,29.97496598322082,-16.72799014948229,37.75940824948392,0,S02
5220,0.09514264555564635,-0.0757067029875459,10.146833815285367,-4.214756471529121,-1.31131577952181,0.5201314592341406,30.08699148553129,-17.335956135685386,37.51550548717727,0,S02
5240,0.1009367604541305,-0.08177206465978507,10.141278254113963,-4.475104563155535,-0.538983158781268,0.3066828624404458,30.06210642196643,-16.900622836240586,37.89382549488839,0,S02
5260,0.10358107413655612,-0.08650344656477792,10.14627084811748,-3.903162988801031,-1.0251739460956255,0.42422536200308547,29.929811032388123,-16.281052473894036,38.530626783261475,0,S02
5280,0.0970658106363494,-0.08766703576827256,10.143771711867485,-4.9571709286205525,-1.1484808904041548,0.5745355431079762,29.796366192395205,-16.437621908730097,37.89361171825702,0,S02
5300,0.09642668095783699,-0.09248348959189136,10.139268412951246,-3.8422471369894633,-0.9196911317733701,0.6863014523537322,29.731633278331643,-15.735343604764092,38.21794640389712,0,S02
5320,0.10536674426719912,-0.08299295860031516,10.143484163299407,-4.672430697664227,-1.1811174143855427,0.7891654616618328,29.705961089161423,-16.382059996846216,38.06467945282745,0,S02
5340,0.0950505223762892,-0.08718934340665882,10.147277195534707,-4.1208710657172,-1.258430060244586,0.9977108086225395,29.60636239917297,-16.75648078418551,38.10108839018119,0,S02
5360,0.10076040387133192,-0.08205359980140743,10.140705626913451,-4.30150059551131,-0.8364274996889222,0.6994218032910612,29.009541036327423,-16.303504883884465,38.24233080746896,0,S02
5380,0.10925426540788796,-0.08394947956352622,10.145777798335937,-3.3459557527604065,-1.6133124449545684,0.547570774488987,29.11172267412662,-16.57482380834174,37.92528214881823,0,S02
5400,0.10642263361773172,-0.08717854613742237,10.146460726856903,-3.8756428009609176,-1.0354982738321108,0.4469799110298653,29.852957915109297,-16.436684319955674,38.158670860474714,0,S02
5420,0.10061719895836778,-0.09094002789941916,10.136449247659607,-4.0720278481064875,-0.7702796225576545,0.69781150270883,29.76566765965834,-16.94365830641679,38.45338096313361,0,S02
5440,0.11532449804339723,-0.08562571527703042,10.152796385203132,-4.2965136297918995,-1.880919785803068,0.8833297352187252,29.95303657511574,-16.650152671067456,37.95044279993201,0,S02
5460,0.09141112819396978,-0.08985924516282022,10.147707594399904,-4.395075552028207,-1.188355838815889,-0.28923497517470576,29.945008647786892,-16.21791691553799,38.95504911378934,0,S02
5480,0.10717458112569915,-0.08381865392813857,10.141815383512167,-5.044075170561394,-1.0237398076857167,0.6396212331950225,29.27675534689118,-16.895189114984376,38.660254220259255,0,S02
5500,0.10387893176310299,-0.09423862956910105,10.138819843723395,-4.538892083927199,-1.5323491341848725,0.45959823374201153,29.7634068260385,-16.73050961113892,38.317609839656164,0,S02
5520,0.09391418284481891,-0.08065759730130043,10.152921004882604,-4.054732400548819,-0.8706013052915551,0.5491170300536133,29.53951037479535,-17.41484488587296,38.26858547153745,0,S02
5540,0.10400983304966331,-0.09199220556583626,10.153206842503248,-4.073878233937585,-1.2911593307276954,0.24957863938671132,30.033962976789674,-17.304514430894294,38.30113469950754,0,S02
5560,0.09869814399791539,-0.08206257447823152,10.139854055828504,-3.947411733592895,-0.9668716941156463,0.44777269065319875,29.720091634775983,-16.904339988716067,37.99590855423362,0,S02
5580,0.09749001290141368,-0.08806261254251292,10.143033257682076,-3.983507210463238,-0.7851076323231176,0.18439182607586774,30.218465990836624,-16.85182568076246,37.58555910202875,0,S02
5600,0.10231396103380179,-0.08396509896173676,10.13814186980075,-4.171026601207127,-1.0206808081686816,0.7175829909275747,29.56621049663251,-17.284067451790317,37.95178479469318,0,S02
5620,0.09493028383838088,-0.08666565703992152,10.148507683778336,-4.462153145332848,-1.426858964643329,0.5830174882781312,29.5282274481576,-16.532964116511682,37.91568072473925,0,S02
5640,0.10059178109163112,-0.09273963640677205,10.147767732463606,-4.100000343413831,-1.2235598769327705,0.354024257238781,29.664077426018775,-16.841077791045734,38.58584632214667,0,S02
5660,0.10981424547980133,-0.09036007609128668,10.1588768857828,-4.094367566018703,-1.053977191786136,0.5879051458655657,29.984139575150287,-16.85446401112821,38.113103630323295,0,S02
5680,0.10482808240730189,-0.08393286748814262,10.147277529803711,-4.0115059774265145,-1.0361831413800828,0.6911703294514652,30.25480088290405,-16.40088333330315,37.83633155914453,0,S02
5700,0.09172960952773676,-0.08424697534928,10.141044196897278,-4.493377292500762,-1.1341976192004946,0.4059104667166801,30.102019580399592,-17.460642481635055,38.53617344559443,0,S02
5720,0.10660413371648927,-0.08676794243839092,10.144108499613631,-4.12926112237627,-1.0525992232020904,1.005410814860523,30.310161462541952,-16.389629606424545,38.760491892975956,0,S02
5740,0.0948420312632804,-0.09158265229481882,10.139928099546985,-3.9479423537960536,-1.4702626769538911,1.1657433984414638,29.931887365099097,-16.45261479451681,37.91681061185861,0,S02
5760,0.10899612101289767,-0.09693307555118738,10.159494847200579,-4.175237457878793,-1.0889179098923503,0.39455639539527354,30.35110371005535,-16.497455664051934,38.21991003340929,0,S02
5780,0.09473208532993342,-0.08678361929292375,10.147772559810134,-4.147019905301511,-1.3494775294707695,0.254498181176603,29.317866652866748,-16.813206968796276,37.4910469457545,0,S02
5800,0.09543911111096812,-0.09158681387949379,10.139636107520198,-4.2122798099256835,-1.1423274366632241,0.7666315199497857,29.90696464524941,-16.515652318195663,38.2014869326483,0,S02
5820,0.10521700532129917,-0.08594736594367758,10.148438673848077,-4.125482017013635,-1.1635492460847439,0.30416530260468844,29.913650885526014,-17.543888237987566,38.043915002686674,0,S02
5840,0.09621215693312729,-0.09692551457567956,10.139546884075466,-4.115995388493669,-1.4287075782713212,0.7281847641748617,29.59917136592486,-16.914598918423636,38.13129090565532,0,S02
5860,0.09623556463134256,-0.09144109027906862,10.147700681896568,-4.294702830172244,-1.2126356930559323,0.4776575854461139,29.024203182877557,-16.877856565003764,38.237393464916565,0,S02
5880,0.09679864682204217,-0.0936645396546461,10.145186796765048,-4.239744499955921,-0.935058724382036,0.6215041828387001,30.302280396207564,-17.2170921538082,37.75656618327867,0,S02
5900,0.10109797766485862,-0.0969882114010111,10.145981915413467,-4.719353612149332,-1.6455897222461284,0.5588107925631633,29.304527786883096,-16.907168920395495,38.457118602732706,0,S02
5920,0.10157548857032873,-0.08513611617929814,10.15245993359108,-4.075701541730801,-1.238142884018127,0.8181965291339917,29.847298360839403,-17.134670410325064,37.803314707167914,0,S02
5940,0.09195382727290201,-0.08326532209061384,10.14153294093934,-4.426080045390355,-1.105377606503338,0.11388362061874813,30.057850559782104,-17.047683579195375,37.70377034649672,0,S02
5960,0.09509426793898117,-0.08792136554484715,10.151354806952483,-4.342456326466953,-0.9027289931195146,0.8073559365370311,28.81314209907126,-15.798970429976917,38.44153473935704,0,S02
5980,0.10434406664608208,-0.0858552792366403,10.158112718066103,-3.7328085567915332,-1.3223656385498976,0.7587915646231483,29.614590871391627,-16.420053885027322,38.84223321067323,0,S02
6000,0.08765115318277361,-0.08976002305935094,10.14074972921007,-4.2438831812115145,-0.97463040724283,1.3117603564408558,29.62279287223283,-16.68457639685039,39.168153045550405,0,S02
6020,0.10035208716928866,-0.08503237804074856,10.151288961641294,-3.847749632922505,-1.5156358808085761,0.5526215315651767,29.52407407700402,-16.73025634863727,37.303419826180175,0,S02
6040,0.10618820074325543,-0.09243602557973842,10.14880695318647,-4.085103814050812,-1.0701445240776313,0.9153680066291052,29.470243084012342,-16.53037763941181,38.591645658255736,0,S02
6060,0.10305222576527136,-0.08125486154708224,10.148256171037891,-4.156759008395992,-1.3178628811300404,0.5180017958627521,29.859340586993458,-16.602178299899784,38.33712413588733,0,S02
6080,0.09346247296407767,-0.0869684185890437,10.146887801739858,-4.457606612670341,-1.4382773286628678,0.6438819444914218,29.418263929092625,-17.021325273254256,38.8985527542107,0,S02
6100,0.0945069050500794,-0.08783482724270368,10.141936741780716,-3.899442505174596,-1.2983099290366116,0.6792419272286127,29.867411342707722,-16.69228135539401,38.201170250650904,0,S02
6120,0.09315297121334679,-0.0881773843400326,10.143613042836531,-4.014312487880473,-1.1058725421636677,0.6234142878732125,29.26534375467688,-16.51083390688725,38.30702050793261,0,S02
6140,0.09055922031026648,-0.08756993693574108,10.14972634357707,-3.9836105926091494,-0.2353929614020316,0.6159473056577801,29.355421392700336,-16.715929584138628,38.0056075229713,0,S02
6160,0.1066647066823821,-0.07890923119377731,10.147680727730148,-4.3068281526154495,-1.3428647071150934,0.5488481208737537,29.540724457756028,-16.543739245883685,37.836778687940566,0,S02
6180,0.10950466753083242,-0.07357812882505868,10.141905411082007,-3.862355115697356,-1.0915515166412535,0.7220851802566717,29.10702155738804,-16.246125637798585,37.40714203640352,0,S02
6200,0.10072676390871237,-0.09631075310121202,10.136605073819098,-4.470849034825143,-1.027829549123276,0.5441924505543816,29.43135023423497,-16.194750548247445,37.86412960249189,0,S02
6220,0.10147981558693454,-0.07845955041539339,10.141190762153169,-4.61578716944344,-1.4901009713830426,0.32956520014333557,29.597189201363154,-16.545172011435145,38.833510913622945,0,S02
6240,0.08917368771670309,-0.0754591131662871,10.133149441330556,-3.632520747698352,-0.9479271220029301,0.5117854255252323,30.020490831405592,-16.142691866834962,37.9180166956693,0,S02
6260,0.10274308685167016,-0.08079233627284664,10.1418035067567,-3.404803133021006,-1.0229272652256067,0.8590346792643442,29.452443167950733,-16.63729015304594,38.31134648943581,0,S02
6280,0.09947079251659317,-0.08252838787838411,10.143679732272284,-4.527453664575925,-1.224567429703093,0.5810828906328138,29.81659078660996,-16.126442657142082,37.72042719533641,0,S02
6300,0.09602546085599695,-0.07524490605484742,10.150865073494462,-3.821139278015968,-1.336919298410102,0.5857870496384184,29.347883334434435,-17.392475926156308,37.997113679538856,0,S02
6320,0.09905596019923518,-0.06955954988667719,10.13936547538876,-4.116144356358442,-1.0376191878548702,1.1300608835446704,29.797402725803472,-16.398769249786653,38.226851496614564,0,S02
6340,0.09832529285193066,-0.08004222058611897,10.142992441324742,-4.024405205619696,-0.8908763935579757,0.23608300085971978,29.665410892245333,-15.94917953617948,39.52082503285591,0,S02
6360,0.10206559388683574,-0.07899081259569357,10.151260239928265,-4.074817274731884,-1.4588938833136416,0.6763093234557632,29.563044740371556,-16.32705936511268,37.71636228631185,0,S02
6380,0.09432606451980526,-0.07642700222272314,10.144495616100466,-4.180130896471281,-1.3191499287190256,0.9412301913933335,30.27594805274638,-17.173266788450753,37.830999186805066,0,S02
6400,0.10752480787693026,-0.07697579180314663,10.14539167715826,-4.653183924224573,-1.4616900054895072,0.8836242068008221,29.482410559969058,-16.48125170805565,38.92272360737473,0,S02
6420,0.10813112555654832,-0.07394555516025661,10.144483523794953,-4.2993461169659835,-1.1961367949932038,0.7606512964639094,29.33837911689944,-16.23185470210285,38.67458472610503,0,S02
6440,0.10157803102905898,-0.07483178107032991,10.146292206580044,-4.287206903765158,-1.29681024444571,0.23725200420439796,29.876172380868724,-16.872331514737844,38.0215776473866,0,S02
6460,0.10516926229909292,-0.07139718963171124,10.147891098477436,-4.185313740159611,-0.7842719505990828,0.66205444207565,29.103223281022288,-17.015668718647074,37.426338758996295,0,S02
6480,0.10288660655273354,-0.07481637032630302,10.14145705672696,-4.595554764097024,-1.4535808921611657,0.2902988510807911,29.840832615394202,-16.906919108627143,37.89464436625232,0,S02
6500,0.10649605132327933,-0.06882730058253062,10.14250676359368,-4.088959087040275,-1.4381567480008908,0.8075494221397927,29.310518585202082,-17.1000607359056,39.00441140590782,0,S02
6520,0.09487292485397195,-0.0703322679529671,10.152279310971494,-4.3883888217907945,-1.2803797494252909,0.31041623211986225,29.62345311848634,-16.66695605669406,38.00737618606241,0,S02
6540,0.10402038417816604,-0.06947815379189576,10.147874921319898,-3.7655322292539952,-1.1949098921179984,0.5751432056677226,29.109116206518326,-17.350889076518037,38.03400833817469,0,S02
6560,0.09571670002259416,-0.07347812165117028,10.148195132758564,-3.636387131892013,-0.8942057609134642,0.42785960960326486,30.294693330954633,-16.754236311008363,37.865558025549866,0,S02
6580,0.08315408985453483,-0.07028953200052009,10.139735610248625,-4.326134537307385,-0.9187136553864669,0.6612476747930534,29.26990337244778,-16.456207768170017,38.154209108788265,0,S02
6600,0.10838283784836658,-0.06936705265625336,10.14425293714529,-4.305574829187682,-1.3235280981262592,0.7069370223011605,29.35059468815332,-16.383851664621673,37.81291916636091,0,S02
6620,0.10904939156148774,-0.07138138495688483,10.145383405860873,-4.31875118499921,-0.4725355044537448,0.804089494949868,29.683565521647147,-16.537066517981877,37.66031161650976,0,S02
6640,0.10012115579402837,-0.06837621127959263,10.141327968772817,-3.5438956647332476,-1.222401094731659,0.48201635821733024,29.413511813597605,-17.431763108861304,37.5900348910168,0,S02
6660,0.1023169011463033,-0.05995965865706385,10.155596317019333,-3.995915563680791,-1.3015781717403436,0.8950901217853617,29.43468273166914,-16.413672700606405,38.66837370484452,0,S02
6680,0.1006763772557295,-0.07046693683516886,10.1487982006124,-3.780492836075885,-1.3895152479804125,0.23050275840261486,29.171193647491656,-16.249355836091176,38.1303546150884,0,S02
6700,0.09555383294958525,-0.05923204425046495,10.14513920875917,-4.385339425541348,-1.1304716273925441,0.5763119035375893,29.054992529239904,-16.35691195061554,38.29766592943502,0,S02
6720,0.09487582164815597,-0.06560583762263883,10.147435081228801,-3.877966502654044,-0.42507481286491333,0.9668812306784662,29.4975588697782,-16.43865736050266,37.92479894430572,0,S02
6740,0.09448126527425829,-0.06900324750663524,10.145959764016343,-4.3319327036495325,-1.056209200819812,1.0806420232064595,29.480286907200295,-17.11698344670276,38.07730661310357,0,S02
6760,0.09830944416889324,-0.06498848247506371,10.145013000861718,-3.8692262980045915,-1.538820941453538,1.1026718558660273,29.37368471589968,-16.219886056958515,38.54695388099878,0,S02
6780,0.0974220705896069,-0.05615537236177917,10.142442766065148,-3.8436579991358566,-0.9662804659521955,0.6658994636807817,29.529929478510194,-16.746938545192158,38.3169535902449,0,S02
6800,0.09689371022170556,-0.06599385377274265,10.142439765070582,-4.460685902903237,-1.33704238531588,1.419716085226666,29.55811297156511,-16.6572157656573,37.9103838162944,0,S02
6820,0.09226901734456183,-0.05787117308235848,10.147636306247628,-5.116113502324149,-1.404497162681103,0.9711936781034904,29.222292225379277,-16.398007584795216,38.37629959819044,0,S02
6840,0.09270617020798076,-0.0531291963642178,10.146159290772706,-4.143910591691687,-1.4806029825861047,0.06413707710325112,29.25165936292152,-16.488775885574135,38.43689746114593,0,S02
6860,0.10126022338982585,-0.061997136066266986,10.143007486672296,-4.283536654418261,-0.8592591302109971,0.8089096979966621,29.968780553170937,-16.372564973548336,38.57874090410069,0,S02
6880,0.10364138234328027,-0.05470043211242806,10.14182124481905,-4.110940707479716,-1.3175414304774993,0.8169995505031807,29.573328744071688,-15.703502091476526,38.810516192832225,0,S02
6900,0.09836890182490658,-0.05880542704917559,10.153151413296914,-4.151730198709229,-1.184534835836826,0.8884082219591478,29.157104668175865,-16.93921584075062,37.99006710198258,0,S02
6920,0.09714574006524229,-0.0537501264821869,10.152096161978758,-4.06118767045235,-1.4899150809060178,0.6016916264486842,30.07468340566657,-16.094037659946856,38.06466040754509,0,S02
6940,0.09785937244986473,-0.05724985393215272,10.14538096528037,-3.952583898873515,-1.1964828450165232,0.5913011887996545,30.103690815315225,-16.210763463586844,39.148409511876075,0,S02
6960,0.09898397441379449,-0.06302947234694858,10.139104153399652,-4.163504162578091,-1.160413969760233,0.49426229946606226,29.409636250706566,-16.689350709868577,38.37751602158218,0,S02
6980,0.09751396105251436,-0.04948660954254709,10.138397320671276,-4.415479470604209,-1.027641611643325,1.024566388966864,28.76709191063757,-16.362882697184855,38.22680961298012,0,S02
7000,0.10247663943659063,-0.054235672465055895,10.14637591912999,-4.296105291976967,-1.1508706176530812,1.0913339454734028,29.35332189978023,-16.256288732994157,38.43358827235062,0,S02
7020,0.10839634981332824,-0.05725722169414185,10.148261172413397,-4.32363796224961,-0.9215767899844491,0.8404637122555748,29.26927477113632,-16.5818630148569,37.919877029457794,0,S02
7040,0.09873721523186305,-0.05452152183416502,10.143448306224597,-4.50144964205907,-1.205308834450327,1.0206813693736516,29.746165544458037,-15.92176222389049,38.17979358374205,0,S02
7060,0.09922493311202513,-0.05040193889823573,10.141962962609886,-4.535255467270437,-1.527985088112933,0.6412061447362145,30.11926315286747,-16.98900036391929,38.50882792225737,0,S02
7080,0.10128486362452267,-0.05070210258406291,10.151031334264799,-4.344690496469038,-1.5351578887858421,0.4464437953528991,29.22303361719698,-16.388643940088787,38.63666502047423,0,S02
7100,0.10370980279084135,-0.05650258043488738,10.146608746133335,-3.9334620585630367,-1.215775089466237,0.9582816127532502,29.51058800482373,-15.970030350297973,38.41405803017812,0,S02
7120,0.09444683154623473,-0.05267385013271483,10.15054606865153,-3.8359839556807813,-1.146895387121433,0.8908090276455943,29.62321456490083,-16.801838023476876,38.40430840217601,0,S02
7140,0.10842305774249537,-0.057982612081353815,10.138295507203944,-4.06900443243682,-1.2128340557424862,0.5780455805367274,30.420631234506587,-16.36364279378308,38.388099301497384,0,S02
7160,0.11374686837976447,-0.05297187360232507,10.142855400149884,-3.7880507932566823,-0.9531156900814091,0.9545013194682885,30.110952455630695,-16.93001914007594,37.86492141578789,0,S02
7180,0.10277737970349089,-0.046875616116741445,10.144167758027468,-3.5479608064505204,-1.188490045932009,0.4709466401798369,29.672439452445424,-16.073560453271043,38.16624923141901,0,S02
7200,0.10028776503037044,-0.052902966315851216,10.143426060874134,-3.540844244417863,-0.8952027524952889,0.87985122543886,29.551448406107372,-16.627829917675278,38.08915950033687,0,S02
7220,0.0944384406292157,-0.05400693298701101,10.139887429739836,-4.349928152967715,-0.978014698408761,0.34217826068177737,29.79701234795518,-16.5858018713027,38.41620702333749,0,S02
7240,0.10333628934413032,-0.05274168996833255,10.146705148539878,-4.223001984042619,-1.4410435302932587,0.7000388233608574,29.448593404520757,-16.4576100773834,37.611221335044064,0,S02
7260,0.10923075984505694,-0.057142905135887496,10.151607171874643,-4.227397324089341,-1.0768576475590441,-0.21850687839355987,29.32278603482556,-16.311654524025727,38.449022925600964,0,S02
7280,0.09875611275074081,-0.04129886369638906,10.14682398504276,-4.504449713308629,-0.8724974185125252,0.4793429712834699,29.5037399832832,-16.21645231730725,38.45060427598838,0,S02
7300,0.09525764555074481,-0.05102019810570005,10.149083531407038,-3.9085266579388906,-1.6455187970400391,0.5621595102066699,29.297221164840145,-16.044835277473233,38.46337086494562,0,S02
7320,0.10359569887094669,-0.045283939057608594,10.14493693213563,-4.231099053554723,-0.8820872247902048,0.5454019298559529,29.915509716707824,-16.94557878506811,38.111459598021696,0,S02
7340,0.0973932069658159,-0.053406898044713456,10.149410455582178,-4.90105893670188,-1.0100149383714239,0.8881219736258177,29.714297231656506,-17.15446139344218,38.54740453281776,0,S02
7360,0.10260789779981637,-0.04328251430321568,10.15020098780576,-4.347978935665361,-1.5138790191155664,0.8655581779550479,29.954380956103275,-16.715423860150473,38.410996190362795,0,S02
7380,0.102216847226541,-0.04747164066539869,10.139397277104248,-4.295778295132332,-0.7656507446921486,0.9038767583296086,29.6885654988601,-17.013110216438037,37.861171592389,0,S02
7400,0.10419185136215944,-0.05742414655205615,10.145814916238276,-4.33934755849796,-1.4592365649088253,0.709394676329802,29.03761066665466,-16.705768916238046,38.27712246337388,0,S02
7420,0.0971188907328728,-0.04632559047588583,10.14566826761577,-3.860311076843413,-1.327269066701026,0.5534119447632256,29.04102058167613,-16.34461253366615,38.37750780863271,0,S02
7440,0.10298005487358207,-0.06082054063093992,10.136491965905513,-4.364549824670807,-1.411553102393508,0.6310859590904676,29.494486771616817,-17.05776477900846,38.12552192359711,0,S02
7460,0.10112274123676863,-0.0549335480050083,10.142810759731859,-4.497740667043541,-0.44523352806846217,0.4068208879377143,29.862329960511524,-16.23514729109613,38.42321075455068,0,S02
7480,0.09818165706914833,-0.04639414326718992,10.149546166527994,-3.870609536233272,-1.2713269827332458,0.438455718358794,29.42903852536696,-17.029844447472417,37.72822793330683,0,S02
7500,0.11106566257015439,-0.05366174289818413,10.141231813828636,-3.8383941499985457,-0.8681542026386508,0.639504006576892,29.658726429417694,-16.555875834524574,38.732211191066966,0,S02
7520,0.09944425954974499,-0.03833052595498207,10.140423876050198,-3.883286680120317,-1.337832783433827,0.041612558845584124,29.123863125004405,-15.835230044535965,37.58675057983404,0,S02
7540,0.10099031103831517,-0.044778283121420244,10.146787348136892,-3.9735422240403087,-0.5161890096623982,0.7647402100120109,28.78670505930062,-16.544515442500675,38.14708528174925,0,S02
7560,0.09928136967886173,-0.05419882322410852,10.156205820196982,-3.925536519947717,-0.4791744587759549,0.19477069843670985,30.56577514507458,-17.0875378625838,38.15950297280162,0,S02
7580,0.09860963889489563,-0.05055199820237388,10.150436788856204,-4.404901979371273,-1.6070135276461093,1.032750826526618,30.27379584858518,-16.996797691625172,38.26213694399403,0,S02
7600,0.10047372651445009,-0.0624343145458807,10.151986751853565,-4.608162953322612,-0.9611578580422885,0.7828618822952605,29.781554152257588,-16.824187973989567,38.652000911459346,0,S02
7620,0.0990392401127487,-0.051985168207521554,10.145127942114037,-3.8755945052909992,-1.0615040438121568,0.4202127436234866,29.255085460931507,-17.184644050529073,38.288646991179434,0,S02
7640,0.09342234370389696,-0.059458312623166094,10.144001619516631,-3.7241561514772634,-1.2910220923029316,0.34729144394701605,29.437445648553098,-15.943416808993486,39.058480075456146,0,S02
7660,0.10355114577460392,-0.05866878903907969,10.139642452403887,-4.032014539920871,-1.4573266383639736,0.47285300147586873,29.528602529416553,-16.539949083390347,38.02342566786211,0,S02
7680,0.10284128083168077,-0.047703620365042186,10.141493184312168,-4.357903990816519,-1.462464784118421,0.82088964695042,30.198649888671877,-16.753644308190992,38.74451929143926,0,S02
7700,0.09427589010068314,-0.0536592231426076,10.142357722610276,-4.144319242216186,-1.5536444454822949,0.6341062302568922,29.796353049475144,-16.479117951870375,38.688444005302095,0,S02
7720,0.09606393260469204,-0.04357157726317828,10.14877108170916,-4.300932709910379,-1.1318443217501948,0.0068318661525630375,29.30989896087511,-15.932907365336433,37.50484557701402,0,S02
7740,0.09949618738071875,-0.049517832416369645,10.13804145970557,-4.260604195349656,-1.5958721730430179,0.0953280502658782,29.603439559729576,-16.488068548617445,38.81227733568058,0,S02
7760,0.10019279373333322,-0.06179083068329927,10.135749203820241,-4.053678721961277,-1.6258641118863575,0.8419039400663065,29.625789683189588,-16.73466906586473,38.63134947430326,0,S02
7780,0.10172587705307515,-0.05908138125343317,10.155251950635495,-4.145096691149254,-1.3012845133660658,0.19925001407407705,29.747756985616494,-16.832419102132192,38.03113860546977,0,S02
7800,0.09916736895305957,-0.055659581513758966,10.145018428112875,-4.224528138129062,-0.9007520949727724,0.19021682561475545,29.689780176667718,-16.811912729268794,38.65787693820682,0,S02
7820,0.10684442821120078,-0.055553841217789425,10.13643048754577,-3.892158484548993,-0.9636475956322603,0.29736201084579444,29.733806989517237,-16.40930793736387,38.129360540910184,0,S02
7840,0.09121473377967283,-0.049426063682901755,10.143817979317516,-4.320909238740762,-0.7455724642233603,0.824913559014493,29.63390897152615,-16.99276844289558,38.34396942816529,0,S02
7860,0.09714215160261712,-0.05346391229300653,10.14188562150268,-4.071578077989902,-1.2110235367914841,0.5713827809704244,30.238128022464927,-16.722104143533645,38.36856474312454,0,S02
7880,0.09835001386764917,-0.05395953468998454,10.147239685987916,-4.811642210086879,-1.5488079964797385,0.9984300435100057,29.769676198285367,-16.891723996808075,37.640610921181974,0,S02
7900,0.10140549678333204,-0.061147006682652424,10.14283840719158,-4.480046519814319,-1.013045818805157,0.556056506195554,29.90545776345891,-16.773550756295297,38.06775943860769,0,S02
7920,0.08769789605120124,-0.06117593626074508,10.14098056246099,-3.911241837192939,-1.403533931377771,0.6463531189778727,30.02596832918788,-16.449026645272042,38.20875133259664,0,S02
7940,0.09923257102640812,-0.06255787321262819,10.139635918916854,-4.425078869751884,-0.8637374970990062,0.611461720037037,29.05503362131571,-17.188534965818,38.102299394811084,0,S02
7960,0.09496610868489377,-0.060613884882052896,10.153354503098036,-4.2016168615104,-1.1333045238457338,0.4600296300859963,30.35349823522647,-16.7894465980074,38.12417165960283,0,S02
7980,0.09858455915764777,-0.058355473018285926,10.149178670116608,-3.782932865488088,-1.0852613743424175,0.4863469952122047,29.947563418490063,-17.17212508513787,38.84858546356096,0,S02
8000,0.10686833200775558,-0.05464992606072123,10.151873118011718,-4.282956746653518,-1.0287020602426975,0.5951239702471773,30.119554531327434,-16.89862151273015,37.92227929815238,0,S02
8020,0.09292521511772601,-0.0644557692412534,10.142196297794886,-4.12389202192692,-1.1623333108613452,0.1938901185676873,30.70632500775475,-15.934265902125963,38.49156421659415,0,S02
8040,0.10201183219082044,-0.05853500633216893,10.14884602441022,-3.6393837026256737,-0.8353464835398923,0.7543118909915937,30.002418495678473,-16.15243419542613,37.91177755304766,0,S02
8060,0.10210128962959338,-0.0678034582866537,10.142684354047734,-4.063737624376548,-1.4488369891774506,0.5533964370023771,29.836382923506722,-16.77012369412758,38.76811486796408,0,S02
8080,0.10291177674870342,-0.06916759157606074,10.15410656027035,-4.437787973934992,-1.5745046413579071,0.3676486929784425,29.846145870587126,-16.637175765869014,37.972387608974856,0,S02
8100,0.09971086905928715,-0.06679552358158565,10.147317096523288,-4.323402516042972,-1.158785694457306,0.5136649337464891,29.98468884697064,-16.44015876537029,37.88832560983774,0,S02
8120,0.1077790443674728,-0.0601520301127081,10.1505123988682,-3.826868683230048,-1.2486092565504507,0.6509820236701052,29.25097879667455,-16.937885680499818,38.036053030581364,0,S02
8140,0.09651329195113459,-0.0758511080933208,10.146158439093469,-4.7817806897044,-0.9314918744015445,0.7629898100825359,29.295495135125606,-16.664329861792936,38.602738624271076,0,S02
8160,0.10218898312029073,-0.061720497985757246,10.153896851746865,-4.254728382208657,-1.0456313804399564,0.8172942595014523,28.904997212162986,-17.26256739378916,38.48380286711561,0,S02
8180,0.10631116283623573,-0.06628394953005216,10.1463971124511,-4.280342252799091,-0.6969421550406366,0.892119919149378,30.13381457307143,-16.24870429014092,38.489549350086094,0,S02
8200,0.09748969697796858,-0.06704661151110661,10.147999948650138,-3.926054248361832,-1.3076578608563667,0.34690301737392304,29.4131530895201,-16.328619953648605,37.80028032347647,0,S02
8220,0.09558117110316007,-0.06857609349223394,10.14072647201835,-4.058349120653702,-1.6111031983330604,0.697728436179421,29.757605030758036,-16.008438274970494,38.01062589208776,0,S02
8240,0.10062561592146997,-0.07381498967425383,10.151911954948602,-4.450465549033717,-1.2938505929720678,1.0376276899100487,30.040215966588164,-16.439777160461112,38.05144238322685,0,S02
8260,0.09559455447108668,-0.07273500464568021,10.141668781012282,-3.959297507650545,-0.7989436209239478,0.7087019097035954,29.496725725984433,-16.190677384138816,37.47092413891375,0,S02
8280,0.10468608505632736,-0.0723732994141,10.142896733822376,-3.871070311690644,-1.402243345274452,0.5254087030644377,29.391092464104002,-16.602015612144314,38.06887724621609,0,S02
8300,0.10162755449136435,-0.06750497468986452,10.149564560207336,-4.203642608710644,-1.2335313169639106,0.6213998379087118,29.78513954439378,-16.422782880799545,38.313975432005385,0,S02
8320,0.09688983201102705,-0.0779330953201693,10.153648190264786,-4.215667010109795,-1.7665982912328948,0.11118043959151447,29.704104293195382,-16.868901158002963,38.26682628833343,0,S02
8340,0.10842785913004586,-0.07430230777309252,10.155571095093306,-4.012625205977411,-0.764736474479593,0.549727907873028,29.471402260071986,-16.892680974500873,39.002622183232134,0,S02
8360,0.10809444088627086,-0.07733189406535303,10.136853210044025,-3.9624638671252272,-1.7413550886355362,0.6746394458460664,29.643272057342237,-16.61731283215996,37.65210971408114,0,S02
8380,0.09968673003717127,-0.0865325415310149,10.150172633270554,-4.076422745025227,-1.577273339422576,0.31472846075093186,29.55039216465111,-16.365933592150377,38.027962726332895,0,S02
8400,0.09719139684267968,-0.0791492177712286,10.140544912967613,-4.2430060181442695,-1.3029807494085697,-0.24668008702629474,29.771564901889644,-16.455972251467948,38.04724319149064,0,S02
8420,0.10245700589962754,-0.07478965928582164,10.142018525048476,-3.897641160848157,-1.6826449698870087,0.5160201966266083,29.101983120175447,-16.39259901811823,37.69356965803989,0,S02
8440,0.09679809305765762,-0.07889489941412875,10.150730421389193,-4.572950346738333,-0.4422621467010983,0.4497928394974473,29.981559142316293,-16.436975934690473,37.960611277779776,0,S02
8460,0.10395092953350941,-0.07495592521343208,10.152217557970355,-4.833928741244467,-1.5213491880364023,0.6410084867916761,29.90374598737303,-16.91279533572948,38.460835989537244,0,S02
8480,0.10137527353347871,-0.07431199867685542,10.149427708331162,-4.405685273995606,-1.2088649253784272,0.5389609014105193,29.588314888249457,-16.750112326430482,38.265718766245385,0,S02
8500,0.10158498600365154,-0.07525554271680204,10.13962466024649,-4.009247790273102,-1.5956847998130461,0.3753797922349071,29.723557038917054,-15.721918249177191,38.798647708337576,0,S02
8520,0.09776525420967554,-0.08697382092443742,10.144553634971174,-4.605088542700356,-1.3680855820947648,0.6889997468123401,29.720370250853367,-16.823716365136676,37.957545519478764,0,S02
8540,0.09415082504533659,-0.08252228075331312,10.153733598115881,-4.422990611762272,-1.325493168723969,0.9284765776610066,29.34329926578373,-16.2657307165714,38.40531024514138,0,S02
8560,0.10651253585402955,-0.07879069517198019,10.141997482084793,-4.353224845843073,-1.1892263800514227,-0.27956431876944543,30.183585827437128,-16.50325736537639,38.56606601706739,0,S02
8580,0.1007749849195066,-0.08370121127455273,10.154482627991285,-4.2379896937015555,-0.9133740857861923,0.5466802924973676,29.172949870878117,-17.0158853956079,37.75306058143898,0,S02
8600,0.0990227181475637,-0.08577777796235547,10.135065475059239,-4.522477129585997,-1.2146388478728545,0.29929575015276405,30.58588156274454,-17.123104070712195,37.45124280188985,0,S02
8620,0.09555446874068602,-0.0809633888741774,10.145293313881357,-4.588691688579409,-1.2207601078589327,0.11464460773073293,29.362243991991473,-17.549374828653153,39.03455939423049,0,S02
8640,0.0967610114279061,-0.08264867502085384,10.141775049230649,-4.640626699814206,-1.2411422623784438,1.0371437599740465,30.13234108483966,-16.681338803231334,38.09751921751759,0,S02
8660,0.09419519330573273,-0.0895320314746485,10.141059335315925,-3.2539592810596103,-0.6119081009271687,0.9307107775266503,29.69094228232966,-16.97909877525718,38.410460095618255,0,S02
8680,0.10203859023083171,-0.08802022467416978,10.159850259131828,-4.118143213337307,-1.567636437518435,0.5580619450609217,29.370101671540894,-16.912865331039463,39.1958228053787,0,S02
8700,0.0978852332759436,-0.08375106582000415,10.147929103931938,-4.609696265109925,-1.3162273351362077,0.5372968240367569,29.866533628733162,-16.01628571304184,38.07599172299232,0,S02
8720,0.10561607559228038,-0.08248339618519411,10.149645652906544,-4.0881050358631015,-1.149877075025831,0.8079143202611896,29.722936271287534,-16.858880538334837,37.64170973044917,0,S02
8740,0.10457649572475547,-0.09338559240752911,10.15229750773263,-4.276514627834296,-0.9360067484709793,1.0938684901539217,29.47138217973884,-16.291600245566524,38.54917213214472,0,S02
8760,0.08997913610491379,-0.08662397082564718,10.151133456388218,-4.375084701573122,-1.6313729924316378,0.5165327622955845,30.2306505196754,-17.20385693868106,37.45834970980134,0,S02
8780,0.09602604943452778,-0.08971912779330951,10.141554602554082,-3.973038916762281,-1.4705977212034052,0.8312665606191181,29.007219768056625,-17.252024035243792,37.802313798982766,0,S02
8800,0.11140237549778335,-0.08249259385537547,10.14630976146863,-4.062145431376749,-1.242480600409998,1.0464924527212838,29.839566187658953,-16.840063896640196,38.89949440375752,0,S02
8820,0.09527248299207808,-0.08950010932498823,10.150899796272402,-4.206325673970481,-1.0710360387042326,0.6559424194686874,29.987067776356525,-16.860007734188628,38.21831336787624,0,S02
8840,0.08968850018692781,-0.0919552858641915,10.146505203922386,-4.015829547922775,-1.3590529172868742,0.04588247904840659,29.796646470099105,-15.67628579486327,38.75722774172459,0,S02
8860,0.08912858512992783,-0.08367237105809293,10.145086207866495,-4.009186764111068,-1.377405688623068,0.8568665315548625,29.69642431562011,-16.030479734068045,38.19302201843659,0,S02
8880,0.09664342336596184,-0.0900514417620633,10.148206573767421,-4.332524288339663,-1.8207614220448722,0.939381590616252,30.031932185892828,-16.47996736994642,38.03905753211582,0,S02
8900,0.10489341295887612,-0.09213323222086853,10.140401575743205,-4.395076376814225,-1.7681301162215677,0.2864641988893157,30.111057097794763,-16.546621058917463,38.03811023075617,0,S02
8920,0.09846920994337537,-0.09590521987974905,10.147178175258663,-4.305219298608154,-1.299827983382159,0.7852627146358656,29.678934034418866,-16.61529880997415,38.48096251769877,0,S02
8940,0.10194022958699941,-0.08049071441770689,10.148199475129452,-3.9446039610303285,-1.8753319683810563,0.6863646433250845,30.436090698774656,-16.635824002510233,38.01312555064675,0,S02
8960,0.09010327615321753,-0.08397249136698702,10.135449346879708,-4.152657989865857,-0.9236861003636111,0.7588736112573279,28.887154704998895,-16.218517639277465,37.75376453898367,0,S02
8980,0.10363987842163695,-0.09250048491601268,10.140710428926633,-3.915368928390974,-0.9511907768073742,0.985293395589157,29.359029713461677,-17.14819657296327,38.45194275744434,0,S02
9000,0.10887126155733787,-0.10169973331372154,10.146435781904415,-4.293833321156682,-1.0364612358842655,1.0939256820208163,29.95611149437552,-17.7602848049128,38.31666504583353,0,S02
9020,0.10427305803264739,-0.0910978886530569,10.144300862386409,-4.181670649439989,-1.3274429687583285,0.5513019657402676,29.356297128136692,-16.41054622821035,37.853176869140945,0,S02
9040,0.09219117289882753,-0.09115124220848787,10.137593564543963,-4.264819442020593,-1.298397137594761,0.1260400618978133,29.698668787774416,-16.628772209498102,37.91230527149127,0,S02
9060,0.10121809903306507,-0.09422187792186021,10.147655004865898,-4.139180439569197,-1.4912422964494083,0.6296069381009024,29.385433218933237,-16.02808434830675,38.102316963634536,0,S02
9080,0.09655415460711757,-0.09303015181281386,10.148805932768921,-4.390365232797646,-1.1920783852928967,0.5119522679179744,30.161597864401944,-17.5652349903122,38.05878520552679,0,S02
9100,0.09670991450032544,-0.0954906755322916,10.1442948081854,-3.7928074614072114,-1.1297630514565618,0.3593769826029398,29.36540226277969,-16.414545402926862,38.22995030559205,0,S02
9120,0.10503734212401661,-0.08429005065461029,10.149116517407087,-4.143530315099869,-1.310291277451096,1.4194073346854186,29.86143072105348,-16.26634654471325,37.96305842734665,0,S02
9140,0.10341624621542231,-0.09645551303382495,10.141634576293836,-3.750123496370706,-0.9654271266280868,1.0098665684549235,29.56936254141409,-17.237103739412003,38.560768026025755,0,S02
9160,0.10158737326535876,-0.09145479869856392,10.144294877354804,-4.169043831908676,-1.4927243379394413,0.8395632992301573,29.702999503087394,-16.482873562212532,38.617190749382225,0,S02
9180,0.0874139532093798,-0.0898931736224747,10.147560363830111,-4.185865442871688,-0.9753495870401889,0.2995642899584739,29.769226005343036,-16.324050436791076,37.78878285630515,0,S02
9200,0.10296687526059421,-0.0845916423381587,10.146856463587769,-3.8147587350370262,-0.9669689770914134,0.7220395229299763,29.818052338261023,-16.534939205441532,38.0948020755588,0,S02
9220,0.10134163810349771,-0.09807151039242665,10.137615724079494,-4.413357449006663,-1.549387083271358,1.1194679832672718,29.834333485901013,-16.82804388944104,38.4394844387915,0,S02
9240,0.10779211945784677,-0.09220336935882582,10.145157677288609,-3.7666196705501402,-1.141985212992083,0.8640573390616373,29.909549398687904,-17.319216813821903,38.219456505150255,0,S02
9260,0.10019359910583658,-0.09065552163088379,10.154147983023634,-4.464687178588059,-0.7098124158918496,0.4289613498178233,29.455280995162955,-16.764197293344974,38.12461244568874,0,S02
9280,0.09446353268469335,-0.08909137978741608,10.14600921807229,-3.941580793435222,-1.180606911747944,0.7065466037358377,28.916324282504032,-16.14518967283911,38.29242086795294,0,S02
9300,0.10093121338232784,-0.09520829040785238,10.139756655329185,-4.46425684372008,-1.6337080485696527,1.0848825667455353,29.77099531779403,-16.966976543396797,38.688172927549275,0,S02
9320,0.09568645167064631,-0.09183997311619768,10.147618953408674,-4.9217217313511075,-0.9917039267660491,1.251736617035354,29.98847415723928,-16.49633892394551,39.24154343657526,0,S02
9340,0.10182321354701367,-0.08621331472327695,10.154369990362863,-4.423839269722916,-0.5497286551977678,0.328592137787271,29.837258470348107,-16.521743621202972,38.734999293474225,0,S02
9360,0.10286344910019149,-0.0865431170208981,10.139994478516309,-4.3589929304150985,-1.2282753019560586,0.6123831389057726,29.788795834076495,-16.917040683352866,37.48804304778688,0,S02
9380,0.09856945933747087,-0.08984538611387106,10.14814059417894,-4.233184916256003,-0.9623648145058525,0.3823037100988597,29.75620684103886,-17.019153738429665,38.40907939934883,0,S02
9400,0.10643489223890906,-0.08345459422149633,10.148111432642407,-4.18758671661336,-0.751338847583381,0.1850558948062211,29.646921797840495,-16.91997063639888,38.44179640649676,0,S02
9420,0.09120939248440947,-0.0910782945904459,10.136513893816828,-4.4413579545170405,-1.8620548513787023,0.39294040047223644,29.360769514452258,-16.092940874703018,38.50124679560986,0,S02
9440,0.1026230967237026,-0.09023786286650333,10.138479078569649,-4.412207126317253,-1.1066993672356773,1.3008937496422286,29.986296125938324,-17.144219540044702,38.20390333656447,0,S02
9460,0.09629944451091156,-0.0848207319310626,10.140490449641245,-4.570366927340478,-1.351685211593121,0.48856548923424936,30.340622976963182,-16.156375188907887,39.00385065472541,0,S02
9480,0.09859956001756778,-0.07649486063161925,10.145018568847748,-4.194832624316749,-1.6515860784395413,0.43637522123591777,30.019949970988918,-16.554726033208688,37.796824346838164,0,S02
9500,0.09148907961636261,-0.08364901969379412,10.147154767889655,-4.17694538839902,-1.088148655813679,0.5820138208334789,29.637303463286905,-15.821535331579746,38.330957826438244,0,S02
9520,0.10356786572786689,-0.07770582636020903,10.148032509919059,-3.97136344334328,-0.590038418092038,0.2951121797405556,29.407270494719373,-16.39069289569791,38.58507476789547,0,S02
9540,0.0976026945527468,-0.07843757381693511,10.140778882723888,-3.691242849795737,-1.5013532066849808,0.7619364539685719,29.433712900696772,-16.586595031452,37.99877019949738,0,S02
9560,0.10505870248753668,-0.07940515251215792,10.15625916145096,-3.801979643848349,-0.8463829785541832,0.7046918636908064,28.7882522511426,-16.028939021895795,38.648848795189316,0,S02
9580,0.09760255251136522,-0.07455264776059192,10.138479218356476,-4.381243713570459,-0.9512770091315655,0.6254803449287409,29.594108968514597,-16.337711557911355,38.65928441189666,0,S02
9600,0.10099761401709621,-0.0765224230987969,10.148440652150978,-4.014760156904788,-0.8302770731298434,0.48932862544410444,29.72641353201432,-16.130555770207035,38.03065850963275,0,S02
9620,0.10287958267188711,-0.08384997462717317,10.145757964953338,-3.8713226713654016,-0.777973784931235,0.7559114719624805,29.58379324982782,-15.777489534916109,37.682435685261986,0,S02
9640,0.09311757277755982,-0.08621227964166527,10.131499770480591,-4.072602021098217,-1.3025541200740511,0.3168387671204064,29.20500288732257,-16.57996281865087,38.13009203826283,0,S02
9660,0.09644032612036901,-0.08635214812571976,10.143050327918477,-3.9402469589242886,-0.7571608079070284,0.6717366576784694,29.840014083639876,-16.848711620441236,38.37404896008038,0,S02
9680,0.09931069419842298,-0.0843025582459115,10.145114532049998,-3.998678044762347,-1.8774035451996007,1.3490893641897916,29.231857649510996,-16.38722624516525,38.30117699824827,0,S02
9700,0.10306944511390112,-0.07612274387170696,10.13876390859872,-3.805312231145028,-1.2956214798124828,0.9801702166193433,28.696483573832705,-16.736376627336888,38.24570264592402,0,S02
9720,0.09074509092043023,-0.07105178457144869,10.147230435380965,-4.4034258453906805,-1.2504980863488098,0.3556894633119301,29.64657876919105,-16.566202485115724,38.712503127606446,0,S02
9740,0.09997089941697686,-0.07570858128860894,10.140722078164604,-3.5204470453495653,-1.1044860913777454,0.844449405140563,29.915984671136474,-16.635791683789996,37.480578294579956,0,S02
9760,0.09855925312491931,-0.07539930512363134,10.147976509452823,-4.792944570112734,-1.338121732257699,0.2402845894924437,28.71998063907316,-17.052523159047922,38.39011657980201,0,S02
9780,0.10096016147527982,-0.068663820469697,10.156465364322399,-4.399635331561585,-1.222278901364473,0.38533353995536634,29.89377379515067,-16.040148383633852,38.4891221837369,0,S02
9800,0.10048626620503112,-0.08322137229346965,10.147639569714832,-4.52199748092208,-1.3631327867129532,0.8464045070016821,28.972461692197324,-16.607445462464632,38.481835400987,0,S02
9820,0.10313850187273448,-0.07865677451656923,10.150401862749808,-4.320465642224626,-1.0210186212298562,0.5558637806780797,29.54949847346742,-16.27252438810455,38.57277257662096,0,S02
9840,0.10281162780708204,-0.08082800626810667,10.141744976744834,-4.187112443198989,-1.0523857780364043,0.7057328112641592,30.331325942799218,-16.819942147914283,38.23514592418946,0,S02
9860,0.09772692604451215,-0.0586479460130273,10.15245807168024,-3.6548649357636807,-1.3448058700508856,0.5372683218386061,30.08948087246206,-16.408807868092847,38.18934451469799,0,S02
9880,0.09708179319243238,-0.06884151967002224,10.146609586170792,-4.091419853905409,-1.096862962576977,0.6284757290315199,29.22801764705774,-17.397337158222523,38.589751817602,0,S02
9900,0.0968770201331936,-0.06527436520623933,10.146343695353794,-4.082079176403097,-0.983965934111182,1.0506360205305048,29.937320071057293,-16.34897812744245,38.56907551875421,0,S02
9920,0.10156557343970743,-0.07283210836693488,10.151484915114512,-3.8549719394948396,-1.2641796893113546,0.8260725669470621,29.417423617854027,-16.19937759055825,38.33331760189397,0,S02
9940,0.0981265649450621,-0.06493714849305009,10.132867525094213,-4.270936467888619,-1.3373197473738039,1.1081987023986448,29.606187767733097,-16.812999464686804,37.86579456838782,0,S02
9960,0.1022225184235798,-0.06750101329285296,10.150591347936706,-4.524676616160178,-1.4036177999739918,0.4873416537059562,29.42006987858131,-16.40177599552071,38.68800609344011,0,S02
9980,0.10412332809685451,-0.060607050130980736,10.144237292717683,-3.9874596695584175,-1.1995581301813807,0.04854930482143738,29.82773426866145,-16.973680894124552,38.440823665676575,0,S02
10000,0.10600207990232233,-0.06573974536671263,10.135116427536955,-3.7770340710825523,-1.4053360584895493,0.6234496516620888,29.84688860299612,-17.095838697585307,38.007623824743945,0,S02
10020,0.11159853092142354,-0.060060699268523796,10.142613876247164,-3.476014410361037,-1.3685910648279804,0.5942220115179488,29.48662302453288,-16.74007809063061,38.605609026949345,0,S02
10040,0.10694550988290331,-0.058001785442512686,10.140108306810609,-4.427914691787989,-1.4968560244826778,0.5574383538533383,29.506865318390137,-16.45670055336687,38.75853611003732,0,S02
10060,0.09973614902417473,-0.06389582601372532,10.149272980919022,-4.378777574214605,-0.8364669138071958,0.9540249541201894,30.082631577466447,-16.689720511698525,38.147923741264954,0,S02
10080,0.10018751751173555,-0.061999782970417264,10.14439877671485,-4.025766674461073,-1.7793264634620516,0.3122404180345423,30.192887250003054,-15.98012205319455,37.905104342322616,0,S02
10100,0.09704414732607629,-0.06069193284896667,10.147326456429942,-3.7628059994275427,-1.2571727417166012,0.7875856021178665,30.21518602667208,-17.312654399297596,38.47530753600764,0,S02
10120,0.10519457899066517,-0.06232445011718316,10.149016404398521,-3.2216141857519185,-0.8604406189861119,0.21829017911145437,29.213350465072445,-16.70231422297379,38.18902404588957,0,S02
10140,0.10416295822197778,-0.06963056395937964,10.14557369551944,-4.195164667043235,-1.7905861761513646,0.4316951013943181,29.382853381381768,-16.43869693568094,38.876593325036204,0,S02
10160,0.09632073498004987,-0.050765114263816226,10.151681683141891,-4.035591337809184,-1.6045824792590877,0.38668505290216465,28.58048117099084,-16.67546844683691,38.22931117695913,0,S02
10180,0.10272950598572092,-0.06511574580717404,10.14208335308746,-4.184239422258943,-1.6485316385181417,0.24958100844574144,29.545527712664523,-16.957472889710253,37.59818516012031,0,S02
10200,0.10372510686414586,-0.06434153855758365,10.144919650257407,-4.255477180018417,-1.0415024384833174,0.8363143167923774,30.2448516021811,-17.208280642234612,38.271743970762294,0,S02
10220,0.09884791735594703,-0.05769321942636434,10.14561418261649,-4.705182364543986,-1.0228113028615782,0.44963101712709935,29.006251449250215,-16.075297896873693,37.79502343979438,0,S02
10240,0.09571235929275956,-0.05554493591972959,10.149981482472905,-3.547532803406199,-1.341806394313229,0.5078843140451252,29.42631735396366,-15.906487693637526,38.21653232175117,0,S02
10260,0.09955459068079119,-0.05991918145185854,10.14661887167251,-3.7483319577612795,-1.1188834077715843,0.83656029073527,30.191173646686266,-15.960787998359592,37.970138158029776,0,S02
10280,0.1008320717551274,-0.06745700719012213,10.153531213197025,-4.614022259846169,-1.890412630077953,0.4086522658727194,29.38432980078162,-16.71519791934616,38.173467011366945,0,S02
10300,0.09795367802516422,-0.05128833937583894,10.143608316343729,-4.807007762043108,-1.1741734687820853,0.6548434287500551,29.346591878966706,-16.821323078327552,37.82596434819668,0,S02
10320,0.10501148222378487,-0.04963490105897908,10.145688249197828,-4.361052209465854,-0.8337130844992888,0.6594695901075635,30.0231612085026,-16.7205007317478,39.05147814851658,0,S02
10340,0.10898775347441389,-0.060212049487389355,10.14979676131729,-4.105693153235068,-1.3404552442071878,0.42179875356785923,29.154951470417913,-15.856775713578292,38.78065018086953,0,S02
10360,0.10151130663970925,-0.052417098606372524,10.152178234225577,-4.204873556250941,-1.3486508832090496,0.3874443818615706,29.68340536631407,-15.851717499596607,37.6509678020699,0,S02
10380,0.10880442711361925,-0.04449563056467654,10.154111084513284,-4.03298640382175,-1.4741814709801602,0.679206183822943,29.522024284506667,-17.047745916385434,38.20823009135436,0,S02
10400,0.10764544811210648,-0.04266020292550027,10.143643726368603,-4.146211941257703,-1.2917416676928124,0.7833609587520741,30.362192264325973,-16.66293903695223,38.28623217719386,0,S02
10420,0.099278516703587,-0.05421906460034732,10.135096226621357,-4.396659429643804,-1.33273355060507,0.3891708227961662,29.577597063618057,-16.230314331526202,38.563530006767664,0,S02
10440,0.09461500124416927,-0.05090711745084843,10.13800014869293,-4.159647384697525,-1.1749234665671113,0.19549534128164903,30.58221932825834,-18.131335412819052,38.561280376006195,0,S02
10460,0.09274339385733203,-0.058227981606501986,10.145994008900605,-4.1719456091857365,-1.7098455998367248,0.8303612235478087,30.3466104519936,-16.457989645196502,38.003053278527545,0,S02
10480,0.10502320270857098,-0.05226678679590775,10.14246022775837,-4.529808186727637,-1.176659560294812,0.7187991322840956,29.27559496878366,-17.064767348331465,38.33414587731098,0,S02
10500,0.09336839930251509,-0.050559840570495326,10.141476099496467,-4.17803948835735,-1.3465726533878433,0.6084555096749419,29.697699574716292,-16.66317985271179,37.676530057753766,0,S02
10520,0.1045942466610494,-0.053425373743649016,10.15570551223731,-4.225825249531624,-0.847637556650663,0.5317546594140297,29.787071799529986,-16.7857268503095,38.28284671153897,0,S02
10540,0.1005705806473966,-0.05878878304523586,10.140602692617506,-4.642382682623271,-1.0744544858029306,1.0285881615767984,29.575383525042515,-16.453129856420446,38.923427889165936,0,S02
10560,0.09760644581867019,-0.054079102440812495,10.142152028325683,-4.278272041279179,-1.3625597456991767,0.6449565750267525,29.99031855976276,-17.251953977281012,38.8132079506933,0,S02
10580,0.10209289448197557,-0.042213111331586665,10.149210299734744,-4.851423051502938,-1.2171799637716232,0.37908149789495504,29.8174130715987,-16.876337785482498,38.359952661595806,0,S02
10600,0.09801167582712117,-0.048847020938992625,10.144182189981716,-4.280081192603452,-1.0695384323783172,0.12790048526227954,29.657353806039033,-17.11190104128802,38.09518959122981,0,S02
10620,0.10242605358499814,-0.05504972988821256,10.143849992242037,-4.530041046974964,-1.374216344775559,0.8174332350544304,29.453506074993527,-16.859670170951425,38.47349253316129,0,S02
10640,0.10071402215400836,-0.0465915839331335,10.151309384283389,-4.216916598800703,-1.2346497384617334,0.8795095679479048,29.230725830277816,-16.484689358776876,38.12435412721488,0,S02
10660,0.10084306909105781,-0.041030670796670235,10.145623487286876,-4.240201120071371,-1.08382394582086,0.6301236130041532,29.6640169692512,-16.1716709385969,37.99231854460317,0,S02
10680,0.10317648938329269,-0.045525068028350435,10.146690412294543,-4.489365730135125,-1.0646885236613126,0.6868925722777259,30.148936917227065,-16.320971640205826,37.987236275395155,0,S02
10700,0.10144487320961892,-0.0460321249824798,10.154654006069439,-4.647413423388262,-1.4835797569894438,0.7926876863924253,29.22162310407139,-16.812910315371987,37.86971089744802,0,S02
10720,0.09442703100316123,-0.05131086027099761,10.144873740183446,-4.263189449977717,-1.4137871159150917,0.7954486324841333,29.729174344675844,-16.615112155307756,38.735232614506245,0,S02
10740,0.09800177393562191,-0.045033672450423556,10.146978699778357,-3.962041743198702,-0.8264181868832753,0.6316455771549543,29.268451298621276,-16.936294319419055,38.05238917782517,0,S02
10760,0.10108146284797162,-0.05285809744284499,10.139303548976667,-4.872029099291861,-0.9526859316589694,0.867439360295552,30.155288536553908,-16.41565538940119,38.43583959651024,0,S02
10780,0.09357826879772821,-0.04965222280176478,10.144911268444623,-4.1844927599898805,-1.3045158359081261,0.7482359376384204,29.413533595240406,-16.298315804288265,38.47056913734789,0,S02
10800,0.10328132875102954,-0.04654431947383091,10.15539457331786,-3.9297392377780183,-1.2366050092660523,0.8121465368143342,29.866957645991818,-16.429450823547295,38.5665017117044,0,S02
10820,0.0921816290252468,-0.048869893698572975,10.14381476897776,-4.366675238738129,-2.353291928546823,0.2906828084916807,29.34846743535722,-16.373562206834492,38.42054790758948,0,S02
10840,0.10466016321260332,-0.05166370747365914,10.142288043292734,-4.254098614336945,-1.2072614435994569,0.3275067412581915,29.499761550113263,-16.745823105268336,37.4946704733076,0,S02
10860,0.09721493886065166,-0.05226634732082181,10.146621020843698,-4.126289214583339,-1.0710189219443949,0.8001061234433973,29.814835202025463,-16.404523642808307,38.68228942668267,0,S02
10880,0.10345450470700045,-0.05235769969604069,10.146511308756985,-4.3008359441494335,-1.4872036493921998,0.7374706139137179,29.562942247427447,-15.977590691412926,38.686670269292165,0,S02
10900,0.08600536961846686,-0.05537175175747225,10.136638054037471,-4.116511235035806,-0.7809825259193688,0.07180120393587497,29.749246838906693,-17.307378345775355,38.172592961375265,0,S02
10920,0.09586576230948074,-0.05536097407391878,10.14691221405661,-4.1049532378997355,-1.5487513780942552,0.49225226842248365,29.695639642126846,-16.52113112018845,38.306652526053945,0,S02
10940,0.09910239419022553,-0.05342524907777582,10.142475844690129,-4.21822714377895,-0.5884251428089905,0.2915290672534901,29.47074315017858,-17.675021754153654,37.94950759232833,0,S02
10960,0.10162664613440098,-0.044137214229024356,10.157023660245294,-4.6895951515078975,-1.4280958545545914,0.10391291375896539,29.43234029435018,-16.06296786204503,38.442814742914095,0,S02
10980,0.08835638168096034,-0.05428979110051581,10.143472515367522,-4.296545526598355,-1.5183310600482534,0.627014497350165,28.986718657331185,-15.576576297139418,38.192263369439466,0,S02
11000,0.10173415537045113,-0.05896959205876464,10.140094943453251,-3.752982479005313,-1.5798567871274511,0.47153018970086663,29.578400859784974,-16.75099866950363,37.4883428346626,0,S02
11020,0.09148916760683862,-0.047624800593083216,10.14356160172561,-4.379954899756861,-1.1232836787767313,0.5527197121389129,29.733904711220855,-17.064672354545948,37.90297239324215,0,S02
11040,0.10482466502156076,-0.05950757205496704,10.143187414987503,-3.934011015943545,-1.1160950232512579,0.569549933244746,29.322739774520976,-16.76504075033779,38.53915664476352,0,S02
11060,0.10584934838659288,-0.060315294672644335,10.149206517745425,-4.226963532443967,-1.0276398901859576,0.6504180759520615,29.587051902840493,-16.089026634344215,38.29845685363155,0,S02
11080,0.11038083201975649,-0.04107157914636153,10.145519893805922,-4.208503522706724,-0.9978342825747784,0.4544862172040146,29.114417993157183,-16.552276054697447,38.38038675307437,0,S02
11100,0.10545452195846836,-0.06138859335941381,10.1423813024705,-3.9038418952154057,-1.3241975669671073,0.8721407590606689,30.075765674798784,-16.23053284232973,37.689758393516264,0,S02
11120,0.10027856284041163,-0.05057153641802105,10.15167886153497,-3.9112937652968505,-1.313283088733359,0.6585352439991433,29.53751001532767,-16.824504182584114,38.1155879957277,0,S02
11140,0.10322362915737811,-0.051582495967431335,10.150245169788246,-4.329612104240079,-0.7933582059539677,0.46258335186331556,29.39440606627545,-16.130200716353954,38.43410878830888,0,S02
11160,0.109764628600687,-0.06570318943541259,10.145321776592269,-4.207223433537772,-1.0174211725541287,0.6929646388546102,28.94845823675926,-16.33229302565121,38.195474623245566,0,S02
11180,0.09812295238289914,-0.05546981650148267,10.14182204084865,-4.142402573295275,-1.097260507113233,0.8412478792500373,30.112695388278535,-16.777606940453083,38.07299137776397,0,S02
11200,0.10607801469167091,-0.0538285915364934,10.148834976307112,-4.472463816213959,-1.455851440721212,0.16931729925816963,29.4513429227459,-16.21850878323768,37.80227446526449,0,S02
11220,0.0967693197291908,-0.06421620672621228,10.141980779509229,-4.385171445248841,-1.0684603507071604,0.4025609554688142,29.928818664591223,-16.767899787612823,37.79530926065855,0,S02
11240,0.0971391601905116,-0.05635453667500561,10.144628220017687,-4.282035759820459,-1.5162866486433024,0.5364435792724385,29.750585471935246,-17.092387967611877,37.51554544251728,0,S02
11260,0.09400485909443065,-0.06603003344734233,10.139552376333487,-4.719079687628032,-0.9128166670519287,0.7712734492237117,29.44354592946799,-16.586481121066775,38.068637767916144,0,S02
11280,0.10035986617528665,-0.04412736328996779,10.152393517269989,-4.333885750591357,-1.449554900923863,0.48569583089869145,29.60259325825916,-16.70314778283673,38.24045386829943,0,S02
11300,0.10102729883805532,-0.06056992521436971,10.149213403441962,-3.6253141098256383,-1.520978267672806,0.6201178375542649,29.364150680643036,-16.96216097626363,37.92516113629275,0,S02
11320,0.10938609119908277,-0.06106357184515149,10.146245610730132,-4.0694665166317225,-1.3401356996433842,0.36465384945516444,29.702213123986592,-17.166630879078262,38.74866521703274,0,S02
11340,0.0990046419888804,-0.05617182426933469,10.140971379322812,-4.08086477500127,-1.5438348216871303,1.007781783180357,29.622834570396083,-16.46033643153648,37.8131919776281,0,S02
11360,0.10619593046050106,-0.06471536121371192,10.144803004592253,-3.872654606699972,-1.233655421904083,0.4532840277312454,29.759941382705197,-17.05828410397175,38.08099546541736,0,S02
11380,0.09967159146222117,-0.06218379167037824,10.139948959804457,-3.552175485214944,-1.9512740166328926,-0.07512747313064294,29.98041720054122,-17.272556903254184,38.26587692452318,0,S02
11400,0.10349322643758894,-0.06423657212356688,10.157730362026244,-3.6277166005934474,-1.4111204860697557,0.5148333727812469,28.756746368742245,-16.269314106348865,38.74836994672823,0,S02
11420,0.10762002887718657,-0.07776014351444416,10.159766318846483,-4.577004280973616,-1.1194344306845403,0.7328833286989505,29.79696981352952,-15.792911751364768,38.20857330594898,0,S02
11440,0.0983506100679485,-0.07000182804325412,10.147703644696922,-5.015623115519578,-1.4364374292470494,0.7692410238485639,30.078552278623278,-17.051049715801977,38.302691871167255,0,S02
11460,0.09567947301206844,-0.07423359872732418,10.137294001608309,-4.375339727110236,-0.9408615836040383,0.7902831126911916,29.914861002303677,-16.803381556252564,38.69476886308747,0,S02
11480,0.09747219306642108,-0.06850476470007595,10.147256532752314,-4.100574763606768,-1.7198863360659602,0.5190946252063596,29.087349736139785,-16.330798955510062,38.4425355719471,0,S02
11500,0.09901144999073115,-0.06759533146671917,10.155505953542258,-3.9268271671073416,-1.3991146945396278,1.1536738211106363,30.059269386014968,-16.613199406581696,38.140768482582814,0,S02
11520,0.11052892828060076,-0.072550719815575,10.147028395080634,-4.458119275921947,-1.7235258859876257,0.6247358858917226,30.112343279212755,-17.231815494774537,37.96016228302215,0,S02
11540,0.10427819076523677,-0.07924635395609883,10.150889671807,-4.588628667403352,-1.4016700169406682,1.1602607980090285,30.024146728882403,-15.979743741897966,38.44517421686731,0,S02
11560,0.09882221828488082,-0.07250099154404986,10.156506026235734,-4.200520378823601,-1.146627796530968,0.8679134872569692,29.748617797711713,-15.801021298045635,37.93124564319042,0,S02
11580,0.10610383782528036,-0.054037769632745494,10.141711876731044,-4.5110139426514255,-1.1415980216706738,0.37462915752729553,30.22092453942782,-16.430155927408585,38.98587802476164,0,S02
11600,0.10694578120639908,-0.07179598747645795,10.144775842902863,-4.244752963074175,-2.1947462894789527,0.3927966647159209,30.096001837988112,-16.762296155858582,38.214492752210006,0,S02
11620,0.09912507053218794,-0.06489264822264462,10.151698936443013,-3.7046365105927306,-1.534808485095164,0.7368445811544392,29.67101620759912,-16.442845528932324,38.20449362377479,0,S02
11640,0.10705692248082087,-0.07395869556867818,10.151939861673037,-4.1148880224635676,-0.7082287710171377,1.1106068232411208,29.46411200328973,-17.11202506200278,38.32509648760248,0,S02
11660,0.10220432276283375,-0.07382726362896892,10.14376198604633,-4.067658782444512,-0.8412072863222796,0.8017467409328192,29.515489455601738,-16.828598457736334,38.513995356469096,0,S02
11680,0.09154706859606046,-0.07514580941827129,10.147782794558285,-3.8552462111402463,-1.2836225868429398,0.6251729430721232,30.42727625800677,-15.900276883476206,39.10552800359735,0,S02
11700,0.10685957628383472,-0.07955260863765343,10.145930270054503,-4.435100336556432,-1.3704580427602566,0.5212908638212425,28.714434758975024,-16.463165434720793,37.3996737090755,0,S02
11720,0.09869130708678456,-0.07217693478949778,10.148418599365444,-4.114085200947772,-1.2538352913085202,1.037548537104299,29.630504724621996,-16.40742596616049,38.03553314257922,0,S02
11740,0.09678835715642063,-0.06996368747808145,10.146109447238462,-4.5997599277657,-1.3423551183737301,0.36638291635886566,30.17894055742702,-16.137381111489404,38.28505012643091,0,S02
11760,0.10042950508776353,-0.06852174830765978,10.145765456708938,-4.13711722660433,-1.0591216716716714,0.3395066156591137,29.249783174898422,-16.140109647659386,38.2210815378299,0,S02
11780,0.10152161797284373,-0.08226240745085919,10.144587632527442,-4.65147992639758,-1.0837623265583394,0.825925811380167,30.75231040022287,-17.644010130606013,38.13204916537374,0,S02
11800,0.10370594504003532,-0.08050792674465429,10.147437105528654,-4.110620212829263,-1.6760543788130247,1.009805700859137,29.600465526365664,-16.660741693162535,38.20465250233408,0,S02
11820,0.10256706417800175,-0.08798556617941798,10.15052046931891,-4.052526569023669,-1.4308467097078852,0.5517400454673461,30.304016102403665,-16.029074209041234,38.20621585620198,0,S02
11840,0.10648591733375738,-0.0839710677035814,10.153348080642248,-4.632054827972333,-0.7988859971127331,0.8491097367862498,29.91818856377286,-17.106642912946313,38.18878997113036,0,S02
11860,0.09818586328235629,-0.08302262543691434,10.1429984810364,-4.149831791394188,-1.3911060002740734,0.8496118482408057,29.355614719534532,-16.982642796538737,38.5926872167729,0,S02
11880,0.10263088562319034,-0.07648836455371574,10.143668325886836,-4.4094778208885925,-1.3460553040238714,0.6959178380466617,30.0916218905148,-17.24345377140547,38.00607250841295,0,S02
11900,0.09552837153724429,-0.08299801464135595,10.141956867917804,-4.274740957188356,-1.3995632401602927,0.8127356497332647,29.264631836576903,-16.697901493671374,38.48272434850435,0,S02
11920,0.10316474905579358,-0.08308994551199488,10.15079324723834,-4.185623015085374,-1.307916464182826,0.5089408681844767,29.09553230369241,-16.60944277390921,38.09722844728284,0,S02
11940,0.10460899519426806,-0.08371264117722575,10.142167229991937,-4.1190877444571345,-1.3211323912483044,0.783215720681805,29.297687187240523,-16.34125410875255,37.914192308608364,0,S02
11960,0.08725414659359597,-0.08710821711652669,10.136059447893464,-4.455788376578023,-1.5498173400223003,0.4880366150462153,29.710288990710342,-17.06736578801443,38.37783499602378,0,S02
11980,0.09697673039895151,-0.09271315853979338,10.144651868078977,-4.7301272706602076,-1.1352492313911113,0.799869300507682,29.772928353577278,-16.566387191570094,38.021635751126276,0,S02
12000,0.10124685623465295,-0.07889229709170517,10.139809062780424,-4.233262581588805,-1.6448508224833678,0.15944734934852833,29.09449852646826,-16.637647875278184,38.11046656718445,0,S02
12020,0.10270444965257187,-0.09033246067409051,10.147086841609317,-4.5426555887694855,-1.3144170498736283,0.6584370078564106,29.881652080307724,-16.632221452331514,37.945511705171526,0,S02
12040,0.10051978071269438,-0.08406243450053603,10.144128396565273,-4.151927134999352,-1.4079166611945624,0.505111178565378,29.20443982519233,-16.973458033926782,37.85065607027601,0,S02
12060,0.09130140726178547,-0.0754521924968769,10.13700826032797,-4.142578613641032,-1.2286357850629899,0.5028394306499729,29.155761756144148,-17.071399709039273,37.99790177694698,0,S02
12080,0.09490549998023735,-0.08594685350368124,10.148095211232958,-3.99343653171806,-1.3718939146620002,0.8715199534912865,29.483791772493163,-16.736567799169308,37.73734484754891,0,S02
12100,0.10352915448985699,-0.08582804546120229,10.150059538614213,-4.193581691382358,-1.5397945868937268,0.497006290448745,30.151237229358717,-16.594551530418606,37.74742209156145,0,S02
12120,0.10588401359391782,-0.09196086434813702,10.147134738358677,-3.993810025088198,-1.7066020474593608,0.960126329127358,30.6341169726904,-16.724171635093327,37.879428331447826,0,S02
12140,0.09483945466703832,-0.08997607898592139,10.144667227188853,-4.247491292382726,-1.2268300059350545,-0.025158748970889544,29.46309087050772,-17.630088280008053,38.57359958302495,0,S02
12160,0.10683419040972608,-0.09128470286587047,10.14941133041217,-3.9240374261277995,-1.4226421316400946,0.8899097618898764,29.623496078652632,-16.119310351198617,38.38031396880814,0,S02
12180,0.09639561431511513,-0.09014548535850933,10.151833023635684,-3.885073587797371,-0.6487744312403632,1.1325693399559116,29.194749152627193,-15.83376632879456,38.08308225545652,0,S02
12200,0.10971148934347874,-0.09220110235072333,10.14211133183826,-3.7810602034392744,-1.0940286181642431,1.091977747447715,29.691061481431205,-16.24479196790294,37.829363590287976,0,S02
12220,0.09496721181958946,-0.09373344167398903,10.135466146545737,-4.191580017107514,-1.6330219512864863,0.5623909419427904,28.815998945796352,-16.47930265483216,38.52712120189128,0,S02
12240,0.0994412261313899,-0.09412255662595898,10.146421309022179,-4.060493500840598,-1.2204662369349415,0.62467579021897,29.2061682490782,-16.29870582540861,37.47867416241733,0,S02
12260,0.09872166191709651,-0.08440148233233047,10.143362941905387,-4.154960485868694,-1.486224174691854,0.41316620309181423,29.91211165814177,-16.452732135653903,37.950564469758106,0,S02
12280,0.10480756488779364,-0.10071145881026103,10.147623815553024,-4.043599915284009,-1.4554232479783016,0.5232190528302683,29.607607942139044,-15.990859242647968,38.66517131465508,0,S02
12300,0.09807796387590165,-0.08682071414108218,10.148894653274004,-4.426719883633677,-1.7345418280648879,0.6356072757973907,29.42932578344403,-17.15544672013559,38.51914658540299,0,S02
12320,0.10401692932575154,-0.08734376149223491,10.144222189216185,-4.510905453528002,-1.0520875604004107,0.49164423465460183,28.740849355231163,-15.767441750862051,38.030811328927626,0,S02
12340,0.09931458403014577,-0.08739242599379357,10.149145222879936,-4.477292027033221,-1.078928127435935,0.7705964774756924,30.557840813207978,-16.98499095860997,38.92720574048004,0,S02
12360,0.09797996464421214,-0.0873021694806228,10.143463793828493,-4.389291454499228,-1.1343384793711053,0.9968528733170141,29.80038830058058,-17.630104428593445,38.36600662527859,0,S02
12380,0.1027354136381221,-0.09184467603890785,10.141337585336995,-4.411043858091175,-0.3888241861915226,0.6119502972109045,29.234387902633813,-16.54020547511218,38.6829824188936,0,S02
12400,0.10054332690533908,-0.10414975477583815,10.152498291697771,-4.147481134877189,-1.0639691557334794,0.8780033429424323,30.605562135548197,-17.37570928924567,38.398390801123455,0,S02
12420,0.10204579590171335,-0.09228058302778303,10.142780382674292,-4.4413472362270765,-1.4345573634261604,0.480256786018042,29.86623447099248,-16.627445369480803,38.652960731373604,0,S02
12440,0.09267806735284652,-0.10195353282952828,10.13789940719089,-3.7202147723388195,-1.5589194131719415,0.2710843717797262,29.608202388978683,-17.69812321601276,37.6498717047052,0,S02
12460,0.10142280104628631,-0.09273954369623517,10.147959444142662,-3.846513196974426,-0.8578564554712185,0.47951939472915667,29.2903298312782,-16.252464171908752,37.54728961860125,0,S02
12480,0.09970289614274455,-0.08807364088941838,10.135048392635362,-4.530924723953614,-0.9382088043068462,0.25292313103722047,29.881970490945662,-16.578297733466016,37.55205380455577,0,S02
12500,0.10092519069571784,-0.08420663645841847,10.143678481880785,-4.260164072729655,-1.532728392056183,0.780156827719588,29.578589021044944,-16.26189093031922,38.05557860509211,0,S02
12520,0.09775199777254312,-0.08941698100005813,10.141453076935873,-4.493840811394658,-0.8698595196931966,0.36348869643944937,29.872712030788353,-15.407038487160193,38.06057536003576,0,S02
12540,0.10166820892303244,-0.09520183378734853,10.152231389670181,-3.9009992145049557,-0.81154352131522,0.4675729124076591,30.157140711380254,-16.220928257929753,38.45715211173189,0,S02
12560,0.09230217350221716,-0.0913864036815564,10.143899548264612,-4.3043628951198825,-0.8933729567124076,0.3122415477076156,30.459058446765148,-17.439716173399308,38.08519523728595,0,S02
12580,0.09886143305587816,-0.0858562066718299,10.146074270577714,-4.358149543184344,-0.9576841519897452,1.1791013622769138,30.37427072397798,-16.55371145943424,38.538446460107735,0,S02
12600,0.09747199833795309,-0.08497716787149903,10.143859192968842,-4.373394883551377,-1.7946522983376756,0.454335542206147,30.078761327830932,-15.781902024571007,38.6125570250837,0,S02
12620,0.097770196400007,-0.09080524671784973,10.151340862147515,-4.2061854757776675,-1.3736813816286482,1.2073839112370526,30.00061937637922,-16.659064311318076,38.691566631802104,0,S02
12640,0.11047689497091219,-0.09748175791204607,10.150716226019087,-4.467029619770662,-1.4055813453005799,0.46670826429608603,29.73605517311864,-16.111334937197398,38.34043156407081,0,S02
12660,0.1062576874363102,-0.08209631395026828,10.149357186759234,-4.6007285998115455,-1.1807376101458025,0.567842111361345,29.412993841104655,-16.740443212253524,38.41927412623877,0,S02
12680,0.10514417562129824,-0.09009215416255048,10.142611169109465,-4.401834346451549,-1.4903105450908842,0.9022031703977846,30.35189736881597,-16.472891866509055,38.86402798125762,0,S02
12700,0.09848449858074323,-0.07746613719604403,10.15358439867752,-4.209168499921495,-1.1497223633277087,0.2861265518267596,30.028454899896275,-16.483015057434294,37.882185710271365,0,S02
12720,0.10740709166816932,-0.08311822117162969,10.149218504726425,-4.022772572373404,-1.3192633785179586,0.6066151655301885,29.407679527587085,-16.071178214556145,38.78519137789243,0,S02
12740,0.09593626700191796,-0.08463160522289544,10.156333212705508,-4.434465711321203,-0.8403842098252574,0.8306975647714685,29.934261053933024,-16.111195244958736,38.71191803409165,0,S02
12760,0.095508636472458,-0.08196480192880012,10.146960877813095,-3.9884356831048122,-0.9833382577589719,0.8022356510640822,30.0953397639404,-16.627880932116447,38.06498685237897,0,S02
12780,0.09670683087121847,-0.08674310886432744,10.149357661192342,-4.136329288232077,-1.1464562718809663,1.181723907663155,29.97292111479142,-16.3527747493061,38.168978919349456,0,S02
12800,0.09905966467949473,-0.08781552960295971,10.146559045203528,-4.271432238964461,-0.6566549385976663,0.47057079526595014,29.88313199527609,-16.44785311591619,37.857844497996936,0,S02
12820,0.09807441554211921,-0.0844723333383134,10.144507289244828,-4.06412044783593,-0.7708150937637457,0.567817793724416,29.836933627563397,-16.8620307073109,38.56327316333246,0,S02
12840,0.09415571564016731,-0.0753255336863454,10.145081689257713,-3.870780075384414,-1.1055088785855753,0.33693764441952345,29.362695100937753,-16.697140562895086,38.5054395449831,0,S02
12860,0.10726653825360499,-0.07913731197930436,10.143339153864657,-4.653117498930146,-1.345998003082385,0.7384327067050718,30.16361648266186,-16.728082969871515,38.354931521260816,0,S02
12880,0.09926835395112116,-0.08814212496289794,10.146790762252895,-4.0886704593909755,-1.0089833455474997,0.655291699090449,29.890450360438166,-15.935639541337665,38.61569888080944,0,S02
12900,0.10423992069652196,-0.07963115264716784,10.14285974761441,-4.044710442021626,-0.5727670971520417,0.6231039176948351,29.61657605794264,-17.213565009084203,38.593577476022126,0,S02
12920,0.09467901717000451,-0.07733341377994275,10.150851355289284,-4.038253536278598,-1.5070799788134077,0.526559201197633,29.710511344811827,-17.211953621869547,37.783062943984454,0,S02
