timestamp,ax,ay,az,gx,gy,gz,mx,my,mz,label,subject_id
0,0.10140891955851682,-0.0752718668356308,10.14600159764562,-4.77264464481666,-1.0437882649881864,0.678944336270774,29.69763816636315,-16.635273665125396,38.12420040882575,0,S02
20,0.10390550126350598,-0.06995072549123021,10.155009493097554,-4.584549126746237,-0.8007997432915046,0.7552518834576138,29.607045389925904,-16.80806237594672,38.04560020806055,0,S02
40,0.10249823382132256,-0.0706633251687894,10.15101170069249,-3.960977424955488,-1.3807367445507572,0.012179805319941561,29.083526996274482,-17.05397058568468,38.47430351115568,0,S02
60,0.09728463672022117,-0.06459047938863063,10.159138300491687,-3.6521991173695585,-1.9150847994155615,0.7608586964091604,30.149157909325297,-17.263220423809365,38.34827955867558,0,S02
80,0.09976006407740376,-0.06063021666871898,10.147067384237603,-4.288773216040326,-1.312297453702451,0.3541822933502372,30.300439566710736,-16.375447226241207,38.557457467419084,0,S02
100,0.09511642729584255,-0.05471842848473278,10.135931066161604,-3.869995568643678,-1.1299598807632325,0.6664068385234527,29.54055177672085,-16.166186889995483,38.79778001079069,0,S02
120,0.09619117753069023,-0.05278526030887285,10.154540898693309,-4.316910002062724,-1.5442506568580057,0.3547654060026891,29.544517690269586,-16.263702272229203,38.15437830816164,0,S02
140,0.10706057652821911,-0.06319207378026555,10.145890128052,-3.9609172085636404,-0.7619549990472211,0.5079482084516667,30.35940947433215,-17.319952794857805,37.78800985370041,0,S02
160,0.10816846524221424,-0.061139184786424446,10.142198868333333,-4.409952201023841,-0.9805816014483028,0.43978054775394426,29.11494267523342,-16.288489641088304,38.02660933587412,0,S02
180,0.10025451918610633,-0.05324947291070048,10.146685738061585,-3.972698376619316,-1.336186254398453,1.460219979300706,29.563475044554185,-17.07936360886471,38.891966998792064,0,S02
200,0.10734985651427353,-0.06042354708610585,10.14856940507474,-4.372501676246463,-1.8488668247694209,0.22642706432384035,30.42606231750003,-17.196501861023492,38.15643476053509,0,S02
220,0.10365783283876057,-0.05357693976539947,10.144190520313625,-4.038789954555699,-1.4401807237987625,0.16391208734969226,30.266330779635915,-17.55666266002673,38.48516761975911,0,S02
240,0.1058250638933563,-0.05840568423687849,10.148058046651315,-4.35220762751153,-0.9001462070913449,0.16198869369761482,30.407548135449684,-16.724367744101613,38.39595976325763,0,S02
260,0.09341483039529018,-0.05543334689255079,10.147947753543646,-3.7614748479266575,-0.9447635133040405,0.21622868406330997,30.80555657710288,-16.892811737268794,37.9090468153965,0,S02
280,0.09106363007572146,-0.05682275266543074,10.1422252176199,-3.916600932930434,-1.1354163766526786,0.7039434831625728,29.524560809919294,-16.23057939290905,37.88436473757827,0,S02
300,0.0968838529491959,-0.05820937690561112,10.146278068377509,-4.126484385585814,-1.5788598544091141,0.6331462468613621,29.07938977783917,-17.080118708517194,37.82303940162452,0,S02
320,0.10393627880799844,-0.04852556026108499,10.145467538186148,-4.389420048750604,-1.3739556837305387,1.1586900993540623,29.579199244213708,-15.70261985746054,38.73297229077865,0,S02
340,0.10087168140429821,-0.04537472704237906,10.140427716475411,-4.419529233024239,-0.5371728009379875,1.0756078686831638,30.173528690530052,-16.783791615365576,37.79036392289279,0,S02
360,0.10064537251362878,-0.05007712085893563,10.149939166077322,-4.380180271513139,-0.7767925229374502,0.6584399065215464,29.488925124160197,-17.44711606811709,38.27788983252757,0,S02
380,0.09913668397872528,-0.06038262782390315,10.14416466822805,-4.274465551482245,-1.1506888491937677,0.6367093939653118,29.643424962223108,-16.637221963648564,38.401704558154634,0,S02
400,0.0922309813997259,-0.047506637206335384,10.15021550729389,-3.9951921930201433,-1.7097132578556207,0.3026623518021708,29.496229842472594,-16.30670416880218,38.34080963583009,0,S02
420,0.1060007312370119,-0.0493707245908246,10.14837296919213,-4.559515031621083,-0.8851061893703616,0.10572463142895128,29.463989264425244,-15.991614152845075,37.4191279962297,0,S02
440,0.09891238281204456,-0.046968724145701385,10.145803736106433,-4.003360603650932,-0.761623479666304,1.2372156242012484,29.21338183214693,-16.049513876887353,38.48766576232557,0,S02
460,0.10608774521607336,-0.059979814106067515,10.138904196182718,-4.089576755460951,-1.7585496880522182,0.5752701679225672,30.099012416992295,-15.821875611021076,39.24869650785998,0,S02
480,0.10623686820715347,-0.05320596817170424,10.146185521078168,-4.402462859720202,-0.7063835728775348,0.6600230638501298,29.81074658424287,-16.356991124141203,38.95503143740208,0,S02
500,0.09915423400057122,-0.04892377457178279,10.142439068751443,-3.915230824210693,-1.5478688412652946,0.5573984646472229,28.768732477230657,-16.101583573413535,38.575475605211146,0,S02
520,0.08748801022354044,-0.05669510594371431,10.155421412005882,-4.161731274450288,-1.9465294339722996,1.126520348769943,29.816973568262842,-16.36965829221907,38.41267104152222,0,S02
540,0.10863962534202282,-0.05772241037827678,10.140677966435772,-4.664133457351229,-0.8195292205523589,0.7033514093936526,29.160376458757202,-16.239941362107608,38.71220238326922,0,S02
560,0.09857421520370646,-0.04693482367190812,10.14509438961555,-4.281774531203339,-1.2125692214625816,0.6204987733828684,30.232015659771672,-16.241431825603108,38.53608332950022,0,S02
580,0.09397992051556887,-0.046323619003741566,10.144842876753696,-4.04970259725253,-1.5775468983224523,1.4406621372510129,29.42098907021145,-16.12842952778378,37.680658645328926,0,S02
600,0.09186453705602966,-0.0623940052579396,10.147110381562753,-4.9657231171357985,-1.1124955193561852,0.5780565734185537,29.486330483427665,-16.273068660924658,37.797150132680166,0,S02
620,0.09435430938116401,-0.04847808680427927,10.154037038959398,-4.597310846548652,-1.229205719096499,0.5391966193929484,29.962863774309646,-17.2751935540631,38.37558097982587,0,S02
640,0.10177189202560348,-0.04542350605417962,10.138955578346996,-4.275084286094504,-1.5010921075155104,0.05748737195693421,29.782844638538712,-15.887546257409724,38.49769241316422,0,S02
660,0.10028401416839855,-0.04473972986167232,10.155483604145617,-3.5210979580737614,-1.0996188678088368,0.5568356475184761,30.027941144750088,-15.651533995264932,38.3667058469552,0,S02
680,0.10309585992532481,-0.04722750808469964,10.134003076003056,-4.412549362230092,-1.0388962140079931,0.10004667856265076,29.646077736170206,-17.250441920276266,37.83111202894059,0,S02
700,0.09844141159562682,-0.048873066083814504,10.149603147175483,-4.072058170866233,-1.1324564032598778,0.6927087082701102,29.95092874350766,-17.22604020418771,38.22853781397842,0,S02
720,0.08538429893623457,-0.05318317464301703,10.136323817287362,-4.923015578115249,-0.7334852370701849,0.21383105621868265,29.987110664960085,-16.52342902576688,37.90520984659151,0,S02
740,0.08599004211821147,-0.06127622202292095,10.150470720363142,-4.019967793310883,-1.0187775995072796,0.7624290612748549,29.582579363558462,-16.582926683529678,37.947607830004536,0,S02
760,0.1065754045388085,-0.05782720465633736,10.136025094342658,-4.02112281664405,-0.8489219433851273,0.8455078107209774,29.816596271569683,-16.693281800715646,38.52258306498887,0,S02
780,0.08720532024962166,-0.04955884766721694,10.14923254476588,-4.354158032037234,-1.3241127350049593,0.7325236724890168,29.94704557164043,-16.343755121010837,38.0154319755706,0,S02
800,0.09586020503117709,-0.0472512841055452,10.149868894323879,-4.079739796818669,-0.7061795098417305,1.187907796696278,30.382343846870334,-16.177292118950472,38.0223560031075,0,S02
820,0.10138561215926495,-0.05267299867323136,10.1455170462205,-4.386929189407909,-1.2362986918857293,0.6229508146062522,30.026250464318807,-17.37517294388423,38.24231253827102,0,S02
840,0.10098901822896497,-0.0441224078995976,10.16374184073537,-4.084042277871909,-1.698740565849453,0.3130885183510963,29.5022883874724,-16.750771428651106,38.932226054605216,0,S02
860,0.1049038384183495,-0.04697262124180191,10.142302734434608,-4.180099227769177,-1.8351987466424071,0.4595328291398505,30.264039936577515,-16.29945070609722,38.03433998186277,0,S02
880,0.1023795445695694,-0.03958910862072142,10.147729647737535,-3.8704271048941803,-1.4879969753676812,0.27599138062672274,29.5749670308111,-16.589854818192855,38.31609128135019,0,S02
900,0.0934085837352235,-0.04422476303075049,10.14764470240143,-4.329759125292383,-1.1042242592844465,0.7571030440741457,29.508789780772055,-16.56536555753338,38.15368184251021,0,S02
920,0.10622479115179367,-0.05429744526222523,10.148809068954398,-3.879492228197994,-0.9761362724319884,0.9567326641055005,29.32366535893444,-17.201929142652762,38.23981698589537,0,S02
940,0.09053306108623545,-0.052205190686525585,10.148121616657026,-3.945842588098708,-1.286906750796238,0.7557943877099633,28.735358607682667,-16.32861365068373,38.05893272182713,0,S02
960,0.10237433825821914,-0.048054412560068024,10.14272521586003,-3.629955713414326,-0.9559587744304923,0.8683574057234338,30.391618931588738,-16.93229146459851,38.191159974688794,0,S02
980,0.0991531897879401,-0.04928244040992712,10.140191834919491,-4.3455402685692475,-1.2437608924051662,0.5571502698683981,30.701177635804328,-15.766066646991142,38.64788980560035,0,S02
1000,0.09420453058961804,-0.046656397566140005,10.146974449210807,-4.090814072605127,-1.1609604657968668,0.7222898226368331,29.743385580421243,-16.379894576258312,38.64720854699655,0,S02
1020,0.09213700568372059,-0.05857069558263345,10.144029062938628,-4.1268647838900465,-1.0304517132072615,0.6255796919142381,29.000729625784995,-16.4300426653907,38.41235693244752,0,S02
1040,0.09086597251182,-0.05014830603767232,10.15214861445626,-4.122313820571578,-0.9908655998794038,0.8152288560686058,30.27322403159841,-16.25309993004017,38.45042164968869,0,S02
1060,0.10262867019302413,-0.049878514058187204,10.150335116999116,-4.3760452271835195,-1.4180158463973465,0.5817536639506572,29.67529114052975,-16.77601083075615,38.72378339429301,0,S02
1080,0.10240388803727898,-0.05823770477000021,10.140655446062159,-3.6765482771066615,-0.896155963934897,0.44615080479698543,29.767009476866402,-17.062181733146033,38.17849349823915,0,S02
1100,0.1041855837222585,-0.060314272364589805,10.151322335952159,-4.657627070898576,-1.1589876547451092,0.9080635554659254,30.066813824754913,-16.331456457615147,38.769209884750346,0,S02
1120,0.11062291677970698,-0.05865508253400686,10.153379964018788,-4.196565990752184,-0.8079300671639487,0.0042718068496571115,29.301340715026225,-16.44124762586174,38.21670717747735,0,S02
1140,0.10647535537315118,-0.057858725177404834,10.14868405530539,-4.6636223683456315,-1.5280899085590123,0.5172389976337486,29.7815562500166,-17.022370522487485,38.218383723395824,0,S02
1160,0.10069575820496125,-0.06578006217759538,10.151492201456014,-4.295708288587958,-1.284623251654507,0.4882768792344737,29.178856692931262,-16.322266076282578,38.477136665352646,0,S02
1180,0.09905595580588607,-0.056435995601333264,10.139623718448611,-4.307155903480516,-0.4710735183193948,0.782076676765683,30.542630112505762,-17.144416906973838,38.38544327231266,0,S02
1200,0.10068862836718036,-0.05502666048529137,10.14535422260738,-4.986009523991754,-1.0423756225804601,0.9022860350769939,29.470085883462886,-16.040708805004254,38.858990213966855,0,S02
1220,0.10458604250704003,-0.05889587036481746,10.14772645229749,-4.234176066113115,-0.7470257766011356,0.6072807141804195,29.84096165778473,-16.453972561976833,38.00978892382782,0,S02
1240,0.09744810309431587,-0.060308725669794845,10.143265711517529,-3.8970197524966417,-1.1999030815236855,-0.02656679030785314,29.720678075762667,-16.395743088553207,37.698947690832995,0,S02
1260,0.09735484178169365,-0.06339182158682569,10.136916341539816,-4.171631302668797,-0.9231980988221189,0.7703303319475443,30.237117443226413,-16.450151255191468,38.44368631638481,0,S02
1280,0.10257974635699642,-0.06512675108279627,10.147280170091475,-4.19351767698389,-1.6285524304217343,0.9317846797926783,29.896477731164516,-16.318045311845115,39.10407444871812,0,S02
1300,0.10371274405332398,-0.06201283085221738,10.145440900465728,-4.2025450892753895,-1.347739280107082,0.8528626783692643,30.20780485601321,-16.71927217310347,37.68166050398385,0,S02
1320,0.09603001203227994,-0.06042540206439431,10.148699709137903,-4.251249384474401,-0.8838740196702047,0.8250990599047108,29.749709998244317,-16.959951355928013,38.16458742065613,0,S02
1340,0.10030850707066868,-0.05587130595672564,10.1476855361689,-3.948021614337072,-0.6737335605747574,0.9087735237270467,30.499698335582735,-16.632761654387636,38.129935040992564,0,S02
1360,0.10162733286330859,-0.06451413848253311,10.144594139357668,-4.390857569953401,-1.228166807784445,1.078211060457649,29.577241086488755,-17.28597471459384,38.03620605426711,0,S02
1380,0.10322904945069517,-0.060347659084590735,10.141334884465625,-4.010147479981892,-0.8504380321317029,-0.3132026438672493,29.86563182519348,-16.838328723763638,38.040427429843916,0,S02
1400,0.10743580039878546,-0.05876692280594238,10.14722969611177,-4.107472268405452,-1.4144541651945368,0.8703688013516309,30.133430981572808,-17.707803004332913,38.27749648346023,0,S02
1420,0.09941944059244147,-0.0655804651675107,10.151242077291977,-3.917105876358082,-1.488569389881164,0.6324742486575529,30.056833185632122,-17.17069103235085,38.33744555258392,0,S02
1440,0.09048629323582852,-0.07062595150039894,10.137836128472275,-4.095017348107524,-1.3033250905114875,0.8943976364057491,29.484814621893403,-17.067216515242528,38.1563868143954,0,S02
1460,0.09836593374967066,-0.05883536179009993,10.148747236894424,-4.156230195263705,-1.3805851638558584,0.7754284519135414,29.618482478728232,-16.27759122337065,38.46743649771986,0,S02
1480,0.098244569776311,-0.07833341099327325,10.1483426498076,-4.452553482005203,-1.21842659723679,0.9450767894427381,29.807871058955747,-16.302113057211997,37.306527591162755,0,S02
1500,0.09735683167598118,-0.06924127159254378,10.14388655890033,-4.197494505525734,-0.7489253586048374,0.2251692994254066,29.70027232765428,-16.840400266230507,38.49799771849306,0,S02
1520,0.08702100432356004,-0.08184043572540156,10.146213401653407,-3.931488665178623,-1.301907163573569,0.7027696275317797,29.24845720461153,-16.003773909970526,38.19788007427224,0,S02
1540,0.10433130554454079,-0.07085250043677034,10.146923926815155,-4.339554355222661,-1.1362571637198646,0.07680026273300211,29.565122057467743,-16.51233297022469,37.9274175721549,0,S02
1560,0.09647601377440926,-0.07371662017334893,10.142421203734491,-4.539239985977873,-1.2174789845594929,1.299998175976317,29.49496346727859,-16.505074959947272,38.24335881598001,0,S02
1580,0.10059867188095636,-0.061595233366727974,10.145448387856277,-3.9270441214565097,-1.4857529738643773,0.4162250944941368,29.68301561776955,-16.277283403978707,38.93872707315551,0,S02
1600,0.09628081607179566,-0.07033637910618885,10.139901789879776,-4.559518612753843,-1.443374428117823,0.33192611922758825,29.700734004545534,-17.04625610998155,38.69324883171531,0,S02
1620,0.10377252847507193,-0.0720416885014433,10.151079361972728,-3.534756562415961,-1.0124027486447214,0.6115798783575879,29.5856089264593,-16.43189834056951,37.855182866024826,0,S02
1640,0.09914236959266924,-0.07754526506955563,10.142523623802832,-4.362325244944131,-0.5175673078163735,0.5310359332286302,29.466860735377082,-16.63273249699167,38.96807773397767,0,S02
1660,0.09355901274420729,-0.08108977243549559,10.150244890973399,-4.29081133937164,-1.453384379617312,0.4427748848462447,29.681341678450035,-16.726162725996595,38.123798234707714,0,S02
1680,0.0954064289699471,-0.08820607613433537,10.137374763861924,-4.587236457958193,-1.07444149971693,0.05541164170286195,29.82727131674939,-16.228537152668892,38.338750699540974,0,S02
1700,0.0949193365436354,-0.08419194512514831,10.143754745600159,-4.191966916405663,-1.1991376130586138,0.5176597552059139,29.186507445683294,-16.43097086804649,38.616585123696474,0,S02
1720,0.10277508499219971,-0.08452092052515423,10.144175761876925,-4.421308888470659,-1.2011430451326264,0.8314445923735141,29.782648741424577,-16.380882842288205,38.919628422639626,0,S02
1740,0.09829558634750388,-0.07687879613741301,10.149300042542995,-4.69259718775196,-0.9282378307494981,0.5848353954905894,29.288366495502228,-16.198356033926363,37.85070576479455,0,S02
1760,0.10348935273711282,-0.08399970802555476,10.145106023494638,-4.704045730896812,-1.4844238163583299,0.717201201916374,29.17525737752625,-17.065705647025922,38.39837445583425,0,S02
1780,0.10180728721141397,-0.08700432132427299,10.144431421435131,-3.855422380795023,-0.80715640006921,0.5964095554138183,30.244219683097132,-17.269374121337243,38.14277643073794,0,S02
1800,0.09718365439077238,-0.07377718602937015,10.146720861823306,-4.256076751373434,-1.4962552914428815,0.9750025933933227,30.383241173560354,-16.687796826352777,38.029540132099996,0,S02
1820,0.0978774448420613,-0.08543886658724478,10.145727450863927,-4.407479492254482,-0.7138512681902418,0.9697547241456318,29.627501051260992,-16.297072649747825,38.235924743508136,0,S02
1840,0.10915408468551363,-0.07865124896543114,10.148025244841815,-3.856759295790972,-1.4632802741166704,-0.1691777137512014,30.349761088527625,-16.707286051382372,38.57329377402515,0,S02
1860,0.09082265984755407,-0.08460820176884942,10.14615893489461,-4.943580864698469,-0.5868663240860914,0.6634655811324046,29.752902680782697,-16.403938899227185,39.274775585593176,0,S02
1880,0.10459536356294159,-0.08967567799160336,10.151742254237929,-4.348487256383907,-1.2276795355829713,0.6738567719420764,29.746061887100915,-16.941622237814826,38.903788447452456,0,S02
1900,0.09965282026891925,-0.0709861812517537,10.153175679321148,-4.2004095185975485,-1.3133536504086998,0.006850435222624407,30.372144542390156,-15.585671533829556,38.00315052338143,0,S02
1920,0.09863946548319023,-0.07980929524961734,10.147274813260934,-4.472599534944767,-1.0409010152824978,1.065627953546232,29.55566672402715,-17.213670983220073,38.1759283472094,0,S02
1940,0.10980784707642013,-0.08777465177468159,10.155663223036408,-3.813656203605839,-1.369441280726635,0.8706281350120346,29.695152669512748,-16.660376129191917,38.470242623894556,0,S02
1960,0.1015831224150319,-0.08803909759000933,10.144755836337707,-4.277174475836981,-1.309421850912805,0.3484447491940218,30.01673865033324,-16.37315521255003,38.27503829101125,0,S02
1980,0.09849755632931426,-0.08753927637286019,10.15052427128581,-4.436248079522514,-1.3349631074806954,0.5321427032746239,29.279895853511356,-16.840296276882952,38.85659508763253,0,S02
2000,0.09987206149365897,-0.09242258715766527,10.138466663204852,-3.965079939404367,-1.156881803197236,0.011957357902035337,29.17199841615465,-16.37371177945588,38.16829410208414,0,S02
2020,0.09496200317426784,-0.07955931025605083,10.154140661576111,-4.234441228460325,-1.4342009942211682,1.1200878010776818,30.003189530189136,-16.022599851705237,38.40697847692633,0,S02
2040,0.10053528997215895,-0.09365542489434867,10.15233357505612,-3.6838186929099503,-0.8587885531424801,-0.09968270485480024,30.31537746368497,-16.818033343263657,38.43835591423578,0,S02
2060,0.1051553252879022,-0.09237054315710355,10.146751705003075,-4.477882962992945,-1.6989693438244304,0.8778431919710447,29.31788404695089,-16.548100350160556,37.8039365766876,0,S02
2080,0.09962399234109269,-0.07895355444799082,10.15398413151747,-4.759258669215404,-1.278299542548364,0.5984560300194507,30.178941263469,-16.864952927338983,38.259960423337105,0,S02
2100,0.09933521811653938,-0.08964625124860384,10.145534379122058,-4.081343708166211,-1.2972970873089704,0.31429415654919646,29.240112109647715,-16.912407450894055,38.44111142212674,0,S02
2120,0.09856038635055071,-0.08578586988108425,10.135109020333546,-4.087757449945287,-0.7715531567478907,0.7117899881069796,29.62390825833852,-16.167402822130107,38.18511693688818,0,S02
2140,0.11068159250796425,-0.08854843463986578,10.14906682498546,-3.947024104897714,-0.9005923409118805,1.0988701274078054,29.42300438037744,-17.68971537365178,38.64475152403019,0,S02
2160,0.10148700349299547,-0.08950311471707606,10.141254710718142,-4.9604115789105085,-1.55395230550144,0.23919673979689215,29.689170471756636,-16.439226667359648,38.40186522860148,0,S02
2180,0.0954148293474013,-0.08843614684001107,10.150791424290304,-4.457916407896925,-1.0177450223514106,0.5824667497407121,29.585679217145557,-15.572712460102819,38.55226212582792,0,S02
2200,0.09589255747666771,-0.09339809948309155,10.144555692115961,-4.090377469167394,-0.8265016950431139,0.9434987501630878,30.288890328100493,-16.59801826187449,38.47642598567306,0,S02
2220,0.11144588006941629,-0.08554973944011211,10.14320155994278,-3.893494174797165,-1.1038677748596277,0.8962155427811379,29.988580182117524,-16.933258513458128,38.53003409485245,0,S02
2240,0.10469930516898662,-0.09124115237339671,10.145402359594607,-3.7723132543533446,-1.1727839824549156,0.6520393618921991,30.083775809271014,-15.462784300353642,38.52259465669008,0,S02
2260,0.1006684166845775,-0.09030623055711184,10.149110746341298,-3.5358156900733446,-1.3930111498970297,0.9544137096660193,29.66150911851309,-17.180888435745363,38.23467320833859,0,S02
2280,0.10038569117250906,-0.09087412927000367,10.147560046432154,-4.241879061774461,-1.0561638136351519,0.5004280005611743,29.458502107422177,-16.234011663092666,38.430368339105,0,S02
2300,0.10190257717298108,-0.08408032954441803,10.14615518588268,-3.6078766960663535,-1.2196979821807297,0.8757133468917091,29.537477858333833,-17.03261398821877,37.8385079461414,0,S02
2320,0.1000675291558157,-0.09138327584035376,10.148189520225838,-4.187349098153944,-1.7222450712556296,-0.24951079334011272,30.634846765916702,-17.369128622533868,38.520366634364656,0,S02
2340,0.10247800637049839,-0.08919530770543557,10.151498897535058,-3.6700548465110105,-0.8501199337332765,0.6739961120725055,29.79075064964305,-17.06768390637999,37.88332721478138,0,S02
2360,0.09538379515433197,-0.09287183320438623,10.147013615272185,-3.9084312447468466,-0.46793966024841105,0.6915345891389258,29.684408745412632,-16.269648593129908,38.37358964901154,0,S02
2380,0.10198112129846187,-0.0965101058296877,10.143876524495255,-3.7047457779729416,-1.0675823270009706,0.8727787593686747,30.142593468563717,-16.490922826243242,38.254135133580604,0,S02
2400,0.09678983239959922,-0.09603893686094805,10.142169163872065,-4.097095141758375,-0.7161870703861409,0.5220746893630172,29.258605121077668,-16.311702790602034,37.610144750735444,0,S02
2420,0.10226641276150884,-0.08776245912315667,10.147549001303272,-4.486040971393279,-0.9580269108484196,0.7194961663637405,29.46232930217195,-16.713217914310224,38.565219654031104,0,S02
2440,0.10490931615189968,-0.08383103820063997,10.140646966418803,-3.9843168417476664,-0.7841366048839373,1.0466942750966324,30.76612406166534,-16.47438475534282,38.06011458707867,0,S02
2460,0.10584363965462805,-0.09041706054725371,10.15100523629177,-4.249818328311643,-1.4754375747821686,0.9147289602814092,28.912355825444973,-16.402601338609305,38.45093911207254,0,S02
2480,0.09742142248684868,-0.08397038658893682,10.143934664508093,-3.9870024865823597,-1.5654246278772388,0.7685299871994224,29.640435475459444,-16.85782176165044,38.25129290638148,0,S02
2500,0.09355853897272451,-0.08999918769866552,10.151490881513404,-4.338272389042482,-1.2627261787516737,0.801084979197459,30.035238258396777,-16.865935600704837,38.34680522043186,0,S02
2520,0.10555885930911085,-0.08680683102405462,10.14500842504293,-4.559755423496046,-1.2390639313029754,0.9645752214619505,29.69507950500905,-17.01711149170091,37.65288287626746,0,S02
2540,0.09712656228169089,-0.08409031646518693,10.15427881948172,-4.325898109429278,-1.0439547911716505,0.18224961743020845,29.109024335125696,-16.492059465174023,38.61383835239948,0,S02
2560,0.09899116571665317,-0.08396204121951356,10.149305653149568,-3.8993367354735735,-0.7006427888449315,0.29355578988871367,29.010573771803138,-16.82573384609318,38.53718720072371,0,S02
2580,0.09383376708910461,-0.08750479699171866,10.14225916929757,-4.685647812260575,-1.0119136728142237,1.1042100057062467,30.82864138939673,-17.181626234915747,38.39645542293771,0,S02
2600,0.10674297435165958,-0.09436997322710641,10.149055807542068,-3.9315467036245404,-1.2731640238343542,0.6919708390388393,29.97900757621589,-16.55424048062256,37.874828149352204,0,S02
2620,0.10041873848163088,-0.0853551418721356,10.133966376635964,-4.943812896745882,-1.3452199642472535,0.6338244101342423,30.404888805350726,-16.315144533245565,38.378337075063065,0,S02
2640,0.10204486615019816,-0.0860177782685824,10.146858432434849,-4.436715616925129,-0.8799535889956869,0.7663400105350353,28.987521039212854,-16.615388813823152,38.9440909529977,0,S02
2660,0.11274896930262938,-0.09509553801610063,10.146767618956389,-4.073823400295495,-0.6928220808950857,0.7073554554366733,29.84566874864113,-15.876879568953235,39.22956596658328,0,S02
2680,0.0927217250190369,-0.09006223361176158,10.141551124471118,-4.305063160158534,-1.2998711554078135,0.4879368634916823,30.485090057366016,-17.445832271771053,38.321372142443906,0,S02
2700,0.10246134661302361,-0.08239675189568206,10.143738901305118,-4.261835212124297,-1.0282832978127256,0.7844545620190839,29.790189338822977,-17.238367328621507,38.206770208158375,0,S02
2720,0.10186181473943202,-0.08620812302071026,10.139276762621527,-3.9404090460142274,-1.1066114042521011,1.0910187937006064,30.44071872774071,-16.131406716012513,38.247924203205386,0,S02
2740,0.09913217169854167,-0.08971910471338923,10.14824759551493,-4.4054869246088435,-0.9907999425816182,0.5012397437650019,29.320353297086783,-17.026440902316775,37.94884865424878,0,S02
2760,0.09293338785622794,-0.08038486150465989,10.144859529189398,-4.265113883003114,-1.4881301034783188,0.3325074070373247,29.426604791132565,-16.589316455334192,37.75774847323034,0,S02
2780,0.10409187858706989,-0.08330108667720598,10.145254488804547,-4.562515582409215,-0.5621513007502091,0.5745465290164927,29.982114984618274,-16.045762968019744,38.32176655240922,0,S02
2800,0.09973541203571928,-0.07969594357274679,10.14833875505052,-4.89924608270345,-1.2189449043899117,0.5859104742287747,30.391089231987365,-17.318873133032085,38.23814647520008,0,S02
2820,0.09950569286911183,-0.07474537768885907,10.146356665430911,-4.288666088939218,-0.9107518395350098,0.9571398247553526,29.862522034783975,-16.851534014975414,38.08781497898502,0,S02
2840,0.1030970805048251,-0.08793440546026633,10.149729571566063,-3.9454036527441207,-1.1756360499372263,0.9640348374482528,28.90043152139509,-16.740197150705747,37.77535307090766,0,S02
2860,0.09043421316962405,-0.09123204195510036,10.144208368051354,-4.449679260998274,-1.0442755273891553,0.9566536573348425,30.289396946972044,-16.638509954531052,38.2951271873684,0,S02
2880,0.09325704561717248,-0.08235763005433008,10.148022607345933,-3.7667942283281675,-1.3912893993855624,0.8015617725972388,30.133506400768034,-16.506006465676727,38.110912401228134,0,S02
2900,0.09310787689905213,-0.0644211467384532,10.144274861223122,-4.4646554794427855,-1.0260101743975691,0.8307240287078542,29.82053441593851,-17.187680725976946,38.337813745342196,0,S02
2920,0.10953799286192473,-0.07786208824395534,10.144273123152459,-4.561571776278072,-1.3342035512887682,0.1784251684953923,29.6644003711392,-16.19084778164715,37.734956735975246,0,S02
2940,0.10487727826154845,-0.07508058429555724,10.143535692565218,-4.381552566494915,-1.0451919226635296,0.49033525613882495,29.649938274477165,-16.544491964125232,38.01176376805609,0,S02
2960,0.10102123620039341,-0.08034606237449032,10.146100005683214,-4.33412538826444,-0.8709062094930498,1.0935526036269942,29.88688005138114,-17.539584500116433,38.53533194565919,0,S02
2980,0.1056127343629511,-0.07362726202090082,10.146700944755876,-4.784885775370265,-0.5744270374717717,0.6033146582798251,29.277374869771382,-16.143063080410474,38.49411201142816,0,S02
3000,0.09836130319196888,-0.07939327702430789,10.14311904481546,-4.524714529486553,-0.812893452586837,1.0231478059495074,29.16594679684852,-16.532958930962913,37.91588451652109,0,S02
3020,0.10293329931077196,-0.07441135715817661,10.145372866328579,-3.878707941718923,-1.5778377328500441,0.7909903134863768,30.4545313413498,-17.492172262808992,38.13584396366096,0,S02
3040,0.10974569732448955,-0.07522829702074972,10.152679299791144,-5.147809055795509,-1.2176496261419185,0.41316539377525796,29.345236492564965,-15.891909762514908,37.889693925639314,0,S02
3060,0.09917910452318782,-0.07442100467246593,10.151331639546482,-4.3977313849136905,-1.1447890871168567,0.6809289259647645,30.472566604946483,-16.635794073923144,38.390360841069096,0,S02
3080,0.10414089836957385,-0.07294375609922714,10.147053773234724,-4.093754841994491,-1.0077534556301186,0.40061365753959655,29.383541950995383,-17.145795875120307,38.44225540287866,0,S02
3100,0.1027331346206602,-0.07627387382155024,10.144411353914979,-4.387786721971592,-1.2001096303047272,0.9042396407745721,29.368207553359664,-16.942094796489656,37.97809408269612,0,S02
3120,0.08910196558378806,-0.07200175349125937,10.152177313705655,-3.7775831590612636,-1.213245727656477,0.47844370542405845,29.80126031478647,-15.836406218545429,38.560040428061434,0,S02
3140,0.10517345790143537,-0.07190959044556232,10.148575176970104,-4.039081798182847,-1.2693034155095193,0.4611285908378092,29.97290986462956,-17.275186474078517,37.65368695836224,0,S02
3160,0.10618791683115751,-0.07192477753644123,10.144023804985219,-4.041337608351798,-1.2097657110205413,0.5611803642305976,29.818488587706,-16.593436990505886,38.58037315411114,0,S02
3180,0.10963821412879508,-0.0681829806076325,10.147766755476107,-4.3371116704784125,-1.1899847435312332,0.11378255158562867,29.603170222948393,-16.709865951623115,38.758555961168,0,S02
3200,0.09700881299801827,-0.06989356332850541,10.145842816378906,-3.802690528498113,-1.5178408181806016,0.7329700427050956,29.802576210527953,-16.094927995646437,38.17078821589197,0,S02
3220,0.08421700522305894,-0.0733230832449669,10.142102922789128,-4.136176170731452,-1.0131580165363954,0.5768789014597654,29.887945656170288,-16.16099852189238,38.22827169310351,0,S02
3240,0.09993583786529281,-0.0667497396079189,10.140679985393469,-4.396635385298419,-1.2902547343576922,0.5653382763006719,29.516456353804006,-17.043011114530117,38.078055679350825,0,S02
3260,0.09996658965232351,-0.06640007841747703,10.15011858862967,-3.9395149305159873,-1.513620208272327,0.7093817910807713,29.5563906842155,-16.615531583454136,38.13646403993383,0,S02
3280,0.10421844213958696,-0.07167345577003277,10.141597658386106,-4.4379215337809885,-1.4961244478617657,0.17167929422577277,30.313805553894593,-16.946369180319664,37.9276409412574,0,S02
3300,0.09458501916764457,-0.07116402000556855,10.1477702198937,-4.043942748211325,-0.6323351258402093,-0.3578570895338603,29.98285264271643,-16.449706497020326,37.85127840960236,0,S02
3320,0.10171799696719257,-0.06613881178116177,10.137838125540451,-4.420385796534191,-1.3274601087799618,0.767775655212393,29.64970092659365,-16.845106732329448,37.881572389852366,0,S02
3340,0.09743067891850989,-0.06385172974127072,10.14626253667765,-3.748495159886281,-1.429359216227566,0.6794089543619422,29.86901963339308,-17.37864482565988,38.53270058730662,0,S02
3360,0.1022190199474869,-0.0747925835913117,10.143983025458892,-4.467232296000279,-1.3014647877984267,0.560105700567538,29.38409006523034,-16.265864583263244,38.15151081808802,0,S02
3380,0.10139280934404428,-0.07560596849430126,10.146154526216405,-4.40596385517287,-0.8285946416625796,0.3246128016752481,30.039044870441668,-16.721040141483133,38.24280458507384,0,S02
3400,0.10719513235419986,-0.04964313617696682,10.151110497491375,-4.003185889902418,-1.2301209480815367,-0.17832357303321922,30.00588268949445,-17.071298341237117,39.01603155383294,0,S02
3420,0.10326535516976013,-0.06053185468295467,10.14007047463295,-4.9114417899160285,-1.1064369712423714,0.4423641731030619,30.12907079035748,-16.430941671228794,38.148165947843,0,S02
3440,0.09549561030714948,-0.06507883827052055,10.143314487135765,-4.395410140994947,-0.8209881386096035,0.33676269002141007,29.77524573995179,-16.804352872321516,38.389267275829695,0,S02
3460,0.09311606841261846,-0.06523455182698079,10.139171685511693,-4.204239073601643,-1.4178441055897812,0.9162338276713914,30.246995054506318,-16.94678373347248,38.22830228538618,0,S02
3480,0.09559872466772983,-0.061299451940698586,10.148124723520688,-4.019792489766269,-1.2562282128043896,0.6534110553897798,30.21390063717225,-17.094665895745752,37.41953036587899,0,S02
3500,0.10100848082336424,-0.061462894769489206,10.144901698636374,-3.921266658846501,-1.0406767281741058,0.8338721307894261,30.045866950612783,-17.27769185351569,38.41551951752151,0,S02
3520,0.09742250567565953,-0.05869189714516042,10.149683595176901,-4.321298548700894,-1.2794425613388418,0.2521823341030819,29.795015067038698,-16.06490942628279,37.695376941783515,0,S02
3540,0.10563911576573165,-0.06147779550054666,10.14020951784363,-4.123593042640158,-1.4776943745016473,0.7157537476677914,29.301754872625175,-16.579460472919866,38.28152559964458,0,S02
3560,0.09387150406119553,-0.06282257073428876,10.142573513050827,-3.9616101469952807,-1.284513037856406,0.40143479316212716,29.651240505933327,-16.686905341067835,37.88987399718842,0,S02
3580,0.09380623058375348,-0.05338085419618581,10.146821979348086,-4.310745676368023,-1.1719400239107627,0.294110826905657,30.209367794743738,-16.75884029346561,38.69979082380615,0,S02
3600,0.10079403174902693,-0.05291625070812171,10.142441860245672,-4.317006984673646,-1.3146495722324263,0.13308881378891652,30.047514556071846,-16.484490117148468,38.34075887095215,0,S02
3620,0.09950802946441506,-0.05159448039022779,10.142761562225457,-3.8084793014195624,-1.1198197114423698,0.47074259792440204,29.319081770791993,-16.224890484455166,37.78514934578609,0,S02
3640,0.09348266524346996,-0.06439792655198032,10.149062637810434,-4.429316796805114,-1.5466898720911688,0.2226372919819694,29.528870479798574,-16.60257733231124,38.34021816766129,0,S02
3660,0.10412698913678911,-0.0561903548980162,10.136160190936046,-4.315212176997271,-0.9308542234976633,0.7809160159696368,29.50229283209685,-16.665645521865866,38.572630840698984,0,S02
3680,0.09441651043972679,-0.0412148516783359,10.146228284788158,-4.239485114864757,-1.2097218685138476,0.8411611711181908,29.76272313414548,-16.922636352705503,39.20417978144448,0,S02
3700,0.09815751560875823,-0.0529542302547585,10.149100767175826,-3.8805508114220775,-1.542439759244905,0.8495371984976156,29.773163394785485,-16.245447832601016,38.312972301082674,0,S02
3720,0.10447136337738124,-0.06789155838305054,10.148419884674592,-4.256305631628376,-0.9036906994034408,0.034369691359220966,30.34532866228146,-16.97733481078057,39.022596827947886,0,S02
3740,0.10293436126963293,-0.05235063513867533,10.145450671734901,-3.8375793200350055,-1.42532418610591,-0.22763801871254186,30.144805645362368,-16.735074569873355,38.542349813999756,0,S02
3760,0.09782942103346601,-0.05434962105164634,10.146185674804753,-4.265930803766703,-1.2619122056488263,0.7258460719682565,29.888000277259973,-16.393657515669837,38.03982716910391,0,S02
3780,0.10156681136164007,-0.054765248603886485,10.152985446752188,-3.8615635419281107,-1.0435217890202813,0.6415870193505018,29.353408689454902,-16.533939781883767,38.339194822938985,0,S02
3800,0.10469662208206654,-0.050576979981357094,10.153975527447807,-4.5020733321744455,-1.6068314820992755,-0.12939740008026335,30.11692756762558,-16.89709827045482,38.47484041181912,0,S02
3820,0.10128282968916358,-0.05209819497089597,10.14204356081621,-4.025103604652209,-1.6312624764480663,0.4945524599411727,29.96075548839399,-16.315615296015253,37.32909717650877,0,S02
3840,0.10608310577366611,-0.05801793398251756,10.146635681729306,-4.107351462734053,-0.9561873441329096,0.6171562351672076,29.021628270293515,-16.730590775450786,37.581690263507966,0,S02
3860,0.0994418796237821,-0.04850451843396665,10.147772123899019,-4.023335550848115,-1.5552047778664337,0.6445552640238253,29.664196917197206,-16.496117912765683,38.61888918539017,0,S02
3880,0.09783004404772955,-0.04632484120512801,10.144631960235783,-4.3365301338015625,-0.8505858245097191,1.0492141307855467,30.462631315486032,-16.017579186890565,38.189240434929864,0,S02
3900,0.10775911089607239,-0.049052843400531565,10.152175685892,-4.369680940230908,-0.7567108275262201,0.9555838678661528,29.51066307315793,-16.61355172287871,38.237356499974695,0,S02
3920,0.09661228851895791,-0.05310304658695787,10.141337654949387,-3.932906432815223,-1.392241653298547,0.005917901022501337,29.932485401651267,-16.443827662414463,38.4038526901517,0,S02
3940,0.09353086457443167,-0.043800819660714876,10.144604330726674,-3.8213634277184925,-1.1864120997613041,0.4316377781060412,29.353143775527386,-16.136679128509705,38.513677211913766,0,S02
3960,0.11559864012886807,-0.05219230692491181,10.14680776791043,-3.7572715663903953,-1.3591482564256738,0.17544456410294568,30.33071161842925,-17.25497183452469,38.24695644763914,0,S02
3980,0.09974115891389039,-0.05193710047596013,10.149440798352874,-4.267301976043122,-1.2793493203772084,0.39388748686689856,29.85978379715288,-17.01071254484159,38.01476627670484,0,S02
4000,0.10525335972543569,-0.05091811010638166,10.143878003395395,-4.115234509856032,-1.15450334105057,0.5912371482819899,30.023059273164403,-17.383072855348,38.234524822436036,0,S02
4020,0.09748887739010649,-0.04325420325488366,10.148938174033532,-4.468686288837289,-1.3746448027854086,0.40589242425094896,29.86107226739124,-17.16933928910042,38.52756553719999,0,S02
4040,0.10007072373992643,-0.043771148735355564,10.145832505716442,-4.161657852176432,-1.4633278712475881,0.7224355284558741,29.558004513053206,-16.706204538686958,38.25975991818919,0,S02
4060,0.10754297384883883,-0.048930837754622786,10.145528128269545,-4.463018943431932,-0.9047777557639678,0.6645802726119332,29.764366843632867,-15.924527438745342,38.60356026865417,0,S02
4080,0.11046593605776134,-0.04760102223969462,10.145615918847934,-4.0975101406125285,-1.6777064041043794,0.3093736724236551,29.388373003697257,-16.530900159827027,38.647640209886916,0,S02
4100,0.10501353408037001,-0.045507606522831846,10.14612094504924,-3.694336243185498,-1.087209304998313,0.6283512808628604,29.402292725787625,-16.40903804969443,38.00104099963917,0,S02
4120,0.09467110566052536,-0.0524408714717569,10.146187461872003,-4.124636596238688,-0.7440058880033417,0.9990364220533497,29.765789183603992,-16.47763135607574,38.39402945295278,0,S02
4140,0.09183214358798544,-0.052618573534116315,10.140919124341856,-4.186428546172543,-1.6050043325011065,1.4159260309519368,29.77614383165441,-16.043423228418384,38.33771325464927,0,S02
4160,0.0974703793139642,-0.04772543870264341,10.149821306078339,-3.91845871678996,-1.0591284581048739,0.38691979587779635,29.878738971073336,-17.26940580387996,38.64881464929488,0,S02
4180,0.10780441620119031,-0.05169998797989435,10.152452784436571,-4.223186913324537,-1.3568340782580937,0.5228795176409068,30.18445027898009,-16.890595782334252,38.45205592701721,0,S02
4200,0.10728198286205068,-0.04562599743240417,10.147942092423426,-4.350669823339781,-1.0614248186933346,0.4950488773451271,30.438749131598268,-17.156120877145028,38.53263699097786,0,S02
4220,0.10248345205304085,-0.04554560443388753,10.143221573253484,-4.396052809464787,-1.025054996179563,0.6568235101580215,28.9224378247196,-16.389110525587604,37.58048886838961,0,S02
4240,0.10647700763326977,-0.04216493449964191,10.141398068935242,-4.315724643459427,-0.9263256290521384,1.0785238056835351,29.112770926452804,-16.56365564849816,37.62071216076863,0,S02
4260,0.10261158468714329,-0.060708483163343416,10.15008992596364,-4.2089016824058,-1.1973968680675213,0.5877732012712313,29.467923016964903,-16.759136922296733,38.62310587792518,0,S02
4280,0.10047938819751294,-0.04816658738615483,10.14183402751364,-4.281426066389894,-0.7555312807497523,0.4005720804636566,30.304596069051282,-16.51569920339142,38.77494242123622,0,S02
4300,0.10104357557207337,-0.05697971288242004,10.146207130275078,-4.476341342516105,-0.9691802504640374,0.8214295235218564,29.890165399590863,-16.748359593351715,37.64113531391872,0,S02
4320,0.10101879972067875,-0.052700285898760815,10.14254145808996,-4.1229135600978655,-1.2802408252603423,0.6149971364539938,29.829487289082962,-16.361028223776593,38.62069823396013,0,S02
4340,0.10537188018354433,-0.050368058038905456,10.144799710641726,-4.06813188346373,-1.189382708494699,0.8582525827838314,30.025911484660025,-16.99191989446102,39.34798297629386,0,S02
4360,0.10113051328240617,-0.049398503934338804,10.142707356544989,-3.99194955236794,-0.9938186273278536,0.05266374233359916,30.287880039055864,-17.332866760113042,38.951640563324034,0,S02
4380,0.10280665615844108,-0.05660276469084664,10.138696298312805,-4.442649045857385,-0.42145684670054795,0.4204263043377898,29.721473763688273,-16.199680664705454,38.87676609614658,0,S02
4400,0.09695888762633265,-0.055767881834165756,10.139530796656345,-4.2965523428036825,-1.5266892831843397,0.7521497089404142,29.10235413110827,-16.0984608108107,38.74859717144557,0,S02
4420,0.09489452423357178,-0.05829010254388461,10.155455847910089,-4.204417900044217,-1.645869515268143,0.4567923079087305,29.629190581377003,-16.17473846197541,38.07599913597787,0,S02
4440,0.10400836255299596,-0.05873839560702646,10.142521834509381,-4.0469593721395185,-1.5470853038966785,0.82312353339684,30.451663330657816,-17.1287796270482,38.127241153361155,0,S02
4460,0.098219155210254,-0.06930053099890782,10.145232172494087,-4.393635781287962,-1.5694160540639928,0.5357267852484237,29.95440069988456,-16.227543928377184,38.97147030239507,0,S02
4480,0.10272605228428916,-0.06013876475030439,10.151969563755516,-4.120459957675354,-1.055298299734436,0.6668766948903362,29.917540667000093,-16.262468009295148,38.40716968533663,0,S02
4500,0.1035494741860418,-0.052225223901463655,10.145351704957278,-4.605346980893662,-1.4540620834514761,0.7753086426248645,29.704377629833992,-16.686917899772503,38.90026459024423,0,S02
4520,0.10494817148182059,-0.05700328925044115,10.139536597795875,-5.269717840776358,-1.5497793005213525,0.6285267205637342,29.50368746439449,-15.783800242352857,38.58574211265239,0,S02
4540,0.102813427794764,-0.05686719570152634,10.14352370009312,-3.734323812746932,-0.754855968718483,0.6964260346940816,29.795237431134744,-15.681976790734181,38.95106823483151,0,S02
4560,0.0970996290023978,-0.06449164742262284,10.150123763382359,-4.476223746202808,-1.5778474262887454,0.41371468143546664,29.53273715116892,-16.19568320996624,38.780917188235705,0,S02
4580,0.1049333536129607,-0.05830169408145075,10.14635826961303,-4.104078647735099,-1.3520571000138153,0.7593145021929089,29.548129833030455,-17.002260970699005,38.4806164253137,0,S02
4600,0.10506310221376094,-0.07109410630579953,10.14795695624217,-4.3693824296628785,-1.2231208677599705,0.7787926772245586,29.977350578688895,-16.68877814423942,38.65947193451948,0,S02
4620,0.10481429178287732,-0.06443770560765293,10.148004755461402,-4.720657627486531,-1.058780670260555,0.32345388348045845,29.997540191057734,-16.05232262306496,38.1781585533805,0,S02
4640,0.11191587889647792,-0.06066918459332706,10.146135378430461,-3.781737379183985,-0.9375100081531593,1.1129100619833778,29.82811539822056,-16.01072838973916,38.35723974771607,0,S02
4660,0.1020957471644932,-0.06956596847292805,10.142483506116811,-4.490449839753646,-1.4589153467928675,1.059945723336699,29.85176033562241,-17.209378512192828,38.56335645716404,0,S02
4680,0.10446778113596236,-0.06525002553999452,10.154373626100096,-4.5192329243693425,-1.273837043667943,0.8485101776271775,30.03555265438425,-16.605638390680618,37.51765151732347,0,S02
4700,0.09240494822199999,-0.06535874387451687,10.14143684681557,-4.036863352602499,-1.315788473166241,0.9878968939087296,30.318438558765152,-16.171729378882574,38.49074673194614,0,S02
4720,0.09684002820634309,-0.07029727959289188,10.156508510596048,-4.397403312847211,-1.5361320097461473,0.4357963604768158,29.47911315521522,-15.596238452161835,38.81643624357138,0,S02
4740,0.08692043450584518,-0.06460191436807083,10.14618347896077,-4.432430297522112,-1.5567549949974453,0.6265193130642295,30.574645414422598,-16.409002804948635,38.28316249054734,0,S02
4760,0.09881454476535047,-0.06556345945734415,10.149229011374237,-4.248575660653435,-1.125145074998775,1.109935393820632,29.949320741766115,-16.873475529730076,38.51675217980277,0,S02
4780,0.09604789190504313,-0.06902454046029789,10.14659891668856,-3.8713606552574014,-1.178849833376722,0.3372938725028316,30.290366682878474,-16.750369931959348,38.52211809640135,0,S02
4800,0.104335944984413,-0.06662264490040956,10.15090200746992,-4.558275190998436,-1.304709587778102,0.9799657891883076,29.93370659253423,-17.35434706314433,38.476097810910794,0,S02
4820,0.10180115625374689,-0.06858106929887012,10.148115490493343,-3.71257341913802,-0.9586315754200703,0.9149252207973342,30.190449237716788,-15.102557829079872,38.530909875732306,0,S02
4840,0.09431457997945097,-0.07113023818420286,10.146480428549408,-4.1039695364984565,-0.7356174738246419,0.4047136258705688,29.832995763264172,-16.70638042786007,37.920730088982644,0,S02
4860,0.10541320081716281,-0.06579773920484036,10.14231329252546,-4.100734194682917,-1.2010966495605349,0.6003373835923055,29.830227144091467,-15.912950011258717,38.591014501947335,0,S02
4880,0.10897278580258041,-0.06407630355338727,10.144388021462243,-3.843652599296658,-1.2473104609411245,1.2784122336518307,29.49803655209488,-16.451380064669383,39.13276386655071,0,S02
4900,0.08935961493031215,-0.07011843150905654,10.149950546394848,-4.066942342576318,-0.5108786582505592,0.3747198266045327,29.509608989701988,-16.92342208324725,37.75238588597307,0,S02
4920,0.09181379392744463,-0.06367356261554986,10.138914605224329,-4.298864439168968,-0.9921983518404978,0.7111852115544528,29.825622319328126,-16.22950401146887,37.75768951798662,0,S02
4940,0.10122367048623142,-0.07396286131765359,10.142986977705524,-4.519824287899761,-1.318580960678268,0.0971399291377788,29.597214829077373,-17.058290197078986,38.91893510527747,0,S02
4960,0.10296639859549556,-0.06850188987127481,10.144304612232624,-3.9389978689541816,-1.286593805734189,1.1057099036558964,29.572086597206887,-15.860612790718156,38.76634209955529,0,S02
4980,0.0895637907946665,-0.06995789995270613,10.15042158952501,-4.206748226295882,-1.2637466994627509,0.8193930315404878,29.89252718673946,-16.585944023288405,38.69950011120289,0,S02
5000,0.0957488125143606,-0.0760784810279007,10.142698099986877,-4.2197516372907815,-1.389608908828251,0.4717827650745696,29.368857155067925,-16.50241324908683,37.83967977975722,0,S02
5020,0.10838441244389695,-0.07789909076405062,10.141146419245821,-4.255552199832061,-0.9659298416885042,0.6042439806687868,29.655741473529588,-17.518509035059672,39.04390120560571,0,S02
5040,0.0953831470516591,-0.07830978812915303,10.140068400394261,-4.14121697856527,-1.3963896681670713,0.5132577726868146,29.66590578872161,-16.48949244644284,39.10601871441648,0,S02
5060,0.09099988165809494,-0.08136560718106163,10.140115324129559,-4.286910606026001,-1.0470766803940779,0.503680678238911,29.22304311020643,-18.182032864638774,38.6754048209898,0,S02
5080,0.10458438598178012,-0.07361844856316249,10.141800501500342,-3.948646775423744,-1.490622160429744,0.7430947500552775,29.772931858760142,-17.149567773715972,38.444313811734844,0,S02
5100,0.10034412094468206,-0.08531792054853198,10.147318735702965,-4.4494621099108045,-0.8970718332354071,-0.33368560173385076,29.677331635139232,-16.16031145771637,38.5432633150155,0,S02
5120,0.10034412017515044,-0.08736274554674754,10.138427327040112,-4.244335100487961,-1.2690046077217088,0.6447786485282208,29.794676014750536,-16.009255974854902,38.07974952970163,0,S02
5140,0.10165053995135469,-0.07694754937104252,10.145940209113132,-4.355352808782092,-1.479592142928699,0.11403283597093844,30.320550197206668,-16.354793831307035,38.0807496828049,0,S02
5160,0.08429691285710396,-0.0677425398341352,10.142014024402041,-4.225236616327908,-1.0672891234106134,-0.0198966510781875,29.704580426348482,-16.86605102092397,37.98072026584636,0,S02
5180,0.09551355036487649,-0.08667760402235958,10.14425420901703,-4.532434543414242,-1.2875673882566825,0.652821879746081,29.38152485932413,-16.107801684997042,37.881207523446434,0,S02
5200,0.09848230139737124,-0.07086364480654253,10.142518460268157,-4.453091520027939,-1.283154365032723,0.8429272207514038,30.089498995796166,-16.791021507547637,37.93921082285253,0,S02
5220,0.1016462965378219,-0.08593878822769022,10.147136213084961,-4.2413862233103234,-1.794046492526872,0.14319929065007359,29.998352807580975,-16.135273859500646,37.271411420262694,0,S02
5240,0.10071449128291474,-0.07681952541599944,10.152151202916544,-3.9691451817997816,-1.2516632680856015,1.1156769913724314,29.7015948738477,-16.436680986435533,38.537460308569315,0,S02
5260,0.10263245393608408,-0.08368689125824118,10.151170415644794,-4.874620733831333,-1.1581618827503108,0.5321039961446434,29.89086633467013,-16.087354555286,38.28334696311588,0,S02
5280,0.09454161211891271,-0.08984352426086384,10.134415221242458,-4.343547478459374,-0.8847941305690216,0.9045741091362741,30.03464261970397,-16.532272043603285,38.41744927658676,0,S02
5300,0.10335194896160146,-0.0853139724634389,10.146455893044294,-4.0667027872669035,-1.0122759609635756,0.35070019182490164,29.283593158223898,-16.84234991830465,38.60864911694736,0,S02
5320,0.09280693019673361,-0.08408687436379376,10.144303805741297,-3.82206482191712,-1.620402852818207,0.03174816332201802,30.167356676347467,-16.351904545967457,38.69088122345053,0,S02
5340,0.10376976821411833,-0.08842866360369192,10.141705369321059,-4.014942261658254,-0.9937326018315681,0.6259920883908414,29.440539577964827,-16.66528575978024,38.35409480876591,0,S02
5360,0.09276287153579606,-0.08353138816718597,10.153878772979755,-3.9551230828986905,-1.2678940715650564,0.7029891049580989,29.361901766960397,-17.343991083301816,38.37526210106427,0,S02
5380,0.09595068522799996,-0.08694922385601683,10.136935477962014,-4.099257014271534,-1.4015572674142631,0.6075794703838863,30.291731812709987,-16.282325739522204,38.05660013666611,0,S02
5400,0.09540664153189873,-0.08858059887066395,10.14654528289014,-4.4661439814173445,-0.9422416057781424,0.4214240543839742,29.814639574708227,-15.775454482211646,38.37818897447088,0,S02
5420,0.09550557251080968,-0.08920580278349988,10.147746758675344,-4.223284804542785,-1.335986674367373,1.1585858774703186,29.656469709212374,-17.03832122918201,38.58510453988084,0,S02
5440,0.10399187319737711,-0.0890664876434526,10.140334040746765,-3.7794773199023046,-0.9714623127684958,0.7591269443736206,30.132785038263798,-16.391788751117215,38.207048858334424,0,S02
5460,0.09945056053761867,-0.084689675953151,10.143013173267256,-4.336843218530791,-0.9818673043573275,0.7602910712304993,29.291881902228315,-16.952640553430932,37.64105750595656,0,S02
5480,0.09742059297405094,-0.0877361359148473,10.143849463548548,-3.835140743762118,-0.9717837222656085,0.8251431021189718,29.06050549252059,-16.16106754921765,37.65907374430445,0,S02
5500,0.09930251483426283,-0.09158904446995611,10.151010419458235,-4.473170622498131,-1.0491590283545729,0.45631406153204856,30.019971459848634,-17.19949867098346,37.90580259346476,0,S02
5520,0.09607153143584506,-0.08827563396454165,10.136626148271272,-4.011575660943034,-1.5718566052320107,0.5292540904742261,30.312117830854266,-16.60968843014016,38.5415514860562,0,S02
5540,0.0931990000919515,-0.09158646083400175,10.136226193449446,-4.100922544304495,-1.3222027057501222,0.3322336642497542,28.837409752124074,-15.836183731983981,37.95983133172129,0,S02
5560,0.0981550139077815,-0.07947527595221808,10.146834699936003,-4.0812913820362,-1.0016474114765035,1.0886602465431867,29.519113533724923,-16.932024049768287,38.086176759320146,0,S02
5580,0.10236170550062264,-0.09130090468599197,10.148174055852246,-3.762861655037775,-1.273081632173855,0.057787063766922886,29.54651315448074,-16.71212201858048,38.14903699509874,0,S02
5600,0.10023229971078287,-0.08702139992402119,10.138783374495182,-3.9351143980169296,-1.3351564702966914,0.8628708157923313,29.684174299886745,-16.759843407756424,37.94235305171335,0,S02
5620,0.10057143295734917,-0.08726454954418683,10.143369029400938,-4.098531425997828,-1.166127914720425,0.8453570487361577,29.572169171471852,-16.797663571344252,37.74445627553715,0,S02
5640,0.09913391204298912,-0.09523218529698166,10.146468639120028,-4.305465430216971,-1.5414205169209771,0.9198522118968104,29.597858239844797,-15.804375847606542,38.51568898599291,0,S02
5660,0.10180172559049742,-0.08890123058290339,10.147537391087381,-4.1139595871031505,-1.079358174161218,0.45668935285907497,29.842656961883343,-16.81618950578852,38.1325387031395,0,S02
5680,0.10376767734438222,-0.08958937066841205,10.146896759465857,-4.129602115012031,-0.6684172225798028,0.38460183925800384,29.293523379008306,-17.621176834588752,38.51153120080333,0,S02
5700,0.10343059011458197,-0.0896540286634194,10.146527842040571,-3.265102575537049,-1.7277808416574398,0.4240282151553916,29.59201502043218,-16.071517442989112,38.64821396257513,0,S02
5720,0.09775975033806482,-0.09281858720072682,10.144844014407823,-4.517183750048377,-1.2227224139485602,1.1137662548596752,29.93759518171754,-16.44162154928425,38.649773603799815,0,S02
5740,0.09493035752773381,-0.08846310930011811,10.152308949202821,-3.9767082612305664,-0.9909968716297222,0.7952454192273903,30.112919108499998,-16.596308358292873,38.139418921614094,0,S02
5760,0.09302971562072648,-0.08898478845513491,10.146787667848724,-4.304977951120218,-1.3279892737642316,0.2014118834316172,29.906865011327536,-17.02727956144853,38.65225255498639,0,S02
5780,0.10162219814184975,-0.09798035868665239,10.146277993219307,-4.048881155018273,-1.1727790198461714,0.98394006503117,30.091920699430183,-17.489688797770462,38.450843556592744,0,S02
5800,0.093361070400934,-0.08137892683637328,10.153148920319872,-4.253354951490707,-1.2661566842129108,0.30075270652729735,29.84881791261764,-16.82758468428895,38.485807894396316,0,S02
5820,0.09411750375521398,-0.09280470210849677,10.138139429188866,-3.9824478640521117,-0.6399677904331025,0.08857831393887872,30.34963830944032,-16.940204569965882,38.33201102326905,0,S02
5840,0.09409110602121465,-0.09215850749898646,10.142360248525922,-4.031761702365574,-1.300275307313966,0.4549317446228023,29.723530161756766,-16.882224581267025,38.87669469226224,0,S02
5860,0.10032295104332155,-0.08380015882593778,10.153212253533352,-3.9850438407948934,-1.3664402937120663,0.21469810775251286,29.73683793595909,-16.118182253539096,37.93847787570859,0,S02
5880,0.09933297138203717,-0.09181933932570911,10.144116523342724,-3.9475719382441046,-1.84234259966719,0.40426853726568485,29.744234906056345,-16.117686855622143,38.11470507962234,0,S02
5900,0.10636205222711546,-0.08519695044656168,10.148437697854966,-4.336251588013093,-1.1205592318609123,0.988707282878418,29.201174962507803,-17.966872215732636,38.209446333754826,0,S02
5920,0.09678385008297968,-0.09309491033720135,10.15184938126225,-4.496210109542492,-1.004074557216988,0.6094585107355461,29.91633429149197,-17.121151554926143,38.113254864059535,0,S02
5940,0.10148871310308642,-0.09015372599517367,10.14267190614783,-3.8623161983813583,-0.768657222146593,0.1652914289616249,29.627619541096,-16.76781826564685,38.34095517273844,0,S02
5960,0.10127211895196436,-0.08745539134341468,10.14514025072454,-4.218799944273727,-0.9851423541473645,0.03912370622923911,30.373700473096935,-17.046979836524432,38.467631942636096,0,S02
5980,0.10682338007896543,-0.08244554025602222,10.141321820068468,-4.111165675689107,-0.7453549815573607,0.7712942732492288,30.33206351229345,-16.71405779992988,37.92374409722492,0,S02
6000,0.09940754973522446,-0.08781164400952089,10.14137160422182,-4.032202227952119,-0.9639791629156081,0.5051725562230898,29.344730452412858,-17.23730751374057,37.57062164116212,0,S02
6020,0.10652162714948885,-0.08657114237309882,10.141727222758233,-3.84887774934028,-0.8888651805741907,0.00040057174910690385,30.27959147163943,-17.153457929879988,38.27133886439933,0,S02
6040,0.10118494521845744,-0.08605760962893039,10.150315298913833,-4.389099471866922,-1.286893439226325,0.5770397266768001,29.79531445556321,-16.587171196411166,37.6168758469661,0,S02
6060,0.09106712074546422,-0.08367306009566246,10.143745571342771,-4.096016173899494,-1.1522723408580364,1.090600370332872,29.726884585645244,-16.950956650652078,38.37418793726357,0,S02
6080,0.10447298779316488,-0.07716483042247997,10.141723047288629,-4.527170549547271,-1.224280813357586,0.765185650447497,29.313239206852963,-16.225760203052573,38.528096695232996,0,S02
6100,0.10195774739228068,-0.07559671078416456,10.149012749540816,-4.947082795931422,-1.6248987950235352,0.7339582179578028,30.15257823266582,-16.076909424967255,38.11392553420377,0,S02
6120,0.0966460106859564,-0.08088158507056213,10.143422771472137,-4.2587915707265855,-1.2146853718547055,1.0914985503732526,30.076027564817785,-16.5436573447327,38.67642151305516,0,S02
6140,0.10152492025668643,-0.08106652905479901,10.155961224809035,-3.909763239735097,-1.023627687804473,0.9011041423455609,29.408165473223686,-16.54832002792749,38.512829038189864,0,S02
6160,0.10402422987092112,-0.08167238662792749,10.138473211528236,-4.306637699415678,-1.547783037221472,0.4174499899363291,30.300366292288142,-17.083678517015706,37.55630403482466,0,S02
6180,0.10594257708189402,-0.07617361994735812,10.150025150864824,-3.6890938017296904,-0.7679026317836685,0.8009249481305254,29.585810925344703,-16.957183358286063,39.07961542187201,0,S02
6200,0.09757625385959655,-0.08991777300948557,10.148925895552498,-4.3425316659648105,-1.481396698473954,0.7732475981708258,29.915961612612822,-16.346445062659292,38.77639176668285,0,S02
6220,0.09595991716036713,-0.08574310573957039,10.150506197203876,-4.180145902624321,-1.6527183258023435,0.789154290246101,29.873349224936856,-16.59619180989209,38.324637787017025,0,S02
6240,0.09654521474734191,-0.0901580562289013,10.150531288981217,-4.1924257883010565,-1.6925565598799692,0.9796092079818506,29.142049263847017,-16.29776750884134,38.18081398157293,0,S02
6260,0.0977634611448773,-0.07835460350542779,10.13584716098508,-3.7320822735607777,-1.222213298747047,0.6896225208244298,29.77961949926257,-16.116865687114892,38.7663138366243,0,S02
6280,0.10345401906824885,-0.0847842881912261,10.146891756042717,-4.319861454076683,-0.9775233422904223,0.5196692055313404,28.973624360957636,-16.398550862900834,38.51291573626741,0,S02
6300,0.10310857782971045,-0.06261946622971154,10.151794228452273,-4.876797689690625,-1.1160581869175283,0.934126458426729,29.950752066653084,-16.677105135125338,38.650499749140856,0,S02
6320,0.10391562269131206,-0.06976380319272697,10.14964834327482,-4.689820378573035,-1.2793807071753607,0.8349850777152585,29.412497874280614,-16.362610477293984,38.55321756762236,0,S02
6340,0.10287759027500878,-0.069233661110693,10.147196714316767,-4.289524156821969,-1.3266118102374291,0.25950682442461587,29.900033314750235,-16.714780325157648,38.5312209146057,0,S02
6360,0.10156031809926619,-0.07422637027818804,10.14375545704984,-4.51698602127335,-0.626301753827577,0.3085385909608774,29.67353799877763,-16.173204578942773,38.165533557523084,0,S02
6380,0.09606384945760431,-0.0831538860429163,10.136823014481434,-4.125882904440276,-1.2225197287519096,0.6449499203765493,29.799124394423522,-16.730815083596106,39.16176347954975,0,S02
6400,0.09309253737919884,-0.07550763279224643,10.148102181709628,-4.3852212370092065,-0.6913200849577981,0.6611694036808073,30.192612780778393,-17.257129827175213,38.75829418281603,0,S02
6420,0.09192222226478693,-0.06790908263434539,10.140489714235132,-4.391791960375608,-1.1287641908750805,0.34126399916324734,30.52804693252543,-16.58846264245459,38.559816328729205,0,S02
6440,0.1023055896782196,-0.06982098665188384,10.152979794772053,-4.579803843848312,-1.1998494383029106,0.9503199597861272,30.14681805666865,-17.158620364351563,38.57692777683642,0,S02
6460,0.10185062243353743,-0.07372569417704875,10.146714624965965,-4.439416301696598,-1.1496007643348638,0.9086949311764576,29.769571466920976,-17.069228886236456,38.57473946120366,0,S02
6480,0.10732052692391048,-0.07326767341650689,10.146461025335855,-3.6864930838218086,-1.236668338992471,0.45808611671409494,30.245146293150857,-16.475247588220896,38.39966067908203,0,S02
6500,0.10630920602069965,-0.06699497481149609,10.144448863246224,-4.711617749365136,-1.2113954317818372,0.9478538948895294,29.21976104290486,-16.062233746699338,37.794269729900584,0,S02
6520,0.10134966889952902,-0.06970443071067162,10.143903420709016,-4.5364061841272205,-1.1366824797500283,0.5294200114643277,30.117354835722686,-16.261248617698737,37.95505531841046,0,S02
6540,0.10603310397314711,-0.05847291801346624,10.137402627313676,-4.271024164705808,-1.7255728570021787,0.11935396137376914,29.497162431983153,-16.82939110263281,38.41121827597946,0,S02
6560,0.09497439951054923,-0.06843040796458288,10.145908065649957,-3.7426768956950225,-0.8821939567653703,1.0746117484190392,29.526479229718934,-16.500125836026037,38.73132998159924,0,S02
6580,0.0894996638791654,-0.062302921773795955,10.142816312280623,-4.1884226062692305,-0.8900712341458581,0.38445447177869163,29.848709592833586,-16.652359550502133,38.10147858226975,0,S02
6600,0.09985250329563253,-0.06504080665804762,10.137905631054526,-3.9688517611345646,-0.9170383420616559,0.9134171866365333,29.52297778687532,-16.52447491089626,37.99613767523211,0,S02
6620,0.09494516415178836,-0.06528212305061282,10.141667776759654,-3.9991562167747867,-1.4268159384749552,0.5239230093260571,30.642029425635315,-17.92462296357449,38.182835131633695,0,S02
6640,0.10256280773559016,-0.06137344318509617,10.149645094375456,-4.669557829469694,-1.36902709385,0.5544241170102339,29.94145759037184,-17.11775574248839,38.73724598743965,0,S02
6660,0.10597538223808083,-0.06989094500572413,10.156194503276092,-4.454927774529293,-1.300489805341552,0.7986519876565947,30.166713614889442,-17.734805071530644,39.13043180300263,0,S02
6680,0.0954968085494602,-0.06749296283502046,10.152366752269868,-4.271557800763599,-0.6250770882160891,0.3648652368282303,29.604331384673472,-16.841411153309856,38.67927447714509,0,S02
6700,0.09692349019039333,-0.06052890498201035,10.147067600443618,-3.5950606031499595,-0.9043447124557069,0.12545848279164273,29.636125250756557,-16.52542226947572,37.97576307012135,0,S02
6720,0.09590540550209917,-0.0624460444552257,10.14506983781944,-3.8814652656458573,-1.145190604264092,1.1342845890016828,29.568375397106358,-17.209865278781663,37.99341687058227,0,S02
6740,0.08541155177237846,-0.06571754125674631,10.137830366442723,-4.368944332806815,-0.9818655755321389,1.1118070208371513,30.546700389483377,-17.953690214232967,37.81655004561945,0,S02
6760,0.1007248639888147,-0.06634862419201529,10.148081531674588,-4.130131174395625,-1.6825184772883062,0.9909910996160733,29.172996706490867,-16.341935642352574,38.678224628234034,0,S02
6780,0.09369256898781687,-0.05281117020804711,10.138551609613277,-4.271157567327384,-1.6869566142204913,0.45204142713091133,30.026656718687782,-15.996455086795791,38.38125448381737,0,S02
6800,0.09969030072464752,-0.0535391227572659,10.143401182150093,-4.55306745607508,-1.7095482560239343,0.7906574921190085,29.873528295605915,-16.754308982727622,38.08656099211468,0,S02
6820,0.1012246321739912,-0.04637532136220734,10.142541601820563,-3.769384315804402,-1.7693286341020167,0.26114318619120386,30.25500929512703,-16.65542056785584,37.92306780022157,0,S02
6840,0.10637362182281324,-0.06323006565039203,10.146952347351284,-4.124592058011195,-0.9784372233883976,0.5478913803984171,30.403070790228163,-17.279606400352883,38.10487345275993,0,S02
6860,0.09536060689128167,-0.05118100870310083,10.144740606471716,-4.168458412491166,-1.22827159786759,0.7558605362178258,29.464360103582226,-17.259639658807316,38.33196396078108,0,S02
6880,0.09554425976157051,-0.06764809085965745,10.140151224328353,-3.7307770194587393,-1.3880005389133618,0.8002353689046515,29.97096287066929,-17.192372172310606,38.27153935454144,0,S02
6900,0.1013745477961252,-0.060594280974903734,10.156935974016417,-3.692452187453031,-1.0323543746652977,0.705697433606942,29.70208886411311,-16.422477693784998,38.57447453321492,0,S02
6920,0.09600885333429234,-0.05003585579344885,10.150234535160154,-4.122068449997927,-1.1134877991474563,1.1735604220889573,29.456864490875695,-16.618587036183413,38.72003538009177,0,S02
6940,0.09875805674471126,-0.05562513669830615,10.144352381761333,-4.168386229473112,-1.4145846389840722,0.5534836653406355,29.53703082154917,-16.746356624348444,37.84931892025182,0,S02
6960,0.10071067996807873,-0.050742249153880425,10.14867701851972,-4.238564841090037,-0.7531011413393798,0.201261928587825,29.095991517864565,-15.763944898464501,37.73020286102765,0,S02
6980,0.10094183614792514,-0.05828683196817483,10.147788301484846,-4.140683280150992,-1.1171369095245776,0.39327470220426725,29.312087272974154,-17.545815314874428,38.381579188864464,0,S02
7000,0.09574325116886387,-0.05288565124249932,10.147589023437021,-4.259942990021758,-0.8104610483483479,0.5122531092284459,29.828272395220537,-16.810281806828996,37.77679191558515,0,S02
7020,0.09744994825131578,-0.059205007187151604,10.144720083785266,-3.7808298113423846,-1.3796722376478867,0.9969383113382834,29.41000880384096,-16.95619351799986,37.994398537214344,0,S02
7040,0.09634396741285342,-0.04357180066505278,10.139099749269645,-4.0555627423112295,-1.1438726653083067,1.293698110997007,29.353990378167175,-16.06067022644134,38.82220866417918,0,S02
7060,0.1058269275300894,-0.050332750001911786,10.149944516005572,-4.4943037110123445,-1.419056813574306,0.6959382052370839,29.53335144437395,-16.57736058142752,37.51350454270548,0,S02
7080,0.1068721441190078,-0.048499674469303124,10.144604526151413,-4.108341764691284,-1.0070384583166898,0.43882552508116385,29.362404993571275,-16.591994080851652,38.71163206666875,0,S02
7100,0.10198217269238587,-0.05462070663745657,10.147145445017136,-4.168936167756857,-1.6621000660999292,0.2673255411304992,30.07131520285506,-15.551286159934477,38.18662208724143,0,S02
7120,0.10047563021540921,-0.05466342781432617,10.147955653590895,-4.332550848383547,-1.191979968335334,0.5120451098584966,30.028650032761565,-17.129883744553965,38.39282078885566,0,S02
7140,0.10831995370544759,-0.05447965809286806,10.142001818492174,-4.044079034128402,-1.3912608907992003,1.2372435193101174,29.389192218312274,-17.361853028211574,38.390930600706355,0,S02
7160,0.09847619217888923,-0.04322376474274966,10.135348198071496,-4.630109935141452,-1.0481348747592296,0.9937677577633655,29.40578472576044,-17.12188755806602,38.173390017835324,0,S02
7180,0.10679077828912588,-0.04117279843509278,10.1472925929919,-3.906034537276898,-1.6733021934980954,0.3718767040378103,29.974660067229753,-16.194645063483517,38.39829487334809,0,S02
7200,0.10325270906832315,-0.055207003431135104,10.144492903855857,-4.57416229440668,-0.9857744680184097,1.2679772058688692,30.368982361671062,-16.389640574455953,38.34035175579343,0,S02
7220,0.098440361059409,-0.0479867457335805,10.147284583154038,-4.062191722428995,-1.8115429608366442,0.3658178633943623,29.84309620749697,-16.75753966907436,38.5584126624659,0,S02
7240,0.09789741662003479,-0.04847679391933975,10.140407355510506,-4.255876207466874,-1.2106344772333688,1.4397561969204258,29.675944022002717,-17.5301962654754,38.41340746024105,0,S02
7260,0.10236524499132289,-0.04508994312188529,10.145044658741197,-4.070718114437968,-1.3411944675517422,0.34288955243264385,30.02262806787271,-16.79248474235692,38.07451527709899,0,S02
7280,0.08961975599679864,-0.04892958304967356,10.151326263770617,-3.9318438820962753,-0.5560497889137509,0.5951855067099971,29.678268589575552,-16.865159720626167,38.20582914052442,0,S02
7300,0.10661146203945664,-0.047070024095733964,10.142027318457535,-4.290253723555236,-1.2123874305599622,0.5524917495822673,30.01544812639758,-16.602121426089,38.29105309713896,0,S02
7320,0.10190640633889345,-0.05800957677686357,10.145774651697577,-4.447321913728925,-1.3488596502971357,0.42062373477370474,29.64758205901692,-16.35962670782385,38.24253988541441,0,S02
7340,0.09774677358285191,-0.05500919215904013,10.148013794085177,-4.4974951624271124,-1.37080867973442,0.9169324842829965,29.773979716955772,-16.44119197878799,37.73377223366831,0,S02
7360,0.10052448812284344,-0.048644806297625576,10.147576489372803,-3.8141007146815626,-0.7606681929151164,1.0058806189273568,30.17764383815102,-15.916085681168752,38.08354848292294,0,S02
7380,0.10206191190592531,-0.04507238951430386,10.14131068818609,-3.5220961760796183,-0.8894599996073844,0.21942834779507542,29.639279612194894,-16.9886375601056,38.09505637087495,0,S02
7400,0.09461322323548414,-0.04646885484136,10.149660927238651,-3.6235530906927,-1.2518494097796904,1.1796618068087739,29.67961791619046,-17.33068476593597,38.34560427184074,0,S02
7420,0.10205704770412201,-0.04953633612720129,10.142069811457693,-4.130409338589303,-1.2588425137372856,0.9977111941842922,29.54831552816152,-16.51518956954629,38.161525478297406,0,S02
7440,0.10436243014149917,-0.05155187983616971,10.144039940778194,-3.328081460031771,-1.2117322789999014,0.5335446575267624,30.61276969070113,-17.086032993792188,38.37947025353268,0,S02
7460,0.09783165289946592,-0.05309015682560315,10.148809616283566,-3.8206209380910305,-1.117355306647091,0.6770261436660332,29.594567018639033,-16.494737116323304,37.96442782160161,0,S02
7480,0.10716911293731812,-0.050169246208954216,10.139508909046961,-3.8731975620277237,-1.246086815731788,0.4320736155306654,29.35137012142709,-16.40226839870172,38.3814086594172,0,S02
7500,0.10472174525742836,-0.06585558084293139,10.135441523908483,-4.3102208411866885,-0.35335796969018474,0.7920842859846353,29.77399238748536,-15.902208737374592,37.958157958001046,0,S02
7520,0.09523253275790786,-0.04949701815989897,10.146560821359587,-3.725014261550381,-1.1519042234901775,0.7253397826508302,29.83732219625735,-16.91778832489647,38.27382777063434,0,S02
7540,0.10894190115151307,-0.05531335812800336,10.147165725861235,-4.7078295894345334,-1.1002208601173484,-0.12354225835738997,29.447949062897465,-16.68528107770966,38.56123944765436,0,S02
7560,0.09961327564892461,-0.052941103317996396,10.133348087050587,-4.478540823455658,-0.873383602113301,0.6659119770467927,29.708149133607236,-17.0531433381662,38.232500032704166,0,S02
7580,0.09881770486844335,-0.044239608355936516,10.145799179726628,-4.292712551191804,-0.9604309213989703,0.8316065214568452,30.491298758070588,-17.323887521355747,38.361226990195306,0,S02
7600,0.09899103375559773,-0.05126729785199551,10.147924016354755,-4.189739824523754,-1.173803891681836,0.4845969116690745,29.69305952215511,-16.271912791216835,38.05282731066367,0,S02
7620,0.08706681188757107,-0.04204076541644289,10.1445871848709,-3.5628474989995644,-1.099005301869423,0.7240439869963441,29.110544296411565,-15.644027376533614,38.378806275076066,0,S02
7640,0.10139467558617656,-0.0502022946754499,10.14547661878746,-4.344771351842188,-1.0163140121287555,0.18739319925550713,29.84936884799707,-16.588829559760935,37.85017564890703,0,S02
7660,0.1021547305598347,-0.05172121104197873,10.14458556211443,-3.9776161480497874,-0.12589706921974142,0.6931445483766487,30.470910726018552,-16.745802115045127,38.45717823178496,0,S02
7680,0.10403783451892311,-0.05207255314109291,10.138275546144163,-3.9043058006637024,-1.5945803759943642,0.7838093669746743,28.93714834456692,-15.855614628917488,37.69102597570701,0,S02
7700,0.1024870009889811,-0.05702205022121368,10.139313562357998,-3.6959127287002054,-1.0894522892550278,0.3042892740059407,30.478099986592895,-16.996660945739784,39.16666942611068,0,S02
7720,0.10437206748083575,-0.05168323076575905,10.14895664278782,-4.343446000429554,-1.118196949919925,0.8748871080078786,29.795505478151338,-17.099750552032486,38.81022961257828,0,S02
7740,0.10156547127093758,-0.054722273731448876,10.154257481271332,-4.6672413034802345,-1.306453807580101,0.6186677904560783,29.628467946251334,-17.186147614087453,38.77902237172985,0,S02
7760,0.09776583630127454,-0.05203443127575276,10.152071340639246,-3.9482386802179583,-1.6786051048056423,0.5332964392614564,30.229114362561702,-16.806605652565096,37.924545066335426,0,S02
7780,0.1025028052826293,-0.05252433096177348,10.138520888776718,-4.218502235917444,-1.7912143982501683,1.1346832016889363,30.143875560078566,-16.752511805367845,38.406051066639456,0,S02
7800,0.1091568581593361,-0.05830520929738417,10.143726693914063,-4.235654908048774,-0.992580010068286,1.0329582291647976,28.93671250573662,-15.603700644980714,38.879035213906164,0,S02
7820,0.10579259487897164,-0.06379477612409033,10.140608406202293,-3.9340868907860003,-1.2870685246635702,0.2586659870552976,29.707739729251543,-16.876029637037963,38.5609825162961,0,S02
7840,0.10130332371460203,-0.06102023038083407,10.141460610898235,-4.509316299805174,-1.3328482576669551,0.9044835695623172,29.11558962558479,-16.736636547689407,38.436569510554236,0,S02
7860,0.09821848955307798,-0.057891337315448405,10.14481220480642,-4.330379128562154,-1.6209888802497492,0.6077779283783454,29.980717825983795,-15.98873221105636,38.89463457868862,0,S02
7880,0.09136148756802978,-0.06316594958937823,10.147762453248454,-4.0442774214900385,-1.343625756945477,0.9753458445452925,29.74062408737949,-15.99831789879622,38.97356562895679,0,S02
7900,0.10717594713754705,-0.06359076244897743,10.15042251754329,-4.126301856722064,-1.3746793779432371,0.5098646303732286,29.782977431024346,-17.20039672339855,39.10632427804531,0,S02
7920,0.09226223426204151,-0.06354042508552663,10.139648105132396,-4.205446672244596,-1.1272600416176661,0.2666858858717172,29.60934786522343,-16.517428594396705,38.3450248165143,0,S02
7940,0.10087379389654985,-0.06458409772785277,10.141955957730799,-4.099644345752576,-1.6651134471865852,0.30223324041154337,29.701974557860513,-16.69857216009862,39.1571902907806,0,S02
7960,0.096031165739731,-0.0617383605041045,10.143090027745886,-4.156818777560771,-1.0015865052123978,0.4992470476248315,29.82787253427277,-16.00741627477872,38.75414616651133,0,S02
7980,0.09829100008721942,-0.062020853248299465,10.140904269109148,-4.297874414430509,-0.9602810070963596,0.2641357499509527,29.640964823697125,-16.62701088171995,38.45166479945066,0,S02
8000,0.10412876357743699,-0.05937242229906011,10.14278696440377,-4.254394284181241,-0.6977627519450742,-0.2292512104076726,29.375588878985052,-16.956826531666046,38.43365880327534,0,S02
8020,0.1015975341736775,-0.05507972977400742,10.143924350644504,-4.620158887768977,-0.7352382740389203,0.7437040934207162,29.095023868693378,-16.77903177771683,38.364725961686055,0,S02
8040,0.09666076236380139,-0.06662005985457098,10.144499387651097,-3.9215043570877346,-1.3818489050264078,0.7303488707642092,29.47971717509311,-16.0242127882646,39.04312973536948,0,S02
8060,0.10169830780304664,-0.0650090821266961,10.146196248266103,-3.8180449202753866,-1.4354584724903812,-0.009236646313930064,30.400713285788363,-16.68071182773446,39.21039994986085,0,S02
8080,0.10229646550140563,-0.05994601090437647,10.134128681519844,-4.393053001712507,-1.4040788890184623,0.6206253936506023,29.40912901178742,-16.91474884031802,38.16041460862224,0,S02
8100,0.09746484414609602,-0.06790786948999943,10.145827625411016,-4.6222476077132955,-1.145570918163148,0.6939681703999325,29.21795617945954,-17.006174943139044,38.635563410197,0,S02
8120,0.1014130904949626,-0.06598111775576565,10.144100471833983,-4.091470228258071,-0.860790995642855,1.1300677020955239,30.02566276472424,-16.33164501379249,38.637971928235785,0,S02
8140,0.09879518069430028,-0.0668470356576894,10.147318340328882,-4.170791134260031,-0.8566060306680483,0.7324389915132503,29.99779788903798,-15.554789984885323,38.48560606624084,0,S02
8160,0.10658807241146706,-0.0727057288901944,10.14753639151537,-4.192061617864921,-0.7201509197927752,0.6158186585866099,29.108155076766952,-16.79282184299464,38.55883326740538,0,S02
8180,0.09298179852453141,-0.06671817757097939,10.149688977694122,-3.8760873714188655,-1.5164548827931374,0.8379923484084453,30.172312224659066,-16.322750983172863,39.024401105601456,0,S02
8200,0.09751904153426227,-0.07231739943984522,10.15533414742354,-4.203723257710467,-1.5343013008691448,0.7052161720355449,29.856245516641348,-16.918880330112714,38.47061476079066,0,S02
8220,0.10294847034195663,-0.06111907375675646,10.147601602582329,-4.539021520896468,-1.4030029441968463,0.42369580193084755,29.77178460425573,-16.205110403452068,38.464166925280644,0,S02
8240,0.10105458085563418,-0.07823280239410044,10.145165135917285,-4.454900587979893,-0.871735681121099,0.9332612789983001,29.579223701318032,-16.41881375232147,38.031135460959014,0,S02
8260,0.10031908365419058,-0.06552999487375247,10.147331516307013,-4.567874381638033,-0.9696557942821785,0.9226536574166202,29.68135682518659,-16.69309193374044,37.71151679747463,0,S02
8280,0.10771162441663168,-0.07389413471595893,10.148683431882073,-4.285670754417417,-1.6620270208814338,0.558125935827419,29.590249885420583,-17.12356759587209,37.709286738296115,0,S02
8300,0.09373631931258108,-0.0793440615625578,10.15265422200153,-4.509302225645627,-1.4602537699643507,0.3169734817128639,29.941350141667517,-16.915753321458556,38.66057378904168,0,S02
8320,0.08970830265908683,-0.07471149109474165,10.14576774018004,-4.398712262507701,-1.1536425181456063,0.806397775182468,29.724727180175094,-17.18239008906941,38.471567961990125,0,S02
8340,0.09980029993032301,-0.08513494351488493,10.143427272983287,-4.509509436896466,-1.1025584559248527,0.5056365446346238,29.73259606987876,-16.933186397795815,37.68034555485998,0,S02
8360,0.10285161805244109,-0.07910068256666802,10.152590609164196,-4.695665270699259,-1.6350579268202372,0.8852149888673472,29.73273884655858,-16.61781177988228,39.20902600379587,0,S02
8380,0.10045625764329161,-0.08297299690171997,10.152349080307463,-4.691828332868831,-1.363525465767177,0.8334242952681304,29.07625932721909,-15.518663459908185,38.76922161071759,0,S02
8400,0.09413949558826942,-0.07530023678277029,10.147097530051683,-4.704112001537293,-0.8844055078822275,0.4916020060959665,29.806372170963936,-16.519858699526274,37.484961838596604,0,S02
8420,0.10347810626617361,-0.07787680594961252,10.14803463169442,-4.196612257178114,-1.331196234705771,0.799973734676553,28.83216554185435,-16.653393213149556,37.78962047153888,0,S02
8440,0.10345198900945146,-0.08229112601372593,10.153168209215952,-4.256865524646084,-0.9532089658846928,0.7587078987034275,30.018676588445988,-16.166105759937928,37.82825401351982,0,S02
8460,0.10803599353698129,-0.07622281694487501,10.154998568024356,-3.898973558445373,-1.5638467359456707,0.48727508790012797,29.896958153430756,-16.198946440425207,39.198667262894425,0,S02
8480,0.10887789516043278,-0.08108115187389721,10.151649298043708,-4.452600755164144,-1.3024029942775206,0.6779240030811153,29.9985722418676,-16.843858507237936,38.91898874409997,0,S02
8500,0.09977211409631652,-0.08109354689379776,10.14057946916528,-3.901012491613408,-0.8741162655527138,0.8544637534133809,30.001556451205072,-16.778313705664253,38.970584253263375,0,S02
8520,0.10280266885733574,-0.08096531735208416,10.146152274491262,-3.8372952119100296,-1.1741029745365983,0.5885042368604696,29.005610514924502,-17.010414047764208,38.71236399680736,0,S02
8540,0.0949745758647472,-0.07604784311543868,10.146910600694609,-3.6661302790612447,-1.627459058845414,0.33970183712538293,29.997751794572576,-17.113329145104707,38.07614888040069,0,S02
8560,0.09834043177301179,-0.0846870133856756,10.152355914705396,-4.083319585329413,-1.1789031804795986,1.117866276206457,30.41840310079278,-16.272914501789096,38.08567955583674,0,S02
8580,0.10236431160014757,-0.0814760446547268,10.141394455980045,-4.185574649428481,-0.9449218194224924,1.2171259028275467,29.31043886766492,-16.812169773509957,37.634658624009695,0,S02
8600,0.09698823277803159,-0.08198952369779546,10.13753106150092,-4.074600467932311,-1.286818817056819,0.7081710510164702,29.644078784033947,-17.02578053958698,37.596721652595214,0,S02
8620,0.1029305555877734,-0.07823181580126236,10.150564184155959,-3.9431712401285544,-1.6043865426509285,0.7269650590375151,30.67252012468477,-16.69324768202584,37.675818755463524,0,S02
8640,0.10831648805143754,-0.07344918458444226,10.147192387200466,-4.478616808448118,-1.577894296428461,0.22338692843741925,29.906729201591535,-16.778890942970385,38.33073861611336,0,S02
8660,0.09423326615877786,-0.07007938808110546,10.138517704324391,-4.085289406228382,-0.6716469749394193,0.7565782409722726,29.72232012141076,-17.330000932545175,38.36062029174798,0,S02
8680,0.09665549176994995,-0.09207919227863788,10.148168957228512,-4.536944320224872,-1.2087862017570774,0.3708910298165887,29.831330573690053,-16.421654477764616,37.67621652191216,0,S02
8700,0.09914985013273044,-0.0857719870466256,10.146773866575808,-3.6123422851235505,-0.9851087295653761,0.20324078260337652,29.5852519536188,-16.129844621188013,38.37257222742248,0,S02
8720,0.10263176730674509,-0.0845292947085859,10.144142635834864,-4.221799972958854,-0.93344721314837,0.34473736856615544,29.142373269688726,-16.452913290037095,38.00094747156897,0,S02
8740,0.10431019752416099,-0.08693288403444462,10.157758256138877,-4.695860266506663,-0.9504036283743638,0.4098675972470075,29.668332228349385,-16.340053788192286,38.691860593778834,0,S02
8760,0.09840034573245518,-0.0845302541121129,10.15223012832636,-4.069870227892912,-0.986494210534093,1.1898564139408108,30.398919042887062,-16.491607372868955,38.495646011831774,0,S02
8780,0.10425426176869919,-0.08999441859821372,10.13761481476063,-4.002173435632488,-1.1229822984881446,0.6753213074482565,29.937793942761147,-17.401280517006214,38.048629722818966,0,S02
8800,0.09328301137912737,-0.08295326046371854,10.143349405392847,-3.942376689536557,-1.1557570808968831,-0.1502079653971009,30.163184234760912,-16.712266004615806,38.40507215562659,0,S02
8820,0.10490042931365169,-0.08304476926034542,10.15432745124507,-4.138886221332373,-1.2752727874513852,0.4682016795725229,29.71948571850602,-16.548628736298404,37.99282835889344,0,S02
8840,0.09785907024007211,-0.0943304672709679,10.151178974062308,-4.2319203117528,-1.2232394386926073,0.7450280088759413,29.476347822095804,-16.658783221569436,38.86171044121672,0,S02
8860,0.10906020160057393,-0.09268312702307513,10.14596967523116,-4.115415746588266,-1.3972308765090131,0.8507575901114072,29.54664826368209,-16.25400147992966,38.750445005258356,0,S02
8880,0.10487005535780906,-0.09208877297374715,10.146234177546413,-4.374801986490536,-1.4009577003156797,0.7403990007459192,29.721642249145305,-16.295981647293395,38.85963475532715,0,S02
8900,0.10512325495642497,-0.09369204075156701,10.156630096149671,-3.5611704494596195,-0.7308021629128807,0.5161184168375236,30.08188729512134,-17.261399155525588,38.09684979024093,0,S02
8920,0.09969917052494323,-0.08976844506952346,10.141026372973482,-3.786220496259963,-1.7406715233486478,0.32598158961312296,29.296573003205214,-15.76054751354709,38.598704790088625,0,S02
8940,0.10094472388676302,-0.08695914610383831,10.146063953185614,-4.244570025415842,-1.4609555751239027,0.5962117385911607,29.73424897965149,-17.020511902289222,38.93078050648291,0,S02
8960,0.09736913074445377,-0.0903387720364574,10.138901423664326,-4.435875109754888,-0.796185181482477,0.9751019120430218,29.52844635796815,-16.62574566880739,38.432744028385486,0,S02
8980,0.09856837342517588,-0.08491868773560594,10.141131297927828,-4.136231320342937,-1.2169580153032342,0.8836994607352022,29.719199286558393,-16.577449230898324,37.96311799143854,0,S02
9000,0.10076789434183761,-0.09363255677541131,10.146160688990587,-4.156289818930814,-1.310987739131597,0.5891789148035079,30.11484768991233,-16.7764345479117,37.95452279045611,0,S02
9020,0.09905680750681929,-0.08945164401743622,10.139087607604298,-4.266078425956069,-0.1207655528957865,0.49749216596667467,29.548113458922618,-16.537819366747186,38.31952694945009,0,S02
9040,0.09852313430669477,-0.09557123227542313,10.145517249202342,-4.228837669668758,-0.6737371034648754,0.049741944934637905,29.6959420452172,-16.48273113598628,38.679446233462926,0,S02
9060,0.08915850455636137,-0.0966704422167686,10.144647604020097,-4.404582071840575,-1.7623271359782515,0.45719302975189213,29.92339742475622,-16.81101423547283,38.83695229184759,0,S02
9080,0.10825777500242433,-0.08605198813477793,10.163439625641374,-3.9566428917646084,-1.8044217660756043,0.5678450761716071,28.952776420413834,-16.981811445673152,38.28334932944492,0,S02
9100,0.1112736875717587,-0.08100837894665515,10.146210158421612,-3.8392981823870715,-1.300856556505489,0.7687013898413397,30.07592321690248,-16.427865801620058,38.40775661979575,0,S02
9120,0.10155051827664482,-0.08604695660756172,10.141252290152524,-3.9627223019652567,-0.9602479267553363,0.46194669332942273,29.085302048203594,-16.949818559893075,38.83788271454446,0,S02
9140,0.0976064597819083,-0.09014013428247312,10.15678329582442,-4.6320083910019285,-0.8668318878006601,1.1946414641127183,30.012450536400433,-16.80540965538879,38.38129854491756,0,S02
9160,0.10823007661228587,-0.08509962170881608,10.143685652552774,-4.324753599017161,-1.4560258438145197,0.189247839679129,29.583795315207105,-16.274037994982102,38.97676418834087,0,S02
9180,0.09724410192456767,-0.08939826643051456,10.143427312587253,-4.218084380217799,-1.0890116269533523,0.11216100046324967,29.645712220620204,-16.501212455701666,38.393549163493994,0,S02
9200,0.10721660512268583,-0.09458182574173296,10.152463399736153,-4.252995636350547,-1.248751064994812,0.6156809116876527,29.602239279308506,-15.785292950255277,38.670321839950404,0,S02
9220,0.10681866627215097,-0.08637986309575418,10.149641520870421,-3.914146112707494,-0.9662523506551195,0.40078335188726777,30.038670546914382,-16.101645704451634,37.602620010608305,0,S02
9240,0.0971952981904254,-0.08792792868064768,10.150222813388126,-3.9691339547621918,-1.8605087186856912,1.0565337286833418,29.682223035147114,-16.478678845637845,38.77179073609312,0,S02
9260,0.10890397066653193,-0.09643226731777658,10.145819339914953,-4.076565034043258,-1.1671313156132825,0.33490226992260114,29.045073619998213,-15.688139736526939,38.081621926040604,0,S02
9280,0.10501834368174431,-0.08352953173191686,10.143587799997231,-4.429430198212808,-0.9123252198981987,0.502540468695687,29.428220432228876,-17.11523053589529,38.402475695059856,0,S02
9300,0.10567705125713855,-0.0821490688322685,10.142415178480045,-4.239043516403972,-1.3476528190817507,-0.26722761213428126,30.338401498172004,-16.3471879905454,37.71103692764295,0,S02
9320,0.10872515748509776,-0.094164546523968,10.146196092290058,-4.40588674255975,-0.9127691322530997,0.7006146103968253,29.61347190918563,-17.01300525993189,38.568552592231555,0,S02
9340,0.10042517788215266,-0.08628959921897741,10.142008940338561,-3.873400392053135,-1.3446634198666598,0.7629262626889403,29.66172979495269,-16.852461514969054,38.25166802089858,0,S02
9360,0.09231767602214279,-0.08108949900590094,10.140332539812574,-4.289790421975674,-1.3167705733455777,0.7444368402906516,30.265984828917354,-16.484983048854513,38.058378773292795,0,S02
9380,0.10830157363716977,-0.0771650956103591,10.150265707993626,-4.321416592355206,-1.3329286510979461,0.7163958788053664,29.542671302504324,-16.124454489212013,37.67071488786792,0,S02
9400,0.10456790303330746,-0.08085613486014226,10.137871869354193,-4.3282791131720755,-1.434063942664655,1.1902966830214243,29.067108804606804,-16.38988835182773,38.265271311934484,0,S02
9420,0.0973097818113151,-0.09084194748754047,10.145206180035434,-4.22838888041331,-0.9359478587145055,1.1708178122705655,29.746732306587106,-16.357427840569027,38.90455561008099,0,S02
9440,0.10401366334156052,-0.08313585847456163,10.148310073187343,-4.270510652851569,-1.101461445096231,0.7015339239264775,29.56086570465617,-16.77974008584637,38.27470250897475,0,S02
9460,0.10092577850553916,-0.08779844645276531,10.13813393924833,-4.270620145907259,-1.20510470793817,0.6603143322564498,30.182785602950297,-16.118448207541398,38.59921842282678,0,S02
9480,0.09849379608307558,-0.07055369427327196,10.1503732061519,-4.308254617392122,-1.8241749633024291,0.8183538104946817,29.780939658839156,-17.120302642602464,37.512811488256176,0,S02
9500,0.10823363040040863,-0.0798568357078619,10.147919042252923,-4.108129825224902,-1.8527329714482699,0.7977312134582065,29.732464299311832,-16.428169046425527,37.82136998874604,0,S02
9520,0.09999445267949959,-0.09027495385600409,10.148654127540066,-4.135129531728754,-1.1395055471491367,0.42167206893703113,29.48200130167479,-15.99768158896409,37.617600743358196,0,S02
9540,0.10369181124851734,-0.0853597138982527,10.142701426185704,-4.3833593866230025,-1.260896819514723,0.301915221612914,30.32924673531588,-16.061520320916507,38.23359402106079,0,S02
9560,0.0980788618163745,-0.07732821921909687,10.139124832484567,-4.161542189078378,-0.5707866271636822,0.06615548232048618,30.155346533636802,-16.443285356751026,37.967670851542294,0,S02
9580,0.10221311177159549,-0.08309941383808192,10.141783712164518,-4.192818569355018,-1.977023085277925,0.8511548796148051,30.084767973883064,-16.841976925241653,38.072958625868125,0,S02
9600,0.09635406863790372,-0.08164761207514527,10.147145405626171,-3.527492919881181,-1.1943425597807573,0.9153289691223518,29.791140734703497,-15.858081738167739,37.726490479356585,0,S02
9620,0.10301024190039786,-0.08616880645184569,10.151634559286904,-4.1259420491550856,-1.5909126920123384,0.5529681460308311,30.35120869868612,-16.501989002555195,38.48038008159364,0,S02
9640,0.09727975369677128,-0.08387282582529647,10.138216435302711,-4.136373281319351,-1.1158887965524271,0.26754167343771906,29.69121325096405,-15.97308336453485,37.49104006997391,0,S02
9660,0.09939980118305476,-0.08576513817443569,10.142369644183477,-3.9980516130224073,-0.8682071729323011,0.5690520938167282,29.04717419777197,-16.028554884445242,38.20914998602155,0,S02
9680,0.0992209420436252,-0.07972560891405557,10.145475274899157,-4.328443165808627,-1.383978660982509,0.3928293815259142,29.987125771231284,-16.890308655691733,38.13091935664522,0,S02
9700,0.09829252713998134,-0.07476446074490095,10.154621899732003,-4.20104436479973,-1.4113900819855865,0.7412247757091455,29.502196386504522,-16.72373883181871,38.28569959697107,0,S02
9720,0.0872016301410954,-0.07504956716066169,10.142318113288505,-4.148166011536718,-1.3309444067848155,0.7328472876411078,30.627853636150462,-16.688296860339033,38.3697122143742,0,S02
9740,0.09458851067194964,-0.07382138287668824,10.14984820516367,-4.132268143604891,-1.0497957812136478,0.47843041832139666,29.88284918039973,-16.658012127977496,37.895819510101376,0,S02
9760,0.09754952470322474,-0.06923372512121032,10.14659219710412,-4.253914556192284,-0.9961856278512102,0.7786549640887993,29.89719765592718,-15.948893920199893,38.3974743983114,0,S02
9780,0.10186964257506988,-0.07755188177793551,10.144274077949865,-4.118762713576153,-1.2264366858105287,0.6079709581781899,29.73293501472759,-17.107400540850172,38.173228547257864,0,S02
9800,0.09675205959000625,-0.06647212103975837,10.147688396785316,-3.87463823858883,-1.3173427189978146,0.7787723312998249,29.85233713210543,-16.67397127887844,38.172824364790216,0,S02
9820,0.10468249206061578,-0.0765333488362907,10.148684904375763,-4.062991166120305,-0.9987731877928633,0.5632541077712423,30.14610453590051,-16.296987374122764,38.427982187095374,0,S02
9840,0.0973525263841968,-0.07154622769401746,10.154447261860398,-4.177059702567585,-1.0308475343703105,0.662727017887567,29.48488440813465,-16.853772081187845,38.074191161602606,0,S02
9860,0.11402674710083471,-0.05984274323129058,10.151392869835789,-4.046029601531177,-0.9465892152946209,0.24824178493113436,30.244204285011044,-16.90657072530614,38.60633033057774,0,S02
9880,0.09419178528568059,-0.061103943279181616,10.141323853051519,-4.42279554779684,-1.8928000204573847,0.5925694453167644,30.050159140859453,-16.785832653500123,38.6226207906994,0,S02
9900,0.10832207596954757,-0.07442081381584953,10.141726011871855,-3.9461393793686614,-1.321629480867134,0.8913683702718582,29.596212715579284,-16.622545658217454,38.610376480252825,0,S02
9920,0.09450608955190772,-0.07509891595485922,10.142692043943498,-4.531695207849405,-0.9394145375394323,0.8697864972941872,29.506043224117548,-16.819807480591663,38.1123293411559,0,S02
9940,0.0947783561379793,-0.06284582996104003,10.143891242489634,-4.089560998519026,-1.2598262898676025,1.1918892241787649,29.35079078832706,-16.174911852217605,38.96521394121284,0,S02
9960,0.0945068677106978,-0.06796372687147002,10.15847539782101,-3.6892615770096473,-1.7278966648501335,0.31480851062576826,29.833344137239333,-16.21688243545467,38.340881858608014,0,S02
9980,0.0967010523466355,-0.06475703579279979,10.139478779452677,-4.559547979825762,-1.1827396246143493,0.4049761046257475,29.74887497672479,-16.311352675060235,38.21072624461585,0,S02
10000,0.09745502763389381,-0.05838450482965247,10.150416337253887,-4.161337658367414,-0.5904648767678701,0.40283385856389425,29.63889881669217,-16.436669719868476,38.21212723408645,0,S02
10020,0.10249751469472258,-0.0677069892002967,10.144899896874776,-4.218545300048144,-1.7006059064684833,0.6016512383052568,29.88597630645518,-16.704202219693666,38.2509538472476,0,S02
10040,0.09372627243262194,-0.057904307302252794,10.146315062571006,-4.193229626851449,-1.5436912003442604,0.09557875024303275,30.986842754227524,-16.370145374157104,38.29176575343826,0,S02
10060,0.09933381215567981,-0.06936681272136096,10.145259335644816,-4.01951295789623,-1.1925224946407817,1.0565416006397244,29.422112598075785,-16.490794409631246,38.76331218143557,0,S02
10080,0.10614265766071194,-0.06825550237217333,10.156312009564878,-4.5821634826821,-0.9296074346903176,0.5117698434562109,29.76140487490295,-17.37240484624757,38.137624816908065,0,S02
10100,0.09683570159519875,-0.06367736359145365,10.152690403681536,-3.7335212355094574,-1.5717319299613588,1.073915226477499,29.95358952708143,-16.197470857023916,38.03866481398793,0,S02
10120,0.10400081013924253,-0.05728786274526194,10.153391330871417,-4.54965225155921,-1.2469586209067356,0.6210287723675356,30.127474396859526,-16.69897084628515,37.84132237878487,0,S02
10140,0.10589473215477857,-0.06049928306304582,10.14992132207973,-3.8411975552579443,-0.8024077684066834,0.9094116261793381,29.36379935449021,-16.474836898108965,38.34126272112201,0,S02
10160,0.0913939813337493,-0.05353100562358614,10.150619488977059,-4.017643267552266,-1.5009051333571404,-0.11526480115697768,30.108399671380482,-16.043583429058252,38.800680331689655,0,S02
10180,0.09874320750690455,-0.06374001239573775,10.141380725460657,-3.8943620526550733,-1.203349318709096,0.7569891260037586,29.28861165157632,-15.749480349309533,38.23678423992343,0,S02
10200,0.1021174262936232,-0.06288861251116801,10.145639344142367,-4.259918479852611,-1.3756149056927331,0.4837671334657069,29.815560224971712,-16.701518620160208,38.25357205465606,0,S02
10220,0.10660657775674266,-0.05962732279090374,10.154093001231272,-4.23974479297696,-1.0578680981456183,0.3203208824552711,29.52973123648902,-16.82363808608416,38.8659803658794,0,S02
10240,0.09529842982434938,-0.05458447134488596,10.145610439752046,-3.639232176581183,-1.4604268231969215,0.9773453768954183,30.210486616792867,-16.78493012679466,37.70141691707922,0,S02
10260,0.09459939140478438,-0.059439711666382185,10.14045347143851,-3.7539614328438944,-0.8142663837428173,0.2039823131886595,29.245515686253405,-16.951171976978173,38.57109165374283,0,S02
10280,0.10676873468220527,-0.049278704121408154,10.143637749133116,-4.036220602672695,-1.0492266936094745,0.615255411262276,29.404796266304277,-15.873505334234101,38.24725771023702,0,S02
10300,0.10668477595212258,-0.059119250585730525,10.14867184771878,-4.394791841928653,-0.5012880041624242,0.7937863032898724,29.685813912419214,-16.121918202670336,38.681445443220504,0,S02
10320,0.10094961679374671,-0.0539743571716761,10.139999852897,-3.965897580587685,-1.440135871558985,1.1607693425640968,30.247581571640417,-16.734998551497924,38.98192510815377,0,S02
10340,0.10423327353504597,-0.05688476244599869,10.143480067552485,-3.821316460709106,-1.4150562484378002,0.424338350381109,30.09625859105685,-16.52122185163163,38.708898449086604,0,S02
10360,0.09322790696482215,-0.052749699320167834,10.141261582319231,-4.476782003022142,-0.6692864198099788,0.7327630520637114,30.54236721556741,-16.79945532472867,38.70184553344606,0,S02
10380,0.1001387978793397,-0.04977459167853354,10.13407900485851,-4.765019575546626,-1.2391763094908217,0.6771597546948116,29.5329954532165,-16.864577389924303,38.52639478641235,0,S02
10400,0.09733790805685458,-0.04315071098698513,10.148370204831,-4.161746949352958,-1.2426942378583068,0.4024080490216625,29.571268112856085,-16.197420406430915,38.28847578233795,0,S02
10420,0.09637980461410996,-0.04613628568401726,10.14861656745882,-3.6316817845414775,-0.7531287592500013,0.5298621807602265,28.950951711059716,-15.983643001019123,37.97300936188473,0,S02
10440,0.10611371852400897,-0.04522186662711982,10.148562229638124,-4.196987603417115,-0.41935798153837356,0.5344256435246344,29.763685579277702,-16.576576406594455,39.02263649910388,0,S02
10460,0.10227662107930635,-0.051318354887826226,10.150109846890453,-4.175673713939974,-1.1514133312800876,0.45609098376351154,29.451811185967546,-16.462409899176038,38.071594312129925,0,S02
10480,0.10302234080766154,-0.04936041656831008,10.143961869204027,-3.8560279243712663,-1.1418978447481365,0.39616995608119154,30.588576656285216,-16.583868196363426,38.256112354867376,0,S02
10500,0.09948845082817939,-0.053770523766436915,10.149366440219355,-4.404592268478744,-1.323864307449839,0.3269345840974299,29.92894238779847,-17.691626643577145,38.63460920242012,0,S02
10520,0.10368174357300797,-0.054663878177190685,10.143415385287158,-4.309142973439939,-1.4173655311401998,0.8443493281286374,29.790452309449016,-16.670624187510683,38.27541726089444,0,S02
10540,0.0902112237155656,-0.0497109927603894,10.143821096053122,-4.054839568853689,-0.4476709899583615,1.0108446471096106,30.248248915562282,-16.798539908707127,38.58113851175781,0,S02
10560,0.10233000706816607,-0.05222596584824431,10.146586502029017,-4.332476153244867,-1.1597853734145547,0.6014600147910855,29.349190013017054,-16.72805968745127,38.075073252994436,0,S02
10580,0.09991570813130053,-0.046393786177694504,10.15088591703741,-3.9598366263848654,-1.2436331171666757,0.6081893550425503,30.0581738538317,-16.63571976488972,38.56321301021831,0,S02
10600,0.09016684765010874,-0.048116637901545044,10.153281980434144,-4.074948553073127,-0.7934163527298495,0.814026824096338,29.806866436097906,-16.121062057311306,38.587929869798494,0,S02
10620,0.10468424555218121,-0.05036211388834608,10.14805611890156,-4.624126272971707,-1.5758307252523565,0.19264936053988535,29.803194548582145,-16.72532063481271,38.63924151242275,0,S02
10640,0.09690822074507591,-0.0511096224591638,10.140152502813244,-4.071521032594284,-0.9814885765769606,0.592494936017964,29.806173416656492,-16.62253876891441,39.14182658354631,0,S02
10660,0.09813600717856365,-0.04922213693776399,10.146068025949223,-4.494384771840531,-1.111553254743765,0.2831986162584216,29.60266457901103,-15.747139806945105,38.63756922107039,0,S02
10680,0.10119651009504177,-0.051285018025429924,10.141226714627352,-4.345200950885535,-1.0702880540376523,0.5265356437795253,29.30084710620055,-16.20790508722237,38.10473593904924,0,S02
10700,0.09699166425639151,-0.053911697925131494,10.150826270326895,-4.056074634543953,-0.7906669187681727,0.7576339307897595,29.76204470982154,-16.03858433865671,38.454893911507,0,S02
10720,0.10403964226388246,-0.05236433625773616,10.15887591172079,-3.988944011845093,-1.3457363415834909,0.5136533673521623,29.709216936882697,-16.56197721602679,38.05054824898554,0,S02
10740,0.10320124073145324,-0.04899797105019256,10.150756313334153,-4.758405851837985,-1.392896209468328,0.380564207384603,29.762043429135648,-16.164819088261872,38.1670606840559,0,S02
10760,0.09288041510933638,-0.045371339958260606,10.139250053902785,-4.246020076712715,-1.0253171091030449,0.8180010641863169,29.274117853207812,-16.532926411362645,38.31870063805618,0,S02
10780,0.10065989259151818,-0.055175780503202446,10.144263266731793,-3.817349497211249,-1.6311962315536803,0.6239280539829791,29.37588673701542,-16.189270566057523,38.347438507440856,0,S02
10800,0.09928505529047717,-0.04485013139748428,10.143020474126365,-3.900889054050289,-0.970697023816626,0.4117874842095808,30.214329015584102,-16.102659407154178,38.5123094555393,0,S02
10820,0.10484314044574973,-0.050636977847060796,10.14523576033367,-4.646458376248215,-1.3696580240612888,0.42236810308367034,29.354184870899353,-15.820443940852567,38.14125715569883,0,S02
10840,0.09889144330574272,-0.04914309862511508,10.15095798788994,-4.049231849509099,-1.7265895583862525,0.6718165217755463,29.32834234694316,-16.506959064424954,38.58755228725123,0,S02
10860,0.09732407251819616,-0.04192414298681184,10.153114185728251,-3.8523495771456453,-1.1069548714801987,0.3324159289747583,29.50423054326552,-16.57464016468555,38.36073095264366,0,S02
10880,0.10384650073949638,-0.04258681937787748,10.154205374144883,-4.693188111352296,-1.4001638125846676,0.45712841102957547,29.49465546094678,-16.976051361592827,38.18043349895133,0,S02
10900,0.10259175014689696,-0.050812550321491484,10.142130380133446,-4.160137201221221,-1.101121821348024,0.9463840840564579,30.11174848428442,-17.389944708786015,37.98736621175099,0,S02
10920,0.09482160184452938,-0.05073201486849264,10.146422324765197,-4.347525435489379,-0.939926131707217,0.5224558832713909,30.16632020043691,-17.54709368332737,38.29030460227939,0,S02
10940,0.10381038373310515,-0.063460252511185,10.14382155090119,-4.036803304184684,-1.4628207227426637,0.9230666018482097,29.759739759448973,-16.909411138201182,38.81153997447734,0,S02
10960,0.1051067415108313,-0.058356055110915614,10.142015297376991,-4.323190436453937,-1.184993744958508,0.6388313958281683,29.88890518874735,-16.73082103085842,38.4385763190524,0,S02
10980,0.10646571206619855,-0.06313335730987653,10.155771320125394,-4.207497474026416,-1.1776966232673711,1.034094876181662,28.58312198964564,-16.582612901498976,38.45627964159336,0,S02
11000,0.0918534832169032,-0.04157376138437273,10.141177324702811,-4.469248328708338,-1.092235025290251,0.5042150366298693,29.530216040539102,-16.21238849142088,38.09871846176047,0,S02
11020,0.10720109029285266,-0.058559534228543014,10.143520082534145,-4.187358633418323,-1.146585424756562,0.904440621760842,30.481899409631243,-16.38229756102831,38.532001983493515,0,S02
11040,0.09897564218603139,-0.06589550848803151,10.145851703512234,-4.758625414809513,-1.4728473504456796,0.5046325647309721,29.219909548113062,-16.170648270294443,38.04117431216394,0,S02
11060,0.10714730573175335,-0.048127137315838536,10.143337644951805,-4.176496761094368,-1.7982495422303608,1.100693747625977,29.64454620968002,-16.352380321333463,37.753414005209585,0,S02
11080,0.09809646437135797,-0.05634441293341253,10.143953731233253,-4.424232036677554,-0.593487837326491,0.783273464809375,30.374893149316776,-17.499191437717982,38.191184775428056,0,S02
11100,0.10154812202948867,-0.05338019859915774,10.149701739842786,-3.78259702151878,-0.5126422742430862,0.5060092914154437,29.43003322278678,-17.098076671271038,39.087142126219874,0,S02
11120,0.10105112589521678,-0.058992961238081135,10.142249457496135,-3.9109775286982593,-1.274023993750419,0.4813374863775396,30.054036623593788,-16.281407504731774,38.69647786325574,0,S02
11140,0.10439178170532312,-0.053095242986534126,10.140895450806006,-4.029708464714962,-0.9024803851417749,0.5380265545995189,28.866013061626994,-16.39497243030227,39.08960716646484,0,S02
11160,0.1080618488600662,-0.059676966714769256,10.14024124086413,-3.919825988123604,-1.239785381849165,0.6274331801379233,29.025848947567994,-16.844892762395723,39.33923936873323,0,S02
11180,0.1043352444810218,-0.06247910421465554,10.140406475223104,-4.284046365398133,-0.8994435849654074,0.6679836777827283,29.433196033218294,-16.697099289770495,38.46325039356145,0,S02
11200,0.11237266783395966,-0.057977493340015354,10.14769735419878,-4.047185878069544,-1.0419756815808914,1.4494659237937229,29.72815108760201,-16.96601676107852,38.41252346955431,0,S02
11220,0.09679766920061836,-0.0571717692427858,10.152419681455997,-3.8269053268755213,-1.2670147482196856,0.428611314785076,29.268644171654287,-17.253771580147724,38.61584365578053,0,S02
11240,0.10384117667966655,-0.058716800864432345,10.143332478116152,-4.319688869846325,-1.264241387263907,0.5117466871785996,29.723588397241308,-15.701368375222716,37.6353668696399,0,S02
11260,0.09682856922247372,-0.06181522161217917,10.140835615810744,-4.22383586249997,-1.39419931405514,1.0252272724144498,29.571104384880645,-16.23571772425872,37.98068309577183,0,S02
11280,0.09544351497065846,-0.06598765083781329,10.143742627476731,-4.1746723194576045,-1.3949206025058358,0.64145231163577,30.332422669155577,-16.386312402611804,37.60561565690879,0,S02
11300,0.09644336035594989,-0.0660199174449056,10.140917872535592,-4.576926513047103,-1.0429645099831026,0.6949153257223081,29.85217634743527,-16.11175019270479,37.73759585689185,0,S02
11320,0.1005673960956471,-0.06570879447256414,10.14140278513859,-4.294518625649106,-0.7830390559386522,0.6769027650754649,30.17365669100072,-16.297775052534007,37.872294613811086,0,S02
11340,0.09146887704979637,-0.05712885412047247,10.154769266501656,-3.9379787360537315,-0.9525904543930148,-0.12294549436850843,30.048089458603087,-16.661338867899936,38.56834787964202,0,S02
11360,0.10627262696186315,-0.06405775639346857,10.141736601172013,-3.6692271570792543,-0.8361816725738889,0.7210252719040867,29.7927284608348,-17.321593797694575,38.62454597574785,0,S02
11380,0.10618852974106033,-0.06313629096090335,10.143428894677845,-4.660355715540639,-1.1044226921053917,1.0822145743793126,29.12431200050313,-16.50494505918114,38.224800696660424,0,S02
11400,0.10266276400792959,-0.07278214084914834,10.142876274709653,-4.19230967389659,-1.2503293073182697,0.16077770389419704,29.523959010452607,-16.061262415249693,38.23131795721425,0,S02
11420,0.0970390231496726,-0.06512739846732216,10.144825774058067,-4.347022413727582,-1.1238144478745928,0.5786849306343537,30.051376527671614,-16.755075290283337,37.597583060123746,0,S02
11440,0.10483764229437913,-0.07383065967416724,10.159858493359723,-4.156464948007128,-1.4360455009208881,0.5066794017604948,29.631116549820376,-15.335084457601338,38.45041810083844,0,S02
11460,0.10253607592743391,-0.06709238732037211,10.141855834629283,-3.8049952766640733,-1.3911451187341177,0.6325867254369093,30.572174744024952,-17.107431554249494,37.35249566691791,0,S02
11480,0.09487017399297083,-0.06355157996500925,10.150503916498435,-4.650162579408132,-0.7536636040113472,0.2598826508077678,30.070868385502532,-15.95651209195909,38.06864779483071,0,S02
11500,0.09933365460053523,-0.06632295571134329,10.149029262941934,-3.7419296403685243,-1.536846214365355,0.8807569527227541,30.03492199019857,-16.169523223473664,38.23821591392792,0,S02
11520,0.1000108701425117,-0.0785210275892073,10.144155507462735,-4.162364424541875,-1.0621032583959098,0.5096866546352882,28.535084510040747,-16.518750006608677,38.65117415389798,0,S02
11540,0.10750117705555187,-0.06986517268387896,10.14308779405976,-4.652451853775119,-1.2790200661128102,0.3392260759943103,29.893841566207396,-16.07242732397797,37.81854939284725,0,S02
11560,0.0962013479756127,-0.07528546981102809,10.148317277345734,-4.219014679441887,-1.2438690026417403,0.48292447792674575,29.494123637550118,-16.97081563479579,38.84527901166402,0,S02
11580,0.1006537750003489,-0.07676023410929038,10.147481674713227,-4.548289049690796,-0.7060834071908189,0.4767199964713941,29.730345026305166,-15.916647070069391,38.93923988283166,0,S02
11600,0.10327544620379836,-0.07454680812938769,10.13837282681802,-4.723869569435353,-1.282409551856972,0.4889544053899414,29.596207152227056,-16.957112095667007,38.52955130677684,0,S02
11620,0.10558233468210418,-0.06932260090036468,10.147175985925934,-4.124550461849744,-0.9339333058623549,0.3688006502434892,29.873106576091764,-17.65850646795898,38.33008919416483,0,S02
11640,0.09179963684528608,-0.07266860308095147,10.14519521401844,-4.159985057028507,-1.6145709276720301,0.9503187639743367,29.98299926990983,-17.003717477610955,38.14143701433253,0,S02
11660,0.09337333614087406,-0.07479245050872292,10.145955577281882,-4.082416798394252,-1.417493678052685,0.6109250574967663,29.31668920608817,-16.008241567302946,38.62713381299871,0,S02
11680,0.11526064760148963,-0.07980347764873372,10.144244102370964,-3.809728099734068,-0.7950158728937886,0.5799423682835648,30.216945004957356,-16.70368373850024,38.35483471433467,0,S02
11700,0.09793449807015481,-0.07844210905364987,10.138445491429163,-4.1260830380352385,-1.405566145943867,0.5480089485352265,29.851427349798996,-16.790113323110077,38.425087827928195,0,S02
11720,0.09277136834028428,-0.07676121421638768,10.13986583259811,-4.467901030472203,-1.26839612514032,0.44833087727375354,29.90212066668011,-16.68191051012085,38.53624491579825,0,S02
11740,0.09853891304737032,-0.06754421644085731,10.145012235849396,-4.118318146086448,-0.6642198987677089,0.6094178394999781,29.44502728972626,-16.65087106254427,38.89342911232308,0,S02
11760,0.09410154631729371,-0.09027336794652535,10.139722789587745,-3.721112267764785,-1.1637476528051856,0.48553183360294616,29.974044088005773,-16.745638772664083,38.830328765054496,0,S02
11780,0.08960810987833467,-0.08348085608212923,10.140833183429763,-3.5422903840952493,-1.2396042975821209,0.9505502717191204,29.354941354084104,-16.916335528159863,37.37618849226127,0,S02
11800,0.09519760800054435,-0.08042845207111156,10.14690182749821,-4.366083172672813,-1.0033984591228882,1.0488029936912633,29.778948512388304,-16.409862664893467,37.97461928910285,0,S02
11820,0.10530548814684379,-0.08460212982121652,10.151907494437618,-4.318826097903531,-1.2054796047706244,0.4720215606332394,29.999383289026788,-15.820838681546185,38.133671320505954,0,S02
11840,0.10352050463442786,-0.0790996445107928,10.141920499081811,-3.8577700700310618,-1.0841950373417004,0.0851821678543222,29.99937668507648,-17.166700884127085,38.213557425463655,0,S02
11860,0.09855964735340399,-0.08012884393617382,10.148569204999706,-4.457844339502566,-1.133945366512101,0.6899267023666541,30.095841797502256,-17.099123949394397,38.50221749904388,0,S02
11880,0.10222671611109423,-0.07868742640795401,10.148395973508931,-4.181695266090898,-1.4053591745655507,0.3747718085291418,29.59240446392481,-16.43040524923242,38.44717628822952,0,S02
11900,0.09833080068644727,-0.07682534124341674,10.142988735553356,-4.07107283900216,-0.8367814916466676,0.36780843273978253,29.338624661597645,-17.025129669837533,38.51897355509291,0,S02
11920,0.1039322048791864,-0.08276761113882726,10.141679573494521,-4.282491152137298,-1.5650096338608646,0.983946293978788,29.246231113872565,-16.655438133332844,37.71185881185796,0,S02
11940,0.10117993814563157,-0.0803511713475741,10.140455843162961,-4.480772015111603,-1.251392915167192,0.1019449488695034,29.77174064039973,-16.4126161882357,37.69518580639115,0,S02
11960,0.09963354789583578,-0.0841791701945687,10.145268233160982,-4.012782732084477,-0.6169133615714295,0.8763389952114461,29.746409230930006,-17.123995785190722,38.48790831838744,0,S02
11980,0.09723720968489999,-0.09486910448949232,10.148923699860424,-4.015122803685175,-1.381710812375549,0.4428161357179514,29.934249980965177,-16.314790204672512,38.65968756918738,0,S02
12000,0.09987232845216171,-0.08813117350196754,10.144078161767505,-4.192176057891075,-0.9778318721727002,0.39191307731798,29.588481079056763,-16.516278920388928,38.44015211540463,0,S02
12020,0.10123229769847779,-0.0881011947693417,10.14311940606278,-4.914263267536009,-1.2680128507589044,0.5249339300387893,30.39455923577212,-16.813081816725095,38.38453763115371,0,S02
12040,0.09489839654766279,-0.09368493788267851,10.145858339280196,-4.009969021649788,-0.8211449699917965,0.7911713083889851,30.169282890277643,-16.701779753163535,37.65389755834439,0,S02
12060,0.10064653585990851,-0.09378562188803123,10.147896566292765,-4.176250594920486,-1.2902033848872332,0.20713977848939952,29.35472967491695,-16.484487196791846,38.31573714803402,0,S02
12080,0.10930068333860665,-0.07976791717599982,10.145567668005087,-4.395108178418231,-1.2663465843165593,0.3974819460691056,29.535472593399582,-16.307017187140396,38.50609878329432,0,S02
12100,0.09797591524983561,-0.08837730801939037,10.136952200754395,-4.5286086545763355,-1.6791192740489524,0.4511339576606973,29.601728945564446,-15.875839071473653,38.04896988226162,0,S02
12120,0.1004799412728932,-0.08867956382937997,10.148028207398221,-4.001699147208784,-1.2170579881759114,0.38256040293096855,29.66474824009435,-16.100748280658863,37.798857938317305,0,S02
12140,0.10906024109739794,-0.08678167540212306,10.145953734619079,-4.024348006048537,-1.355444192863797,0.7334440801129575,29.62270392096946,-16.730933403824462,37.95065407287277,0,S02
12160,0.10356969593417596,-0.08380545399931534,10.140678866244773,-4.559860856551003,-1.2316880640266121,0.13753898630277134,29.821009388515343,-16.785589349171254,38.88768626038435,0,S02
12180,0.09359129887352745,-0.07514397694416604,10.14260163527892,-4.167999178048134,-1.288892487182486,0.37315420754691614,29.27257906293361,-16.301770842137547,38.0194459481852,0,S02
12200,0.103889967056535,-0.08925309643801657,10.141279736104439,-4.146886254132007,-0.7591260693752517,0.6565392106385136,30.27179508135219,-17.11146971576838,38.21286789291511,0,S02
12220,0.1074558701195347,-0.08631277059096906,10.13801344084411,-4.539067196417452,-0.8068905544692356,0.5129524110025618,30.044793205911855,-17.211612603666822,38.5506135180639,0,S02
12240,0.09646308625854906,-0.0947282102604726,10.150704700134009,-3.6065261885092923,-1.0974124246048362,0.6377420395016034,29.338101893715255,-16.714369024966707,38.73757215847286,0,S02
12260,0.09391845378716594,-0.08983189607525849,10.143339403933584,-4.262719286902994,-1.0737365703415538,0.6003582537663423,29.49345113190334,-17.075157847669622,37.641716816909586,0,S02
12280,0.10429610858481611,-0.08159491593818019,10.153109732801544,-4.419125864440637,-1.3685217661530762,0.0682832457492667,30.182650179833985,-16.731789291945887,38.25657448065588,0,S02
12300,0.09731951908692053,-0.0917249414431194,10.141883541023015,-3.868260242711378,-1.065559813106388,0.8543274148656368,29.614442111645555,-16.645021375160578,38.275083105774094,0,S02
12320,0.09768962925427027,-0.08447984141527999,10.153438373494238,-4.591009481649634,-1.476507466498154,0.729488768398108,30.35618886846156,-16.76321388231856,38.39548915317577,0,S02
12340,0.1037174700149285,-0.09173923099872153,10.152254588686361,-4.316460517523029,-1.2877653954689892,0.3007470902428938,29.563299542451748,-16.86524998453536,38.0735342875069,0,S02
12360,0.09427513298219477,-0.09907465607624118,10.139686468466959,-4.144507760231139,-1.0808695301977476,0.7158125756317348,29.915721433359558,-16.66538978961791,37.95922575597974,0,S02
12380,0.09946233058400432,-0.08547215297304972,10.14348859936678,-4.794725137467285,-1.5658115506268775,0.8108242076887892,29.195560695644033,-16.937209888231987,38.5936566399284,0,S02
12400,0.09813895916084552,-0.08026020702284492,10.157372252299888,-4.211457706002453,-1.1283476002709638,0.6259276213823568,29.774212537682008,-16.90146948192666,38.27514234933169,0,S02
12420,0.1007588058169169,-0.07917060330089279,10.145502467106343,-4.1888897544821075,-1.6769332583777143,0.6951814110633764,28.947534098173566,-16.734381073648354,37.971400823282586,0,S02
12440,0.09020966533975301,-0.09126632494049268,10.15321789263426,-4.912414954702865,-1.7042303619372174,0.4038045993508,30.21458954734749,-17.24554862011852,38.293105725812055,0,S02
12460,0.10479720989119588,-0.08734238486731696,10.142051768145354,-4.3022094305848295,-1.010743818866612,0.09762027818278085,29.884906734869006,-15.979656043467081,38.69633871396107,0,S02
12480,0.10433459538760971,-0.08340145613862344,10.142680868350075,-4.311821772698547,-1.041911791647073,0.3759795852537703,29.980972519349507,-17.535286566193278,38.11972968218031,0,S02
12500,0.10569947486598157,-0.08560313015534637,10.143550777880433,-4.17686676708537,-1.3371559189302349,0.29739076014316224,29.938913192717262,-16.365625384840136,38.17395640525291,0,S02
12520,0.10042540361073876,-0.08901886571430516,10.138881825874957,-4.0598936598382505,-1.330508941120617,0.6250373423591153,30.42661631633166,-16.32050594206567,38.32340031905282,0,S02
12540,0.09729672827119906,-0.08186161845789688,10.140829359921277,-4.33609175071066,-1.2230148216127077,0.5958109946482002,28.995608768503548,-15.779205238029308,38.087155662874444,0,S02
12560,0.1051938626634989,-0.08722294181619399,10.144012224494382,-3.7289286388510297,-0.9881276717002405,0.8609640051360274,29.409166189831524,-17.289368972799426,38.87086649758939,0,S02
12580,0.0992512506413269,-0.09611016790102303,10.142538206947412,-4.146911704200136,-0.8942333496501388,0.8366603516130267,28.972907516417706,-16.27988519475152,38.79289449499612,0,S02
12600,0.10205054101268547,-0.087954199235391,10.146167688418023,-4.620098326733947,-1.128844247973937,0.5192446764472134,30.25095242183646,-16.99804064782475,37.49377744531624,0,S02
12620,0.0944659051504605,-0.08536942119108037,10.142508092888233,-4.300921731097052,-0.8775203005051172,0.7151300987955185,28.913246819459452,-16.500680447137132,39.02486263818918,0,S02
12640,0.09971521829315846,-0.0758606483466502,10.141025435413704,-4.41445977994767,-0.8744071767832438,0.6905558313849246,29.116831500380396,-16.489879661030965,38.141509390458054,0,S02
12660,0.09191289694758353,-0.07876901005938626,10.142219171667614,-3.9164845164758715,-1.1129415810146535,0.4718597574846848,29.318567781001672,-16.76529469378542,38.13388989515395,0,S02
12680,0.10127549952458773,-0.08674517075688494,10.144508404202547,-4.308993915454587,-1.1526691237853588,0.8990709936399579,29.297882039860635,-16.731645757904424,37.53037907961291,0,S02
12700,0.10162610532912776,-0.09384015215635547,10.152667648576184,-3.236046184323443,-1.0302079754209876,0.3949049831986276,29.721665428189873,-16.87731738503748,38.244998417592534,0,S02
12720,0.10405032996888267,-0.07775144547350386,10.137530508415756,-4.0020457781212375,-1.287555741610352,0.6619805795508199,30.06469516596574,-17.08627858790892,37.935436237693885,0,S02
12740,0.10549942018949784,-0.08708535424979305,10.148399149237338,-4.263432640536103,-1.3141439209200343,-0.1058252127499052,30.2694396816209,-16.167989364155343,37.868034264136284,0,S02
12760,0.10148234388712489,-0.08647457592411643,10.144310244351038,-4.143481715682974,-0.7779420898525369,0.6324124127274366,30.50991571758376,-16.7926116139186,38.52140842034923,0,S02
12780,0.09842780418988321,-0.08391206224315083,10.14667213637307,-4.183523061119313,-1.12954282664767,0.19869794150966574,29.778594059900794,-16.109608997969325,38.23823973618394,0,S02
12800,0.098934778415941,-0.08420315596601934,10.142836507298238,-4.257165014774732,-1.4625193775113412,0.6852734112883612,28.82836561582585,-16.961707217967074,38.222698584961506,0,S02
12820,0.09304867868806856,-0.08419734048873483,10.146168450261273,-4.428889454975877,-0.6668644757487625,0.7045958221973828,30.418273288168088,-17.43008316964532,37.43077729801099,0,S02
12840,0.10709192261073373,-0.08110095820758369,10.143206732353319,-4.1080295664394715,-0.33280026140619445,1.0847752766085346,29.264674640017525,-17.174727398769722,38.21385787357409,0,S02
12860,0.09304931695233573,-0.07692995813864102,10.151486749528518,-4.573724470329292,-0.8041995686315683,0.7772930413804724,29.921910285645836,-16.15913107081407,38.445204371590094,0,S02
12880,0.10036697461201242,-0.08489654701889976,10.141464325400433,-4.473865385423869,-1.584350868609022,0.47527446292172626,29.75256594323698,-16.640261724369736,37.8922923813866,0,S02
12900,0.11056156124878563,-0.08495780389551542,10.13770307465425,-4.0699051723132635,-1.2472768783885322,0.8226642561683977,29.32660865710622,-16.240781446828688,38.67364221400343,0,S02
12920,0.09205267118822202,-0.08476947539019841,10.151752287154448,-4.401553795498115,-1.587401329600247,0.818033216885762,28.89948716677176,-16.794461826824257,38.2703218254476,0,S02
