timestamp,ax,ay,az,gx,gy,gz,mx,my,mz,label,subject_id
0,0.15093571556055618,-0.1220758451948164,10.01399388160327,-0.7565288772347518,-3.1462153744596266,17.963337955049244,29.651134713902433,-10.293870856539261,39.722091699077964,2,S02
20,0.46419142352982845,0.3524384303597152,10.316872679883332,5.65616273705293,17.4379514799526,16.29825930903575,31.438536315860055,-7.936925217205456,39.906781947005285,2,S02
40,0.5387750907573355,1.0022480089797305,10.814882313137367,14.86655699133285,31.467992304165765,12.571979154276619,32.9692628837968,-10.90890658266457,39.992412544623136,2,S02
60,0.7604827033163895,1.1734881652793725,10.838827517464543,24.777836424658947,43.99146275710119,2.397094846012654,31.521480437123653,-10.66185644915876,40.67687955244454,2,S02
80,0.9587056616724864,1.5413249511028528,11.235138380611986,25.163325562565536,55.54538824810034,6.400695671808427,32.02641026663442,-11.296783395605008,40.18035014179588,2,S02
100,0.7347725203243051,1.697564016008895,11.278781194710845,30.007249544056027,60.93222247219947,-6.763587822007669,31.7674870729628,-12.569638182811424,40.84677536884601,2,S02
120,0.6437660152984469,1.3590087096198942,11.038054623378713,27.926959853573063,52.05286206523502,-8.333462695185398,34.060668196598684,-11.764512699012561,40.157295943062145,2,S02
140,0.7924839072418223,1.2492638207796343,11.099583170300413,24.888941635422654,49.21685817333685,-10.820997804056649,33.62223393768845,-13.835599461063547,40.52488665335747,2,S02
160,0.5552130986826395,1.1116313793749608,11.014652626226148,22.72526406129909,34.68267302975406,-16.578686066332363,32.14313036617552,-12.722928819673188,38.05571807898982,2,S02
180,0.1718898045951297,0.8796148271954451,10.6629625048678,12.047807960482015,26.414018647773045,-17.425499979328794,30.827419259700918,-12.647563661161303,38.96546383543393,2,S02
200,0.3355685392565829,0.6906844096043647,10.517637787166846,6.011622343656364,19.097609066777217,-27.205379129018066,33.733217381175336,-13.487436479873615,38.56900631878493,2,S02
220,0.09716359277353426,0.44033959474723644,10.381837604604183,1.6318533651693352,6.369827944854351,-15.824009704382037,32.54166213452734,-15.144231248683422,36.669172028944665,2,S02
240,0.08271097603368785,0.17958424018743713,10.252681334656675,-6.850846509983801,7.935619153836391,-21.57939584634134,34.83660822071721,-14.700975837854903,37.7126204455956,2,S02
260,-0.033991693286509805,-0.09602526081832485,10.311534356278303,-4.376369422987965,-0.2376034593857741,-17.977156473507108,34.28675447385186,-17.445257672247244,36.959466806186164,2,S02
280,0.27263916884440725,-0.16203892696635389,10.184104585194362,-4.293257879337631,-2.265323681543875,-19.787331684513717,34.413564571456696,-15.658328843018701,36.56887408380194,2,S02
300,-0.00481444296464395,-0.28821831359138494,10.10337181361541,-9.386492445927622,-2.9303411919557627,-11.811188577119061,30.822437963652504,-18.036519270802437,33.90528542862992,2,S02
320,0.08350049794429815,-0.5064606284906308,10.014261785881745,-13.404170174952942,-11.88536153423185,-11.076368418882748,32.98959353096707,-17.480191330287518,37.051112426374566,2,S02
340,0.055975845263514144,-0.7739777461248678,9.738905260726234,-14.829767948813426,-17.8232777392228,-5.985145154759103,32.81243013859859,-18.2399960076674,36.020837053582326,2,S02
360,-0.13952475146495347,-0.8914831844788922,9.695180431605952,-21.8225639334549,-26.17712988932098,3.0753105776300984,35.03482355557284,-20.477341437751647,36.193989484936466,2,S02
380,-0.2529344699031326,-1.3194990888632991,9.315376665228591,-32.86948139497911,-38.44868850481051,5.636715947389957,34.270191116654786,-20.113767846096515,34.67647427518861,2,S02
400,-0.44850848789111386,-1.3953553563352012,9.2209932385161,-30.781744495484695,-48.29226224465756,8.449988925995962,33.29186594796516,-19.875567067602603,36.15092635273815,2,S02
420,-0.629294480347384,-1.6518149081516422,9.225763821989032,-39.050273739241504,-57.36100376919895,12.484725106494635,33.45038425896255,-19.726323823919195,36.07592160518716,2,S02
440,-0.6788415242789438,-1.5929024964287906,9.012684467426242,-42.129124602896695,-61.83647893910114,15.249690750264428,33.06249622966797,-20.135754639254678,35.721773383227124,2,S02
460,-0.6734725607369861,-1.6908178201170634,9.086462248988838,-36.643495391505034,-59.817378631478014,21.592295169796163,33.222035188685396,-20.26173437478733,35.73616899559059,2,S02
480,-0.6235290991866882,-1.3950296117396634,9.313311873944672,-35.40265290774659,-47.209268870483754,17.042154325993643,33.28969768854799,-21.379396980685684,34.89637262174604,2,S02
500,-0.5489774082448261,-1.0449224303899287,9.415147410358362,-27.530636709474052,-40.260741433498,23.417400921336593,32.704888824218216,-21.71940460287257,37.04006556200926,2,S02
520,-0.17612404035044057,-0.5149207178307804,9.751401590312122,-12.605547006104779,-22.058533187610593,21.837440342573867,30.97857680906435,-23.380790854600992,37.020450363620746,2,S02
540,-0.0713348652381045,-0.1363973616886698,10.191970807545358,-3.0314516016825834,-4.831842223797692,16.347505167415406,32.05640727903251,-22.83728757954509,37.315168542586385,2,S02
560,0.43612822310168553,0.3313590167045575,10.421205198016606,-0.28455659597587957,22.327612689214558,11.192606002245638,31.09095902306858,-24.590933913102887,38.42218959528632,2,S02
580,0.42186261351340826,0.8105794675680098,10.901125714284884,15.33180778061137,31.4637813181761,16.223643113252713,30.85551760805947,-22.90007431839791,38.65662367867843,2,S02
600,0.887187292459144,1.2632700992966486,10.921269507084888,16.749329105670785,40.05660716748096,13.235032443794998,31.97583299914003,-25.456467576438698,38.62021265454422,2,S02
620,0.8235597383065959,1.6435953142886979,11.110553436135767,29.83906879373615,47.70373339635252,3.829350306920968,31.96096157286661,-25.120723625752227,40.056078759927786,2,S02
640,0.9486580746337149,1.4796596992962923,11.270058153487504,35.651497735019205,58.1477549141834,2.9049875923887263,31.50273808061612,-26.41975352828735,40.73491133657183,2,S02
660,0.8722869602148187,1.4564892496311503,11.217123699366468,34.37020059798972,58.949661190338354,-5.596501499002832,29.47509509003348,-27.178661539869967,39.782754528394236,2,S02
680,0.7829161801357404,1.474534998384742,11.090414986972625,27.558070033339714,45.164205598222495,-9.589060534832463,29.51475773452823,-25.658544500259293,39.07439555691627,2,S02
700,0.5147922442367927,1.1705484424931571,10.79113319693248,21.235839762293466,41.8295014922637,-20.728291068229453,29.25594151410482,-26.64848024652485,40.26918780085328,2,S02
720,0.4070969605017647,0.7683989790995898,10.699349837553118,11.402268209566603,29.540317780657286,-15.84414402700063,31.79863469071369,-27.0518225889529,38.40724771233259,2,S02
740,0.1921421823525422,0.5504858752821071,10.690334839308926,6.958040432704329,27.057259018033573,-13.777349524974873,30.364498985317855,-28.154827080089206,36.3206979313221,2,S02
760,-0.04540881845293174,0.6164979297371918,10.474067530372176,-0.6249077301519765,17.35289654203774,-16.089663411960654,28.836717728762665,-26.92633435428655,37.1741547889298,2,S02
780,0.044333691835081776,0.17903491896884,10.439846758629667,-1.9076001128185673,3.271022979063731,-19.918243939251877,30.746502976608433,-25.14531403059732,37.570790555802695,2,S02
800,-0.05738044972159115,0.025843421681434053,10.205539218390896,-0.39418456009747826,0.26730696671639786,-21.433868371275473,30.54706312013747,-24.101626854598525,37.08743407471801,2,S02
820,0.08821618603205976,-0.026745028269455656,10.046246446216761,-9.809624083471618,0.7167381638581498,-14.72250409259991,29.671465289324924,-24.89763263756681,35.44757073162174,2,S02
840,-0.07414908336613832,-0.3306504055845851,10.047775392715263,-7.8280351020622305,-9.04784547084139,-15.177238201502396,29.482307830643588,-26.95668788420562,37.06340053345339,2,S02
860,0.1222380179676031,-0.6345533820105622,9.853277172286,-13.399041400627596,-18.015325255155318,-7.7581679885800945,28.8000313579457,-26.666050673154892,37.04720279779457,2,S02
880,-0.009856923250115418,-0.7563703328519582,9.896005942780034,-21.99786840644624,-21.39845587855173,-8.81180566970077,27.02821563591993,-26.484897482979566,35.18089692973089,2,S02
900,-0.02403691891834317,-0.9473886542425403,9.557949943397919,-18.861943203367698,-28.007811890424254,-3.1834262162331677,26.816760072369927,-25.243925147423845,35.32945137646897,2,S02
920,-0.28264406413220156,-1.113695550355851,9.581682948196818,-30.875009722083195,-40.949471180843645,3.88277658051352,26.276079704377956,-25.298697946282733,35.41750719466805,2,S02
940,-0.30176226136366047,-1.6267038169340255,9.19039125967411,-28.857974455060265,-45.777297573707166,4.936346037761399,27.205801246226333,-24.52184400048405,34.14472489206324,2,S02
960,-0.43103510963324343,-1.6261346871909128,9.070458854861554,-36.44464441980838,-54.65969406105467,4.673762920060841,27.73915633154013,-23.11477157840257,35.88430584960783,2,S02
980,-0.6239929229176873,-1.7553579015166867,9.012586410351314,-38.45260877324375,-55.14377199812167,16.58846120328664,27.490023293021725,-23.49084771974401,34.53091812774586,2,S02
1000,-0.6510638556757721,-1.5170005142155478,9.094034680067429,-37.47720442434836,-51.56865444083618,19.499314612615297,27.42525412340639,-22.89430875134859,35.3534678205764,2,S02
1020,-0.6265354685582938,-1.502459297526968,9.2439506254671,-37.56376230753267,-54.685773686089206,16.295648946836085,26.221988471141774,-23.259371400528003,36.235272721321266,2,S02
1040,-0.4673257220905801,-1.114705430266556,9.443752509923044,-27.38837552825102,-35.331389541268315,21.138761125453943,25.63094439717979,-22.082264540523905,35.62016140059838,2,S02
1060,-0.11143807986436244,-0.733427782952486,9.66186876156587,-18.45971331367062,-21.14945783355739,18.51180665581455,25.55081373386189,-22.103123758770355,37.72837678366436,2,S02
1080,0.04048963880617712,-0.24895826494943127,10.039088319406472,-9.024650934113467,-9.714331315781529,19.389297782741835,25.98374387940271,-22.170698661607638,38.00866380077259,2,S02
1100,0.3485974371520357,0.22089636032910903,10.34635721206846,2.7762727503679256,9.403791893076724,17.622368030175338,23.751170716794924,-21.570711122266758,39.351005203050924,2,S02
1120,0.5107938077487733,0.869925694698777,10.817683215682166,7.981394753514034,26.23920316825686,12.83531124167275,24.500242303358828,-21.167951063857817,38.56461292914194,2,S02
1140,0.7688356792337474,1.243411020420076,10.967863247220862,29.54197518200387,42.50412564315081,1.8083168946412127,25.935974566574806,-21.939222692961312,38.679612920395364,2,S02
1160,0.8408634351942548,1.4872677865802801,11.106809790260645,28.717101524206843,46.29559277178433,7.551639335965961,24.21640156111518,-18.43511006820878,38.092200470258234,2,S02
1180,0.8617743717908884,1.4954189475106514,11.267734429591577,36.45414254870492,58.27684303210746,6.6186043796987555,24.6536368749462,-18.94371455120743,39.29730132132376,2,S02
1200,0.7540496987449428,1.5366146629550836,11.251671057844932,34.84402800973609,51.38362035208363,-4.6949060234082785,24.659706985361016,-17.484833511164364,40.29170745910565,2,S02
1220,0.8147955572107733,1.426378957847909,11.194521693114527,25.134198522455183,51.92224170533253,-1.7356396930664117,25.744160650503588,-16.707689190078774,38.982954609491244,2,S02
1240,0.6074898461265462,1.3355042926397316,10.989163026731362,17.846658193689507,43.24787916602778,-15.652046259257391,23.95478709287685,-16.738665977166637,38.657147982122034,2,S02
1260,0.38512643673962244,0.9870032572862004,10.682864913818662,17.389395377204945,33.346976463657796,-19.459981974435948,24.393475325086467,-16.450844724153768,39.59249400575761,2,S02
1280,0.32815115395995287,0.8127391413251281,10.582847272522269,10.461991995344107,19.774887026188953,-21.216486621052745,23.411429291235997,-15.786504849012498,37.89922974415188,2,S02
1300,0.20213674953695288,0.3269576420619014,10.378164812854338,4.98008033220266,21.499087997721464,-15.191021828354998,23.529762791878888,-16.17267304370882,37.6433143158463,2,S02
1320,0.1371779668253747,0.19327923848673795,10.31367342538636,1.144502950606757,11.97923906909374,-17.206743925956143,24.679429631370006,-13.649395277862782,39.54588289754574,2,S02
1340,0.04116733533760208,-0.037386474854793274,10.325097659049307,-2.458408690883966,2.053284947758107,-21.10446582819868,23.97048908230846,-14.571288881229265,35.396042727221584,2,S02
1360,-0.0018521453703069096,-0.028698415328659764,10.1449167547914,-3.4401741055306116,-3.4178669416346015,-18.54567321334336,24.395054233075506,-13.168078109277602,38.72290444021095,2,S02
1380,0.23131273898468782,-0.2344762988351086,10.028770876714557,-11.033466536816775,-9.431603862186254,-17.693134145584704,24.806694552217472,-14.243938129105423,36.66937295040986,2,S02
1400,-0.08155665666995027,-0.37056208849986577,10.029044130986206,-8.986497912204682,-11.475652051636079,-12.848601535281121,25.957463616098792,-12.186075538858653,36.63903291072825,2,S02
1420,-0.03813131659428451,-0.6620768547361311,9.717457248000848,-13.349561720100404,-13.724201792805715,-9.640805914892589,23.450296260732625,-11.814360729451522,34.2930468549271,2,S02
1440,0.022866243149335094,-0.9896700258497975,9.726271739016122,-20.469616729144338,-20.575219952841127,0.1707930068420883,25.67243003176037,-10.805566671218052,35.553921775745856,2,S02
1460,-0.2744270770453885,-1.1907068648258523,9.50175600698358,-29.529684764629167,-35.98712069572645,-1.0827523914905415,25.091252779941573,-12.657847009391833,34.5921832620058,2,S02
1480,-0.4261274035493784,-1.4929836933719622,9.329206344310805,-35.07932682820034,-44.093104365521285,5.999486706818784,24.631013964221204,-9.099381495482794,36.17900078381557,2,S02
1500,-0.6137400884748865,-1.673254146093714,9.154195220008212,-40.259668687153486,-55.12815531961796,11.441955526726707,25.337022113470212,-10.55200921246694,36.868970894612836,2,S02
1520,-0.6276187862490625,-1.6272161912921845,8.92953308068687,-39.58346975088815,-55.15974096019238,12.59590608149671,25.014879928487414,-11.563136459951707,36.721682008818185,2,S02
1540,-0.7004448628119322,-1.618280703887812,9.062515778484924,-38.62085569320542,-52.409660752711744,13.769845566742143,26.69907353860648,-10.394598279188408,35.244939152633684,2,S02
1560,-0.7541969645556607,-1.3392114132881163,9.165671763344784,-36.20204002487504,-53.08653740766062,22.464913917191645,25.09752363952264,-11.24584896781096,36.65641896206648,2,S02
1580,-0.46529664589526165,-1.283418504730202,9.423073954735615,-27.508534623880244,-41.989688891954884,24.822111912946347,25.882208734166227,-8.868280339693271,36.079051535439376,2,S02
1600,-0.18276475151098145,-0.9902731738139412,9.581217293548159,-23.515689249061396,-34.28944965833899,23.022347559460314,26.32188946568129,-11.061798608494161,38.25787931183418,2,S02
1620,0.0820277396804795,-0.350051525638729,9.94926592990083,-5.722037008672551,-8.796518055610665,22.393428818407205,28.08797936976296,-7.243971250379348,38.808086701806374,2,S02
1640,0.264655418588683,0.21287690480741267,10.31483957917244,6.019693331996584,15.783195119417915,18.147278962578728,27.13944296239894,-9.034672367611595,40.24449047475406,2,S02
1660,0.49248054078485026,0.7703624557277979,10.585445789724602,9.932825055294416,25.883685539090422,11.971230230764897,26.35062526251825,-8.12840010811131,38.94359475371028,2,S02
1680,0.6095332992522386,1.010971674942738,10.859176050242487,21.810523562835662,42.48311728870478,14.880887893157338,30.05968448907086,-8.811045308932698,39.84388570678306,2,S02
1700,0.9253078636182616,1.4732459829937954,11.163957456842114,26.838668893761813,47.23345840932234,4.794820816113948,27.916068086040244,-8.558790780120553,39.28377743796168,2,S02
1720,0.8356709441819851,1.4865914583933133,11.198242258169833,30.792661873955932,57.3224786335662,0.2553990044840373,29.8290848326615,-8.446539346772614,40.39155589997474,2,S02
1740,0.9880046171377542,1.448573528861699,11.317064008343387,32.18704054553655,53.511042226534286,-2.1709443414236445,30.84357245959955,-9.266585254968291,38.94857166225897,2,S02
1760,0.626342328628567,1.4801237498120028,11.147870191775601,28.747611921946,40.79429350523276,-5.992986008929536,29.13443848277055,-8.202740079133061,41.39549845748656,2,S02
1780,0.6004806808407838,1.3031584148602973,10.978917911268413,22.61995929216767,45.75159533534927,-13.301175405584942,28.92379997031225,-7.906577127985518,38.451100434988845,2,S02
1800,0.2237997116662957,1.220873217902631,10.693483731568907,16.86919735908778,31.41704170355072,-16.52604099148958,31.164877200847762,-8.926060316825238,37.902816679731224,2,S02
1820,0.3322374412530822,0.6564987202988728,10.56482366604513,10.596193782130875,33.55391206305465,-14.097434256539279,32.1226915951626,-10.701275290371221,38.08078097743381,2,S02
1840,0.11415931347018618,0.551693412761826,10.3229886322275,0.7678492469217462,19.306981288530977,-21.747260529052454,30.493985343313874,-9.54611058314959,37.008761529967245,2,S02
1860,0.12448899421994891,0.23519640527504654,10.483849592412785,1.8057469697319686,6.933495341794374,-21.14273643226277,31.445138733002434,-10.797520552669479,37.89081560373501,2,S02
1880,0.05625687612153621,0.1274599816955217,10.13691634723312,1.288290885389121,-0.9765682247010925,-19.25570519627511,31.327653358365534,-10.263518009408404,36.63685929762859,2,S02
1900,0.22132741574434966,0.07747451878023157,10.126509514252588,-1.2099110295226225,-5.55217355433914,-15.196395136948562,32.720386062262804,-11.111837590643427,37.636305701492475,2,S02
1920,0.015542863608999091,-0.1521182487578856,10.100756941863462,-7.065137449493312,-7.0810653297054955,-16.773905827408008,33.45521663468516,-11.695722459030197,36.28992319148011,2,S02
1940,0.07638936498868751,-0.2642106525402883,10.157437972822667,-9.814653967968477,-12.418546351068212,-8.952482282375673,31.356432331562353,-12.978930815503485,35.010742530922215,2,S02
1960,-0.025153465126958485,-0.5253155592707932,9.875553497843656,-15.171347598794792,-14.236584461467688,-3.098771185129896,33.76424369530909,-12.060642446009567,35.84685065501178,2,S02
1980,-0.07102499367581097,-0.8761161431191375,9.741495336451163,-21.85760839157707,-23.502035566641784,-4.4451989712382955,33.2836053927669,-11.796987187053887,35.580752330200525,2,S02
2000,-0.36900767861119566,-1.1283452808431376,9.5753811767932,-25.78282005383152,-37.47231724196812,7.282027105477619,33.74606793510835,-13.226487467358648,34.47346609302028,2,S02
2020,-0.5598448825664124,-1.4781144812810132,9.338419481218546,-35.45913958858995,-41.00323122176575,1.640691617825698,33.67873422399954,-12.825826076567335,33.58445604088083,2,S02
2040,-0.5467006883985132,-1.7419566928101893,9.085217232912683,-37.67529276503924,-51.41913806689287,10.459616797147973,32.70589961573429,-14.883609459041319,37.35451916722004,2,S02
2060,-0.6346132258610483,-1.7681195451202065,8.93487142088464,-38.09899361739104,-52.578941762818474,16.254480746068452,33.44923175649635,-15.783559325742887,37.03276724733178,2,S02
2080,-0.7513670809870413,-1.7056154258890375,8.986098930437407,-43.29784557321415,-57.33303275683739,16.784397894408368,32.07760802570879,-15.502375962043345,38.19834588894973,2,S02
2100,-0.6672986569592232,-1.5863027076230447,9.100486269154564,-34.14892463479081,-53.5399554577202,22.374438053635686,32.93442288064148,-17.708240118594315,35.777394656861716,2,S02
2120,-0.4837617516696614,-1.2307466820547321,9.289868436723895,-35.97078994861076,-44.12732325036296,22.219607662148732,34.30043586022576,-18.99071760055768,35.73892413979613,2,S02
2140,-0.2486098158887796,-0.803563223687811,9.650821834477568,-19.294015396773847,-29.129871662384947,19.46653009664837,33.60974367718181,-16.58768346187903,37.27121165788784,2,S02
2160,-0.05831807451780202,-0.3039391896456486,10.016297133310825,-9.40980946886175,-10.860721643101726,20.558389611632986,34.405897055979764,-18.162878980891627,37.10618657538884,2,S02
2180,0.2323778834197957,0.020675562025496752,10.381165447914924,-2.867770940776064,9.089718519845793,17.028191498230807,34.63466106908084,-18.131497432072422,36.45015406566874,2,S02
2200,0.5362916198106734,0.5478476768188896,10.744459370355733,14.149556877511813,26.548197778744814,10.898498125982714,32.93467333378136,-19.713622469778983,38.9929070985786,2,S02
2220,0.7113187507754695,1.0513893176516336,10.931439621336981,15.879632569216302,40.18244673317701,8.63468834491748,34.58089214748382,-20.214069618930466,39.95052449487534,2,S02
2240,0.9981625251887444,1.3892352595826893,11.101351526022695,29.37321426406618,50.023853451239624,6.652698687147567,34.69175583709696,-18.37565303687073,37.408427769873924,2,S02
2260,0.9366830874663166,1.572407541759753,11.13994799921627,31.86106986890586,53.46327119964862,6.142400501792423,31.662698196641067,-21.962602110023113,40.70044507939827,2,S02
2280,0.837765510602897,1.4917231708695313,11.095028298090833,33.54511968143677,51.75783607480514,-3.7357973673022067,33.75081160439177,-25.336774421958758,39.27148063921224,2,S02
2300,0.7485164740441672,1.4363570807036854,11.065834089122959,28.569364160859617,60.738442105763724,-5.55840118924317,33.78190894721402,-22.988265082290816,38.36582706819569,2,S02
2320,0.5741590700630427,1.4151936077529288,10.952809468328589,18.355385855900188,42.39372022855379,-12.062319369870183,33.80112217219579,-24.577458547427472,38.62445364283357,2,S02
2340,0.5439154618366496,1.1327483476606133,10.656531104158496,23.14435643795587,36.6781636768263,-15.960256210398361,31.775731329592546,-24.037009407917882,39.729257123325226,2,S02
2360,0.20440694109382573,0.7606189222238688,10.557854377142908,6.957400889156951,28.87963478431005,-23.231557813657723,33.338279979535905,-24.07103789564693,37.566515316768935,2,S02
2380,0.12188321301373206,0.6360488666708373,10.501355095494874,2.7815835180485884,18.863016712660666,-21.27334557266225,32.4390705833775,-23.250659099522267,36.0614306341836,2,S02
2400,0.17418180491760482,0.37752599178330154,10.211404802142846,2.4336542518030955,10.638987557680117,-14.145045973898009,31.372114403044293,-25.98385773770098,37.58215178245295,2,S02
2420,0.09647441033901655,0.012278342979275492,10.240682893181061,-3.3236045235105798,1.2688514636979116,-14.618344647318802,33.5633131277456,-23.179010669920157,35.8030227772817,2,S02
2440,0.0031853705293665574,-0.05990367925807981,10.329371809694901,-3.8770299204368266,-1.666149951956327,-25.59340405908311,31.337201753564923,-25.90236054970761,36.395191277303155,2,S02
2460,0.17932666004626002,-0.3037080100171268,10.147692811662827,-10.92619579417719,-9.294307975052192,-16.605344437962408,32.81454039517826,-27.998000621625796,35.13352002950377,2,S02
2480,0.12414545989123554,-0.3645095372734624,10.143753698779788,-9.608457192435072,-8.275670504616798,-5.58917832816993,31.052148323786597,-26.568033586517362,35.25826179644139,2,S02
2500,-0.022633838925905703,-0.6116878950671305,9.891210597067165,-16.942866096363733,-17.80791424059009,-0.623708816510082,31.442577048039034,-25.651176296686266,35.428755441454484,2,S02
2520,-0.014177324349309656,-0.8554988272913837,9.62808655512623,-20.014259672187013,-31.694177771359296,-2.1723327716603626,29.798688088805196,-27.512446211823665,35.740133034268794,2,S02
2540,-0.21643853687111883,-1.1810505887729297,9.461000153753146,-27.879766295882302,-31.946313891217695,-2.236191715998641,31.074023387052968,-26.245766210123218,36.0976344999856,2,S02
2560,-0.4182050051053716,-1.4081784638093144,9.393649906186168,-29.871461559948,-44.68900422334662,3.652051904497711,31.635923598476502,-27.051386152407893,32.397585700196856,2,S02
2580,-0.5080530004493704,-1.606643627903859,9.285823481185053,-32.83199226764413,-57.524861265107525,8.920783173268404,29.319326059259936,-25.188163876023697,35.33817122557471,2,S02
2600,-0.5798361105442627,-1.7129190690506984,9.093504564196987,-34.36391627271725,-59.16432842516965,14.993837536870002,28.515462745050637,-25.871360672382547,34.921313557630555,2,S02
2620,-0.7483002895482902,-1.8020494915354208,9.10545967332878,-37.941854334475494,-55.51878321986572,17.8376017281155,27.704421050833385,-26.370871498594592,34.70447671494721,2,S02
2640,-0.664845815528928,-1.7357093664940857,9.013981174928613,-34.86136445383974,-59.08531135614084,19.53236381206116,27.72978372833935,-25.253854486372568,36.61091955755958,2,S02
2660,-0.7144824484448083,-1.4326661730026398,9.333903301692633,-30.20498573099111,-42.608711019028206,22.173368748634505,27.99093429712707,-25.86561144625916,37.20317412593586,2,S02
2680,-0.27520916744244306,-0.8245650391529442,9.659123747219862,-24.11085818255143,-30.657255678176085,25.030417463405296,29.027000286696314,-27.11241005529866,37.86386400684716,2,S02
2700,0.06998535124500035,-0.3515338745737179,9.80917462856734,-17.163001978094087,-13.293825403405425,24.911190897269336,27.164000809627595,-24.29188810688462,37.88585337203992,2,S02
2720,0.26216428627432475,-0.08048940479983402,10.032647185315732,-0.9161211791494734,6.870134592595753,16.81733314187622,27.310310275352325,-23.642882647880985,36.008371831226974,2,S02
2740,0.3916194732883047,0.7129098091387469,10.548340476736172,14.508761919634686,22.473260276467133,17.80985606565261,26.8458415960218,-24.378362729039818,36.99925664424404,2,S02
2760,0.7538225857002466,0.9882765480941464,10.961246681836785,16.690494585987427,39.45808229697946,13.514104146350322,26.732646498846755,-23.69500264473151,38.11431133922522,2,S02
2780,0.8451607732536842,1.4423288348320855,10.9455708230026,27.141717721135162,47.23048682894681,14.50542947773521,25.116275475926102,-24.65450087397352,37.966383290468976,2,S02
2800,0.8366750618019907,1.5190820559460945,11.150812562282793,33.519797892760835,54.186834998316165,2.5694598103400828,27.00971934474028,-23.25645645693436,42.46018189118281,2,S02
2820,0.8297370246638869,1.7143016582516268,11.272312552131982,30.44125568173428,58.60299824076214,-4.492060699471397,24.793108744517532,-24.034543618506092,39.47775441142299,2,S02
2840,0.8351984246114427,1.4305733330448676,11.306549698254182,33.1822975233305,51.82573541795946,2.283051340612508,26.145763107497782,-23.141612626176734,39.047507744796086,2,S02
2860,0.6710948540844129,1.3685944193930248,10.996330940270033,26.10763219307827,46.95883714890002,-13.729124875026736,24.565355208876593,-22.562178954943555,37.397826938343044,2,S02
2880,0.46248102109458833,1.0360513519096184,10.715874069774637,16.15047961934068,34.3135773234589,-18.083824663108416,24.58797197257345,-23.683928289900216,36.9592947664647,2,S02
2900,0.35198991443750627,0.8556884822382222,10.596031258921709,15.160289899363619,26.52539452339313,-18.306745915689067,25.249320019549813,-20.117876937891815,39.30338073005625,2,S02
2920,0.2785983882711602,0.5579433431133498,10.321601438386647,10.934638137646392,20.351075304715398,-18.85197405555387,24.818707013499772,-20.183198772063847,38.03104390207744,2,S02
2940,0.25408409361367584,0.3885985755818661,10.389055887694768,-0.31305672607076396,10.834432364162177,-22.105611892332753,24.55756542355141,-21.5119636533267,38.00784568469425,2,S02
2960,0.04008504632810347,0.10127925900694232,10.379216245453035,-2.1516767963588146,1.5796496047409232,-17.781077939353054,25.753894685464644,-19.843595042927063,37.21277675460753,2,S02
2980,0.04754968835663857,0.09564516779710674,10.02853836127019,-10.472915771699519,-5.833978104433301,-19.238794646980896,24.482487856692885,-18.314532212696946,37.46373406945732,2,S02
3000,0.17021889702897844,-0.11936593093165948,10.126888953773419,-3.6626947517795263,-6.169256766616444,-14.13268532171454,25.014026513475294,-18.028905377618607,35.91298623481315,2,S02
3020,0.0007138556975773286,-0.395262633489149,10.23857282379607,-8.668316930686517,-10.948029458542234,-14.336679833658858,22.537377793833624,-17.408181987089193,37.441530545251304,2,S02
3040,0.0033340425434637555,-0.5790124419919163,9.854750356336009,-12.922659412361405,-18.695249724936495,-10.517302706336105,23.25560840674071,-17.75263275253222,35.25053956431134,2,S02
3060,0.03416807438696344,-0.9382586488675564,9.766905121120516,-24.641901597800494,-28.358476538240307,-1.1810648937429256,24.98287867925221,-17.13259567150735,34.52377567461701,2,S02
3080,-0.13783204858748382,-1.0596621377112632,9.648340415876072,-27.04652231787505,-32.16440298223999,1.704781127650497,24.209694279000328,-17.19468983075867,33.49589018916415,2,S02
3100,-0.33976000619355595,-1.332866749085795,9.36380680150234,-28.827083820271216,-44.13849273905946,7.059227252966494,22.264082771156453,-17.29697819976077,34.32724022335247,2,S02
3120,-0.5461943474593796,-1.6103110412379638,9.310559135731442,-30.588182375298974,-48.51921969318252,12.55318855429068,23.698211871872154,-14.349179853019722,36.1676621139735,2,S02
3140,-0.6480015142553327,-1.6229630102179753,9.124493531962177,-40.98920505512637,-57.194277992054666,12.020437231017283,24.26517888697809,-15.421794600940762,37.86193698341618,2,S02
3160,-0.5722648613640696,-1.7791727886737205,9.15455341999976,-37.04892396418781,-58.322709428664865,18.126664203963973,23.837744059612156,-14.55146985546789,35.39428990753294,2,S02
3180,-0.6741260822739936,-1.58126460706557,9.343594759327338,-36.66481633165846,-56.30519248231359,24.276775153804113,23.17701922069938,-13.532949275155717,35.65078754558038,2,S02
3200,-0.47058329239439045,-1.3350479565912563,9.38884096255822,-35.937416583046705,-49.65709822286867,20.687858118985627,23.443769918268654,-13.283009592687261,37.07136724330878,2,S02
3220,-0.4850218745426763,-1.0805096351852517,9.500268261107852,-22.35329057733693,-31.56053657030038,23.8954204849117,24.884402302752967,-14.169695235628755,37.6728855000947,2,S02
3240,-0.17920569680924928,-0.519520394058555,9.731849639391701,-11.673444015640932,-14.437665594441357,20.88179860079805,22.915434452466094,-12.70530272183391,37.692099893355774,2,S02
3260,0.11126880023480522,-0.11822944400763985,10.16285377208583,-5.282931499817554,1.4982611534315182,22.830815277427128,24.436190620576898,-12.087329357426114,38.35388995145944,2,S02
3280,0.34895094580245783,0.6519619297436374,10.475405044941725,12.146015738233121,17.986861820406116,15.991163283047328,25.23726265755942,-11.518289310101647,37.92735614913668,2,S02
3300,0.6367380674180128,1.0393801986294242,10.712245864664112,14.529618557538797,34.12685384041713,9.999047451486923,25.968583594465446,-10.698368469940363,39.88220807834053,2,S02
3320,0.791466152455913,1.4724094720358556,10.94441620750123,24.66184853247184,45.559832985840536,12.256299937912258,26.507574234327123,-12.93845473024442,39.30769826517151,2,S02
3340,0.9298289720150684,1.5418340024522157,11.157533356645718,29.91376916549176,50.76719547546872,12.799255671264703,24.476308667947432,-11.665630128029516,39.97545024721228,2,S02
3360,1.0044885784926256,1.5501100562915793,11.06957176229404,29.474064046934654,59.126604237359096,-2.963333523745054,26.431271818050433,-11.31983675791902,38.99665414461471,2,S02
3380,0.8241906830898892,1.5128223035528938,11.012584725254436,29.17666220473379,53.02524550481931,-0.9607059743734109,27.986607605703394,-7.109684160218677,37.629306972031564,2,S02
3400,0.5120035920940261,1.1527714125419346,10.924935283598055,26.266419422423976,45.49431539891711,-11.3387223539098,27.70050875813349,-11.275945270700428,38.46685399014494,2,S02
3420,0.4364546401722468,1.1713292377061308,11.047753264735528,19.2721586325406,35.48411688528685,-15.101861251997855,28.468022813927647,-8.497777055894604,40.07988767577815,2,S02
3440,0.39952692284246316,0.8575481852085216,10.676831693295298,17.033960799822673,25.6181699060094,-20.61352024776798,26.108804383207712,-9.108872579104396,38.740750730528354,2,S02
3460,0.2390490679951156,0.48561277904791916,10.413514769616949,2.816678257907256,22.493646014280536,-17.043475640622695,27.700277465167108,-8.565469517552428,37.35228245607486,2,S02
3480,0.18559748779239243,0.3455405530477777,10.379380684410917,2.600053720908174,11.230670006945164,-26.11962350859678,28.35779271387984,-9.613519849927368,37.188062348675444,2,S02
3500,0.18959331430330525,0.1784350123411784,10.314913859326902,2.471105216128273,5.218947350669999,-23.359885194168573,26.421513978693742,-7.462404968008583,36.89367319223876,2,S02
3520,0.10606017806018789,0.06980745590624429,10.30482585020808,-2.5032612511629235,2.5192329123678423,-12.704229218880768,28.589259347297784,-9.548668812344316,37.75848961133596,2,S02
3540,0.01909538704508823,-0.19348006484156133,10.139213235057625,-4.707548598511214,-7.82836739697755,-11.612847992768945,29.203067644644346,-10.126820277901944,35.918195352018,2,S02
3560,0.10295547619012568,-0.40231684144012436,10.053569026281792,-8.005555970659826,-3.960362004339265,-12.58803584468338,28.279322677666997,-9.307515854880505,36.688946040003145,2,S02
3580,0.19658896475863463,-0.4995457496366882,9.759965715312283,-13.498421810083855,-17.14518733459745,-11.38475975578786,29.83665460254843,-10.106105398978752,36.129108553564905,2,S02
3600,-0.08988362253125318,-0.7468656987542901,9.831615450124016,-18.377192133816678,-27.73790085445458,-2.774040753619089,30.655281455821264,-10.547165710421684,35.733437192204754,2,S02
3620,-0.23033144596605967,-1.0350221581133034,9.577484935785593,-26.233832059756566,-35.194300151726544,-3.514361744974907,29.970921326728472,-10.986445576886068,35.752854286803476,2,S02
3640,-0.23536739857848712,-1.2741447779521171,9.332057451352835,-18.161861201301647,-36.76738758191677,2.6059196135512877,30.01543374025305,-9.006791679398987,34.70862582692478,2,S02
3660,-0.43237717215654414,-1.5040831076462295,9.271169447158613,-34.436340666627984,-51.89845034792195,7.266175745642926,30.75744652600753,-10.656150109787331,36.877860872198134,2,S02
3680,-0.5179827503516582,-1.65507941983071,9.217053921098996,-33.49338176732742,-54.69014997504009,13.593676682628807,31.5246437081346,-12.079203268713322,37.159269781241115,2,S02
3700,-0.6573148680117282,-1.7695210611863417,9.123794771453765,-34.13796885383916,-63.294467913841274,21.559401925644128,32.78557866031852,-11.237218159807433,36.628662252136124,2,S02
3720,-0.6462125591048089,-1.7602439693953125,9.222804346084759,-37.05136723609637,-57.28846738009943,14.126327075684074,30.952406515377604,-10.792527182193027,36.49869789996889,2,S02
3740,-0.5757849874080587,-1.398702056295378,9.186666120654861,-29.251219148037904,-44.13659217835066,21.112632243065658,33.489502825824374,-10.969874007318078,35.05137785467166,2,S02
3760,-0.46620007888037696,-1.0652596881152718,9.666089881961899,-34.13014748996845,-30.56384126183232,16.570679349486603,33.124177284011324,-11.499918421223668,37.4002631976219,2,S02
3780,-0.04410808372586636,-0.5193047479571797,9.857341374359383,-18.189047046853563,-17.36624863451091,20.232856410435783,33.44789991482759,-13.84932723416885,36.95607628360271,2,S02
3800,-0.13886562736782654,-0.07537067193294264,10.409533513227165,-8.072914411119218,-1.223547035672885,21.208048728998012,30.167679899567997,-12.72615539422895,36.41330545343306,2,S02
3820,0.3650597061317524,0.39942893519969386,10.467096318556246,8.031363545917714,19.4894993821668,18.629073777149042,33.699258067206785,-12.128060640912468,36.582321172439144,2,S02
3840,0.48122795757082715,0.8746552681666804,10.782748034402736,19.15611195476024,31.172205330666895,16.87789354487668,33.10045815627862,-13.295208551009683,37.61537996335679,2,S02
3860,0.7629992733803489,1.239581457812907,11.054398107319495,22.266727050978332,47.21771478069377,6.0919510412079445,34.20049926603532,-13.556229899525318,36.7510294842005,2,S02
3880,0.8899417102929625,1.612327098467832,11.21482132724581,32.443099297231655,55.474705059997284,-0.12218770032749815,33.302594848392786,-15.29702198122847,39.24330968012403,2,S02
3900,0.937371357518813,1.6606204187085496,11.120229393668835,32.94887106262107,55.63017625141809,2.9370130727048704,33.845369467204435,-15.865406979168386,39.0263344759701,2,S02
3920,0.7886459278259499,1.5962280923514505,11.220438960284765,24.293869329894793,54.121904916579474,-1.9717155806359865,34.069878895340615,-15.565942268710524,39.433180281663425,2,S02
3940,0.6828203014898738,1.3580281525449531,10.983496045671716,24.872070825582014,47.99399618176458,-6.054247082751527,33.60379418481881,-18.73280631503909,37.92195160982072,2,S02
3960,0.5309277263768293,1.1807292566903966,10.799680471870355,18.652983592399725,38.820896781330276,-11.323261963048386,33.51716004098731,-19.095589224970617,39.05542255834252,2,S02
3980,0.3834855304828342,0.9099335333554814,10.720961553689559,11.03304285856764,28.552410354762497,-16.5840408095963,32.91670801644708,-18.182298557349537,39.12398131326954,2,S02
4000,0.2516043457337803,0.7448009640161211,10.530764844333046,5.887189230312381,20.61369327146385,-17.30969235854939,32.586288891445676,-19.91900046616352,37.71692443498143,2,S02
4020,0.09914245070734577,0.32275393658167034,10.326320768499055,4.922955454616534,18.828980870868786,-19.729781166043814,33.35219974421116,-18.995115926150802,38.52577005286189,2,S02
4040,0.1522534439152518,0.11698825457020356,10.367367652839715,0.7110053733831592,11.033046755481235,-17.70090895636799,33.39193792355756,-21.05882465327602,36.90128034169167,2,S02
4060,0.21992027179820361,-0.12320897691532076,10.133726325379476,-0.8973442034764045,3.8243775595983367,-18.10640137348406,32.689105227314585,-18.60523088082907,34.98739142486494,2,S02
4080,0.07845778902492168,0.001608096494736977,10.019225367951881,-1.6651842432288126,-1.6957789615606804,-13.692627777985432,33.43607613854381,-21.118752142241775,35.912054403947494,2,S02
4100,0.13826702121218643,-0.11425690007325956,10.024508287879646,-3.998702669482322,-5.925832955594151,-13.597731452531523,34.76121821886659,-20.964773209088502,35.148129113333184,2,S02
4120,-0.019335359469673158,-0.5010323942122503,9.974447038148694,-9.993114811395138,-17.70159381006467,-7.816157366621264,31.044332280388737,-21.664673031390528,35.513286926110325,2,S02
4140,0.06978536607844361,-0.6245695293803819,9.679277486664015,-13.591042694017354,-23.124732673167188,-10.761088749472798,32.75733237851027,-23.241089057198575,34.78402581044845,2,S02
4160,-0.18202965857176948,-1.0040771231374424,9.630071681479498,-25.176985926636142,-29.25817356401065,1.239803125343156,32.76994615045602,-25.06432895493874,34.71579123582522,2,S02
4180,-0.32029658348789736,-1.190853773627684,9.587050344533248,-33.14936087748006,-36.27971557417253,6.695040987671476,33.03928396944208,-23.255862639698268,34.89619488717724,2,S02
4200,-0.37341532810401734,-1.458106375088979,9.259292909948513,-31.838018348020753,-50.359116402429564,6.603301405798577,32.93391034318756,-23.258757334676826,35.67601576916525,2,S02
4220,-0.6218351901078054,-1.7246120012981585,9.126326255772014,-40.36164148717399,-57.284258642507325,17.885941530682636,32.822874000632915,-22.081747815127155,35.65211296345383,2,S02
4240,-0.627397121054252,-1.8446162943672921,9.140721299930318,-36.12849260456775,-55.1656305280363,21.87780234683101,32.09557127583295,-26.506655638944228,36.06258736605582,2,S02
4260,-0.6251712514435968,-1.7085805210729457,9.111351664972036,-37.4208623440886,-57.49521658160635,15.785566279962682,31.561791343398554,-24.249739524537553,35.21105070840507,2,S02
4280,-0.5461264568098606,-1.593860429891671,9.076372259213784,-38.0429079774478,-44.53123966649351,16.73117493456348,32.038634996567666,-24.672210513880813,34.57645703497606,2,S02
4300,-0.4377476175815943,-1.2552326597673233,9.559471238281727,-24.83046066742283,-37.346874566164324,24.126540584538695,31.193470814369377,-25.70678544365717,38.311971244880255,2,S02
4320,-0.22218314352113197,-0.7512405734175507,9.704440020552791,-13.05219385448855,-26.544014293644306,15.384905677676949,29.792448526664142,-25.703186230379565,36.45140188009577,2,S02
4340,-0.010121578984717328,-0.16220375096438533,9.949780865510057,-3.1170572586500547,-0.4924694583687288,22.77793940776805,28.780115284936453,-26.77059820932758,38.64131674749352,2,S02
4360,0.2944802496835024,0.47661676652731205,10.387464256746659,11.311836764786602,15.646138906630007,16.698868809336023,30.226943502365277,-26.570160420765333,38.0393664039724,2,S02
4380,0.6146780631168477,0.8536918087068994,10.82580159327463,13.20099990820274,31.617696042587045,11.559281561829925,27.71664891262585,-26.37597218351537,37.377928661896796,2,S02
4400,0.7490352542648508,1.2846129820378944,10.979332037749055,21.083374316640544,43.33136925112996,5.009172339751741,29.781122444663584,-25.247489111378403,39.08239100585663,2,S02
4420,0.9591335614948745,1.4180485018432523,11.078296175540064,25.72596113587993,48.596111274858835,3.2651050062769844,29.270080659342756,-25.127768286082134,38.36963867137044,2,S02
4440,0.8670800247910724,1.470746847505102,11.238222448538611,33.74415131272782,53.687159872546864,0.44979214869645945,29.879357364072153,-25.930121945069708,38.114759794345694,2,S02
4460,0.880006005121951,1.4488932781546837,11.171700686957756,23.793009842626493,55.08817449712213,-6.043736892707585,26.519217860361124,-25.874294610264112,36.91773594120939,2,S02
4480,0.8091009274483835,1.349826274298774,11.051818940455957,24.93995789679303,50.98030214715474,-11.403990549423936,29.50343303954829,-27.374349264003474,38.78368671947401,2,S02
4500,0.39977237612249195,1.2269835648737584,10.895547922005813,18.999175295819878,42.15500144846305,-11.553244985465527,26.658119307059593,-27.072454631824346,39.31410764339505,2,S02
4520,0.31515658024860427,0.8995796738918249,10.747517419000737,14.883246966459922,33.502471722355665,-18.3251889306692,28.545205752285913,-24.321660871092895,39.00360737261548,2,S02
4540,0.25651533943367133,0.7249874295700154,10.665156964603506,8.93978884743337,22.42502040927462,-16.579154503602904,28.141684030004285,-24.176454808351473,36.370943887288156,2,S02
4560,0.10868068708303,0.3516086367324702,10.336835933776156,3.945572161518224,7.607217231943699,-22.453428239286353,24.47566350833479,-24.605609221430363,36.99746295189202,2,S02
4580,0.16533419947460376,0.17343003834799867,10.210309980677243,1.4929279700284575,10.175350185537528,-21.98080966378182,25.015067717652745,-24.95118862109304,35.795623893129516,2,S02
4600,-0.015542248427325586,0.09536001454636739,10.039618450083195,-2.803174711288268,-0.09667357435827273,-18.388662864321194,25.64642313592806,-25.34247194799431,36.16548744052337,2,S02
4620,0.022444157106989174,-0.11565383577401542,10.198426938144529,-6.80891908950573,-7.7078202328184355,-12.105551156944667,24.489428891480557,-24.59598331176317,35.098165296416425,2,S02
4640,0.034335776041657176,-0.25673107819319546,10.14074031806212,-4.378100962061806,-8.550458323448408,-13.814702752231556,25.301254893245737,-23.272193758952923,34.14055536882665,2,S02
4660,-0.09056012444816658,-0.4193739236815572,9.977418206203765,-9.362580233696464,-10.416505448230124,-7.415969999684597,26.95977372619826,-25.441082309127637,35.02204131497267,2,S02
4680,-0.008917023893581108,-0.795843315184694,9.660392126438477,-16.61081488166765,-16.125052155334163,-13.581992804564173,23.150169364856914,-22.63345646880656,35.52185156669222,2,S02
4700,-0.18910293590522778,-0.9885901845398068,9.633494254014751,-22.095511280221817,-24.811023586530208,1.7147555702324984,25.891709138908467,-22.069702086838852,37.04584665836041,2,S02
4720,-0.19297786255258,-1.0740680708464372,9.583635360776684,-29.161888400044596,-35.86612667091592,1.7450795164860473,25.173631137047728,-19.57947956462901,35.660398366512645,2,S02
4740,-0.233074717412496,-1.4745673974842297,9.17082040124188,-26.463945704905033,-46.661331417700076,10.894187943907252,25.20201889038057,-22.64437406667675,34.983613033075706,2,S02
4760,-0.36007802707742664,-1.594774312187387,9.234137556200583,-35.95553567603007,-54.98465423803297,10.317370568521989,24.335111806489042,-22.109759404522656,36.96338359429016,2,S02
4780,-0.6730437188941555,-1.6900392096229064,9.106853052026075,-41.23848996111992,-57.8687520677449,22.862160193231045,24.94697855586808,-19.689224238445227,35.63175714458907,2,S02
4800,-0.6859181182218512,-1.6966100472208328,9.25270710883772,-43.18974784222266,-57.12765498319979,23.322259106374545,25.45719623560354,-20.01375254546587,35.19010677102251,2,S02
4820,-0.6204021535111922,-1.602880591817483,9.301567549881296,-37.56888451592662,-50.158084062008854,18.49523083596874,22.802419174122043,-19.073876929594505,36.93208937530267,2,S02
4840,-0.6094381050206155,-1.26310373489462,9.360627085302786,-32.00205285223635,-38.31425034553871,18.609150841209658,24.959218065574834,-16.45391569093143,37.7082693217562,2,S02
4860,-0.2642703237431847,-0.6549516784850693,9.706496006323698,-19.446744897908477,-25.8754681943064,24.329668845262667,23.579065655649934,-16.172956515385877,37.403393320987696,2,S02
4880,-0.03719865138741357,-0.1226980614518633,10.105985335490223,-2.5770571711366204,-8.553095608196795,22.083059777349874,24.5595101445295,-14.774560919229653,38.9687899555882,2,S02
4900,0.3563542558434758,0.3250721240807415,10.366354292398375,0.829618226000977,8.721791679028886,12.65545158191358,24.074790330322358,-15.729866286948235,37.770814063798014,2,S02
4920,0.4652595722779195,0.6691774379986624,10.754934076778698,8.656275071363048,27.821464770192865,11.365242133909238,23.906521178680954,-16.18753229529426,38.2521746632994,2,S02
4940,0.7496915961488084,1.2260723199147487,10.958888615044502,21.28926670632437,40.563021468894746,11.598534117400531,24.998434940602227,-17.098414168648638,38.4641064836393,2,S02
4960,0.9002219404274264,1.4926918674756822,11.226611044075373,29.39915143301143,52.68791365966805,2.748415318517812,24.461744566971873,-12.593964873854244,38.868311401099824,2,S02
4980,0.8515852169896644,1.5415376308920172,11.24434404932926,31.64419040917699,53.862816259184065,4.884601765103445,22.258573680892702,-13.714771811586736,40.65088722961692,2,S02
5000,0.8340176010099332,1.5556215152712327,11.184650402888847,26.920344443137907,55.35339798570698,-5.372061864526476,24.470207314198333,-13.999915360319378,41.76141134101128,2,S02
5020,0.6778072378077413,1.3739535867835906,11.007974742531426,28.399734867440184,48.66298309160549,0.2972214921559345,27.599687460447903,-13.353201550211079,38.90215275035692,2,S02
5040,0.53667549940201,1.1965648728404117,10.837409632315637,23.835604065576277,39.017569827411776,-9.501101197672924,23.912351093303986,-14.427733000226858,39.31829879153448,2,S02
5060,0.3781439912871627,0.9669286119933185,10.825809028741034,9.866785993026273,31.2469126359639,-15.894520601595724,25.5545641105802,-12.100996446968356,39.44049716689834,2,S02
5080,0.31474489259876726,0.7585878177705472,10.615884133226304,13.637418976311306,25.23108219191515,-14.49157977098982,23.621775758505457,-12.000334715470817,38.72112711107337,2,S02
5100,0.09231012021042018,0.5444905592679705,10.398897801113367,7.0459251498070605,13.89692126607555,-22.113661539385546,26.64086715897138,-9.539709469181851,38.401995470492786,2,S02
5120,0.3184609380737452,0.2612989009717943,10.330132119732413,-3.167483765833379,7.010945667688238,-18.451706303463894,24.738370104690162,-12.177650390658851,37.738068066568346,2,S02
5140,0.09007726778276615,0.11546116511091922,10.096804943194511,0.45518625204827945,-0.1657685524112471,-16.787561652742113,26.85142140887664,-11.513866106538028,37.32726708287631,2,S02
5160,0.02586614880484811,-0.10216743581572671,10.09351898060923,-2.020963162997054,-3.26389254231973,-16.169177298170126,26.883877656667547,-9.63070206658972,36.59373351294849,2,S02
5180,-0.0202034089534793,-0.30694864559875856,9.946922254058633,-8.587158996116756,-7.565229189556671,-11.974474389645113,26.706284982442305,-8.51034562165212,36.85148966220802,2,S02
5200,0.02512175679556744,-0.41133807449044335,9.985469249446487,-6.3862310723667,-17.472386018156325,-13.484598135379132,26.871203005965217,-8.780425516374557,36.48312863375178,2,S02
5220,-4.014526432985499e-05,-0.5898045377312828,9.864908769256003,-13.064428027903315,-21.1460525050798,-4.968616434237252,26.334914703649872,-10.121014709732425,34.94892365549366,2,S02
5240,-0.2605845087232782,-0.8723788093993428,9.764463468742914,-17.255211972759074,-24.245927025908557,-5.744175911337202,27.6306345164178,-8.936741864186308,34.9569119412221,2,S02
5260,-0.25048274774495116,-1.1517438599622691,9.460348138124328,-22.241008833998386,-37.88537587552803,4.049977434191193,29.08030771076714,-10.576949550149724,35.48648364687324,2,S02
5280,-0.34164538905826813,-1.4249907861875337,9.26888556833428,-32.09792145430376,-48.7500951719118,5.748957376861557,27.602576996563336,-10.58729073712804,35.0464354852669,2,S02
5300,-0.5289014596333012,-1.6317573621944197,9.311902878305068,-36.6552714506865,-52.29563619435424,11.993810959657212,29.109282731296357,-10.473314768425185,35.36500174454456,2,S02
5320,-0.6642065352486328,-1.7648664625778447,9.024085418838549,-37.09900373627622,-59.36518235449038,11.629759904975563,28.361834724426934,-8.564661469521383,37.829446046548796,2,S02
5340,-0.553327328944653,-1.7695039551343958,9.050698216736185,-34.65487048129637,-53.470252426633515,15.482506426780393,28.49061596549629,-8.556209261057859,36.16241123640959,2,S02
5360,-0.4868345437058942,-1.575321105828746,9.16052700312666,-32.12939093776968,-47.19213760814074,19.29958565239643,29.17014013154287,-10.644510312713265,34.61833674487556,2,S02
5380,-0.4992578508898369,-1.1884451774821851,9.40250256568938,-25.63459587490854,-40.832283957716484,22.59028564372671,31.57372719535765,-9.836945398990636,37.50002181512549,2,S02
5400,-0.2414685876831432,-0.8473007176986105,9.775600526418348,-20.844429315207762,-25.855969115052673,25.32976259709543,28.94794565112107,-10.262439407459059,36.5945119727438,2,S02
5420,-0.02794829387036088,-0.2849615094181731,9.900259770411765,-6.367693661608014,-4.75271538668318,17.40261319589078,31.58030362965027,-8.217140260868618,38.30960257359161,2,S02
5440,0.28306107546143255,0.3192302195021199,10.274101122801147,-1.19235147899261,9.582302080391035,17.719551009488573,29.277102449259818,-11.65557224436519,38.63488460887745,2,S02
5460,0.6298205829460302,0.8356741936739884,10.55946782792245,10.113225831010329,25.876965602375734,9.270633651678095,30.899990291069592,-11.462006482770306,37.557055240793716,2,S02
5480,0.8433118365180322,1.0916132221777926,10.84137030421641,20.924731299808666,38.45134883474427,7.079663706343789,31.821277121453193,-10.462621509616003,40.531707875236584,2,S02
5500,0.7634782923154471,1.4807036244559932,11.094373923669036,26.384430346640897,55.255048874753854,4.963867804987705,31.775092955490862,-11.343041501128251,38.65873720227568,2,S02
5520,0.9051546411961915,1.5432285312079619,11.184149698483207,30.623270343727963,53.40928495060887,1.3108773452265177,29.929457517700534,-12.227568121724165,39.40834614672572,2,S02
5540,0.9597655451430894,1.5853289126651968,11.250827508740693,26.79400986899623,51.12887149069079,-2.262662554878724,31.458691061120835,-11.455983006163407,39.611393360845774,2,S02
5560,0.6899338775370178,1.3713993652928878,11.055439605828742,25.76456053549935,46.912064377700396,-13.423838612636414,32.571032898399515,-12.846720880473228,40.22341018050812,2,S02
5580,0.621850552301096,1.3083868348077505,10.874010562108253,26.77828184136179,44.79939445384659,-16.704039691882013,33.060316079724686,-12.022978706537685,40.54494374351839,2,S02
5600,0.5260164496426631,0.9868775960491036,10.790340566407323,15.106761355232162,32.78815518737656,-14.882966420320644,33.28106935867355,-14.248790420283406,37.97519049539071,2,S02
5620,0.3682656074832281,0.7931593420894674,10.486877790001357,10.325519764972249,28.375224657131433,-17.763363960519982,34.82055163806827,-10.834960873675875,37.15997514069825,2,S02
5640,0.1289227569772141,0.4268976682539369,10.457380979280828,11.237627559937149,19.369599798032482,-16.033400386228692,31.28796930191877,-14.143327355799823,38.48960720362873,2,S02
5660,0.10236327068483746,0.25567494340433705,10.31463538658169,1.3664205253639823,10.267379202331131,-24.975719034476057,31.567506230983696,-15.518026888688386,37.899888448761445,2,S02
5680,0.12424195955539916,0.1667786155039138,10.19385500198016,-2.422460473427013,5.301111507131465,-20.83072740416936,32.300423204268085,-13.39295596335586,36.99203905995373,2,S02
5700,0.051192973361421576,0.018283575559578547,10.09103191193038,-8.548777200842746,-0.683102779180013,-21.472998312086467,32.39946260028154,-15.267359702815522,35.72144464035003,2,S02
5720,0.06690174463522133,-0.15239135727274766,9.815157002497177,-5.904698238811212,-7.790635124948426,-15.292018177227408,33.711907232332116,-17.975847085267567,36.67736466440653,2,S02
5740,0.14242996253918888,-0.3037469800390493,9.92897047738515,-2.9468892380937177,-10.223926543101033,-12.248212103332362,33.92115628843203,-17.207263063254537,38.69078861804465,2,S02
5760,0.11742447883273816,-0.5639614622825903,9.806343892582388,-8.821729312991648,-22.41616351390373,-5.109505185068453,33.49053081334,-18.812519328632302,35.26375923969067,2,S02
5780,-0.14052277658029874,-0.8609193314844417,9.815273248580946,-15.750334805361017,-27.682441490742015,0.09177149300537824,33.77488900362592,-17.557110936585723,35.70711132032627,2,S02
5800,-0.2577798552796957,-1.131176413117975,9.482878711748661,-22.17731176488955,-31.798286322712478,-2.6331778210464702,33.93561599722513,-18.259201174885774,36.00742993595758,2,S02
5820,-0.4277827039066838,-1.4695512360550629,9.472011765188816,-27.581281609413217,-48.233678746049456,7.801696355093667,33.91632391301066,-18.10885272184993,35.13790587129549,2,S02
5840,-0.48121120690120445,-1.6332923613489307,9.185259246024971,-32.63413515132846,-49.82270439606261,10.575575624945259,33.93489631634552,-17.51218419869798,35.71603766962745,2,S02
5860,-0.6033165949024757,-1.7984814144661112,8.990838102911885,-40.19577304453985,-59.688597697139606,12.010494663769842,33.241848751554116,-20.89727035382126,35.926821015632285,2,S02
5880,-0.7319211295948069,-1.7041701360200834,8.964280110061887,-39.87502594744767,-57.10114499281696,15.777751228630729,34.03440318738868,-20.64257055850271,34.09567684364323,2,S02
5900,-0.5374072317362516,-1.5668778097331502,9.11231718918184,-38.676823414529636,-57.28744095932478,19.939391372822765,32.67479509482881,-21.8636346613371,37.27900236588065,2,S02
5920,-0.47038052576912226,-1.3571472654325254,9.340398233324066,-33.46350077512984,-44.04413599005773,16.436451505552398,33.035171958933475,-20.60734395900689,38.43767371506284,2,S02
5940,-0.32965477647908703,-0.9971802206040123,9.595624825257191,-22.964132469745284,-31.240213088851608,24.799156716733943,33.78442639127434,-23.85531200132649,36.44399984948103,2,S02
5960,-0.07234469971597335,-0.4514226969797156,9.990813997470955,-14.541283005633886,-10.301970808099394,21.28485229287894,34.35774554990728,-21.878425776707836,36.74475293385528,2,S02
5980,0.2955645243199453,0.16857534980056668,10.28963993399128,0.8705895811936815,9.74640113234992,19.63422101644722,32.29004307730298,-23.14364411242054,39.35743280886501,2,S02
6000,0.42780384673858574,0.606014122300776,10.70316899742926,12.986318581594961,24.3128257262332,16.69503599573382,32.586770876104,-22.668944010358715,40.59757384306829,2,S02
6020,0.7382957724402893,0.9922432151724241,10.79791223398961,17.824672321030214,33.86511419212205,8.914876070448086,30.16914877447927,-24.950217357799616,38.77200072108871,2,S02
6040,0.7292682866700649,1.4437832242905975,11.095563348172343,31.56015472183981,50.82400737446325,4.548216277730991,31.71909612450269,-24.872862046951255,37.8901384400871,2,S02
6060,1.0362513326976817,1.678666694011207,11.233811152544456,30.01730917147174,55.989716560453914,5.347266102248527,31.32683146109278,-25.612841152304476,41.21556524404091,2,S02
6080,0.9168689970406566,1.6097639965680144,11.2459134252624,34.15727738108882,60.099149039918146,-2.20034488794335,30.187840019716848,-24.04923060508932,38.64254120054973,2,S02
6100,0.7348666955445942,1.461817942947637,11.277316563973566,35.51088338853002,48.22296703467511,-7.652466587300902,30.580510846508854,-24.842173768204944,38.65335304779825,2,S02
6120,0.638032980366338,1.2048527851613193,10.894931332657439,16.577736364335877,44.704599049696874,-15.584715381174695,31.30814349699421,-26.821672726061717,35.58684079794506,2,S02
6140,0.47494943686172464,0.9059870599034909,10.660244994010284,18.06595062939933,35.43582804638683,-15.507057364240778,29.27516296424401,-24.85289767604374,38.10863306997202,2,S02
6160,0.2123176162823391,0.7525431559411238,10.581587088816828,9.695599550012581,28.021598099954243,-13.911773413355222,29.987653967478224,-27.100941734254626,38.08196531765565,2,S02
6180,0.20701105312291584,0.5979309662567871,10.390134837257621,3.966863931277289,15.229035294145415,-13.484931987708016,28.324429431027152,-25.86885718547789,39.05995830581134,2,S02
6200,0.07960410207359703,0.2937350939857958,10.360064382575136,8.341956777090314,4.967403992981088,-21.325142785891057,29.024578536496115,-26.992247632354374,36.97513307308464,2,S02
6220,0.07093617697653012,0.1704454635716403,10.257882753694059,-0.2953403096323979,5.008003487196503,-20.336620510178125,30.04373635799615,-25.56357102106611,35.99166577298655,2,S02
6240,0.1842900645246885,0.03180917501580913,10.04939651153707,-7.5733176983933195,-1.8866267492180149,-15.509332117594285,29.847094415920292,-26.250897480068385,37.56662158749282,2,S02
6260,0.12670358401632237,-0.16798219535329784,10.200878838338737,-6.295703032374227,-7.821818866725175,-16.797229736473398,28.448601294141934,-29.158052181777,36.302435680530095,2,S02
6280,0.02393838183437727,-0.45671107495728414,9.886148939851045,-12.868656799762093,-7.826589776691407,-14.067096203755488,27.58910936233392,-27.135351418989437,35.44723039497793,2,S02
6300,0.09138742259898837,-0.5388734187530064,9.89744378807156,-13.252500341863353,-16.22184054712331,-8.855471383610345,27.343473435095426,-26.194380953753644,35.94992368831207,2,S02
6320,0.07287281926790397,-0.7854263683772367,9.674226997497916,-13.75568487940766,-22.500894074865982,-3.341222501559074,28.564524007494356,-24.726719665894027,36.04864296339758,2,S02
6340,-0.1758540614925774,-1.129194506550853,9.458527026635165,-19.44083380100061,-32.121766345458916,0.18847991892140192,28.224230812454362,-26.327040871461353,35.31820847196353,2,S02
6360,-0.3435222061773978,-1.254349071334929,9.395856612654548,-28.23018773831183,-42.033632977735635,0.07797135374372954,27.91044590201516,-25.606936641643806,37.02448992477465,2,S02
6380,-0.39164314203443684,-1.4559435185039167,9.101121955398717,-33.30777190939741,-51.356591209204225,6.417770381926563,27.368296989547908,-23.395548379662134,35.305607918683094,2,S02
6400,-0.5851942081265962,-1.6594165595109536,9.125086331542251,-39.392790189578726,-61.93866024455324,10.00556718434098,26.965240075091813,-24.322826187200818,35.471923273087455,2,S02
6420,-0.5358486898104854,-1.6388380067301473,9.188841685464908,-41.54411406840384,-59.13463955966498,13.511031300269037,25.831905678494547,-23.289872189666607,35.02912225335447,2,S02
6440,-0.7183530798436484,-1.5782218190500477,9.130678842611823,-31.551860733042922,-56.439829987046906,20.915955999573278,25.91311745826882,-22.49311961163449,37.724807104121595,2,S02
6460,-0.5312869428056992,-1.35983781908909,9.305916016610412,-31.998669045084807,-44.03291907249588,14.965072897132998,25.36653361903994,-24.205250421178427,35.4832772671529,2,S02
6480,-0.2937723644784074,-0.8654599269296348,9.654139103078116,-18.762175756054738,-31.847350845682318,21.194397293751535,25.957645295793217,-23.730139858295367,37.257965864245556,2,S02
6500,-0.12577059443774638,-0.3997743985435749,10.024007628603265,-15.531327376970474,-14.264003900411357,24.070378822139627,25.324492464514936,-21.937436112947758,37.805076843756716,2,S02
6520,0.2143739017247076,0.19237634790110586,10.219361498751505,1.9108418767788367,-2.6711173979297502,18.308536112414615,25.48942316263323,-23.2523040521042,37.128202849707286,2,S02
6540,0.34438656400205314,0.5574681705101647,10.52995998140636,9.536100643906313,17.371977097833657,11.385357263097147,23.701328322965797,-21.264747101519305,38.339065630122384,2,S02
6560,0.7957138007271508,0.9471384226158837,10.694826654562169,18.34344157234769,37.67508534663427,13.066716534572466,24.483782430064238,-21.242664972004796,38.478937849500326,2,S02
6580,0.6542399992094474,1.4296402855450807,10.969418580674073,30.201486751398757,48.69994125095634,4.18811582111014,24.816100899179844,-19.172930322652565,39.442989114257365,2,S02
6600,0.7386568702051479,1.4416814114737062,11.248970613159287,39.68109249186338,54.5820373371987,4.521222756768748,25.771507013959734,-17.857438686433042,39.422475605388264,2,S02
6620,0.8444206880773325,1.575352068344998,11.131685458498765,28.598730574102408,56.197026501631136,-6.535093057664496,24.014974023871225,-16.20215136253144,39.80706361915229,2,S02
6640,0.8007363502209814,1.476631778514892,11.158976430472533,30.800178751357688,54.295159053681814,-5.701840297927985,23.68423826189233,-18.928762035948033,39.607118461758745,2,S02
6660,0.6367223398385736,1.260736458576469,10.971912587212355,23.112222873352604,45.74661430095221,-13.15375694365427,24.034971486007585,-16.58588340953644,40.509362962109684,2,S02
6680,0.46651633644484647,0.9151967984669456,10.77481437900741,19.78456342150257,39.50872878596601,-18.600286282780033,24.573508492849072,-16.571024952405864,38.266686499343045,2,S02
6700,0.23924374827576506,0.9029724218827482,10.66807360262822,13.6047161590744,27.54799523294873,-19.519442269299535,23.93973728515392,-17.790695506460658,38.966660552159425,2,S02
6720,0.2598974983046868,0.519843336537146,10.537728454136179,9.3711049612028,18.65185816590535,-17.045605519997235,24.644696498814636,-16.187587599876302,38.463713177191195,2,S02
6740,0.10808219524012397,0.2375047936625449,10.224705088082207,2.432904828653758,15.346433940417082,-21.749009911738106,24.138657073422827,-13.226777406222677,36.9176975640681,2,S02
6760,0.009662929751815139,0.06563506694963903,10.303625824764616,2.6144092312298177,7.886394281788498,-20.01812593645572,23.87840511174175,-15.328133820947652,38.383175186268474,2,S02
6780,-0.044727365476820546,-0.05514391198751213,10.203903034548807,-2.7691021815648025,-0.31791181872260843,-21.09026043303134,24.81712496510326,-14.299423214795574,36.17349714766822,2,S02
6800,0.13318486937223928,-0.07719499998084578,10.180613913731255,-5.632003505050752,-3.0994461481851543,-17.657402176029976,24.2357507238858,-13.182922008108056,36.657422686133586,2,S02
6820,0.04319910036823106,-0.40615749219284114,9.906611148341186,-11.599148834656194,-14.971144925394364,-11.737596514610342,23.97115032118768,-13.934691345371084,37.36018456591185,2,S02
6840,0.0007478819888688537,-0.5390651943030442,9.954716410396447,-18.76268490238551,-13.209935129854525,-7.957909639372302,24.08244350710212,-11.699391855829393,35.56045993693395,2,S02
6860,-0.01766207918162009,-0.8283122752730434,9.701784808506215,-20.460143221545604,-20.40078168482054,-7.504056410988813,24.701028323219255,-12.686425833342781,36.686188305684745,2,S02
6880,-0.19823817255784296,-1.2363439973071317,9.616234509278275,-20.81490965021063,-29.52085693794798,1.583163297068276,24.14854565703727,-9.727661893319121,34.76271914900231,2,S02
6900,-0.11004672167279658,-1.3967595727275266,9.330697651097612,-25.246551188643153,-40.67539476674922,2.651893634228277,25.326059963427987,-8.972196509167425,34.60730432830866,2,S02
6920,-0.5398640139670844,-1.5235105120425805,9.20096426443727,-36.51655196984752,-53.94815501785492,7.9201539203120035,26.525282037177778,-8.383971439994205,34.93002228224694,2,S02
6940,-0.7943289172471493,-1.5745388088583825,9.128682708376916,-38.66975354089531,-53.94386117726632,12.947808745076134,24.637324253187185,-10.432415609589455,37.51164452013558,2,S02
6960,-0.6914336106847508,-1.6686600364793345,9.000018416956948,-36.01327580546722,-56.00493941856037,14.773429936656532,27.05822631062983,-11.380482813602173,36.02504171970045,2,S02
6980,-0.569915855052262,-1.696388345321244,9.184358595386957,-40.83478832404536,-55.5552631397836,9.894918209122737,24.609449692792346,-8.257788302259666,37.07471855038519,2,S02
7000,-0.6161361032184689,-1.5772760309297902,9.292465558473381,-33.929199994626444,-47.55515712916552,18.66744129886294,27.54348837543686,-9.46023512509197,38.227149377748674,2,S02
7020,-0.41626707542197217,-0.9947087841617241,9.577841407218166,-24.6923110444724,-32.42687479463966,24.113490824975727,27.210983820804085,-8.459917589415692,39.0941365953944,2,S02
7040,-0.2382799865576193,-0.6676452224196965,9.911575668124833,-12.498452961037387,-17.962434037368798,18.39365268446907,27.91643426942872,-8.755865608250382,38.15050242169359,2,S02
7060,0.017916092892233393,0.10059774637956068,10.186133406470844,-4.473994707192826,0.5941179980406266,21.13509473372915,25.511296168109396,-8.727993398124456,37.345311945734004,2,S02
7080,0.4317608198538433,0.6890177882392272,10.513002489397692,5.245058958994824,18.992827156799432,17.29083816888261,28.56694415252415,-9.447669919572478,39.37456191366938,2,S02
7100,0.6364019435071319,1.0254051334489582,10.859606552865468,15.117313163001654,30.40599926297922,8.498207303241518,29.90273352824133,-7.959503911394483,39.050032628559926,2,S02
7120,0.8827315769924479,1.388296914158998,11.125289887493814,31.968390857410785,44.31678858934592,3.258370653936431,28.55832105838849,-7.827727891673535,37.99256781221433,2,S02
7140,0.8135213099930452,1.5395855039848192,11.229547966661091,28.535424042458647,53.02474540444542,5.151247192646499,28.394271707262895,-8.336758890381862,38.34982435216282,2,S02
7160,0.8725182850091469,1.7117938313848038,11.235908755660159,31.001910244960182,53.122083412379844,0.01781229783783267,29.077109304592245,-10.319060454001798,38.03715887526237,2,S02
7180,0.8155684332409732,1.4651565458506288,11.115066686355384,25.567109193567404,49.9394540402129,-6.1502248362905565,28.93981696527366,-8.063323812680213,38.95690839530159,2,S02
7200,0.5609585018753648,1.4337703193497173,11.114763140259262,22.418183448360388,48.985092622648516,-10.131061804344382,29.576756640843865,-8.585593428864179,38.28482344917482,2,S02
7220,0.6211892017487514,1.1141164191346131,10.786271893020336,22.753848421845735,36.49127319085656,-10.435913461330534,31.466374212308814,-8.988393412592755,39.367054311333824,2,S02
7240,0.2977840852988616,0.77800295030377,10.640198641515003,14.008283816184893,31.481325763244445,-15.737872932501231,30.721535031129026,-8.702792026328472,39.25842353132752,2,S02
7260,0.08191772738266322,0.6219552012636389,10.488203632616386,6.683499100346233,19.67487583057027,-18.354714089325498,31.742942826048008,-9.368377485187274,37.16458449009869,2,S02
7280,0.15742365879108652,0.3744204464091864,10.183365582382846,-0.08905977721975944,13.210669234726828,-22.965288038368218,30.543914492445495,-10.03475755954908,37.01816955338225,2,S02
7300,0.17700525615498033,0.12259602102488226,10.343759582873949,7.9783054585470135,4.734654200231861,-14.234498564333848,31.178226835007756,-10.901798252039995,37.89999652784123,2,S02
7320,0.08593052882063662,0.019065402937582313,10.170356034338502,-5.500435444083379,7.486740256769674,-16.274101941496227,30.222500093691234,-10.75399931132387,39.24024217288188,2,S02
7340,0.20470075391113834,-0.18893271607763645,10.090210978537442,-8.103352217848453,-2.2816315859460445,-11.439367924350034,31.81817966987212,-10.974893131903167,35.8305519263738,2,S02
7360,0.03642705553922636,-0.41632277647817917,9.987274205165098,-9.804148857286556,-11.39346075671789,-14.080830163988526,33.374897448546264,-12.539413454635824,34.96504232680268,2,S02
7380,0.05635968250352822,-0.6368340206585021,9.979896842756634,-12.841621195542558,-13.973881330899406,-8.805660715458933,31.47367231708814,-12.914148367359086,36.676125837464916,2,S02
7400,0.006229008269618558,-0.7012252380147381,9.646661579207398,-15.129806805321426,-26.986062700605164,3.655135695578162,32.65054129609106,-13.369933690249871,35.36301374808323,2,S02
7420,-0.22769349288915372,-0.9700088164609475,9.605211376732942,-24.290595016491686,-33.51813759453879,2.2643766449511977,31.36889586284873,-11.125006559620218,37.240736823381226,2,S02
7440,-0.40372768831445505,-1.2646394317426055,9.398458139760605,-24.047907436196287,-39.655618680501334,2.2367221700032287,34.348135709510366,-14.816224805261822,35.657962381101825,2,S02
7460,-0.4821727165365671,-1.5243369342337258,9.24524440216514,-32.860426402336884,-57.07822075784466,9.831049819121564,33.500107195423396,-13.264760569946379,35.183561458618655,2,S02
7480,-0.7394808875643942,-1.8755408752518015,8.960501176940946,-34.2869294878385,-56.909228824242895,12.054280293157655,33.66260564653031,-15.95378460687113,35.07711607255561,2,S02
7500,-0.5320091673244883,-1.6531694046662677,9.013880788503283,-38.58337706214428,-59.11439662558536,16.58770473491989,33.21435673870073,-14.614524154570432,37.40812096655315,2,S02
7520,-0.6349905179602849,-1.6487354895859447,9.14748723249336,-38.1294385931356,-54.15075058415722,15.483278468684327,33.29318923128665,-16.000239422073477,37.39052227052437,2,S02
7540,-0.7308781646708867,-1.3903929387992606,9.150713188533272,-34.110432078440304,-47.62689846168136,21.58257647899665,34.38585086870131,-17.27946019980011,35.158126068771026,2,S02
7560,-0.5118923209260341,-1.1244601591697396,9.333231091371013,-20.674689174173448,-36.34395692899561,19.783146793165265,33.96019993399194,-16.283499243463698,38.592848440658365,2,S02
7580,-0.12331112973663241,-0.5962242140524157,9.935940710652932,-20.453657440926033,-22.605518771016595,21.434818143195557,34.04941593309343,-18.65742355661243,37.27192656229188,2,S02
7600,0.048177523545213104,0.03013556335133588,10.139649348249257,-6.198771800625836,-2.216775276696514,19.705131667307946,33.794469882532596,-16.7234093820911,37.572656171243814,2,S02
7620,0.34221581937507195,0.4609906228333959,10.493063216490027,5.2982758854727825,10.630183254949202,12.996479297154234,35.294044088627274,-18.76142811564688,37.52176529808221,2,S02
7640,0.5957105823532367,0.9905634637996337,10.793885164316304,11.797678548101722,36.213266260966385,14.275454097515498,31.88386287267493,-19.299582394156467,38.9839656236562,2,S02
7660,0.7953631750899472,1.4074518267585254,10.894744549925464,24.977992733435624,45.64293194570988,8.086339990559026,33.107988730490156,-22.449119306415835,38.982586978135934,2,S02
7680,0.8056802585489654,1.4744745632274143,11.187467736621267,32.59048659295378,46.87492101711412,1.8730377183407954,34.49864423570923,-21.513784993131083,37.42000568258451,2,S02
7700,0.9521758687670956,1.7375876430606638,11.270578946740814,28.914536385875845,55.412437919214135,-5.242189575376666,34.710489168728735,-21.517939867774665,38.212475836559115,2,S02
7720,0.7900281865544803,1.4107657994880016,11.221642959597771,28.93247376672706,55.722117679313406,-7.2179274739132016,34.08556397877024,-21.88822652089652,37.64902372807516,2,S02
7740,0.6906167304639385,1.4326287980300596,10.930162858025911,25.305129035413188,47.352643739811015,-8.64514535037138,34.07859280906598,-21.16095829268752,39.024487042297295,2,S02
7760,0.7256975344315749,1.2317561824993182,10.794009388881838,16.084529852108034,41.18835085903481,-17.037288423575422,31.863288348307695,-25.594023348497394,38.706738524087875,2,S02
7780,0.29091120193969955,0.9000433673524431,10.626404300428632,14.140104442483466,32.56837905127203,-16.435413987396107,32.52736184003231,-22.764464111750918,39.062029212790854,2,S02
7800,0.28828240771567104,0.5877883960029142,10.609761688563259,15.472082601136584,19.45521365276587,-23.70225854416326,31.85126761185394,-23.378655441598085,38.28554819293658,2,S02
7820,0.17186646016216278,0.5310438103308408,10.244532685439035,4.330033067661007,13.290846794620883,-21.160387085993076,32.48126538211511,-22.27378133467787,35.48493574125902,2,S02
7840,0.052621320096233326,0.20417488747234597,10.23785263273958,-2.622202683258513,2.9209360609421458,-20.927089783532608,33.24513297439899,-24.333113075642892,36.991202678184884,2,S02
7860,0.1067505042949164,0.10220384668308294,10.297289941571035,-0.13324345331212317,2.9441175954878975,-16.55732521568121,32.17686023324022,-23.75322943596337,36.09488839343014,2,S02
7880,0.07920977859660626,-0.20211850504808776,10.205812399916766,-8.439319269890884,-5.090616572297808,-16.06591439817082,31.45910047985777,-25.185678445371575,36.02537735878125,2,S02
7900,0.1536540633694033,-0.19819386571542444,9.89961151708896,-8.637629096330219,-10.994246006257747,-12.0548219372913,32.71378311852207,-25.0653600300603,37.581581892071924,2,S02
7920,0.0617918750969843,-0.5032022098472299,9.96832282180182,-10.59900605720599,-10.403871077570173,-10.624228709496434,30.39550416558681,-24.19804455855817,36.053441425992474,2,S02
7940,0.01836634990127395,-0.6242959398055599,9.895703256161614,-17.161514519409458,-20.143827492567087,-2.271117730057024,30.75016732703158,-26.37538048843672,35.674675389952014,2,S02
7960,-0.2148687404215818,-0.8818826062154899,9.563823890604652,-16.504980191198253,-31.76867685929888,-3.6861560967954268,31.273580146543285,-26.60962596528535,35.782325744746146,2,S02
7980,-0.3122191752975644,-1.2482996834562081,9.50977614235874,-29.377315828433293,-36.56547438642778,3.5986440100981847,29.13290304698438,-24.91782479155427,35.77538306718989,2,S02
8000,-0.3927460950950119,-1.5272703821745697,9.210655759332079,-34.10554029796709,-47.756528998223665,3.4954050394357865,29.801231695516996,-25.962257329461202,33.56441232211172,2,S02
8020,-0.5273025189433258,-1.6879782934835776,9.189845873574056,-39.427617469703,-55.03137571296246,12.180686535047723,27.732216836398745,-24.85171289268231,35.7353598353532,2,S02
8040,-0.6441933523784497,-1.9314816246767725,9.074490362274016,-37.69211483981254,-60.14545042831564,14.042958016368411,27.958476476334464,-26.444372110887375,35.236924326624504,2,S02
8060,-0.6660670548839334,-1.6818803733294727,9.062809812568482,-40.392011578550786,-54.37461925069133,18.14505518537103,28.633595891030023,-26.116084112540204,36.930573261665714,2,S02
8080,-0.5974108357878297,-1.4603449899181802,9.247055437497725,-33.36171115241505,-49.78891603951176,21.46189356836427,28.016195422726966,-25.49951625931454,35.593911395990226,2,S02
8100,-0.44582854774573455,-1.0260277127636328,9.52762587979752,-29.040288311017857,-30.905308060103934,19.433156799870787,27.49240023421978,-26.765827775570244,35.29894482795319,2,S02
8120,-0.311656266972156,-0.4288771660161304,9.551936937394471,-17.06545342577851,-25.065587068090128,17.523796004718854,28.93271523969174,-25.556119131151775,37.458149805249754,2,S02
8140,0.08512868851835,-0.19420951746625384,10.192094873121603,-6.696413875411201,-2.3180230596344495,20.81304491095275,26.97351182877899,-23.709056646938564,37.34955498520147,2,S02
8160,0.26509590546296585,0.3757248970659408,10.437183580572748,3.028097512482886,10.351528430999792,15.242962735298967,27.446752859041236,-23.781009790919136,38.511017516079534,2,S02
8180,0.6149355943530048,0.7933615450709877,10.821366482219398,18.444528457084225,35.555340287855365,14.776020980236176,26.831881440426372,-23.744690013207233,37.976997655866775,2,S02
8200,0.6765871964527274,1.3068910721288307,10.96252252570144,21.292850109827814,45.034438844140986,13.785018707043058,25.661397953433948,-22.940731288313124,38.35769316608729,2,S02
8220,0.9990452786848179,1.5758997160529782,11.127177349295883,28.732370639906616,57.169689906527864,1.3343610173061844,26.353796907696662,-23.43816779716925,39.04077676879386,2,S02
8240,0.8149278535852823,1.58551583912009,11.131842907433397,36.538085962229694,55.15895534710955,-3.2542611230969856,25.736646643610136,-22.560423534659456,39.91246986798329,2,S02
8260,0.8254616915343633,1.5421548473079367,11.088081301099221,28.149180927318422,57.58545196842074,-5.658979170281705,25.298540731396763,-22.681312848400214,39.33464870323719,2,S02
8280,0.6417509504755626,1.4765906791688428,10.929014237421493,27.83807824654693,44.728926421666614,-7.059415338918979,24.88451175072506,-21.936114994957272,41.6806546591063,2,S02
8300,0.45762522303075037,1.273733242327411,10.806479207945703,21.72300266391603,39.55599063311568,-10.514929202820822,26.167532893284726,-22.172758376548195,39.13877475861519,2,S02
8320,0.32948756327308454,1.0909486198498406,10.897355805389756,12.370648220133333,29.046413181684027,-16.404362017554224,26.08314102078153,-20.718519908214105,37.35102677823866,2,S02
8340,0.24351194659146252,0.5097651084270147,10.459526461242994,9.35825599016869,25.201833428663985,-20.9659978277795,24.45622412579027,-19.886540787018085,40.21018187328633,2,S02
8360,0.09411925204482842,0.3807732670467429,10.24952599613037,7.021684293027273,9.915690059944534,-25.14482853363315,25.67880568262759,-21.880921368592663,36.2543372474178,2,S02
8380,0.20730717527117037,0.2690313134600642,10.28145922676666,-1.6850261879939703,6.6890563352102985,-15.899635242828618,23.90356735222253,-20.881326019817244,36.02717811307193,2,S02
8400,-0.0019879681873977845,0.026653419463666186,10.160853840131484,1.8727162327978348,0.7993693253398879,-14.959164415210957,24.734181862048313,-17.819703821641905,36.72644403569015,2,S02
8420,0.12622041331821215,-0.17725434306213078,10.017979719674505,-9.535303602893784,-1.076360468717467,-16.3942000018283,24.765397610666447,-18.100012950352053,35.649385440795825,2,S02
8440,0.07651073340919635,-0.3024944436258642,10.07899506172681,-7.660405709893347,-10.443090391137893,-16.146639208175742,24.949313676486675,-19.899810984950076,34.966316339206784,2,S02
8460,0.12681694812725464,-0.46765511594490583,9.892307086423683,-9.48471016048782,-12.070344877242093,-17.025249115567316,24.356078688324054,-17.311981362572375,35.62356152672324,2,S02
8480,-0.04828263507370703,-0.5274642640813224,9.839187581860546,-21.607241970935764,-20.54974925994688,-2.053818769745558,24.338673615760072,-17.32887436660098,34.69301495425628,2,S02
8500,-0.11647185179251474,-0.8980414471697646,9.755342762452651,-20.287983219557102,-28.05022983738979,-2.9942250934819556,24.365964378583282,-15.921172947260025,34.26866472434819,2,S02
8520,-0.386314497621281,-1.3198038714879872,9.321884106938121,-28.610339986121307,-41.27206880828292,-0.8466710829499796,24.757825674425142,-14.394647271557417,35.653216819710465,2,S02
8540,-0.5106405611621169,-1.3910355709093816,9.422457431265556,-30.299105191118365,-47.315172801003804,3.8846940228536266,25.41505126659744,-15.632999469200298,35.00782547187928,2,S02
8560,-0.639416890675444,-1.7310822812457292,9.225825578155174,-32.768681050659126,-58.78578016126197,13.728309849020084,25.27637741317008,-15.300214838597268,35.19072487835318,2,S02
8580,-0.649628490112486,-1.7406603784738586,9.153215595082719,-38.6698015888541,-61.138624211627615,17.39098228347917,23.856987266133586,-13.87038924297151,36.76818363722022,2,S02
8600,-0.6153262249778376,-1.7730268273511949,9.036405255603954,-35.7872880468461,-56.39251783843597,14.22426544283751,23.787008661095562,-13.20220111139779,35.81080276362933,2,S02
8620,-0.5641696733277104,-1.4974940186772345,9.183054035152239,-33.840488193891545,-55.59374133726037,18.80440543959219,25.323909837650277,-11.852158624201646,35.784665612104654,2,S02
8640,-0.46067743483735113,-1.2063276638051195,9.382458745894393,-23.473776679223107,-38.95871938032073,25.83134371929477,23.855989533351305,-14.032506936562136,36.8448222960237,2,S02
8660,-0.19577721976873022,-0.7302368336451133,9.826376065899996,-21.74330448552148,-23.504417459684994,16.109759804186965,25.077671084293108,-12.333192742739715,37.00611205090119,2,S02
8680,-0.06262381009602744,-0.13276601804564786,10.089206189812021,-7.488662907786125,-6.763619198570213,15.842844602206421,25.008206004652507,-11.954693094587219,38.40559680805987,2,S02
8700,0.14862385978297007,0.3327789630789123,10.456116703000038,1.1951901186727527,13.958967097292756,20.95815722595961,25.792449563700117,-12.124655398174951,39.79349501019846,2,S02
8720,0.5326935655894337,0.8935904892697579,10.626874658539377,9.897423916957443,26.845437986226226,12.645475372913886,26.061874341474187,-10.402549989920814,37.94718266025531,2,S02
8740,0.6905664675377239,1.1487040910044877,11.034832482412098,26.31380664106533,43.31468520391428,14.252818569472725,23.29359949436057,-9.857773425940044,38.641490673978375,2,S02
8760,0.8051348188618793,1.5715220099103118,11.146284476180755,27.931977952832323,52.9373632778961,1.5651937481666343,24.63738883944387,-8.443051703672136,38.702446427566855,2,S02
8780,0.8818105145298281,1.569746746783079,11.119960558088525,30.561283125609105,62.44595504372902,-0.28942303035530814,26.550161046020012,-11.40119326864356,39.489674629084384,2,S02
8800,0.7474253237616728,1.6470734209887803,11.209809438627598,31.34028255932574,51.96510241211088,-6.455494972351602,26.22572169874087,-9.296983290530338,39.01047674752635,2,S02
8820,0.7481780971767431,1.433939130647463,11.065400136950894,26.959334991902157,50.66329711797305,-4.544016781918825,26.39202640816207,-10.089169061232049,37.95414233553622,2,S02
8840,0.6258871247130389,1.2527032953417157,10.956112641420345,20.387143897558808,40.630004323686414,-17.861624221915125,26.563527886815447,-7.765737792237931,40.5173329957552,2,S02
8860,0.4928677041697055,0.97222313528075,10.82545794196108,14.867673606961972,34.67771820457541,-9.938043849600504,28.067455309946624,-6.869734520808705,40.50270514826822,2,S02
8880,0.184459669227788,0.8555640537130267,10.480151136307484,7.009023494117119,19.68329181494911,-13.115195869115917,27.542339983470114,-9.272848531008087,38.45343723080943,2,S02
8900,0.19277604279762156,0.3887432189262926,10.477845196149694,2.1450518668519996,13.78977247990557,-21.74460478072845,29.366757005619974,-10.242687296162837,36.651576193396835,2,S02
8920,0.2702956301014929,0.3644797093257092,10.444831770167388,4.068616952797764,6.892496305805346,-24.229574721800866,29.108770651158594,-8.22853488298053,36.81248303075546,2,S02
8940,0.05379218419817823,0.020432818564009164,10.14528000248411,-5.412992470626428,2.692050740972811,-15.054256870782183,29.838741263335148,-7.8140010364838375,36.67351345037945,2,S02
8960,-0.027240424764202714,0.04548082610751708,10.230874599969836,-4.371277876574343,-1.7715481823065091,-15.210442786868006,29.094914859173908,-9.596243651013726,36.41196621248279,2,S02
8980,0.025401918017812317,-0.24141841061094174,10.051282935378875,-10.687684993127572,-5.411590290430111,-18.872326664486284,30.501888093254067,-9.609095283565399,35.89365713217511,2,S02
9000,0.04733430642998709,-0.37191082464249825,9.95100089920164,-9.543261012119203,-13.239987349120081,-7.67474955584626,30.639197584163988,-10.427545343312856,36.27784369631337,2,S02
9020,0.057832122021768184,-0.7580945044168101,9.82051328928115,-15.295585898993632,-20.707994654951126,-3.6503032917473104,32.4066554689807,-8.950118097768357,35.90389790723987,2,S02
9040,-0.24207148657596897,-0.9542311964880723,9.779097132674817,-23.44643432459674,-27.080294931074327,-6.621662090236343,31.141410250853276,-11.10449810194164,36.546913884767285,2,S02
9060,-0.22115928242595176,-1.162004296205559,9.64397846533624,-25.153495706223012,-39.16593235255821,6.8353954554805725,31.34015021981652,-10.35311294129969,36.08847686772186,2,S02
9080,-0.41733965418168795,-1.4374275092279072,9.409548518446616,-31.366503278564366,-48.88258605529681,11.544788176050059,33.2177190481199,-11.291371181973865,36.3554836476939,2,S02
9100,-0.48092374088872303,-1.5950213160401665,9.157818018899004,-31.88418810047503,-54.29656084666131,13.143216022840171,31.823382144581924,-10.761720792759744,37.85401736698114,2,S02
9120,-0.6917404587090779,-1.6300948886954045,9.152708422225217,-38.979564028084226,-57.57242139488485,11.48016483480898,31.70185022852699,-11.343507369673992,36.0762633344387,2,S02
9140,-0.6701759041993769,-1.7231874949470423,9.17478778951681,-42.05700580362334,-55.570393087474066,21.224017445209792,31.43371340588061,-9.928060950413247,35.68592244852955,2,S02
9160,-0.5082176674569803,-1.6473265763991436,9.147060753330518,-38.731392356925404,-54.37921908984905,19.44135482576587,31.43159513612983,-10.81662905354912,36.67257829068273,2,S02
9180,-0.410738755331461,-1.2008635942476265,9.37260400877357,-32.95644439676174,-41.74643655804304,19.83990871006105,34.182863024708055,-12.440103613893328,34.996656367053575,2,S02
9200,-0.3246728818420801,-0.9645107792720753,9.679097716295772,-19.76301863667277,-29.881574904936155,25.673885790171028,31.943656894931703,-11.393770882331573,38.31065452930917,2,S02
9220,-0.02047879990108209,-0.23399247455943484,10.056845053147217,-4.285210092159991,-6.384105579639701,22.38391602587741,35.078087958003,-14.390426569698526,37.120158670734796,2,S02
9240,0.19939490983343,0.19480423954145626,10.365440444316864,2.993166974778796,6.82721934868952,17.84303722398197,33.110364846077324,-14.221878739895232,38.289249108356366,2,S02
9260,0.7264973841691407,0.6331122131121654,10.646108423234347,9.523294297642725,25.358338181075528,15.345177286508614,32.57232829043867,-13.817868545458051,38.60815145382178,2,S02
9280,0.7318329890121399,1.0548663147189807,10.922015482226648,17.08679126828999,41.52603259275776,10.574852912800818,35.72852729282371,-15.776762319904734,39.48822639331531,2,S02
9300,0.7840573055841387,1.4489456843694444,11.21190525211894,25.577404120145825,54.8823416451685,5.888729083285179,35.192227351622165,-16.75211687756195,39.215644634236135,2,S02
9320,0.9574668702671024,1.6427333576672756,11.130362479730886,24.61184123311268,56.23490631504987,0.540968775315247,33.108023330355394,-17.046624641003064,38.744058047731805,2,S02
9340,0.7278828658173307,1.746395191662424,11.179976457270197,29.845922546139636,57.442730246252,-4.56640538258437,33.34800517973767,-16.075388610138496,38.99694865315609,2,S02
9360,0.7929748518067427,1.421389068916937,11.108244328584155,26.484341587396933,47.64368515827139,-4.262601078628624,33.817337432714844,-18.053502449683993,39.728936292129575,2,S02
9380,0.47106546087629186,1.4044526222964129,10.880130582843362,24.665522859551206,41.147928100344735,-13.116227789233324,32.74458025070975,-15.23313653416142,38.801407489736036,2,S02
9400,0.45838576227719496,1.0315770336306396,10.80069610199382,16.7552526329347,29.39111984769404,-17.88587320262593,34.15812642052657,-20.391510465985434,39.07140859795016,2,S02
9420,0.30589830026332876,0.5997361417923168,10.501476437407709,7.774564942470133,25.632330592541916,-19.434245576153412,33.164436198526914,-18.201498774079894,36.00356480476376,2,S02
9440,0.16328359849624685,0.4286784404180814,10.480815141932688,3.845107360842312,14.534872881032173,-19.928410911235027,35.49582282178946,-20.53706017427362,37.794479111404854,2,S02
9460,0.2491637838970038,0.25074573631353997,10.371003878465938,0.34381021590431526,10.655276318833495,-19.234719931061566,33.56252121108777,-20.12881909662771,37.627077227388604,2,S02
9480,-0.09201964433254942,0.07046797990997694,10.197771091882824,2.2436719664449907,4.84350058606481,-17.690085230034743,35.71860996468661,-18.271682653779145,36.80741137417183,2,S02
9500,0.11484751783299427,-0.013219621197385317,10.17262129638607,-6.097751554504375,-6.1356476761037735,-15.364495595926007,33.43766703564549,-20.363464743691466,35.838522538612764,2,S02
9520,0.07467212419296962,-0.18574959697001897,9.994857692114381,-7.0391221089845,-4.129635897968437,-11.622663681810376,33.3586372561324,-21.080640146684615,36.89028083317908,2,S02
9540,-0.03357538217281683,-0.3732902704847597,10.038619730904081,-7.667846690807526,-10.848014879598702,-9.31035378496439,33.18414061169101,-20.797594421789032,37.02521879524906,2,S02
9560,0.08204082235098112,-0.7161831635896461,9.942196329218907,-14.35731864478014,-15.28899907233053,-9.35221376838963,32.47990867132641,-22.389066536952186,36.32470352331429,2,S02
9580,-0.08326391466196034,-0.8775232345159785,9.626511453712032,-22.330610511720142,-22.70179873677608,0.8677485477257995,32.339617798481235,-22.7151337893749,36.97242156503412,2,S02
9600,-0.264770097456255,-1.2195572108200483,9.494535007499579,-22.744663928441245,-33.2517313570292,2.9998695022765776,32.652525756230375,-25.700997940493608,35.08142638773322,2,S02
9620,-0.2970956862628005,-1.403034979210335,9.296570970886732,-26.168965673247826,-44.996622184050075,4.783107081853423,31.454271435747277,-24.114132988254266,35.365626986796045,2,S02
9640,-0.5661361349753583,-1.4188307958450346,9.36660545250544,-36.8773298747564,-58.606417735252165,18.235543201652867,31.665969737376344,-23.32567380593832,34.95697098240205,2,S02
9660,-0.6353114052656067,-1.7514940223655189,9.115118168308454,-38.150816080524095,-51.44026411106655,15.577298191811659,30.79188858479539,-24.000147970829,33.691741820421214,2,S02
9680,-0.6622618913290892,-1.6258674010207685,9.18226628885599,-36.17423092998136,-51.04142408024206,16.788910186393135,30.254690506775464,-24.44407025242466,36.71405513530003,2,S02
9700,-0.5886595082737606,-1.482464664628041,9.138169821045214,-32.52247802242774,-49.45242937791301,16.448886778694263,30.103876115431085,-25.95215428159508,35.63486789718398,2,S02
9720,-0.4064838424084487,-1.3145584404282253,9.357063260304521,-37.32136422108944,-39.36195707053338,20.650502048558074,30.59414096123556,-26.191168704489208,35.78717357224602,2,S02
9740,-0.3909623544536238,-0.7333966136157459,9.61152001590785,-17.38315597272127,-27.362738307755844,16.824487892388277,29.60353061837755,-27.420855448464398,39.020665209353844,2,S02
9760,0.021713290962509388,-0.32204796418635573,9.941608852111065,-11.117332849138847,-11.336164994434192,21.052716006106937,31.833192895478064,-24.71352537375216,37.75052293928605,2,S02
9780,0.2485521571111216,0.15177533254694392,10.365053634049273,5.928816921566805,4.34324424156396,21.267504825047105,29.994006825295223,-23.171991074852173,38.42402801179703,2,S02
9800,0.4579253762852342,0.587930935604011,10.641069246696137,12.267665964714023,24.071850329336065,12.001004010273585,28.074609998449336,-24.302122955836058,41.86736610615099,2,S02
9820,0.7604306295974341,1.140560822859796,10.86835365622076,25.14281188219846,41.89734605303147,12.044278349226188,28.627180623365053,-25.577868877948088,39.67239751043863,2,S02
9840,0.6973274293122775,1.4201104217533438,10.921842711130877,26.302560691474408,51.317484736532016,8.808538673488316,28.978429046986733,-24.08285588815814,39.663537771670086,2,S02
9860,0.9749326028949924,1.5238024594948834,11.066659659803637,35.4773139691647,53.99245403886023,1.9948305187349256,28.098473655672084,-24.139688019711784,38.715114940655226,2,S02
9880,0.9035857997232608,1.6149379606321006,11.185786830658376,31.422959105183043,51.591776343724945,-7.645865095917058,29.92336975865615,-25.352264466180802,39.86911861470378,2,S02
9900,0.7743095027954552,1.5236676944105403,11.028971228908267,25.07180464872903,51.18083341476064,-8.380764496901515,27.20890386376198,-26.847460544484797,39.45420482538658,2,S02
9920,0.6824139560571743,1.3747475310875645,10.92686267962713,16.74119075691686,42.9512705435775,-12.899522189370282,29.304563624979483,-27.647270277889813,37.969751172836915,2,S02
9940,0.39292025627501204,1.0757353653266504,10.863379270080191,17.351809572950703,33.20608719289417,-17.508719223639595,27.373709076588423,-25.595260805271476,39.245338112103596,2,S02
9960,0.38213591997689633,0.7169730011079534,10.720927078700592,6.691704759350023,23.48267137800553,-15.515440244822722,27.41159487955827,-25.84644045114588,38.89550843985826,2,S02
9980,0.22982522974216538,0.5375790436974734,10.457105906327078,9.195179778288452,19.07813334141463,-21.721899972050252,25.111270987076924,-23.09187425471209,37.55405364342574,2,S02
10000,0.2705517226963017,0.278588848257061,10.426299940165473,-2.348175686432625,12.841616092297926,-17.679566905385123,26.724921181339294,-24.781670160881976,34.87912933273631,2,S02
10020,-0.016153556494716503,0.23336057462378623,10.129814065658595,-0.25160030487532925,6.655497252686154,-16.61491235195173,25.8478992479819,-22.713136444406338,38.38609306705465,2,S02
10040,0.2185857629047936,-0.15534820415228234,10.056426291427963,-5.909041069323846,3.7359528467890266,-22.2518300373617,26.218603283484036,-22.68296484217884,33.82726466118367,2,S02
10060,0.02297537176288718,-0.08128646716442381,10.068430996586523,-8.456002759834675,-3.3476652707046908,-16.77935907041495,25.697982770118465,-23.077352781950545,34.52331478365318,2,S02
10080,0.04868170859958047,-0.3588101823341803,10.060643839244165,-7.99475765610552,-11.59647562236574,-14.91463779496918,25.862764794859782,-24.28363022434719,35.70377681940073,2,S02
10100,-0.01363627868355416,-0.6318407970692934,10.038986456516724,-14.465671999974386,-18.332215435024114,-4.358051142635748,23.806954851047024,-21.51296747631909,35.55446938946668,2,S02
10120,-0.04124762094521414,-0.7159567699768228,9.790452280851513,-22.01744035702312,-26.429477845104987,-1.5064896518736588,24.95981705678833,-19.415070609279546,36.57188804166257,2,S02
10140,-0.38729697917063477,-1.0846341990601789,9.51668371693194,-21.73949533485719,-35.737653286758004,4.155658119054106,25.45775233424642,-22.31375235008514,35.300822395047824,2,S02
10160,-0.2302281589700517,-1.400725782707464,9.38927519136141,-31.786716241408776,-43.165227588517794,4.197585437720883,24.82854302932737,-22.54197207887995,34.96985247873184,2,S02
10180,-0.6277658936550133,-1.5721370600098346,9.358089247817485,-37.822703375150624,-52.52171161280031,6.844011072010526,23.40781156122135,-20.426970458148297,36.208492979840535,2,S02
10200,-0.6267445447698714,-1.639821420212194,9.18930719765333,-38.38126755423028,-53.80313858082325,19.16465476207061,24.16376540120697,-21.029235897379074,35.66832857916921,2,S02
10220,-0.7305028508103089,-1.6268056463896914,8.950417692805907,-35.68575370320169,-56.309796114438285,20.249164220213643,25.381775702638627,-19.563749315903472,35.55902927609992,2,S02
10240,-0.46092458916731094,-1.5552253902538302,9.106483512595663,-40.03550662376622,-53.5385092456351,20.207103256746638,25.22193305590207,-19.27390632376237,35.43901759900895,2,S02
10260,-0.5128123485059852,-1.4670341692479467,9.409880536495706,-34.047659824611614,-43.61935987011465,19.341098249672996,23.48479400910222,-20.541824414476693,38.673183541811504,2,S02
10280,-0.2637934017225989,-0.9228731475710816,9.545616842839285,-21.145726292680077,-25.384987879408044,20.549361630166707,24.492576135318465,-19.20608670920561,39.75978414367186,2,S02
10300,-0.11848360135252023,-0.4601369958260294,9.88529814840414,-10.931400563837029,-16.810411482636685,19.324113961885892,25.357799133784553,-15.796668789351235,36.72089093263579,2,S02
10320,0.2760544958048631,-0.012407637539385855,10.191000483659153,-1.3152267645701277,-2.226567344231597,12.414465950718299,24.694664358413704,-16.38003574502946,37.80735956641303,2,S02
10340,0.4626078708430573,0.5051232132306926,10.53655438226115,9.284055097319104,20.176579629016512,14.91809334729634,23.973386123250812,-15.106012229966229,37.53761829137444,2,S02
10360,0.7842039391749247,0.9798232358803229,10.801552132743868,17.683514615293667,41.62972434271054,7.979752142932672,24.29092004868472,-14.810572809878263,39.13879496891303,2,S02
10380,0.9308302175224604,1.2140612410297944,11.058876067938222,23.413046884087155,43.99678235340044,7.513008254785769,24.81984163002167,-16.481273809809295,38.467269011641626,2,S02
10400,0.9805279151996547,1.4568122034329956,11.43416032472913,33.460091558395604,56.31913889809079,-2.1278981539884265,23.36179971689227,-13.75426652859883,39.8194182494335,2,S02
10420,0.9023285728566474,1.59266849521388,11.127183999281877,37.402584689697726,50.37400026477872,-0.2390814499769781,23.40042604921721,-13.874194786257867,41.41219024155092,2,S02
10440,0.8774649312795841,1.4975623455267344,11.209790924055072,31.698461205122843,56.80217211797446,-4.939182811797863,25.34018822828422,-11.678847259635672,38.98594743942372,2,S02
10460,0.6810756816827648,1.3925870014496926,11.00982516224536,27.962079499438804,43.19864311678739,-9.44031339964702,23.430299595733192,-11.871605425362016,39.106994327947454,2,S02
10480,0.41858033381608717,1.0303753665200373,10.80285564778371,17.162326873911073,38.61868528147911,-9.258827693440178,25.875655026691803,-12.211530859654317,38.38340808304012,2,S02
10500,0.22674937079862206,0.8864423166586675,10.611413176964746,7.627443741647711,23.457391814341868,-16.328620130639376,26.414825320713962,-12.716983119816804,37.95681125286341,2,S02
10520,0.32731828486032016,0.608170375932293,10.428890383359636,6.988098436766257,10.86940665536314,-20.63802295088288,24.977776695625195,-12.27949871965455,38.07731409967587,2,S02
10540,0.07493676688196259,0.23175931761644225,10.347655066613983,5.770612181784638,12.206817460399806,-19.57294267131108,25.43313860505476,-10.242970456941089,37.12447231374427,2,S02
10560,0.2237207024983544,0.17896625512980033,10.237108964798109,-1.6672215048264492,2.5858521222478483,-19.44783835533672,25.944944748330748,-11.374298406087949,36.65830305405125,2,S02
10580,0.07346527666324607,-0.05808282765969302,10.09187223266151,-3.9490484503552583,-2.9479113064506715,-15.661305931379717,26.489583354406907,-9.905712576069455,34.882735101401,2,S02
10600,0.16825845498485514,-0.1859038900508,9.95489896718214,-3.4082966552218386,-3.7944573980541954,-11.628512157548295,26.961730951951306,-11.008674878144351,36.4958466959169,2,S02
10620,0.05696409632587076,-0.4746042544645861,10.004410572543613,-13.777545399167643,-11.159368019488078,-16.080216783994267,25.33594624267748,-10.291313737101962,37.15396515708372,2,S02
10640,0.09110595450701016,-0.505248719120425,9.989822640350512,-9.693383529698021,-12.700568325699804,-14.545976198924487,25.683565682482033,-7.191481596034822,35.844144830979836,2,S02
10660,0.024726149615622334,-0.6831795176599009,9.74076662100224,-18.29958445792146,-24.928334029217858,-7.117251570445568,27.24697813031335,-10.993385334337898,36.7056032793146,2,S02
10680,-0.184749601025379,-0.975473640552097,9.757456758959504,-21.877802947741177,-32.62425392505401,-6.224124972890867,28.193532818858486,-9.580746563029077,34.82905957002261,2,S02
10700,-0.309939568283773,-1.263510054064318,9.467341604009485,-25.390092949187554,-44.81953191664224,10.034198329570756,27.857465179232797,-8.789767557605005,36.80146197338398,2,S02
10720,-0.40623782631532246,-1.583187349763402,9.369849506202078,-34.20767984391408,-55.72747548492987,11.264133848493437,27.79210440216576,-9.519507778241026,36.346024052159784,2,S02
10740,-0.7544797873023539,-1.6519692589174335,9.063226902734169,-33.71435393920215,-57.26038474482296,16.49647275083528,28.471642675499734,-10.663236877319349,33.587860818763446,2,S02
10760,-0.6172608929311391,-1.7268097769441488,9.018203884432383,-32.53261759813387,-58.76300676506549,18.538744476653882,27.94178464330293,-7.908821794357297,35.96587621549381,2,S02
10780,-0.718426429557223,-1.6068652205324874,9.214374417696916,-37.192132701322166,-59.42658784261864,16.77540205124383,28.09502841469024,-7.107451819341345,36.02718887661447,2,S02
10800,-0.603904229955889,-1.5038734140858516,9.234476828114923,-33.34441083691795,-45.157299666489465,19.069082708205514,28.720367169882824,-10.946929601850456,36.631582168724954,2,S02
10820,-0.37188412897629586,-1.0904431331206117,9.593753196609317,-21.82282861226196,-32.301615240164764,19.99218069517988,32.0495212094154,-8.50216595443412,36.964334452097724,2,S02
10840,-0.20797479680359035,-0.5540577080148525,9.879217776866197,-14.50918059758952,-23.574476286677772,18.403144203488406,31.02853935963091,-11.338452726344196,37.20091119426973,2,S02
10860,0.09572956933667644,-0.0530618621610586,10.087373594373917,-3.576181847543398,2.340788442185823,17.556995739434985,31.044234724805165,-9.5281273679362,38.57549787961571,2,S02
10880,0.3889032349917456,0.46678580095121774,10.536287608850957,8.311575378058826,14.52794500356741,21.824017634244733,31.232337821135243,-9.382472222207928,39.913017035954255,2,S02
10900,0.5651442368266638,0.892581676792223,10.740251506284178,17.822748974098857,30.481244864508295,14.67215983441791,32.14779003924072,-9.636254551469566,39.94309071202394,2,S02
10920,0.8318550141832443,1.2150582600458602,11.09878784160711,24.61161627521457,50.87623357210512,5.874156052055224,33.83771769651011,-12.535211215826838,40.035087265813296,2,S02
10940,0.859397478982243,1.5151330978000457,11.183356144997976,31.042546865520098,54.10491424248994,-3.458526470698694,31.836933575677744,-11.68782183242844,39.51105357851435,2,S02
10960,1.0185434002651788,1.4590295195697978,11.313014949230011,31.611517117309017,55.38856654156973,-0.8227122073151213,31.355923793377674,-10.882689895738979,41.02913565946333,2,S02
10980,0.7442292275118142,1.571426866087994,11.052268923834026,29.254053993959605,52.8167577377495,-8.490979818340405,33.901349921884204,-11.192635778385593,39.70365123066254,2,S02
11000,0.5281940813651833,1.3729091652548884,11.032934322001852,23.519476673850725,49.913122681969135,-8.777413783913081,32.71997083669519,-12.342926492491236,38.35327547025372,2,S02
11020,0.5772636302452454,1.1474971378002776,10.924895932914643,16.749728133876545,41.930907239732605,-23.712163197284973,31.627204128094697,-15.236908291417153,37.99345203940806,2,S02
11040,0.34708963447792274,0.8069263407418039,10.666695406756585,9.825873154726697,30.055663331021186,-18.45088663408918,33.19909898677051,-13.38829650290188,40.07605344725283,2,S02
11060,0.1155390947523705,0.6250776763644883,10.423565809909846,9.604959475909542,14.961513138257082,-21.148236070600163,32.95764229850677,-11.77064034829832,36.21494481308963,2,S02
11080,0.07874220692672346,0.3560941145630206,10.438547975394542,1.1603454922819738,14.945907739461521,-19.364576084314884,33.18392695470917,-14.43479214027661,38.21265828767592,2,S02
11100,0.20667988774238677,0.20841821747982553,10.18328217570766,-4.609734949366963,12.993452436420087,-23.38255837907267,35.147120157419366,-17.006819857357193,34.76434369412246,2,S02
11120,0.18409590077088814,0.09530301409455649,10.183927825147697,-5.172162162024927,1.8534851017145206,-13.136417854218841,32.15827425541647,-16.687685540746827,36.414942723393885,2,S02
11140,0.010522952842765193,-0.23947523018293182,10.18830720549839,2.8852014806339783,-5.701547381408662,-15.754002848318153,33.67611007223362,-16.753218495960652,36.637647837725765,2,S02
11160,0.1559620075156472,-0.28030684399643935,10.041972905222638,-5.480540697559347,-8.562545911756395,-12.008755956915698,32.39986739080595,-15.693856190857135,38.41298839788141,2,S02
11180,0.11025569405436107,-0.44421912082038484,9.879842725513749,-17.62930094723873,-18.458418752563258,-15.030682343300624,34.28834430133094,-17.428866404599876,33.172205314967044,2,S02
11200,-0.23780564290761322,-0.9464319003864146,9.865479377233275,-12.778745759861536,-26.394335652521896,-3.4431485837103897,33.7084596665474,-18.70344623850425,34.92874461053681,2,S02
11220,-0.30480557637875816,-0.9601866483936745,9.606394911264982,-16.955614626297695,-28.10187337047808,-0.41406455448962676,33.408815366796965,-18.642666056130295,34.470348964290224,2,S02
11240,-0.37986752333853846,-1.360653564444934,9.318260787142169,-31.7286826730079,-38.23352632242111,3.213860860127312,34.731864965807965,-19.55252913742946,35.395105948522485,2,S02
11260,-0.49323495794806294,-1.5764666578789501,9.300730745068885,-38.759143213531814,-50.93420061821571,6.308344699442751,31.430815339674826,-20.959984433253254,35.88554557059726,2,S02
11280,-0.5614940375118089,-1.7165854790700386,9.2858798643624,-36.71995676829617,-51.151255873583395,11.752356525571733,34.861095219972896,-21.016008420214,35.50525196155412,2,S02
11300,-0.6914384965492584,-1.8093154704815622,9.034574692014207,-39.34634989550236,-61.31518533392365,16.03273637705632,32.67564308353583,-20.326100908730005,35.629170572179135,2,S02
11320,-0.6275711258295035,-1.5569284505278993,9.135206417914757,-32.535895799171925,-55.553427932670026,15.870027839829005,33.1911045250438,-22.095579351100696,36.67675338820412,2,S02
11340,-0.6620889531777425,-1.4365051378546545,9.427471941528967,-33.84232913646852,-45.59300298402516,16.615897201773826,32.79575525971086,-21.608063569548612,37.24957566414081,2,S02
11360,-0.4572504781853787,-1.2063325404614857,9.460491369382208,-27.21297957288262,-35.24917350377126,26.371645144777514,32.411961624715104,-22.41811081173813,36.58487620359631,2,S02
11380,-0.28735333939217733,-0.5918599733889005,9.852853936938974,-14.786562903451689,-23.260732222357692,20.231762392691092,34.33188912623365,-23.586985233761876,36.42528206648964,2,S02
11400,0.00014433132200510068,-0.015969658397766158,9.98203617206047,-8.660536711598894,-3.864867527283308,22.892427149442167,34.38953937156059,-23.812758504418785,38.87709105809839,2,S02
11420,0.4181640837671816,0.44952625458285383,10.693212340580269,6.8636712783421965,17.825902864404128,19.749289272158396,31.17633281914754,-22.46451810391985,37.146003326044436,2,S02
11440,0.5728342604018027,0.8900279774927355,10.674938855883639,15.18648872585592,36.26302221471866,12.7731291485974,30.996349797449156,-22.076998297206302,39.22127717417195,2,S02
11460,0.7318943510539715,1.1207703898563794,11.043468188670372,24.817137986075988,49.973640209593405,7.268122236062898,32.60096442686928,-23.904386746522157,41.039758886470175,2,S02
11480,0.8276367712594618,1.5333147891940195,11.163185844898731,28.65700118675061,51.27061055117307,1.9100783099005798,31.172356450243885,-25.04919568115991,38.961243424647854,2,S02
11500,0.9936205019209142,1.5238755120447394,11.337901780167817,30.47972869850123,59.67077810840673,0.7942209842461664,31.36673280433386,-24.709582438864544,39.88273481882772,2,S02
11520,0.871526402706998,1.3016737767972493,11.202252939018,28.425875737811086,52.401153462930644,-5.458061530637776,29.27284681216195,-25.302686988516978,38.45587485978535,2,S02
11540,0.5462697042201209,1.3430565194162196,11.018429335939974,25.981414720665654,43.63251990323354,-9.126970013851265,29.004280417088644,-24.355258462592865,38.415473651859315,2,S02
11560,0.6386215252791928,1.2092518346844603,10.99646941721544,20.54960072251914,48.33888612010443,-13.936688002852053,30.756486698706883,-25.158644020545182,39.077140024785585,2,S02
11580,0.4222792210341526,0.9329702743520545,10.5375075359615,11.061766031909595,29.821716232824492,-10.66987409852806,30.288936167287478,-25.179927011344674,38.14237931889384,2,S02
11600,0.2405971232624748,0.5437593814006589,10.511635425816692,9.570976197305026,17.32210174129004,-17.910302286241684,28.878720871672183,-25.83588525273947,37.49601925017135,2,S02
11620,0.23263284809500817,0.2878840168268689,10.491005007290214,-6.19430820840008,14.125693091573812,-18.24423094176279,29.44891801690042,-25.53353498050331,38.39554782300214,2,S02
11640,0.2333069878852723,0.17203490422377118,10.156433990906779,-0.42125516794463946,9.308113190794849,-20.906499024393668,29.12068484454594,-26.320434491437908,34.76190347164642,2,S02
11660,0.07232040160666339,0.008515936874147423,10.19697604169608,-6.674446012508174,-2.0545137567615717,-19.902178824167905,29.768447928106053,-27.412609564161325,35.90857336659984,2,S02
11680,-0.034253755579288586,0.014048029810209098,10.21246156784542,-1.7785983507056589,-3.3314861242706844,-13.033508974982178,29.401545847194033,-26.797451707807895,36.41280055425783,2,S02
11700,0.24401026551493,-0.4837673990045115,9.947752148306812,-5.333600338887085,-9.065045524040352,-11.006217202992678,27.908019029655367,-26.28960211950791,35.54326183081812,2,S02
11720,0.017094212012901858,-0.6149556105466407,9.791015735553216,-13.423089702806717,-11.944176923581868,-10.56321949641555,27.04995902779258,-25.66616062598112,35.92742464918432,2,S02
11740,-0.028623929094544753,-0.6412580185538712,9.753398294430927,-15.710169277496625,-21.69612107464601,-4.505361341605156,29.364931382371275,-25.71182790452547,34.19174557229114,2,S02
11760,-0.21443889727252666,-1.0619350028412844,9.738460891902351,-19.170565021215253,-27.399455011977725,-3.1056989034390776,29.321428241567574,-27.038058304856346,34.78339668017696,2,S02
11780,-0.18042371990152486,-1.2821988006947076,9.441554406752832,-31.602578449226215,-43.862712495518885,5.239465621727388,27.581526806712457,-24.988808608025796,36.61457437993373,2,S02
11800,-0.2574017698599973,-1.5474953671042089,9.243617446689518,-30.26903823191716,-45.34862707006564,4.13160728973557,27.37943873627067,-25.01430960960552,35.32751946123105,2,S02
11820,-0.5098912033758867,-1.7627931556350336,9.16597763750618,-30.400832436866832,-58.05581176155018,17.215176917099825,26.757064030609772,-23.253612151643228,35.91772264513935,2,S02
11840,-0.6717278507765145,-1.7946312381403362,9.006705173598105,-41.78898641822863,-49.07938286195139,14.870100424397833,26.294887148289277,-23.876767086235024,36.27013764008441,2,S02
11860,-0.7166978300440476,-1.6686324876383842,8.98539080871554,-37.50671411887791,-60.56410281964591,15.43202196417909,26.16240686078024,-23.19122218642342,35.64769149399473,2,S02
11880,-0.5950237517972604,-1.3392923966749963,9.18478173399857,-29.190358985861554,-47.74821691011121,21.968007028636535,24.433747819094148,-22.82893635661754,36.00046500825607,2,S02
11900,-0.5551917467849845,-1.1135765067584966,9.444021938619713,-32.780975807550874,-39.31001484111244,22.244287990583395,26.59685563270324,-23.283374815459787,36.53567415177372,2,S02
11920,-0.24986065088269813,-0.7269957279780213,9.834224614761608,-20.085405174494262,-23.177738077066554,14.608094018654233,26.438767696564806,-22.546355740345085,38.13981630232781,2,S02
11940,0.13494782173431324,-0.3443039265166414,9.956409389741374,-6.347760122216824,-10.880695847392484,15.373176222738474,21.60955811909662,-23.231709103281364,37.45114254433862,2,S02
11960,0.22778727751954217,0.3440421984636148,10.328281385258768,6.070879596143565,11.419711551635647,14.163302013784675,24.74220318436834,-20.913969618656687,37.82442820079053,2,S02
11980,0.682422495805937,1.001245672886269,10.681687587567819,16.96742821993777,25.528677952764152,11.976421839615872,24.773799606295327,-19.39916895211958,39.32672300187127,2,S02
12000,0.657702275196393,1.3209291871384907,10.905951501774684,22.895531773622253,42.292194385157856,9.513430139522406,25.94115936692269,-20.41705751355522,37.269507152818996,2,S02
12020,0.8386821206875977,1.423175912557532,11.23746149877785,24.78987515587657,57.369974474261774,2.8155656021367848,24.338102363232366,-20.24872164815254,38.6319619487038,2,S02
12040,0.8386756458868384,1.5268743170952361,11.173848235385474,26.886567503537485,58.02888833616001,-2.768990318012081,23.054797953184778,-18.946086828549944,40.33842669682756,2,S02
12060,0.7013685017672935,1.4660840314666268,11.220739911794093,22.999467606867302,60.84798839819355,-2.100102682614215,24.386211656712277,-18.333343077596574,38.2050755134618,2,S02
12080,0.6272726450317955,1.4897710510579596,10.879025944789932,26.213240990270506,53.23703058910186,-8.50391312135746,22.8028865764973,-15.29920626315199,39.44464147942318,2,S02
12100,0.5684837508636286,1.2932155775380727,10.795318531693713,18.403424318164028,38.60246859506605,-10.089577697716779,23.841495513418437,-17.709690386607583,39.21322947865953,2,S02
12120,0.38753631580437664,0.9464801951000519,10.80215666060015,13.721857072495546,25.893973932008183,-15.298601593641735,23.88784981004447,-16.392605460577926,38.047384617345735,2,S02
12140,0.23711974825469104,0.7668455168471755,10.550759569448788,9.785763333405676,19.74385634345178,-16.94858530680976,23.616434197827736,-16.006627042295356,38.00328600162645,2,S02
12160,0.3031040013538252,0.3571437188232818,10.401443764452331,2.2515308061634736,9.65566618751277,-14.261210063110417,23.1820502933682,-16.212639453405075,37.866230712437506,2,S02
12180,0.16021880321266757,0.24526180591711877,10.407983417052028,-1.5779968852381492,1.6662546393078774,-20.543491776499643,24.46816883372118,-15.486420153810906,38.21335179271469,2,S02
12200,0.10271237027921878,0.07591701882777971,10.078139426441412,-1.796914443415543,-0.5673927879234755,-19.127879673710268,23.93377170359738,-13.389445244459079,36.02617528242016,2,S02
12220,0.04961365059102003,-0.06300174035593761,10.106034642071116,-2.5968480326788237,-9.353392924301012,-18.887382986396197,23.93008763637896,-14.63878912400684,37.0587097596864,2,S02
12240,0.06131026722266748,-0.2599475249417741,9.96291080533465,-6.109601825494927,-9.94902344227591,-12.66460926393605,25.419770669022064,-14.150872056335185,37.26601039292669,2,S02
12260,0.03504704521949378,-0.42876493190667697,9.96955049963847,-8.689631447072337,-17.550878097838336,-14.265663896966078,23.360653592511895,-11.92139820542612,35.54587179298383,2,S02
12280,-0.04333169238533513,-0.616103673259951,9.732443795809102,-13.635039877124036,-21.618638138669603,-6.353369609306719,24.74092184144068,-11.54395579754355,35.08745815248179,2,S02
12300,0.09211512912022987,-0.8729104472055833,9.595785886218858,-22.124979782567515,-29.608395185900843,0.40572732617154983,24.994695851193413,-11.686792585483474,34.23790597252038,2,S02
12320,-0.37083518975902163,-1.2288418702170487,9.45998861191745,-33.47026165787831,-38.745767858710764,3.9580646846775887,25.688312106633443,-9.908351701578843,34.96900982878516,2,S02
12340,-0.30970281097055596,-1.4876176526175835,9.380801592359019,-37.98618461813687,-46.975396368680165,7.012431520940773,27.979017939126503,-12.206036425739782,36.39839151296928,2,S02
12360,-0.541987803505819,-1.6104015392446174,9.113750792873798,-35.768241916002246,-49.3811503206348,9.036698749293535,27.20912185957387,-9.784611945980547,35.07259258624978,2,S02
12380,-0.5810471588451014,-1.7885884372876035,9.018183343417261,-41.93203424538861,-59.60594765962682,14.034342991348714,24.729403923338808,-9.07397527761988,35.27154008562403,2,S02
12400,-0.6066572486296636,-1.562171946800937,9.103643312697569,-40.71824851462515,-59.86001669525924,16.317694361133864,28.080681586019576,-7.880065446651168,35.3984933274201,2,S02
12420,-0.5732139754549853,-1.5303689666579887,9.161252244674781,-38.30907848380892,-51.630147723279144,19.746960292337015,26.896392619689134,-8.825392604368153,36.83732622857401,2,S02
12440,-0.4311673623037485,-1.1693765651938182,9.321488220676176,-30.223804906775964,-42.704583144146405,14.635425727507814,25.2768125078111,-9.669436581375727,37.1424944152645,2,S02
12460,-0.3312314339086253,-0.7086619083003829,9.76095591154761,-18.463310844770053,-27.747304849763548,21.197544710794844,25.34755657484721,-9.477635058387655,38.404768115391306,2,S02
12480,0.09427286691465933,-0.24272674387361604,10.132977990636979,-10.85993554344665,-14.383280231930364,23.14587069286573,27.773990803563695,-8.647731115666366,38.462625733815216,2,S02
12500,0.2203906597854025,0.45780403059632585,10.334052333476446,4.941684298060454,17.63881323644113,14.160057497056785,28.40797222822694,-8.311480769121607,39.10937672819676,2,S02
12520,0.5233159471509862,0.7572803990813295,10.522345231366806,15.132159883979085,25.175278968935913,13.083538285761826,28.92022893430045,-6.591352167963788,39.33077165163265,2,S02
12540,0.6398411276264311,1.1406840801948368,11.064740646015169,17.56993197394455,44.143663979638795,12.781679290506831,30.934634401814158,-9.822978061566648,38.2954048198632,2,S02
12560,0.7709845729858462,1.310076113223913,11.136114239884046,23.58614585220354,55.177716730840174,8.93191092440831,29.097582700573117,-10.625837689911116,39.24658107188594,2,S02
12580,0.9586018370343925,1.404825049370362,11.271435999121746,30.342526311431474,56.373592154360274,-0.6955575696141106,28.09034291737954,-7.358777633064586,38.96375419414439,2,S02
12600,0.9842464879773133,1.687204603377267,11.135701458037758,25.4804374351491,50.006843366130035,1.3487913630104589,29.042326410970816,-9.572286643568319,38.824365397484705,2,S02
12620,0.538288487856322,1.4702029478670493,11.34528480991995,24.228826914902974,50.59074392749136,-13.491286302230435,30.16770091202012,-8.91040905952833,39.21039920711513,2,S02
12640,0.5021377469294326,1.1345438126771374,10.969581390091735,19.23048426664055,43.24647256198914,-10.613405578425825,29.025360305921566,-11.602858094615648,37.02505302341188,2,S02
12660,0.5465367039155641,1.081669658753617,10.679160706248403,19.27965385846517,32.80220355877614,-19.20049914254834,31.44486195782353,-9.834525060500013,37.13060287014314,2,S02
12680,0.1675529407405763,0.749967374177118,10.568314429743054,5.983558744571989,23.399979347482667,-21.502343674494792,31.67221064327488,-12.58929784221801,38.74703990744603,2,S02
12700,0.17564772952684837,0.5195307696927796,10.435150151223052,3.676272784520731,16.422783025388163,-19.98611922389122,32.59340734589061,-10.795266236233216,38.6931538020399,2,S02
12720,0.0941339910179848,0.2506337972062446,10.239630993168893,0.39099162252382147,7.35591772721049,-21.286453922155165,32.541775108723016,-9.494892607307703,38.02711318137796,2,S02
12740,0.09581698632529896,0.20067212189970418,10.22532517600325,-2.2377812092596376,3.8660253096326933,-17.736523028320477,31.895188967708727,-11.449833643714904,37.65805265152298,2,S02
12760,0.22089327993562805,-0.013407654083769344,10.090583290583796,-4.62010916510811,-2.393882658334742,-15.002423563369772,31.370464401405915,-9.879701319879374,37.468010426485755,2,S02
12780,0.2653611892278527,-0.20514456652843652,10.034985455311322,-13.153532184866485,-10.164680293770367,-20.85912654064326,31.890079057558683,-12.598055101751644,38.11037339044822,2,S02
12800,0.031172166511874447,-0.4662322786743185,10.056573066688694,-11.341040271438727,-18.654227602181617,-10.562364554627383,32.48592352015724,-11.537365933989971,36.11932707409449,2,S02
12820,0.013462141998074925,-0.6333389939576504,9.660359241567175,-10.872736006971312,-17.42579928662442,-5.277901011963631,32.19089944379908,-12.411172975450267,35.34091187256545,2,S02
12840,-0.0686255852904275,-0.900061698848037,9.66547020514912,-15.724555966354743,-28.657101542482025,-2.5613861968971503,33.78349043263195,-12.342251895871856,35.22949472268247,2,S02
12860,-0.11768748877114474,-1.216984856970205,9.496991311946005,-22.659176266617436,-40.212917217234185,0.01686442953828926,33.14899261360793,-13.675468768850246,36.83793414352883,2,S02
12880,-0.31023844192369976,-1.447453375689255,9.300186123433225,-34.486891305735554,-45.638693652854734,6.925256866529719,33.744558570762266,-14.625581077366917,34.435364107739304,2,S02
12900,-0.5155380364123447,-1.618068133547257,9.386982944399787,-34.744752991050056,-50.06409546960272,8.454194625282653,30.927809737797944,-15.638166049459032,36.05748992679996,2,S02
12920,-0.7151824703701885,-1.592512050948716,9.176024740524632,-40.12720392280765,-59.877673792410214,16.09453498437921,32.41777177326385,-15.749102838927275,35.88828917717033,2,S02
12940,-0.6320577863008792,-1.5920189122821822,9.137683851626786,-40.0311105549506,-55.960389954951715,22.758526734651618,34.44190627454745,-14.45703448674902,34.54323878161787,2,S02
12960,-0.6737996169303044,-1.447263832659469,9.202094440452974,-33.89361600789385,-60.24523724147588,22.312079502568892,32.90529081297452,-17.655665616635066,33.587786469022376,2,S02
12980,-0.48650925543794765,-1.1217226948088181,9.383259448617112,-28.773417378379673,-45.42212848951846,15.909567741090065,32.96028604459757,-18.28369530989348,34.804694013244614,2,S02
13000,-0.23584131804414896,-0.8696565685264166,9.706381456555183,-21.75430236642767,-21.91575248672999,18.18926783321285,32.5668292394653,-16.96930421678283,37.84089518636394,2,S02
13020,0.08515838920327908,-0.46867886792398394,9.948755414680145,-6.809333702147141,-12.697747929969129,22.08072683520508,34.178203450981314,-17.041311722593893,39.40113843396256,2,S02
13040,0.24342904889340025,0.03486153386481296,10.29041505125553,6.90061964004012,8.084542961155186,16.94357923689798,34.316246497931665,-19.077321460039276,38.17473815339605,2,S02
13060,0.574241268553095,0.7349233739263243,10.571983412729674,5.411330528142339,25.330437430909083,8.947090323258893,34.13809884579739,-20.181288462443113,38.5778420198295,2,S02
13080,0.6959173201407916,1.013103353001751,11.067198122451133,17.354914811398817,38.460289549536974,12.698112829282364,32.735905785949534,-20.20609949719961,38.75212401272711,2,S02
13100,0.7569442729515972,1.3773304308656982,10.986589485133852,27.469579171286224,49.489184945057424,3.914943658571825,32.921562298481824,-19.42725202328397,40.65850618345806,2,S02
13120,0.7934522596745228,1.5674759802125877,11.021678388201757,30.214923233315535,56.43859834527266,1.9621759328401418,33.62004076383391,-21.04473238867315,37.9060276721064,2,S02
13140,0.8817129215612773,1.6257386789395216,11.20741456702009,31.944544055958044,56.264688383887545,-6.257541966543523,33.33644293848377,-22.193381791290886,38.275378709373584,2,S02
