timestamp,ax,ay,az,gx,gy,gz,mx,my,mz,label,subject_id
0,0.12426154154034172,-0.04577517740111109,10.134429971589743,-4.374590422571074,-0.7988839014773443,1.1912768412317514,29.925187827813957,-15.961523261127395,38.471124177979455,1,S02
20,0.13684589983312068,-0.051191773618482164,10.147850082491315,-3.488919596797572,-1.2970946260993514,0.9374045537918201,29.268191479896423,-16.800600260833775,37.512556982710834,1,S02
40,0.1289778550543176,-0.03119601465415755,10.144662978124746,-3.9023490813346777,-1.6851468876000313,1.275900363544775,29.54516879143265,-16.75194984952836,37.91602737959499,1,S02
60,0.13938821692423606,-0.02889141864002385,10.151191519997166,-4.047059673045542,-1.063426471324826,1.1442364352424494,30.46586194867409,-16.73920706966578,38.28582724707305,1,S02
80,0.14616083765291854,-0.03921356991710376,10.139903829681602,-4.3304951510294645,-1.2745399503448274,1.1558382650262544,29.635028501270014,-16.477382410050943,38.34802487814642,1,S02
100,0.16658240734467308,-0.0497452372354831,10.141942140582323,-3.763722810512177,-1.896143803908044,0.7170415943307751,29.863781043015756,-16.583498330469418,38.695324824040476,1,S02
120,0.16737690587132048,-0.027631113354626778,10.132711003834604,-5.266095731212199,-1.8660939740494111,0.5240798289215123,29.494312658460768,-17.389363048092605,37.9348058251986,1,S02
140,0.16614830666946542,-0.02103131567294396,10.155746961552873,-4.3850627103275475,-1.289953987228747,0.5898495875502681,29.671431715660983,-16.263296651602705,38.047431643838834,1,S02
160,0.16682942394484504,-0.04093237556217248,10.153816123373081,-3.5409565442157964,-0.9797105729829617,0.39789148903616633,29.911214292437755,-17.210206095778425,38.19019989442428,1,S02
180,0.1592996729641496,-0.008767844057606188,10.14619312043243,-4.289727671598013,-1.8256401313541741,1.3666225502109945,30.20616864120641,-16.564750153718382,38.39367682659741,1,S02
200,0.1819108871651712,-0.028801195137843835,10.14015391623123,-4.259817633053931,-1.0929478605262555,1.3321369768225615,29.21859300858655,-17.36500125523697,38.242204952205576,1,S02
220,0.17267496505352498,-0.03290246666493464,10.160283223023695,-3.7204294108148717,-0.9546266542032437,0.8233739294875326,29.52056914842146,-16.806961818587762,37.58118174340489,1,S02
240,0.18534643336376838,-0.0391853146207547,10.157574566835079,-4.39194623682876,-0.6691044806522906,0.5191688651129369,29.474015221929655,-16.256023551380082,38.85918607751852,1,S02
260,0.17487869247189985,-0.012863112232089913,10.162964767416623,-4.524511399401837,-1.2248604567789505,0.3736682235696252,29.001906620101074,-17.10284908398623,38.2684382153116,1,S02
280,0.1700145464364365,-0.001665851381116662,10.14568285279064,-4.394590096594934,-1.1113088575711696,0.7757118246801578,29.4099626010646,-17.13275852982694,37.682715307075085,1,S02
300,0.17611175705017812,-0.014884713647130975,10.13287704473011,-4.3743539124598225,-0.5203219741684518,1.0736440477370623,29.671484806319718,-16.208644617646108,38.2749863552559,1,S02
320,0.19034958997934143,-0.014979252644614499,10.144989541456882,-3.6709784972137243,-1.482370218857449,0.9077157825141987,30.03016417089369,-16.49160582144502,37.97885216996029,1,S02
340,0.1908882631456864,-0.014237802283572354,10.150312790124369,-4.403574850956591,-1.3004401302956976,1.783515295432621,29.755635068613557,-17.44174339372048,38.65463493890792,1,S02
360,0.15488251860454136,-0.03134140718482786,10.151199746037172,-4.408408138647166,-0.9336631744137497,1.261773984479484,29.5517910133065,-16.42105949450066,38.02073240909579,1,S02
380,0.17462689332694648,-0.025893014529562823,10.148692024875784,-3.28139593346101,-0.48435149754091456,1.1784441227324458,29.42995347286163,-16.424739808344007,38.694776367578555,1,S02
400,0.18426052459816472,-0.03406584683115928,10.14532065985114,-4.4289826542575925,-1.1482104614375792,0.03815194579843839,29.884449349044424,-16.591941674613558,38.51846803815481,1,S02
420,0.17932343033056233,-0.04038205919563254,10.141467716948634,-3.7615289211629768,0.17403824468893303,0.6832900188188143,30.00854790916996,-16.35125382000834,37.820704012117595,1,S02
440,0.20261901825448797,-0.047181267480742986,10.14440130530143,-3.338547541707179,-1.0094435279450664,1.1711852916425953,29.686186655136055,-17.494842979521213,37.8328275044286,1,S02
460,0.1887261083771738,-0.06948272994872395,10.132134134537024,-4.439115805551355,-1.3694628593129876,0.7909346891807125,29.560695965156913,-17.1294315890854,38.21297494567772,1,S02
480,0.1704876532845151,-0.05724859640685589,10.13884009955452,-3.6831469370695937,-0.3866992264243754,1.0234390581498989,29.602131693214503,-16.707479657010765,38.83205404790601,1,S02
500,0.18517944955979723,-0.04628943453379537,10.14739426803467,-3.704187566060858,-1.6566761984913936,1.613861223662183,29.732366971656568,-16.652944342892177,37.96606468563862,1,S02
520,0.17589666473216187,-0.056348122761874536,10.151091737381362,-4.468957165995556,-0.017158940375405995,1.2590648193295118,29.66749927195107,-16.198643570595607,37.90964093650532,1,S02
540,0.18702845989370898,-0.057541134430136844,10.143269193335126,-4.411327097323024,-0.46087000634057596,1.1509658154436098,30.27397057747678,-16.432843009279765,38.26041180698123,1,S02
560,0.14928531369860068,-0.055947005746470345,10.144042440014694,-3.1634991406511226,-0.6062059056070783,1.4118590234549147,29.589182880456246,-16.501210771737327,38.455528193229824,1,S02
580,0.15530710420780747,-0.05565308145447704,10.151188627398403,-4.525466531154434,-0.8186776439770974,1.127658380515102,29.356500816255462,-16.88517736558891,38.48898737628964,1,S02
600,0.13402148100678624,-0.07588586833552653,10.13902672628414,-4.296782807324236,-0.38005892742465497,0.973185959896457,30.244723399293537,-15.152061926432726,38.64923714662738,1,S02
620,0.1685232115778722,-0.08969476375588668,10.14625078183065,-5.1290595725951995,-0.6288773499183031,-0.15790960544034338,30.901952826241693,-16.877906891015748,38.99465610150987,1,S02
640,0.15472261449280636,-0.06883226216084896,10.145885622187834,-3.722953022931096,-0.9030728876183618,0.11012233244125547,28.997966511853868,-17.462456982911736,38.65487195790851,1,S02
660,0.15219447302527184,-0.07842366883000462,10.150150787296623,-4.581710254453754,-1.416713746873236,1.1734995005071762,29.988981600649865,-16.69259059390661,38.156899316814105,1,S02
680,0.13556291222504574,-0.07948259130830687,10.14221070706542,-3.581097732372196,-1.2750981641937547,1.1225632920798092,29.33342984476841,-16.064326355882088,38.41394163024851,1,S02
700,0.13852243881856408,-0.09295962718814216,10.143138855532255,-3.437894198277253,-1.169278631323735,0.52406074932491,29.527277084889025,-16.544647798153377,38.82013730719474,1,S02
720,0.13734407907240645,-0.11070564940052995,10.154909636072853,-4.00388388145382,-0.32973270305249924,0.8418413842300576,29.81338563614734,-17.4245898283775,38.35405748429485,1,S02
740,0.1211172505709748,-0.10264384166814677,10.144701049222153,-5.00822083840208,-1.6306799650138009,1.593133064108454,30.251085998120832,-16.056394916744196,38.42501109126332,1,S02
760,0.14030535632748276,-0.10819955320255441,10.122715944697882,-4.356870314986558,-1.7926475614898325,1.126313202960759,29.517730543384875,-16.512154654783117,37.655089748520226,1,S02
780,0.11458193154878057,-0.11231100070708597,10.142119999341274,-4.488897679317095,-1.3042390759034599,0.8870661213052276,30.166511432417902,-15.898557732418745,38.80227276557691,1,S02
800,0.10243907462199606,-0.11745792837078295,10.12501337783745,-3.9221873034596757,-1.1395926380354175,0.24949246094998467,30.3769951920296,-17.157624512488482,38.177909649679385,1,S02
820,0.09150407719566306,-0.1047628325541955,10.13639389867548,-4.686788210162664,-0.7647325004137815,0.8640449597964062,29.458676715686096,-16.54751178343438,38.4165093700772,1,S02
840,0.0971903236103174,-0.13255624041271064,10.148695113069174,-4.258563985117551,0.14499120738447902,1.3584727801436185,29.61369336973221,-16.08945858044774,38.90701387918363,1,S02
860,0.08656887279867395,-0.1061180291420879,10.143151435727884,-4.007369947770494,-1.0997349760160349,0.39216904249119394,29.95897931297127,-16.686156851890885,38.24538224991888,1,S02
880,0.09364462769704632,-0.11058092815187519,10.151959821879686,-4.240484200923923,-1.4195079625325193,1.1725269021225917,29.85774264177602,-16.784453513175745,38.920148829813385,1,S02
900,0.09880684673054022,-0.1149160335236388,10.143093445363135,-3.77919895593388,-2.099347262946219,0.9978395279953757,29.409130211148714,-16.326297135467712,38.336893081471985,1,S02
920,0.07633318122192465,-0.12426791306647544,10.14801065478975,-3.7017163248115117,-0.8848136711495015,0.3723369054439286,29.645912385359047,-16.464177991594312,37.950221985215265,1,S02
940,0.0863655801277449,-0.1282698974751556,10.150416277906869,-3.523856514079568,-0.9618099786462888,-0.1000834743943747,29.370843479705595,-16.265883643897148,38.674089302824946,1,S02
960,0.08571223389240361,-0.1352205183016273,10.13033576344678,-4.3608661557917525,-0.5098495498326827,0.21539734648460923,29.340871595652125,-16.192494863501025,38.469232294197965,1,S02
980,0.0627879536146771,-0.10783130625039655,10.134751037655084,-4.394346552930034,-0.33914997575422756,0.4236465821920853,29.35989391175405,-17.00003575342652,38.79821081437289,1,S02
1000,0.06977221148133898,-0.10521685869016383,10.145794306624376,-4.670923309247336,-1.3156166502841729,0.31788409132862144,29.67205457143764,-17.376731104536503,38.192445027020625,1,S02
1020,0.05582532677260179,-0.12751696562622483,10.155452451775187,-4.92153929474518,-1.359044365205093,1.8515164448165233,29.839015950284367,-16.582562324083824,38.758613742153614,1,S02
1040,0.055626621202904264,-0.1088090833700959,10.14794723084146,-4.87717324116289,-1.8682337869573455,1.037043907497306,29.306481856571068,-16.34880383261812,38.628340123085806,1,S02
1060,0.04504311707830329,-0.09991213767600557,10.134454439972393,-4.294203061282336,-1.6796700988758657,1.2687977737404181,30.247516272285115,-17.010834401800984,38.037198249560475,1,S02
1080,0.06267981176632459,-0.10585341812136292,10.162725434288644,-4.759644894860584,-0.32972696387473377,1.5704558037147374,29.982184295110564,-16.95921068982978,37.95921560928578,1,S02
1100,0.06374229017670124,-0.11716856347076937,10.148708131453688,-5.272331327534459,-2.437358003274145,0.9052716967091727,30.277410171410512,-16.390887413003867,37.51093872180764,1,S02
1120,0.02749947532167775,-0.09951850980676867,10.166919662873081,-3.8972793331154443,-1.2429415089026967,0.40346592350836497,29.8220616935581,-17.238784396115932,38.509059409772284,1,S02
1140,0.03543221823953055,-0.11573596075865056,10.144867255766712,-4.315179545482539,-1.0692779577464897,0.4391712027907666,30.55730378390714,-16.48660019420216,38.63785835787933,1,S02
1160,0.023497497921356872,-0.10610745137252274,10.143282453061758,-4.847338943662197,-1.166386632865681,0.17861414179794727,30.056301301403643,-16.405161180148063,38.735588325315746,1,S02
1180,0.025821903029392745,-0.09484032511210623,10.15575340949786,-3.8957487372529784,-1.2206847050791096,0.26340156174936635,29.523025234460288,-15.917807765458827,38.1755730675691,1,S02
1200,0.04284583017684927,-0.076804881996483,10.15102041129855,-4.143771259597994,-1.5199742205233349,0.8487976359711624,30.167506477806747,-15.826585801354142,38.165155766166166,1,S02
1220,0.026263859240010082,-0.10261651983108713,10.157059163657363,-3.8463344164181867,-1.2845717019148244,0.014177133857187219,28.835772863926096,-16.329026447612662,38.64152628021369,1,S02
1240,0.03388287412791839,-0.09025285295096992,10.1454848911632,-5.073670757454276,-1.3576241811639949,0.3405838524022652,29.831427992565416,-16.004809457363212,38.64985067826585,1,S02
1260,0.03074322619997341,-0.08128080414037342,10.154344365349335,-4.165267056654667,-1.409823137517969,0.15554230893288057,29.479971491669687,-16.633817815998594,39.13866484703432,1,S02
1280,0.04437848352980072,-0.09358033117717807,10.140659702289376,-3.6351289676619762,-1.8046961777189514,-0.5165059449276436,29.97315215998973,-17.10683451839358,38.26268656308543,1,S02
1300,0.017948725082392328,-0.06539363123287192,10.132234538801569,-4.688517168854621,-2.0258223200143934,0.5612892362046975,28.991852394289513,-16.756385641717863,38.44715839776882,1,S02
1320,0.008589818733772306,-0.06370874696031412,10.135301823793242,-4.854400807062241,-1.9962485766515614,0.038644382724847826,29.95588846443766,-16.55566554153195,38.37225504257702,1,S02
1340,0.014690691861051375,-0.05612586696142981,10.140094312898002,-5.3026662651940235,-1.51321475073342,0.4342711272493433,30.096286614533387,-16.765711347740584,38.58366275644058,1,S02
1360,0.0026423344507532642,-0.0655419977373785,10.148941324164769,-4.3963519259278465,-1.6424475386996897,0.5287628516515731,29.68433602815809,-17.096140537745157,38.41672063448035,1,S02
1380,0.0253248864599995,-0.04816482607274715,10.14812629477313,-4.3585618178705285,-2.079286098117742,-0.07486958227150975,30.021525132793784,-16.160254849177928,38.42916401896461,1,S02
1400,0.015937435574226194,-0.04425124809942832,10.159798556522162,-4.459033124582662,-1.5421885712690555,-0.4260433107881093,30.750308990493526,-16.275847370163504,38.52278661904444,1,S02
1420,0.020997964241930067,-0.03152213121530208,10.159329082360514,-4.931968775770886,-0.9053175052122254,-0.8461407748147219,29.862447789938944,-17.08158663207833,38.51217665555602,1,S02
1440,0.04210996737980143,-0.05634571654470715,10.158299464559768,-4.2778724340178265,-1.6814923706749045,0.2298393008629962,29.648505355700692,-16.885980677972164,37.67526370732612,1,S02
1460,0.027882960467683585,-0.04268217418421715,10.160243003212738,-3.8594929311365194,-1.0669950122054583,0.29327644643209844,29.194444172814052,-16.108705489600315,39.11359958791202,1,S02
1480,0.026455525153151846,-0.04009559937019268,10.154004899170419,-3.910382898768166,-1.4163305517666527,0.19456432635010368,29.45441682190767,-16.46433900859337,38.48341686803089,1,S02
1500,0.023019125639674523,-0.04732035243821042,10.156380922723892,-4.911596210113366,-1.5979944365390362,-0.3155646433727146,30.160620888157965,-16.75567719876737,38.61379924304234,1,S02
1520,0.0023471390039061513,-0.023106212018998373,10.148708305284666,-4.006128930171201,-1.2437079887948816,0.13852448461928568,29.85445841692661,-16.668590677562634,37.63372823245304,1,S02
1540,0.04681200416547071,-0.030485069750937482,10.130237176951741,-4.181005604049347,-1.9760571096580066,0.5239092498037419,29.81225101744663,-16.85509877885919,38.22156087769222,1,S02
1560,0.041569400143012185,-0.01739900559278571,10.152302815039466,-4.111307381541335,-1.708065204770065,-0.25635091058535375,30.08711801989926,-17.00867499550572,38.533603615105,1,S02
1580,0.04715428242662579,-0.02727433477299606,10.151538668936738,-3.860045709329547,-1.032557926706555,0.14121885748617136,29.45840844348688,-16.25068435693467,38.69963351883815,1,S02
1600,0.059881030647409364,-0.015181824646840002,10.140634941609491,-4.984759953944147,-2.16399272433482,0.6166352933649834,30.241274970841637,-16.517479473895825,38.22374007158949,1,S02
1620,0.05021873609397803,-0.020823642285460686,10.161339464968938,-4.794065900670781,-1.9073949102727272,0.6260631061831406,29.66252476639463,-17.078152150982692,37.99939668161074,1,S02
1640,0.04850189526851667,-0.024348752320538875,10.136818661561895,-4.487102433215584,-1.2208991617442972,0.3151238828029979,29.183578732055697,-16.340033026686392,38.50379165082363,1,S02
1660,0.028542819070980274,-0.009402590526714008,10.16068276883641,-4.098080749796797,-1.0919925477611758,0.8214608915388874,29.654893580739994,-16.328137200577107,38.12401884320799,1,S02
1680,0.057837426450842305,-0.02640159472438843,10.14310929972181,-4.302133242615328,-2.1831356033944203,0.03308147087378144,28.992223401209145,-16.30968579340993,38.71636938943449,1,S02
1700,0.06218328181077381,-0.04188155896456265,10.14647130626971,-3.8569562188778725,-0.47358500476939414,0.6267919324828306,31.18304410423468,-17.40184096752241,38.49227041224718,1,S02
1720,0.0599942721845177,-0.03258307323524058,10.158455459953458,-4.780580540148208,-0.5715142092294112,-0.5479884179523137,29.39501767665295,-16.609173225700598,38.55622839642316,1,S02
1740,0.0860078602253911,-0.01641112198771625,10.16421008896723,-5.091819421554752,-1.182437146113609,1.0648040944200738,29.84219236718092,-16.67891270358256,37.84068689458983,1,S02
1760,0.07638392358140016,-0.03484963020004983,10.150831720257933,-3.938248558572064,-1.5717832149128559,0.44127145721468347,30.238719142655913,-15.936266154629715,38.60103145730333,1,S02
1780,0.06414852118244217,-0.02471202868453093,10.130283647241262,-4.018089690823933,-1.5482470955908008,0.42445793234346557,29.50011261979847,-16.601638227357906,38.2734397572167,1,S02
1800,0.08776038121577802,-0.026491961995893737,10.142162658970912,-3.8433250836922426,-1.8448663899850146,1.5509860727295852,29.665210225316642,-16.72863913192995,38.892014816145306,1,S02
1820,0.09347686851368675,-0.028996879285105935,10.150707795504076,-3.6847514174951135,-0.8280377701760535,1.6445159942503245,29.81602256236224,-16.808484353738546,38.48875821503332,1,S02
1840,0.09115192152508513,-0.0537920184401435,10.152998224731052,-3.837026913088918,-1.1526334687936943,-0.17306902040580252,29.962693574125524,-16.579812991085866,38.51716321901482,1,S02
1860,0.09189107870478283,-0.04104361028884286,10.152409139782721,-4.080791095720718,-1.3694123017902038,1.1155895188900908,30.133632770048155,-17.145183168284923,37.96855941252563,1,S02
1880,0.11641381634846683,-0.0475057599149104,10.150614742000814,-3.890511284323177,-1.2180713041916909,1.2964205784971554,29.596459896394734,-16.306356514385236,37.558155894992915,1,S02
1900,0.10063433269026772,-0.0481237692174217,10.135837061315122,-4.254865305547164,-2.516600737272872,0.8647386291538541,30.06252717186166,-16.599120655062315,38.43164170196442,1,S02
1920,0.09838367886331399,-0.045697517322509255,10.133470234349696,-4.191205976132304,-0.5210825927441286,1.502109257486627,30.142984074532134,-16.744362979781133,38.35049694783983,1,S02
1940,0.12548592548694806,-0.05178967013372371,10.134396993971677,-4.23552864508436,-2.262598179303374,0.8195737283436233,30.345224782727044,-16.088465989488707,38.760265353108664,1,S02
1960,0.12422944733316847,-0.062014598230268156,10.145582974532767,-3.9580564912689074,-0.8833338333481482,0.023611166524287075,29.11753198513625,-16.611261983399793,38.34021813703288,1,S02
1980,0.13248942087088011,-0.06697274843866946,10.149830040870727,-4.589336811646113,-0.8365733072578019,0.49252653155450005,29.8482864470417,-17.378164568017176,37.8687366626525,1,S02
2000,0.1310700830511035,-0.06829722047897013,10.149834523952443,-3.99119531825067,-0.4510319791018609,1.528281288916879,30.350350942334106,-17.43051580087512,38.5054649392983,1,S02
2020,0.14999336745454978,-0.056729992573619964,10.137053900596273,-3.0111905940627333,0.07047796026630082,1.202806863587898,29.140910041421094,-16.30030560484719,38.4538283647855,1,S02
2040,0.1252751066291441,-0.047540376975786613,10.157091353078846,-4.084064738429954,-1.4608577181217917,1.0686549346274559,29.539722806825,-16.219459370711203,38.97067501062808,1,S02
2060,0.14322326352844364,-0.07857392434991384,10.141798810916711,-4.356710227028405,-0.7976726790102319,0.7547133905998828,29.942251442849248,-16.383012733362463,38.31080134967142,1,S02
2080,0.15538691647163055,-0.0840460025325777,10.13379825773502,-4.093829101545158,-0.9930998587019366,1.0818855434898378,29.4387437152207,-17.122393688171762,38.361556917148754,1,S02
2100,0.16975038859510594,-0.0889552374581579,10.158407415107204,-5.072744485358865,-0.9952886322252273,0.22333444864048757,29.86466055236836,-16.84392244901255,38.50435853368782,1,S02
2120,0.16116755066358385,-0.0914547389650596,10.135369713374343,-3.6822048492858377,-1.4733756276580534,0.44132614329318076,29.86476034407376,-16.136759564164592,38.007346095752474,1,S02
2140,0.14187542315363053,-0.11074047542042054,10.149812007745004,-3.0474976453901945,-0.8180021594311894,0.8024735068788766,30.163241509507955,-16.93009572062348,37.78989559877149,1,S02
2160,0.15235209007135225,-0.10319451752312103,10.164774614268502,-3.9434265715863357,-1.1960172445912591,1.3106389299748415,29.528140876666903,-17.217357958826813,38.202072422324015,1,S02
2180,0.16242838019826042,-0.09630240909868222,10.14603591796799,-3.3443335283688773,-0.6228819028835813,0.7668755637068834,30.137054483419945,-16.98818357272139,37.95733678506497,1,S02
2200,0.15654840150079805,-0.11020232512395706,10.140259010974416,-4.177814873497617,-0.923388951600941,0.36288805333583246,29.670453195276842,-16.369805206333645,38.038531026480285,1,S02
2220,0.1607771708425768,-0.10088557948285638,10.144315150643981,-4.718778125572498,-0.290884828732902,0.8670916868842447,29.66744787512099,-16.43506457683109,38.31076805723664,1,S02
2240,0.1809970436105283,-0.11645268758997265,10.154657958291828,-3.926992766100804,-0.4591702651035672,0.8845465730377413,30.224084002527857,-16.94082570055805,38.15603968425721,1,S02
2260,0.195268622107736,-0.10092228942973491,10.160293574440697,-2.845251923014131,-0.7472650707011673,1.1856677288664206,29.277040208536036,-16.944788350642057,38.11791185705276,1,S02
2280,0.19181197433883415,-0.1218097190486945,10.14499596707995,-3.755203064283863,-0.4227145501840195,1.484388985817323,29.261311538296614,-16.124198982046344,38.768959953528146,1,S02
2300,0.185669180897512,-0.11951177753071299,10.125298182511324,-4.356093774289109,-0.6856045594067786,1.6727924324868528,29.93581748730466,-15.855145536978176,38.77028345569301,1,S02
2320,0.18057816399116638,-0.11259833412904444,10.149642133683459,-4.517564455594629,-0.7537339623257483,1.0884926322175104,30.389734179803334,-17.10562468815403,39.020118759706136,1,S02
2340,0.18397051904048,-0.10995604993652003,10.165989661296498,-3.4359128517284003,-0.1957787465977361,1.1520820127078002,29.566324049551746,-16.40023782396881,38.61775033936091,1,S02
2360,0.16454608647767008,-0.10508799685129278,10.141350831972202,-4.835257554507034,-0.6267665239915281,1.0400576673161124,30.104415207485843,-17.75385432020592,38.406837358376166,1,S02
2380,0.17377811478983626,-0.1319321019468072,10.156821908492589,-4.012620925797672,-0.6052864270578366,0.4206844281182306,29.53858738661668,-16.005180295473195,38.11889399297505,1,S02
2400,0.16913183135983006,-0.1312305510308759,10.147171972100079,-4.339341469780295,-1.5739415600996458,0.5178990312993013,30.2676121666257,-16.927877210328234,37.48285770541151,1,S02
2420,0.1670702540132608,-0.1277628664973663,10.153103868784308,-3.576861665948166,-1.5311855046864191,0.870971533069886,29.801844816179667,-16.611481587915506,38.43904506433441,1,S02
2440,0.1652555558248645,-0.11722752340700432,10.134254229715856,-4.380648774022599,-1.0056022536484228,0.7212897066588666,29.493752285445616,-15.96396053076833,37.777960861617515,1,S02
2460,0.18396085902353138,-0.10581509884156567,10.161275675069355,-3.8481277886501037,-0.8674532918017162,0.48003540682313156,29.530987279768247,-16.87618897782332,38.82674726234736,1,S02
2480,0.17425917630333615,-0.1082923559976838,10.141925033837119,-3.1819012870338383,-1.1801252614400428,-0.010288316176298662,29.986500369402595,-16.94221521046515,38.00519431887186,1,S02
2500,0.17537008055884262,-0.10096937521328866,10.146163234568196,-3.784846293124851,-1.243639021298025,1.378780724605289,29.6774803039976,-16.526750058183076,37.8022181363388,1,S02
2520,0.16041590865775368,-0.11433315448088728,10.139257804753226,-2.6501707381359165,-0.7372317631916614,0.6744217860245442,29.600883643095393,-15.779252845113536,39.21036472861939,1,S02
2540,0.18236220032238676,-0.10446481417950851,10.149553057566797,-5.015116225640177,-1.3728203259090952,1.3816208841963056,29.426666076942446,-16.389780673303935,38.931379699794185,1,S02
2560,0.1613008132966649,-0.09245014908716671,10.152281307825733,-3.0675003983674642,-1.4481540196936697,0.7232630305765891,28.991286240392647,-16.144561361675585,38.57132134782141,1,S02
2580,0.16485250220250514,-0.10694367027286658,10.155952461099469,-3.6444140884519975,-1.443038730272563,0.19521769059996108,30.195332630177415,-16.241636381936594,38.690143712171505,1,S02
2600,0.17064372819826812,-0.10488915507413776,10.165464793568258,-3.5683965625468703,0.18418599990664375,0.562546236278335,29.79544908950546,-16.993536496806538,38.869993673922586,1,S02
2620,0.16879216900376173,-0.09453175955051335,10.137709508068294,-3.8015175235293714,-0.6238249578489569,1.7840132281801169,29.398439544341322,-16.75871549218378,37.64031652988326,1,S02
2640,0.14833184900535124,-0.08545159284700975,10.142863568004813,-3.4192813386910754,-0.9021192470633752,1.0560382062581704,29.848685796510264,-17.04078340920325,37.984213809571116,1,S02
2660,0.12476770120764648,-0.06684635996514403,10.14397986599636,-3.624634303835994,-1.3752018508301083,2.29764529496211,29.74428213973915,-16.850254784356576,38.22513124727206,1,S02
2680,0.1420686654792763,-0.10236098182249019,10.13798412686344,-3.2775361175379665,-1.0549994689278086,0.5276947892245383,29.32511694133999,-15.989151884231822,38.547608322802105,1,S02
2700,0.14200884136902472,-0.07721789834097316,10.147262625126812,-4.190928016257633,-0.548720514266739,0.6406099391363543,30.518763446321906,-16.40805352441349,37.93878050477311,1,S02
2720,0.13302384158857683,-0.07544621703518305,10.12975790497217,-4.177005568784906,-1.6815468638574849,0.3940972045210493,29.651944958203412,-17.002113222074207,37.78992274238945,1,S02
2740,0.133182848327281,-0.07675835258599199,10.149644809357218,-4.469185990856993,-1.571629648017946,0.39454151007136945,29.890814592551322,-16.32871017858851,38.051592958410396,1,S02
2760,0.12210320845326642,-0.06072302991788295,10.140637330901223,-4.1537340489702235,-0.8322645610594732,1.022279551027949,29.684686712667354,-16.780010132124097,38.401301614824526,1,S02
2780,0.1330938903209995,-0.07624813684112298,10.161056587779756,-4.23951804686863,-1.5382770001496449,0.25153307512188333,30.637901062638463,-17.160712508451745,38.364820241789346,1,S02
2800,0.10579563718664527,-0.06511908068005959,10.139786182596325,-4.944743560364241,-0.9442730691692581,0.3867498662023454,29.794056768722985,-15.891826099845916,37.68738881028686,1,S02
2820,0.11401830538411444,-0.05017429853272829,10.137552146620457,-4.927474267835439,-1.729231380780791,1.0953038813377198,30.405391613433505,-17.24192341443353,38.51772198941044,1,S02
2840,0.11337857682684693,-0.05459827167364015,10.140833420987189,-4.576964184687224,-1.7212448912700955,0.6098077396071588,30.046951780613373,-17.073920104785557,38.07140854153809,1,S02
2860,0.11401126787434429,-0.04563806150298184,10.13615199878904,-4.206712162601145,-1.4034376509993325,0.36387190757388815,30.016043870605312,-16.729550074733567,38.38609593738475,1,S02
2880,0.107482229429568,-0.05894334935574631,10.147947063550879,-5.101703631132086,-0.23914610073997544,0.4775537802114182,29.971885375409116,-16.64692401312775,38.737050372081896,1,S02
2900,0.08591100984948778,-0.054588370755542515,10.134752829514557,-2.8487325134288835,-0.6572444944113461,0.1129671158113581,29.883791480562962,-16.070021878260064,38.86579332175061,1,S02
2920,0.08822356506132614,-0.021714392109457095,10.14005695074844,-5.39688902809717,-1.0871900670895334,0.3380622150617424,29.550060785492803,-16.954912041073854,38.90148326803351,1,S02
2940,0.10118381970829061,-0.037318414048245464,10.154167055528905,-4.396604536585361,-1.7639886644697693,0.2559287369972115,29.796227049197345,-15.995404161077428,38.76386461855258,1,S02
2960,0.06904412727036827,-0.031528868673792614,10.139673929239695,-4.242680397546684,-2.4501703408420417,0.41158239822776554,29.86675652345829,-16.221641620045038,37.98257401104722,1,S02
2980,0.060268957794898034,-0.02269589401913879,10.141544558358701,-5.483820231972307,-1.394473712017505,0.11040668548687471,29.796696578334046,-15.758188467859927,38.02687888296598,1,S02
3000,0.07720760846982161,-0.008056804447393769,10.167754724821869,-4.592499474272143,-1.0265906707559864,1.231973856602833,30.217054214440026,-17.311274280538104,38.9401129436549,1,S02
3020,0.07973416741584363,-0.024253756693783844,10.141128560653891,-4.217276054291899,-1.091477470429075,0.2599754425428413,29.883343821169355,-16.274973256816118,37.81254931056448,1,S02
3040,0.04998031445940587,-0.026904939379903806,10.127852107679338,-4.437326822996112,-0.5652243552183807,-0.33419250913859055,29.76275599293174,-15.583472882282818,37.86292561045713,1,S02
3060,0.05029251438314866,-0.031962328719737,10.15259577869163,-4.459395382780277,-1.7159769662970088,1.180710053399707,30.283729714517197,-16.97444627934673,38.4680254205848,1,S02
3080,0.06313802385031461,-0.016846112043504342,10.144874790064524,-5.054110144213006,-1.8358156322091248,0.9527964377584408,29.315409565775393,-17.33731253751446,38.31651255907027,1,S02
3100,0.04767788618901005,-0.024305772260437113,10.138074456438126,-4.331180027138997,-1.953309139396406,-0.13421582072586957,29.21496441176939,-16.028192522333466,38.62435906560064,1,S02
3120,0.03880667144370387,-0.03181644841746484,10.121423356609883,-5.183039556895341,0.10845499615779453,0.7301800693388012,29.55149897172857,-16.228847087350395,38.04667544119209,1,S02
3140,0.048281380815576,-0.029516662579748387,10.143756199170449,-4.580279502433398,-1.6559886702862385,0.39780816679649267,30.388989641965868,-16.279497178935863,38.35676497690908,1,S02
3160,0.024363759651664013,-0.021081400865323785,10.129985714628269,-4.0928344462381805,-1.6032077220671266,-0.20756858001878353,29.49038356716966,-16.10253119720898,39.20598426315224,1,S02
3180,0.036580588294535074,-0.028358674863665376,10.149279732484995,-5.3437119447797485,-1.6247890006500607,-0.36551039285184916,29.77798602944399,-16.406328919049216,38.17671006659461,1,S02
3200,0.009288340485045385,-0.030821980209790427,10.165800043946701,-4.389866086412124,-1.156771057771305,0.16641802388185367,30.067292005945113,-16.83070251727272,38.363496696327566,1,S02
3220,0.012831747732745938,-0.01791601264180505,10.142338089222287,-4.558547733478845,-1.8146420108157688,0.6163417137362952,29.708003980074434,-17.136254973008363,38.56172456643366,1,S02
3240,0.012906047303172102,-0.04356091885640763,10.152372629459592,-3.8169123545639585,-1.1417292723552297,1.517515410339909,29.595834742897118,-16.071903067412816,38.84426651390808,1,S02
3260,0.022171170262213574,-0.03380229396752589,10.146420065836917,-4.78442749119846,-1.9956929426562566,-0.8857228655115207,29.835288868380132,-16.591409679956428,38.59411633050325,1,S02
3280,0.03439013238726486,-0.028282815199482288,10.158096418240154,-5.013275538846233,-2.9360372875716743,0.0005822267815712712,29.458519105805827,-15.426864410697377,38.620746250356035,1,S02
3300,0.016447158921344865,-0.03812588756523408,10.162537226434786,-4.653088472675166,-1.4181176613900575,0.46076893023863663,29.246628956268648,-16.09251440707991,38.586814433247774,1,S02
3320,0.03127309441411949,-0.03843746132446615,10.14277945288271,-4.86189013713481,-1.6965686251741336,0.35904363022904,29.83691563437448,-16.25252066805189,38.21131572291567,1,S02
3340,0.009563696739356378,-0.0452250572962862,10.15895492434699,-4.355193020441293,-0.7759932594179099,0.4875889131089328,29.607690617683154,-16.2887604344994,38.119681792765675,1,S02
3360,0.024845370004082948,-0.03839582262503303,10.14987503088362,-4.2922377482582785,-1.53449932921378,0.4937699149133853,29.974933823340542,-16.396876894120997,37.95216805118205,1,S02
3380,0.042685901177777284,-0.06525969057833439,10.147131542475142,-4.583797253599438,-1.3398116176886115,0.012281501758249935,29.70679775763234,-16.289663500954244,38.066116152428116,1,S02
3400,0.019384169571287746,-0.05314452004086945,10.12867924029254,-5.170646087741176,-1.817248990909091,0.5475348818357462,29.767045804227845,-16.665472906494287,38.1425888835208,1,S02
3420,0.024635258432195745,-0.0753397753285932,10.144402858432448,-4.1653921383556884,-1.3264867602951638,-0.10996708216397899,30.206950709184902,-16.171967217842898,38.85064482518479,1,S02
3440,0.004411103178102407,-0.05336019974059192,10.163884616304308,-4.804003098328719,-1.4380318217430825,0.2975530469689036,29.671974850497715,-16.895504313448956,38.70521473586937,1,S02
3460,0.020352335173275046,-0.08214370656547584,10.128090106538163,-4.7806838198463435,-1.3140767281202563,0.23201171311976443,29.503692255047174,-16.35554770082321,38.21794248204558,1,S02
3480,0.0355708676508846,-0.08629562528482537,10.131023046390611,-3.9197361215563897,-1.2226318487352164,-0.15566879778992238,29.925533066015856,-16.145406260580046,37.90870217755945,1,S02
3500,0.0239151389720567,-0.08822254179618008,10.147873572893614,-4.53408920833259,-1.2771010179431534,0.25585365682780714,29.499238394376654,-17.2664406592569,37.918308846988104,1,S02
3520,0.020465709171648874,-0.07428071240929299,10.15366146564916,-4.730996669196253,-1.3638253604337514,0.31652619062974174,29.90011084399031,-16.54857531191521,37.9784025685015,1,S02
3540,0.040767894216226654,-0.0805530503006058,10.148565589208653,-4.758521614590168,-1.6483474850769482,0.6341156966866915,29.59327398414924,-16.319219210854477,38.31898626343746,1,S02
3560,0.04348533052954537,-0.08493645923101406,10.142728041265496,-4.475150715855031,-1.8330779155181411,1.3803932179318794,29.230548200423655,-16.728114847322995,38.08359047540817,1,S02
3580,0.024805098547929033,-0.10983109158881794,10.1375827675431,-4.19515275829096,-1.2666743630001567,0.6010089267863031,30.203561713813187,-16.573877876801717,38.247609648497075,1,S02
3600,0.05873267060740643,-0.093867378094344,10.148326263574148,-4.406480631028534,-1.646895354570784,1.1535672365560583,29.61040611299776,-15.91436441238292,38.17852610883428,1,S02
3620,0.041277830619696206,-0.10446353443574238,10.143799484250566,-4.251633790111127,-1.1505889159688796,0.9950929736129349,30.369069935733492,-16.010152039536095,38.11156930910048,1,S02
3640,0.039145406963775733,-0.10760365635095928,10.14587623623671,-4.2418322667766954,-1.9743595092123576,-0.06428641780050326,29.50130865799317,-16.481904940822748,38.23042723658031,1,S02
3660,0.04546827778783134,-0.0982152810778172,10.14820698252731,-4.2023010343877365,-0.8626767379378686,0.5201272137750387,29.52549955697593,-17.212672628239908,38.70394754442635,1,S02
3680,0.0498444535602546,-0.10931617172945818,10.147649700994716,-4.2793796421273615,-1.4060412713290242,1.1745869829334599,29.89887308762732,-16.707067065232863,37.50530980628773,1,S02
3700,0.050629390647950995,-0.10674415469845734,10.134423478100397,-4.057143861452306,0.20576090210333375,0.12585597302537388,30.069102580388535,-16.402342133315024,38.600775166381425,1,S02
3720,0.06594870219531966,-0.11954081864217803,10.135129569675888,-4.824495253431925,-0.8619726098829363,0.8347295554147209,29.2874202510437,-16.801706468570377,37.99864972436478,1,S02
3740,0.06414960380017293,-0.11823673751293326,10.136389684290553,-4.229605748548815,-0.6788700948171581,0.6854649209280108,29.588619584283283,-16.212259584035877,38.5373055307264,1,S02
3760,0.08950851541623389,-0.13336073484586514,10.144131159119208,-5.35592382387682,-1.848700067181826,-0.2788973025845384,29.73375728643072,-16.752955901997826,37.78687468488196,1,S02
3780,0.09520640342460852,-0.11690907026532568,10.15220598589877,-4.600842474445306,-1.7846789419802631,1.208212070240649,29.60055424367063,-17.46970205054432,38.6042246953038,1,S02
3800,0.05983600386952469,-0.13636836799201255,10.142881567726324,-3.716886595121582,-2.2086674148319245,1.0839197365635613,29.468427477358436,-17.01535309318782,38.29330070740657,1,S02
3820,0.08834665878883859,-0.125198831527232,10.131537851012945,-4.512355396474621,-1.7705948878862336,0.5369880145830124,29.615513477612545,-16.738156535441675,38.471439688147484,1,S02
3840,0.09376602410262898,-0.10576234872830703,10.1560224970161,-3.6515383882654,-1.4837681431494139,0.16524293412562857,29.563822853297655,-15.977266290156894,38.54834038809771,1,S02
3860,0.0832496864501438,-0.11622032971176519,10.148299758297734,-3.979093289105095,-1.5424580527196334,0.5774944673205249,29.19943667104149,-16.69932382011283,38.47179946196997,1,S02
3880,0.1050133416149839,-0.13186425899936408,10.171118669525198,-4.253761120631541,-0.9228432149894658,0.9290631197110566,29.780159745518734,-17.23932540949582,38.09173897838582,1,S02
3900,0.10647116673564806,-0.13228867757306595,10.14516361208677,-4.612365893306448,-0.9778394581538743,1.1484260801177295,29.992737143023792,-16.318412622435254,37.86583685683488,1,S02
3920,0.11205619959466029,-0.12034751760788387,10.13043746646792,-4.706969222546871,-1.4389146208816839,0.6906594254562367,30.110949090343283,-16.900513503337713,38.36878724851337,1,S02
3940,0.1115945139692808,-0.11448467503502988,10.13953298366093,-3.76343233737695,-0.6156245440237593,0.42155420785319736,29.640255286190783,-17.074424034681527,38.168987856891476,1,S02
3960,0.12287849097285888,-0.10433956302389,10.148312087804086,-3.5959070886589712,-1.140800649496822,0.7963981275014635,29.748149020460815,-16.616313439039693,38.202368680679676,1,S02
3980,0.13199113922203823,-0.12118115480784347,10.148293065214819,-4.665622302756049,-1.184600172679262,0.8694484215390421,30.61132211402334,-17.272437301312017,38.34750597092378,1,S02
4000,0.13197747495736,-0.11995597634098881,10.138843359386701,-4.235479955617946,-1.0385087561583342,0.9997400189529813,29.786070349234933,-16.736949080346015,38.32756471231785,1,S02
4020,0.13414025890707737,-0.0994006218338905,10.15384226990735,-3.1715561036942637,-1.4355763252644107,-0.025843853911967085,29.42787824887762,-16.888603363043046,37.778309601492985,1,S02
4040,0.13616473722896774,-0.08143822294837974,10.121533320983053,-3.883122059086621,-0.8940525958431729,-0.11186806470868316,29.529941102020445,-16.933063889666734,38.619186723493925,1,S02
4060,0.16614882174510776,-0.1036713357729871,10.133856520018584,-4.099332278501586,-0.766647357448089,0.27966345620074806,29.59493075358652,-16.9487074428613,37.67906416646953,1,S02
4080,0.14685790248953612,-0.07208616302786912,10.145769391577849,-3.937627607116224,-1.2463047542138117,0.34639386022865565,29.313858350608324,-16.465229629968654,37.97429694795416,1,S02
4100,0.17097931350425272,-0.10447212670737199,10.168156414144986,-4.5967080861969265,-1.5152024594211193,1.152525663173751,29.564472263156897,-16.801498923918786,38.290345731954325,1,S02
4120,0.15299811353749365,-0.08607861220863675,10.14656831628987,-2.9300467377346138,-0.0063621036296419575,0.6291409321826108,29.479409318568628,-16.185026630698143,38.13454472157729,1,S02
4140,0.1544211676162811,-0.08203393342073588,10.152374703710812,-4.361084346856012,-0.9566719830143047,1.2538089599394189,29.527778565362965,-16.254343406714646,37.411846022382264,1,S02
4160,0.1655936814480945,-0.07922368244801137,10.154551786914048,-4.312739494539413,-1.0382158766743057,0.7495846333418936,30.107588458618693,-16.099103115040574,38.264529984456004,1,S02
4180,0.14838550398975187,-0.06030731342274161,10.142441744014246,-3.9142774505848132,-0.17204781636660416,0.3678528395521067,29.919956394938463,-16.307949544978182,38.32854701501836,1,S02
4200,0.18196755477229026,-0.0649676191567105,10.155429935487238,-3.6553571755451992,-1.209194135471579,1.4914210773920114,29.081333050423165,-16.63402065827152,38.12677067120513,1,S02
4220,0.17307365302499084,-0.03962133404469967,10.145524702120296,-3.1263966187497467,-1.7295983609555579,0.7823545031714598,29.469623419709993,-15.76823619188966,38.8247244392643,1,S02
4240,0.18242435131663076,-0.06487563574003206,10.139721950735746,-4.39752927656243,-0.47070058250500324,0.7414172895354911,29.334894285478413,-16.618923939795835,38.84587759119412,1,S02
4260,0.17676695060789174,-0.046670086382346085,10.155253774936577,-3.7203287777629503,-1.3070704780814775,0.7018137425071909,30.112769764585018,-16.430372661209205,38.365870767696244,1,S02
4280,0.18073435065849908,-0.053085186416853,10.144779276525638,-4.579243748309806,-1.1360974282595302,0.6706401467207254,29.114235592957037,-16.32323975007767,38.246396533610266,1,S02
4300,0.16824810435427928,-0.0470074266344266,10.14443990401978,-3.377936218698967,-1.297190535906616,0.6042883963072393,29.866040244009362,-16.600145559055292,38.52265382054037,1,S02
4320,0.19162154903420203,-0.036885793272623764,10.132351599335838,-4.018273244716692,-1.3542372242988292,0.8519772862659272,29.450530783521163,-16.228756496288373,38.13602701162435,1,S02
4340,0.17751425313203328,-0.04294659773276089,10.137033494305465,-3.815853854194591,-0.9926847594669728,-0.013434615745967826,29.854612012553815,-16.13561186022031,38.29463773299549,1,S02
4360,0.1736657670820022,-0.03216000307469324,10.138701797755171,-3.3716357581924123,-1.363673551509383,1.1304919951471013,29.95523323790154,-15.60387898595938,37.26087731369007,1,S02
4380,0.15846610400888358,-0.028266957365948128,10.139917544415448,-3.701738850233921,-0.34825143322542784,0.7557219235815051,29.44493424406956,-16.54717803128991,38.76082489997729,1,S02
4400,0.17598872730716902,-0.007992894557629866,10.160588067026186,-3.2497946327201497,-1.0730031440368735,0.5340402119524765,29.704385364813028,-16.77749164674656,38.54581332240325,1,S02
4420,0.18156234515255976,-0.018084967819558054,10.157110498420005,-4.133674626166869,-0.40541701377564965,1.1227076557722149,30.03595528659276,-16.285847288619586,38.36975707229794,1,S02
4440,0.1827515551785367,-0.04604915509288829,10.126151762824604,-3.7888779265588735,0.02881773681489852,0.7386472987704068,29.66041801984369,-15.929260165710536,38.83506338028241,1,S02
4460,0.17034691560399057,-0.03519222053105737,10.167461902705709,-3.4613944074449527,-0.6639371576220986,1.5067698521940938,29.68929665583831,-16.896663516653327,38.642716174261444,1,S02
4480,0.17975645383468586,-9.649061685755578e-05,10.14203036298829,-3.6983801726024765,-1.2448175388922469,0.4245404140387089,29.1346369857734,-16.754827786075786,38.785649123471664,1,S02
4500,0.18925332082298085,-0.018581956226406147,10.129209736045608,-2.779056043866043,-1.1787491206697782,1.2786013008105135,29.805850227335927,-16.682290706413035,38.213017648759035,1,S02
4520,0.17259858487539145,-0.019214817537447082,10.152891232953433,-3.644481027940381,-0.633689152317801,0.6464956289270837,29.84161179018227,-15.748669108423146,38.30099637862357,1,S02
4540,0.16191469083443336,-0.01329581206419219,10.147806625627023,-4.3107209388721035,-0.8801830133696016,1.6793669340522368,29.425848691205672,-17.57778089717449,38.88994570054063,1,S02
4560,0.1581786466541037,-0.04122633477687962,10.150998700459096,-4.678635559751398,-1.3981514301476463,0.4237860917320897,30.170223655045877,-17.086649461011103,37.77925240979928,1,S02
4580,0.1684844590535826,-0.03290698061792475,10.157094629804357,-4.7027368176858495,-1.0233684043733593,1.1239140925847875,29.975594226387656,-16.2760948516415,38.33276541026157,1,S02
4600,0.15022115496784136,-0.02141656409183982,10.154937103971927,-4.178424562456392,-0.8461884329845805,0.8410801039213445,29.492472478540883,-16.836993314737953,38.3755946359658,1,S02
4620,0.15923609405102113,-0.027353255513451816,10.149057734395369,-3.931769010979328,-1.6476822776267632,0.918943597831251,29.54026763860527,-16.574775187878046,38.91978218885353,1,S02
4640,0.14358925590521684,-0.015314028812991577,10.142818813263716,-3.8893945726979267,-1.3949972804270256,0.7871903118567369,29.423125620981573,-16.5194144944018,38.48789973747171,1,S02
4660,0.14578799555569968,-0.017659709602288,10.164621467468852,-4.489325106697711,-1.007445518930765,-0.005824029926803753,29.604526594197157,-16.069147264575918,39.022575726989544,1,S02
4680,0.14553535446851623,-0.028177984921411714,10.161863682486892,-4.7122313984577975,-0.6771874052148649,0.9405203722947553,29.45385897955227,-16.790739803746273,37.93935897502488,1,S02
4700,0.13535570874169092,-0.03637233891486556,10.163450960290035,-3.888864729252929,-0.7769921562128742,1.1100145119604359,29.48764407385053,-16.329860463981728,38.762629085873684,1,S02
4720,0.1435322941738332,-0.03387359276979915,10.139973167683495,-3.417167736769094,-0.41721268018885893,0.45833746020372024,29.4137487308992,-16.267090792568027,38.534209205219454,1,S02
4740,0.13662553665704485,-0.05139289185067956,10.145911500427493,-5.19330564917491,-1.35928462712553,0.22084457814013547,29.25568010054051,-16.568376210249866,37.642072300126934,1,S02
4760,0.12709181296377198,-0.04328113955722149,10.130808410522686,-4.925440283482786,-0.3982336782929604,0.4893377117854526,29.60840747382284,-16.39964580001957,38.069768932909476,1,S02
4780,0.12135059452882632,-0.05261755176956433,10.146829892395461,-4.11417618147894,-1.74680518293957,1.074693060301534,29.94122887594243,-17.063812557976675,37.868114575547814,1,S02
4800,0.11133176321908797,-0.05764400827084248,10.126559802561465,-4.119432995374695,-1.3698749408127284,0.5759061811921746,29.68855082672155,-16.441998687362336,38.774698576371634,1,S02
4820,0.10741886252971475,-0.0372273414218023,10.148541275084778,-3.7535553778553727,-1.3867804235533026,-0.09527452859440289,30.28533379378182,-16.003102004763917,37.877327711667704,1,S02
4840,0.1183630888080284,-0.09011163854410173,10.143742961318342,-5.096080646655773,-1.36586740693381,-0.07426565761803883,29.698228155185657,-16.938479775296997,38.230726484759565,1,S02
4860,0.09181210677593228,-0.07140882182668667,10.163118813651208,-4.470935495957485,-1.6022323105841232,0.8463714076225245,29.911159715554415,-16.921729908248317,38.11810952636424,1,S02
4880,0.09323929998310261,-0.08354934040180462,10.140309530504155,-4.577373372256745,-1.1605732954723038,-0.19536950121501528,29.81496597860832,-17.438718691387145,38.551073402161194,1,S02
4900,0.0881338213652894,-0.07992570132828275,10.136978618096466,-4.454007451191962,-1.0674480601886576,-0.18248901269193962,29.60868309877107,-15.928179428046393,38.14831666037916,1,S02
4920,0.06900587396224919,-0.09514161110603732,10.14572113013967,-4.762730053894459,-1.2367619517906476,1.2136612074652575,29.764038344607094,-16.420643808622238,38.05469025423178,1,S02
4940,0.07387352944518481,-0.09024707934650572,10.147675844981425,-3.9390501618091567,-1.1935414132304942,0.3732766831407986,29.72577269099643,-16.255226769562135,38.12130958209696,1,S02
4960,0.06778008582718986,-0.07895878391856143,10.129459785716294,-4.5556697706943226,-1.7536123065370257,0.344862223828487,29.34578866876366,-17.11463600950372,38.22945937777227,1,S02
4980,0.10021741127565491,-0.0812642770696861,10.148475633289396,-4.116410535272924,-1.005832860782467,0.7839450654690472,29.664501315946417,-17.011034633313553,38.37341185868392,1,S02
5000,0.07978383025763482,-0.08667221134121611,10.138814025080343,-4.154117664712552,-1.4385996153906873,0.3079818220756581,28.9900918643898,-16.301139911258243,38.33360241785269,1,S02
5020,0.06508263249737087,-0.1125904710173572,10.12915805788584,-3.989109923674421,-1.651368971208798,1.0039613774096077,29.607909346705785,-16.49010680518338,38.40656493235775,1,S02
5040,0.05134251478128498,-0.1150133163553545,10.138888461242257,-3.903393268931162,-1.4218167543261195,-0.2874359052416655,29.901481175450456,-16.705216650305307,38.271507923900664,1,S02
5060,0.03527479892810878,-0.11351810109358773,10.14074896910406,-3.3919242099845333,-2.4483324218881193,0.22145220821630474,29.600614215591428,-16.52815276880777,38.89038819255248,1,S02
5080,0.041380365790412155,-0.10806345128912379,10.136755799563552,-5.157840480007455,-1.482243104010342,-0.23587019627309547,29.77627203180605,-16.396097634409756,38.54231879349811,1,S02
5100,0.044729582017995116,-0.11566621811712285,10.133367248521557,-4.167926085052782,-1.2619990275758632,0.9310937728453976,29.506346119462616,-17.548034559910764,37.56510474710031,1,S02
5120,0.03347374048080495,-0.103098945950485,10.147758033245054,-3.546263008556447,-0.9744640859110845,0.7010355750385908,29.751132648091787,-16.244043969562878,38.35192956827393,1,S02
5140,0.05809222887600892,-0.11182162192393633,10.16299676055094,-4.104022909006732,-1.159800206320718,0.6614948196975379,29.862925372249624,-16.620650098269948,38.71328463904351,1,S02
5160,0.033723907651361684,-0.13023121524655706,10.143457491427606,-4.47283016926478,-0.9034964934488628,1.3889625867608169,29.223430606343758,-16.625072214328178,37.77900638114042,1,S02
5180,0.035572819983072476,-0.11328821109603507,10.157715923392047,-4.654200724370181,-1.472076166283383,0.19775790345027577,29.552519179369863,-16.676881483133414,38.51401964140019,1,S02
5200,0.016799285115265614,-0.11546073321995398,10.128541486636484,-4.963934355047967,-1.7647520120954894,0.5769228981293237,29.232634467351552,-16.579622538520795,38.82327088848547,1,S02
5220,0.029373184698691435,-0.10954106156438337,10.156092816839475,-4.508928895187461,-0.8873646475548851,0.5438424480213973,29.59799280308854,-15.937832112879835,38.29099672013421,1,S02
5240,0.008784026372354675,-0.13008274170275058,10.140117020938936,-5.213757798382859,-2.02452700389542,0.5382360947972111,29.52000240270816,-16.825357216172904,38.19306036422421,1,S02
5260,0.02923431256462633,-0.11203562987834774,10.136542424612543,-3.8785170595785154,-1.0908372351378253,1.201526892127927,29.327664848990068,-17.05226869869576,38.51328343870547,1,S02
5280,0.02065114489919831,-0.11664215423576806,10.1452762943805,-5.525128812884697,-1.589448481778414,0.09534694611747663,29.914841092816506,-16.261434350064178,38.12257117965566,1,S02
5300,0.033151857167531926,-0.12209318371594755,10.143887518286,-3.4907969566940036,-2.158264107085105,1.6554717867824058,29.506699732915482,-15.698059044650476,38.74173389420167,1,S02
5320,0.004278834629131617,-0.11897108910883025,10.144442395036627,-5.324516791039491,-1.4478510242248235,-0.3423161700399585,30.412179628417498,-16.65288353420315,37.96293644684005,1,S02
5340,0.004670781490953416,-0.11986588780826593,10.150276143550377,-4.442956957202487,-0.923159873771406,-0.21480921928939567,29.963919575220174,-16.124671431880625,38.20174822624907,1,S02
5360,0.021585070773104204,-0.10689118250761165,10.145373119371955,-4.582763047205131,-1.1580680887250319,0.10037670111100339,30.233387179848332,-16.842242843304533,38.450816761455656,1,S02
5380,0.012967376413794127,-0.11244875889706848,10.15507736386206,-4.475127806382697,-1.0589450037468717,0.24900616193887232,30.175378126872264,-16.90431012149051,38.1336775408673,1,S02
5400,0.014214605729327756,-0.10072011825139576,10.1505242366964,-4.9154824333788305,-0.5086029363346088,0.8109154607888935,29.796507752406306,-16.801427956700167,38.52479116348951,1,S02
5420,0.03249790283117451,-0.11107487142190388,10.145556102021146,-4.556047980310306,-0.971463257918409,-0.265469737775741,29.400489209816833,-16.019232196953727,38.504755030004794,1,S02
5440,0.028142239824686305,-0.1048314908946717,10.13774345823843,-4.785785270350917,-0.873813817484242,1.6248113902428902,29.398282121015985,-16.27584355735337,37.964353066774414,1,S02
5460,0.0153586474458825,-0.09890062395661678,10.139545552465853,-3.705681282750715,-0.5097739916263102,0.7419382875923239,29.334332484245135,-16.019772641959037,38.28983001221655,1,S02
5480,0.004165893648764907,-0.10569454329227643,10.160040779152217,-4.68599046416096,-2.5271382442795867,0.34400810048165803,30.031464965968127,-17.12615764974462,38.2838461827096,1,S02
5500,0.042228042036948805,-0.09216694396258689,10.13275532696798,-4.524687607059885,-2.53721340851488,0.5732751080104157,29.74088804622756,-16.916244402438124,38.99924220338437,1,S02
5520,0.03530478847919878,-0.09025525915332663,10.1475430800075,-4.47630348211188,-1.387700883321101,0.39338529150087553,29.939028605833805,-15.72499106241656,38.529929869833445,1,S02
5540,0.023054926023246783,-0.09408153704189012,10.14945867304088,-4.964625041895868,-1.3116301797804495,0.18602431717059764,29.39827601561143,-16.698798833163075,38.893216503945666,1,S02
5560,0.03422390181928883,-0.05640533285679532,10.156161308915658,-4.996733686515385,-0.6219358818082182,0.8936975385811029,29.598645689188025,-16.363619043838597,38.38534287612854,1,S02
5580,0.03950763304862511,-0.07539639470660243,10.141527039451573,-4.610462063669378,-1.5468890056892344,1.4448180876839767,29.725898342584628,-16.527895454339262,38.56461133473298,1,S02
5600,0.03899167792895067,-0.06700023435063872,10.14423205513918,-4.342356806106394,-2.329746840658547,0.7713127600507184,29.21339024777647,-17.08632414781889,38.453686312454614,1,S02
5620,0.04432629817753023,-0.07558026053914933,10.144739275136173,-3.5709106200309875,-0.7775408855425385,1.9961847932980308,29.620118933346742,-16.575377802598084,37.74143631616249,1,S02
5640,0.056938025115486145,-0.04450703324541373,10.148088791896717,-3.3591836033040945,-0.6991898596692672,0.003292945395426794,30.102797355479037,-16.44559089454144,38.449734541537225,1,S02
5660,0.04379724727958458,-0.04820067880291755,10.140867597862627,-4.553032298225033,-0.9425804515453471,0.24238483771972885,29.210574008300732,-17.011184463640014,37.579052404282656,1,S02
5680,0.057172017033428314,-0.043541408516850094,10.144748980593935,-5.295452988479866,-1.7236327240469627,0.30631843080851096,29.70885586900391,-17.006889972995133,37.908593032256825,1,S02
5700,0.06709350995244798,-0.0579977178975929,10.14384006516459,-4.395671836667352,-1.4780581532064287,1.2426279565159501,30.14647489676906,-16.148518438506866,38.044176203507476,1,S02
5720,0.05920508196403235,-0.03289227569905758,10.155330440869852,-5.060054632038135,-1.4814911047966037,-0.21757793992835306,29.23003788780166,-15.843024822874836,38.632565230043255,1,S02
5740,0.06889304380820407,-0.04703176415486007,10.140924475129097,-4.420505168007577,-1.0644563593418916,0.8646693721842154,30.078377428503757,-16.45858193905827,37.70263601465585,1,S02
5760,0.07990870164197603,-0.04753720947516246,10.140218360649257,-4.240568992501951,-0.2657918148235847,0.137415580533499,29.848405458876535,-17.10980926395964,38.33879178977311,1,S02
5780,0.08806403081186552,-0.02526632886671793,10.143772338788757,-3.7260550789571316,-1.9867374212071574,0.1844556672078333,29.679445376281702,-16.482198193993902,38.747745742164824,1,S02
5800,0.07175435124489184,-0.04887771660488413,10.14905716800331,-4.464381562389688,-1.438231460493563,-0.23652970126311468,29.248945136921026,-16.547115572279935,38.30323662839612,1,S02
5820,0.08107134704234711,-0.03113318343426625,10.143821348430523,-4.2082302573752415,-1.8235024467000884,0.5707347820797414,29.58863425062599,-16.225714166249567,39.71627769059522,1,S02
5840,0.11237052622136098,-0.04216420676082765,10.147516038433924,-3.1604051914944065,-1.305990294863182,-0.3715379349856558,29.915508190756864,-16.75731042060317,38.35895460692039,1,S02
5860,0.10011309074071219,-0.0226430818562747,10.143269402031041,-3.9628812501657875,-1.1094363699093952,0.6779411774775941,29.78358377720958,-16.24343215601128,39.236637265325115,1,S02
5880,0.12515105444558108,-0.021259469435033145,10.154864286044353,-4.392390432325532,-1.8549469537168153,1.3572907155969207,29.592491107237677,-16.68523136300739,38.048488873474696,1,S02
5900,0.10372118528227126,-0.02955284278925705,10.144910312002494,-4.177638121551047,-2.092365433832561,0.321732213627467,30.09687583851028,-16.191871447882406,38.71445654643438,1,S02
5920,0.11864355207533676,-0.03680390430627323,10.154238074360263,-3.4478717163420005,-1.776109281181847,0.735465405784784,30.104562782956688,-16.12403083664813,37.97601602412489,1,S02
5940,0.10990931670731718,-0.014331367196192567,10.125176484100429,-3.560820277288366,-0.43825819022265367,1.1177657229792253,29.826003311097,-16.809199683307888,37.98418827200274,1,S02
5960,0.11669835846051016,-0.01486984244586461,10.13561100667035,-5.392301495219552,-2.032813454684138,1.1647583061961297,29.785168887004353,-15.764055955520442,37.78807627930288,1,S02
5980,0.15686973636108367,-0.0309836100847998,10.159429908399792,-3.982818048073061,-0.2739646153463253,-0.1953771641783172,29.555054307453165,-17.320578430536052,38.40286483197237,1,S02
6000,0.1389672112426708,-0.03318387115791832,10.146599216101691,-3.148497720737751,-0.42229684240973253,0.9218083288448191,29.607481995225314,-17.25818656778352,37.9207911350812,1,S02
6020,0.13291306684437046,-0.01872462362059594,10.152111592558445,-5.043458126427641,-1.9705685728362723,1.2210346262115468,29.91940767768361,-16.33582645289823,38.30594607813781,1,S02
6040,0.13841293376456137,-0.023849006845232786,10.150879522240542,-4.089705389723865,-1.2431903807220188,0.05334842979961307,29.506757150383464,-17.21222161303359,37.92785523834999,1,S02
6060,0.1556142637894279,-0.02785264033174837,10.151375468159621,-3.6619931706171913,-0.8254518108681758,1.3881180567594282,30.34692904328195,-16.82990911676732,38.98956667234718,1,S02
6080,0.14104410906658668,-0.025600876390374443,10.150721196608611,-2.929638801208085,-2.0122181287492222,0.8311881347029133,29.902520199232203,-16.748673499423067,37.74362143119502,1,S02
6100,0.1642966094071563,-0.030430512778938712,10.15256859630484,-3.443411507539183,-0.762026374044564,1.4217541063113832,29.998428655305997,-16.329902431272373,38.323255782871236,1,S02
6120,0.15615975509489086,-0.048778230179797696,10.139428870606915,-3.8969175465019386,-1.5992620582651247,0.9541901551325946,30.122924933529408,-16.392156350864003,38.842098618522805,1,S02
6140,0.1647375590024977,-0.04784389451849677,10.151635881885609,-3.9098323681647513,-1.5767121170169398,0.6359752677563302,30.605958472751777,-16.967388877889903,38.328587144682366,1,S02
6160,0.17441062371536592,-0.033176554765270774,10.162947192866989,-4.27948510027376,-0.6861018840254974,-0.502485009440227,29.87967437706063,-16.91063191306068,38.65620106019633,1,S02
6180,0.14942620146033395,-0.053757494673337805,10.151326654670076,-4.398999289644607,-0.7206178403995078,0.7631300728733259,29.550592412973064,-16.51811626538723,38.466594782866075,1,S02
6200,0.1624720925977174,-0.045267708622816025,10.143062321436252,-4.326307714221619,-1.0520349117338468,2.0908763736671627,29.352226551614116,-17.643804277872675,39.480121953361376,1,S02
6220,0.18089327961414325,-0.04016190967929456,10.139911547777462,-3.934515855985176,-0.5432279554704311,0.48740352700634343,29.36632925575956,-16.269458887541234,37.971888670709916,1,S02
6240,0.18360259535320678,-0.05386480822760427,10.161920901419256,-3.8899051952752894,-0.554216868934951,1.3084736364507141,29.855125897633933,-16.611921347822936,38.22661370878947,1,S02
6260,0.14947598274051088,-0.05558391468734447,10.137959926834322,-4.380686924864816,-0.2603375656918876,1.331142291978681,30.049211965245846,-16.43296505354101,38.8198953342831,1,S02
6280,0.18648703942494266,-0.05582837729283593,10.137032118680633,-4.178265863837095,-1.1267721361639143,0.9249280968917727,30.103041203954895,-16.900980227656937,38.28263381761186,1,S02
6300,0.19433926757990796,-0.07286194353319438,10.143620570589237,-4.43472665106599,-0.8392363762446141,1.4904673750081345,29.982755250529536,-16.433076289001573,37.93220272017442,1,S02
6320,0.17824884557401083,-0.07671504068077156,10.133993963729191,-3.948149821933978,-1.4293570494950472,0.7529524624021761,29.827756107542747,-16.036225010566778,38.11919950622673,1,S02
6340,0.16877493076815436,-0.08086484280660505,10.155434467193697,-4.217299878196236,-1.0527904538258575,0.35837534553450984,29.361814527583906,-16.471618594326973,38.15613494008818,1,S02
6360,0.17921197741625292,-0.05638069395405757,10.139691994440206,-3.580767487028562,-0.7434613137655205,0.29362229007820395,29.176257462002496,-16.42046523276786,37.96348787331472,1,S02
6380,0.18486208420685016,-0.09132540023826201,10.168432384924117,-3.9943119845062176,-0.210138866048885,1.2080375446305247,29.561358631134617,-15.76786331848763,38.58654801399223,1,S02
6400,0.18625733250579846,-0.09321299920247444,10.152996061303865,-3.4188618870428558,-1.2955670148053806,-0.10838108220196296,30.13748265398436,-16.480646904831445,37.748366654031294,1,S02
6420,0.1844404487751929,-0.08379127916568696,10.14494483485492,-3.7342043490527392,-1.3697335491814422,0.6117131282050001,29.300908610689888,-16.254923065881222,38.725386626712464,1,S02
6440,0.17324807503770037,-0.09546700096686271,10.146508527541554,-4.250428761167921,-0.5814903963523976,1.5439694968311615,29.612229680131392,-17.06552067481654,38.24163892751619,1,S02
6460,0.1882582174828919,-0.0737538785389287,10.13733128977757,-4.507929507334924,-0.6147970418447104,1.3759033329248247,29.201529603559248,-16.74301537545537,37.80474594283807,1,S02
6480,0.1652037324321698,-0.12257485444076907,10.161422360522739,-3.121692298965262,-0.689488259883635,1.4070578072466657,30.49348940807779,-16.497243647163884,38.71355213473688,1,S02
6500,0.17037617763559854,-0.11041116485364436,10.147262690351495,-3.0461937409451827,-0.8270273713715457,1.3243234283752683,29.540855476280168,-16.292490520697,39.07844258343858,1,S02
6520,0.19351539613192226,-0.11862301346301289,10.157096533824797,-4.424337848068417,-0.9208584695156244,1.1276159102758014,30.042493081406697,-17.0690444423123,38.451019707397236,1,S02
6540,0.1682597457764861,-0.10301105981115498,10.13875004161995,-4.255726452620049,-1.5747234433101922,0.5157063973350273,30.052000050915698,-17.096030350369823,38.13219110307659,1,S02
6560,0.16466895058297887,-0.1081914486757938,10.142767064544291,-3.130441199520453,-2.2267071782954124,1.1685346597511748,29.160377451870115,-16.17223723353819,37.82231832120723,1,S02
6580,0.13618582578304095,-0.13083497417736445,10.144665582321029,-3.5657600341117135,-0.7011707337081845,0.49621999043773185,29.70573834455369,-16.56813266194223,38.24073250519544,1,S02
6600,0.16012618936600906,-0.12601118334280217,10.1592516520616,-4.473045401900392,-0.5207711267413482,1.7212478960030535,30.021171808729793,-16.443272168005272,37.79489643217934,1,S02
6620,0.16038032936157845,-0.10638324921693627,10.15715549517179,-4.3901701662812265,-1.5771700881628676,1.3159456628018589,30.131304469415,-17.198225244958913,37.54809255244614,1,S02
6640,0.14881606404320444,-0.14052579418858346,10.148240221717922,-3.7606697928842987,-1.054173126847724,1.3061701348819197,30.14910497455892,-16.882338913425038,38.45521343930599,1,S02
6660,0.1476271092825445,-0.1353802814049399,10.149350996711197,-4.1389278332853445,-2.1909884191951505,0.8093742838209229,29.402256588712703,-16.694385148563022,38.23976881637843,1,S02
6680,0.1337645700664326,-0.11937469773308496,10.139972419459896,-4.238665868173655,-1.963121711810782,1.161336671044408,30.1519502527371,-17.397299518000914,37.95091549709367,1,S02
6700,0.1345356163070194,-0.11692347955277194,10.141194366977018,-3.894696791711029,-2.05550401404778,0.951474204732362,30.30659197834064,-17.01269222198027,38.10934496772521,1,S02
6720,0.13585287506559227,-0.11091871429215233,10.151144030026735,-4.6934839176927,-0.5830994561530495,1.0138966757416352,29.757386257400047,-15.876126552492709,37.88888903789499,1,S02
6740,0.11469042625112638,-0.12714326094661516,10.155756125342275,-4.4610401737156495,-0.5131278072109074,1.3034325022285502,29.78226639422379,-15.899511927724314,38.33704577166004,1,S02
6760,0.13490304951011617,-0.1220406671225987,10.156688334188503,-3.9626106505080805,-0.8270258110164879,0.5251585419734957,29.1879887607122,-16.659972570307808,37.59367285788365,1,S02
6780,0.12639177279710312,-0.10910845236880445,10.147302393373177,-4.389239953111613,-0.989923217426764,2.5223798556811508,30.249657287244208,-16.10661077175623,38.83069992234878,1,S02
6800,0.12981562518427603,-0.120320693866831,10.148116949764276,-3.8931080144862036,-0.9961205165665463,0.03899868133829876,29.901044773494874,-16.64340003205485,38.86126374720418,1,S02
6820,0.12307175953412326,-0.10789958811768158,10.132379797048618,-4.6733276970635345,-1.2258479561348237,0.40594856185134404,29.4062562036492,-17.200050684033002,37.66518049512455,1,S02
6840,0.11504211131367494,-0.11774884249949064,10.12366766115721,-3.8553936902353345,-1.3226236287396793,0.7498024297714796,29.347058234960787,-16.825542536196345,38.13144479056969,1,S02
6860,0.12362668665195031,-0.10703033683490867,10.146473627304822,-4.705937982132391,-0.556680200985444,0.2954872781781046,29.60898218735092,-16.8232700686405,37.89341663657204,1,S02
6880,0.09737993876399,-0.10242541244516395,10.147401486386723,-4.003176304314789,-0.7723374307557562,1.0613172774955095,29.390911886928677,-16.395249095050765,38.08194642202378,1,S02
6900,0.08992889728790456,-0.09352571817141313,10.136842099713988,-3.7074845699210854,-0.6168356427737655,-0.4794735803619118,30.38273772626486,-16.75673086278683,38.68039591490531,1,S02
6920,0.0770893627523773,-0.09014794349789551,10.13785392489037,-4.823398182220936,-1.2697901119179527,0.4223115173841373,30.12016810891685,-17.08950056052778,38.17550861520131,1,S02
6940,0.09619318022041914,-0.0740865499991089,10.150965360505866,-4.2925749155215405,-2.2856956930657315,0.8547347977015907,29.858958907451484,-15.721066200370108,38.47220330879344,1,S02
6960,0.08864696856587723,-0.08527169345646447,10.136340028452846,-3.5209715203055927,-1.0638986516183844,0.45535660285444685,30.003578871937822,-16.758712828381242,38.45711431425766,1,S02
6980,0.0563685981918068,-0.07389529867821666,10.153141697915562,-4.668800218183133,-2.2338050463594907,0.2959394276555346,30.523359496864984,-16.188497892524296,37.758123951828274,1,S02
7000,0.05740639607442626,-0.08673420906486165,10.151173164578196,-4.9201585230123115,-1.3306353965537212,-0.30198032180445955,29.01217731715915,-16.62592987158556,37.79643349584235,1,S02
7020,0.06396591260972763,-0.08214492283336919,10.141697869542126,-4.09595413521216,-1.7231122133597871,-0.3629701760420254,29.994846422695794,-16.444449222192738,38.068237064607736,1,S02
7040,0.060787850701503734,-0.0749894279216601,10.160641796370404,-4.6330216906440445,-1.3826516756678824,0.669339556292224,29.759116693254466,-16.154133420228277,38.00747491475372,1,S02
7060,0.03805087117422798,-0.05509621204658451,10.155085963832116,-4.06404409594844,-0.806157498604434,1.1325708703025295,29.24465021901761,-17.213727553641107,38.20456504840958,1,S02
7080,0.05004034781969078,-0.04727718521219339,10.155852190072698,-4.1857963735649015,-0.7771835422249002,-0.36055531680863184,29.354465752071828,-17.07527723594201,39.224668593960594,1,S02
7100,0.050056460839006646,-0.0589410746561151,10.144155466897127,-3.56656816891549,-1.2390760361833482,0.5201673256266462,28.92928720428097,-17.319156795242954,37.92225468811713,1,S02
7120,0.03794789216904235,-0.04208301586278594,10.144168792324729,-4.260209111351734,-2.3967337624666287,1.009207584733531,30.64949615875869,-16.169085602159313,37.772122993870504,1,S02
7140,0.047388913652413545,-0.046088877003597706,10.156111461799185,-4.126915516268729,-1.1302178444340492,0.23211090462755996,29.499274946718838,-17.362018514725488,37.5697924901548,1,S02
7160,0.04638777636922976,-0.051486691685962205,10.139119154708718,-5.124781222172397,-1.5229983705902588,0.39453458741443004,29.511635896517664,-16.01919539924878,38.034273979830886,1,S02
7180,0.01826983295360829,-0.04872769934497017,10.147759703732818,-3.819918552959566,-0.7823156870135284,0.5372361146707566,29.734996761298714,-16.73922965411819,37.74877529488241,1,S02
7200,0.010925220135821617,-0.04828610239888985,10.141132385053337,-4.559780199859938,-1.576079692534492,-0.35093376399165943,29.956873104957875,-16.40365618015295,38.667960112585625,1,S02
7220,0.02296619058650537,-0.04744839265762084,10.159740919968582,-4.724438654691799,-1.4601965201658038,0.30539615750571747,29.665586276869973,-15.974743324582485,38.747034250060935,1,S02
7240,0.021726220801541393,-0.028425111206697287,10.134123173646495,-4.226021464509339,-0.6977201214833122,0.5323055946361059,29.14144157051161,-16.82085592061123,37.9279091576246,1,S02
7260,0.02245346382783857,-0.012514771969351302,10.140594970084178,-4.450509161864181,-0.5248797255669296,0.5151590910315373,29.95383781725158,-17.00143213875777,38.10107782556551,1,S02
7280,0.01975372079324572,-0.005047450178576204,10.146908395001645,-4.875746167819189,-2.1021712109112176,0.10146955190569112,30.29865229591006,-16.662223352264533,38.24260039328419,1,S02
7300,0.006184366331387706,-0.015239908753920985,10.14903551141811,-4.265709295468698,-0.7526116410795654,0.5783658191018983,29.487816426789923,-16.28466404393933,38.708247033183945,1,S02
7320,0.03254320383449848,-0.03704547404797153,10.160716969652002,-5.682911021461182,-0.25708985919314187,0.15075995993461755,29.908873229657043,-17.145701285526123,37.98871163302087,1,S02
7340,0.030960121990797076,-0.002775346733830633,10.149426213996641,-3.813109252722968,-1.370511970020237,0.30784250820915093,30.11017982170728,-16.033124579856157,38.22709821087588,1,S02
7360,0.02191588567747557,-0.024227555431587534,10.15850715125791,-4.38621684939429,-2.0957320334971374,0.6467372127934794,29.364197010978607,-16.272677726759795,38.144346358733934,1,S02
7380,0.020479162185162283,-0.019729811844657448,10.130282965807584,-3.8925437290254092,-1.4207188304864535,0.23298483166220252,29.852864506287105,-16.404486562805115,38.84894754692074,1,S02
7400,0.024067242856155344,-0.0025854941847811147,10.152210175446546,-4.086541080246944,-1.5038653987605246,0.8736453905295144,29.85399460085773,-17.1535999419405,37.82383728153829,1,S02
7420,0.021117927450241283,-0.028142135022161126,10.14029137673885,-3.7701347501118465,-0.9100567247239814,0.17502935909336648,29.789367394096978,-16.754752685383274,38.065213326752925,1,S02
7440,0.02552084838359732,-0.005460507521871563,10.140642759987307,-4.1277627337403695,-1.0390115551000312,0.4245347817769908,29.91594232903717,-16.594299832427602,38.257667514250144,1,S02
7460,0.026390710644169715,-0.03717041472253125,10.150296575790215,-4.408246198713946,-1.6012242179635654,0.29453481720625746,30.036825689405468,-16.78261074812054,39.027388785065895,1,S02
7480,0.027280890519416956,-0.013756475378050671,10.149338971773933,-4.7435108567579345,-1.1274376411386229,0.015385643987148812,29.554552794832343,-16.920739370577294,38.440468515640376,1,S02
7500,0.039720737507331814,-0.0245651882284559,10.149684007836333,-3.7251732774699313,-1.3341258884086518,0.49526285552042715,29.519662071508858,-17.013025481339803,38.20802658463182,1,S02
7520,0.039216531538897634,-0.03910036792712118,10.154327526646885,-4.460347960557864,-1.4495859326601417,0.33818938248421837,30.0789087477485,-16.381120480057724,38.52123892197668,1,S02
7540,0.03778733569547401,-0.005660114467296043,10.13406842044326,-4.11738343103134,-1.734980152612987,-0.26684897305751076,30.687937087349226,-16.96258813133163,38.056620740791836,1,S02
7560,0.0419984086267871,-0.033426553486710024,10.143071586079706,-3.757300532438337,-0.5457589755250262,0.6717972311034938,29.83610670823991,-16.166385876807816,38.19799693474378,1,S02
7580,0.028375209774390578,-0.03244341664537239,10.143950379601058,-3.905114180483323,-1.1968730584842244,0.42520679696338043,29.624500730885007,-16.784631665834116,38.28394314003801,1,S02
7600,0.028308561271933083,-0.03591294056713734,10.155285236359173,-4.556434597839525,-0.84259540671462,0.9053172046424101,29.6385263638012,-17.18588839857281,37.943853564645735,1,S02
7620,0.050833069496782346,-0.04066092032610497,10.145567150684528,-3.5932686663051125,-1.4015302863286485,0.5483088538025936,29.232622003418296,-16.102885241972096,38.14731691001978,1,S02
7640,0.06788570902429089,-0.05760166494907466,10.155602638500715,-4.68811686674097,-1.747892067628005,0.8723063975960144,29.948567384931092,-16.668627133847384,38.55056857676619,1,S02
7660,0.05844020893375722,-0.05406890366777409,10.142136770461226,-5.153556892223543,-1.128425176619798,0.1994166772854702,30.47359855068209,-16.838554094848675,37.818774548887205,1,S02
7680,0.06156318209678784,-0.06106541654192113,10.137277303266853,-5.4355261397370995,-1.2358957302937474,0.14023198692591354,29.966414149291197,-17.44634787136315,38.024361929584984,1,S02
7700,0.06147439804232565,-0.06118458214072317,10.164437989338387,-4.225027301089883,-1.1091883163374314,0.5698745863421412,30.23595542246221,-16.32875010548061,38.44600506426878,1,S02
7720,0.06542813512000463,-0.08411483447219939,10.15606351213013,-4.667683318218437,-1.115224474154389,0.39676760675873607,29.831955818600335,-16.96586813676575,38.9712044801497,1,S02
7740,0.06727313977842081,-0.07230069310808342,10.144792787813667,-4.503001946555759,-1.3008974535967044,0.2341108671347148,30.25704573894356,-17.032075156645437,38.57608818536305,1,S02
7760,0.06575676350963494,-0.0825883398267213,10.149051989520109,-3.513738722164484,-0.8683948911434942,-0.13857532941284112,29.79042315850309,-16.654323303145603,37.99933949943524,1,S02
7780,0.10239080433383138,-0.08464174331593163,10.14658729486552,-4.926038827985338,-1.1233968094447107,1.2354505687177404,30.122040933095057,-16.867563213661676,37.89009184767113,1,S02
7800,0.08147039330321115,-0.09756504341155606,10.159259032696173,-4.32406114434956,-0.8152030579616174,0.6393839762997569,30.18418998340323,-16.88520367354885,38.0709769618902,1,S02
7820,0.08750287706977106,-0.09175103526422614,10.157145887390609,-4.622922047943195,-1.1326886384155865,0.40147548835597757,29.842806505401104,-16.00406735319305,38.28180945782228,1,S02
7840,0.09989267260068269,-0.10226103352716523,10.154347067817262,-4.71091807920982,-0.504292788098674,0.1295167174696265,29.281177913535913,-17.122459895853513,38.50650909772753,1,S02
7860,0.09414102496990386,-0.09270632664790508,10.152553571293813,-4.463981920601007,-0.5624198688156234,1.2321584017326703,29.62231521561949,-16.33504354211506,38.4990348915008,1,S02
7880,0.1125964097188138,-0.1056533441741465,10.151540520477873,-4.1725219266598605,-1.520533452127265,0.03145862719609405,29.682476789951842,-16.55448030537549,38.377742342440385,1,S02
7900,0.09976237811686471,-0.09068127393404476,10.146100381351362,-3.3410606638882276,-1.4508633119725953,0.2541021301051132,29.819730807512485,-16.224921956146176,38.25814932224984,1,S02
7920,0.11925955952875325,-0.10413406251063528,10.144540823020609,-4.788435311882937,-1.7069911069183186,1.1226771326977631,29.3598516118378,-16.811945922438575,37.96882537941959,1,S02
7940,0.09687693902860334,-0.09820828348947883,10.161824139453152,-3.8312383955903773,-0.3694004830761216,0.1778357725684091,30.164320635448284,-17.36946003606121,38.38809380686931,1,S02
7960,0.12212873997947075,-0.1103689818540344,10.150558449401004,-4.330528083238855,-1.520596004906007,0.8470678482203715,30.240700423196664,-17.422372489650257,38.41789806338355,1,S02
7980,0.1392677067462991,-0.1104377497049419,10.154965245664501,-3.407005997974392,-1.9689837396440533,0.9133439092388324,29.439033375877685,-16.696763403014828,38.04848027645639,1,S02
8000,0.15117532429676178,-0.12240223656451205,10.159798222148632,-3.633820832653859,-0.34526424541733536,1.3361140263653475,29.248131684447216,-15.741846925355116,37.99697372633199,1,S02
8020,0.1413982249205648,-0.10733248173512402,10.143378004987266,-3.74071919369315,-1.3834793325308319,0.5359725319815266,29.660459195654738,-16.437060086309778,38.042052444917026,1,S02
8040,0.15636314481996044,-0.11497784517788193,10.138366364084414,-4.3882717452805995,-2.2148515486732467,0.5639110673201589,29.44560908380854,-16.40408700216144,39.07124616957683,1,S02
8060,0.14622407716348654,-0.11064358962008604,10.151781408821673,-3.9348111370842402,-0.6400932192513383,1.3725094365039006,29.603412389407843,-16.34432374688782,38.663856433622364,1,S02
8080,0.14844093960820218,-0.11472491714886536,10.129711249813075,-4.228574145578508,-1.5125184245646754,1.279055093358176,29.741518377707596,-16.160969366363876,38.598661302083535,1,S02
8100,0.1559672812766276,-0.12618560572430126,10.129661772601743,-3.949162266784352,-0.8614870861668464,1.269654964273799,29.448647582660634,-16.602015677555638,38.42601748144989,1,S02
8120,0.17572106003540186,-0.10572350072877594,10.141322208757499,-5.400765754465568,-0.022490032993973008,-0.023099825569334098,29.88739756771118,-17.292262355089278,38.11286855421578,1,S02
8140,0.1652609285068636,-0.12688108235139062,10.144909693850478,-4.222369686598171,-1.5775694809597063,0.09994075458427332,29.58103333351644,-16.773717382167604,38.11453676696022,1,S02
8160,0.1676228205967597,-0.09233599197623082,10.153438825520972,-4.148045777679359,-0.9409737899061709,0.7577635602234819,29.447035021013352,-16.162905064827356,38.3430217258953,1,S02
8180,0.17587211502623293,-0.09461449290390272,10.141222844037928,-4.320414363648141,-1.8863320267270443,1.4424654852282361,29.49275785459056,-16.843250095910733,38.43096327136006,1,S02
8200,0.1456836112611084,-0.1110890151603144,10.169278694630968,-3.867821424472464,-0.7751342767217414,0.6090086802534004,29.85636907980572,-16.252910963572067,38.86810201838843,1,S02
8220,0.1723863898354255,-0.10607336462521516,10.153916810317728,-2.6905328009233815,-0.8764219269747534,0.9090158834766169,29.876225325899295,-16.313650492970503,38.14110844474365,1,S02
8240,0.16308128795725402,-0.12792084451617136,10.154425485529634,-4.41671778424093,-1.5606933170338326,1.3723508723160132,29.751665706422198,-17.04836152458519,37.99066749917771,1,S02
8260,0.16702108272432997,-0.12295678222572477,10.13690326016895,-4.025266399823842,-0.7129415263388755,0.6970104299735923,29.868810241403207,-15.749800367629573,38.48522520357014,1,S02
8280,0.16366389921080243,-0.09717401897641843,10.145303272704291,-4.222890823931588,-0.4511834786311665,1.475711402720632,30.522074860150603,-16.175100408808554,39.281418544197074,1,S02
8300,0.18992411499092865,-0.11270889638970291,10.13170371359818,-3.6866398687863264,-1.626474121504135,0.8320071445677668,29.746516836057786,-16.47131101751822,38.91280972553527,1,S02
8320,0.1887064720586313,-0.12272878150266972,10.1525334068089,-4.400592901397659,-0.9591271378354058,1.4392734430533498,29.62516686920002,-16.48701966195234,38.764569042564645,1,S02
8340,0.18369370220831793,-0.09472497894001156,10.14169452321597,-5.329747102396228,-1.4266509435806713,0.5870391721786996,29.308508875277415,-16.67843540993316,37.791581907803035,1,S02
8360,0.1772417660707398,-0.09147205464544253,10.122888462385635,-3.2911365528631453,-0.3003682989465596,1.0340549929923162,30.32391992245034,-17.049845555390654,38.009310141145,1,S02
8380,0.15847531267620438,-0.08053096316112826,10.132838323319845,-3.8620388766534512,-0.5827670484423544,0.9920798825684758,29.136036068092803,-17.182707064934995,38.30141629859568,1,S02
8400,0.1853824368298649,-0.07437269725134464,10.142240960715606,-3.937858605013005,-0.3332249612828152,1.3965140484651037,29.758775199518983,-16.00009400730014,37.79628176034405,1,S02
8420,0.1882617413787463,-0.06297079588455695,10.1233317518268,-3.835813017453302,-0.4462648268764091,0.032343893930143475,29.73770060904638,-16.09340062116531,37.89455454850625,1,S02
8440,0.18359946044566056,-0.07309342777325155,10.139100915167974,-3.780936499747106,-0.8749297231447548,0.841078817153551,29.954365589749976,-15.887425088822194,38.0331730020201,1,S02
8460,0.16078646711893863,-0.07278797446358458,10.157410090125662,-4.050366103043654,-0.15115932042014646,0.47554703612388993,30.06096297795955,-17.204060789974477,38.75917409292241,1,S02
8480,0.17182838200739403,-0.06446988961452663,10.147330588002067,-3.1199091690342975,-0.8104947320861284,0.8787480958751046,29.14515826623625,-16.052134698118294,38.00582193887226,1,S02
8500,0.15888072392449257,-0.05064041582501232,10.130632497361695,-3.3166930567547293,-1.3744987309908565,1.2165363194257348,29.67127525278287,-16.274007583557598,38.12542238181346,1,S02
8520,0.14402940176226378,-0.054028358107987756,10.138691718472701,-3.15051885052641,-1.6654506068399033,1.0349416507784794,29.862199223748426,-16.313967724977335,38.68451392413618,1,S02
8540,0.13991361353622633,-0.04937808362320763,10.164373794815983,-4.2974227063357695,-0.4331601985365139,1.2496197246284964,29.943448172784578,-16.237048754992436,38.42248657167478,1,S02
8560,0.1679122996061821,-0.04232159573314764,10.140535960484291,-3.4628306786451413,-0.3920963079176466,1.5080850018157088,29.015451338696714,-17.02098043056827,38.49372591371049,1,S02
8580,0.16433037564145736,-0.049879336640502495,10.165810621843207,-4.3034192820035475,-1.1104841468684525,1.0499168053625412,29.900160587991376,-15.996984774224742,38.26691860959179,1,S02
8600,0.16549974672561274,-0.02630148727799881,10.14653112341859,-4.172282868522094,-1.0545877792166527,0.9657587139422544,29.55943945117925,-16.381952865486912,38.87329343309501,1,S02
8620,0.1522605865173043,-0.03798889690204755,10.147632684810322,-3.999771244797274,-1.0763782184388215,-0.3812176933863225,29.667037147246383,-17.258400031536567,37.67695076577812,1,S02
8640,0.14082369589128388,-0.040039982078674735,10.148408556418959,-4.309046873207261,-0.9718060176662795,-0.6607807751661771,28.955704718077335,-16.52807104367877,38.65953939904969,1,S02
8660,0.16170937085945658,-0.0580810381969495,10.157832618426287,-3.8044998250321678,-1.2483605352499019,0.8201803967039338,29.55263702115729,-17.02226169775199,38.86864352099218,1,S02
8680,0.15830003102862183,-0.020467585587414155,10.143812245707155,-3.6709956185632104,-0.9762744237832685,0.6786747510934212,29.98961682237805,-16.780939451112665,39.29362412535562,1,S02
8700,0.15083885273986544,-0.040736812629321315,10.14261310776549,-3.730196416236763,-2.1544048629540047,0.17472986400814128,29.512806267608404,-16.114100220311386,38.07514163676132,1,S02
8720,0.13708979230599247,-0.02581795157907607,10.128934690001852,-2.4880033375319526,-1.6935049395611184,0.7654617798443619,29.334790112529863,-16.679463610276706,38.22241510272089,1,S02
8740,0.12767987861603033,-0.0007351859260730509,10.146020486158726,-3.770798437535205,-2.0162265125706678,0.788874430367785,29.226293495076433,-17.05178601193468,38.10363211412834,1,S02
8760,0.13902584350740693,-0.022235911333407972,10.152844866255576,-3.6973431866715702,-0.8659884403224549,0.9595424847335154,29.756852531275122,-16.452804271589606,37.95552423987633,1,S02
8780,0.12305914544612433,-0.024356404190956686,10.155192650749822,-3.510783660606295,-1.098378884769548,0.14750427471044397,29.40617259063228,-16.43053269019711,38.52487368060047,1,S02
8800,0.11402512397394204,-0.013998015963723708,10.157792210063642,-4.225460613001014,-0.8932902572868711,0.5930819529156083,29.98456961793876,-17.103090970554994,38.36638091423957,1,S02
8820,0.11776812103293466,-0.015375199500954263,10.142207780080733,-4.013569851143348,-0.8126140808811507,0.18625888287099496,28.975174102654616,-16.079915378796358,37.85168479364173,1,S02
8840,0.11032984829649269,-0.03759567539037437,10.149339725625323,-4.286170899062537,-0.9470718335293885,-0.6185665106387458,29.961879274617147,-16.93799150106852,38.102450505630934,1,S02
8860,0.1241018801395303,-0.01855994514174581,10.153245465043774,-4.3304692694783915,-0.9344606320244224,0.9969820131683461,29.257999636056528,-16.438451464535483,37.770926605899675,1,S02
8880,0.08873606913670096,-0.01597032580766107,10.137531477422183,-4.533291548507097,-1.0710727834715326,1.3463198992315113,29.720896550657198,-16.49470042502419,38.60300350895728,1,S02
8900,0.104704154808747,-0.01565394429542641,10.164481303612405,-4.542227177621683,-1.3571806127390884,1.0697885652832682,30.189779420983015,-16.070875607786313,38.67869397605821,1,S02
8920,0.10485413814438664,-0.030756718084874735,10.133301706911995,-3.9410677593869234,-1.098956982423784,0.5479001479595068,29.805032247378833,-17.02669575336892,38.16905148095726,1,S02
8940,0.07051326858713317,-0.02741819840788086,10.141741852170775,-4.506413847805451,-0.39056416977964803,0.23150095686841998,29.946308517933183,-17.021540189688423,37.68614320670408,1,S02
8960,0.07890360627429124,-0.03693421077755188,10.13806013373942,-4.542922278194907,-1.7690694069859845,-0.13292445281012066,29.712637643347126,-15.882544756243671,38.24797232599649,1,S02
8980,0.07304547188894588,-0.022552136560589298,10.171191877768686,-4.466825279967028,0.011305223490388538,0.6115469353038292,29.130517980276174,-16.870512500634135,38.26710151221975,1,S02
9000,0.06658566187490006,-0.028244718189691737,10.156646877831793,-4.49792139254944,-1.215931697574114,0.786341198959616,29.85103532317164,-16.878663966920044,38.541101729763874,1,S02
9020,0.056589049138453716,-0.03162189589071849,10.134474353558128,-4.241067604846642,-1.7444461497846278,0.3275980070458524,30.716443239516895,-16.99570337846864,38.15829593533281,1,S02
9040,0.06854473733502559,-0.0591074034886432,10.156653271803437,-4.1973069465924215,-0.7203527524331691,0.028126905643351185,30.199653637945524,-16.759147600506108,38.4907520759118,1,S02
9060,0.0436802758247061,-0.04725668382519922,10.163010883156689,-3.8818779901099933,-1.4221963529504043,-0.5466519613990465,30.23302344998876,-16.259824440803147,38.419120745551794,1,S02
9080,0.056998787001583895,-0.044992175103327,10.137689015320294,-5.045617993415496,-1.179849032447976,-0.04646563522777325,30.1781374101259,-16.3657305891673,38.22131863943766,1,S02
9100,0.05989447468521975,-0.05959516584315848,10.139747470630635,-4.384804143303801,-1.7778314432462183,0.3830781394456655,30.13392334374496,-17.31071392220721,38.00795780362178,1,S02
9120,0.030468084455756023,-0.0595847775649243,10.144368904174087,-5.009533627112487,-1.5742948573306368,0.5082886933428894,29.97155328349244,-16.174837862779462,37.90390754643063,1,S02
9140,0.036530087149415746,-0.06705239719273694,10.160065530935846,-4.087569740070743,-1.121596794334462,-0.08203875906101432,29.78141867310155,-16.664775897074644,38.80255070918451,1,S02
9160,0.030656699121071454,-0.0580589026002962,10.130639503386137,-4.825730051535957,-1.3199816464291254,0.2676859300322442,29.483561184930714,-17.11249281325156,37.945809095568585,1,S02
9180,0.056064018878985315,-0.08089240761159783,10.146853201231158,-4.776827888036037,-1.8765767857258406,0.11342585717271075,30.024548464193096,-16.670845623566144,37.925961292152124,1,S02
9200,0.027886262036981926,-0.07793599322730568,10.148651376123976,-4.789894084292989,-2.0722307717421575,0.6264691750500049,29.941381447861325,-15.679417600310657,38.59173280174814,1,S02
9220,0.046090754269251424,-0.07210553661137986,10.140411606402195,-4.1245464428984,-1.2120499564864682,0.41569491038234874,29.384900150454776,-16.645405784619307,38.59056353828023,1,S02
9240,0.03933791918457538,-0.08756046671822333,10.148262144537863,-4.828189701245189,-0.9445989070565195,1.522417238890481,29.658089851589338,-15.89341267387449,37.64884441364927,1,S02
9260,0.007650869113065381,-0.11320564079908899,10.145508094988303,-4.4586748416467294,-1.234844701982238,0.7116556909247617,30.261043442003942,-16.398894136151213,38.24349339685279,1,S02
9280,0.01971744661217452,-0.09860879449541728,10.138040552038774,-4.014932129487936,-1.6612676489564389,-0.417866163407676,29.34052773771204,-16.041049234333343,38.05055968251169,1,S02
9300,0.013621679919066348,-0.08605262193196947,10.152203957453574,-4.048387331834628,-1.8059771945735998,0.037790153867937826,29.83870265625043,-16.546424648284567,37.888251827867904,1,S02
9320,0.030508039541929155,-0.08405611673719063,10.135791130492326,-5.1303665890649475,-1.9508479370375917,-0.13486988616546702,30.24190323136961,-17.38245661738689,38.41578482470907,1,S02
9340,0.015543077004458894,-0.1009110858544972,10.14013625009779,-5.045091733316343,-1.2098156098425814,0.02190450390053378,29.21832138152028,-16.914885790035864,38.20813469051786,1,S02
9360,0.015682782414075253,-0.09700136959508361,10.135123583581874,-4.384581168691694,-1.9895031198620108,1.0266273532066859,30.001856944835204,-16.711979374579247,38.40812270890184,1,S02
9380,0.02500698899383412,-0.12599356533863712,10.143180473999708,-4.332709426085142,-1.434935768753738,-0.3558395711745814,30.072515591506015,-15.87118921175176,38.6428657855586,1,S02
9400,0.01219710222368578,-0.12102243173860527,10.130381833893612,-4.146398404165722,-1.9660138457209553,0.9170490932964269,29.851797619664758,-16.202218279965223,38.76143830889431,1,S02
9420,0.010048530760106755,-0.0977451358889922,10.152589332846787,-4.203082413203944,-2.074073886150483,0.34980991459318167,29.881336132864558,-15.855301412602142,38.3974420340875,1,S02
9440,0.03987988826847789,-0.11126836380812563,10.15366125498072,-5.27061243915693,-1.4064213244235222,-0.41631166328005176,30.019898183763665,-16.876289787557745,38.864114183044386,1,S02
9460,0.024879001480410848,-0.1243649201162072,10.141184854590243,-4.316385254543476,-0.9828668613315231,1.6322027210701124,29.240227824814816,-16.172961455025096,38.8331694721894,1,S02
9480,0.014805631098998975,-0.12738422983656802,10.135249999377775,-4.442415445273856,-1.6440783003103174,0.3114935102121238,29.834175018470713,-16.386232862470546,37.88160658432648,1,S02
9500,0.02924889539792916,-0.14103780767213012,10.157346435502577,-4.001482075425266,-0.9186057180043687,0.09917887764497868,29.866874405336898,-16.717887737902032,37.67542350740386,1,S02
9520,0.03383924583266876,-0.11083813716645131,10.147200905427685,-3.9284540326542112,-1.3150589762417173,0.6746051677342241,29.684394378501317,-16.385238337803784,38.127082550345186,1,S02
9540,0.02248002093336847,-0.11440228961810042,10.14005888236024,-4.3248733358731535,-1.6666045042610496,0.9226215512351793,29.76235918329245,-17.746774879860347,38.477163865624796,1,S02
9560,0.019191163048072737,-0.13114511126959097,10.155704668988275,-4.485639942654924,-1.23866212886187,0.6944793181617559,30.23766067287538,-16.625842920948493,38.02544589787221,1,S02
9580,0.0308339839463843,-0.11448028297334306,10.161296155246214,-4.84819233204739,-0.6138111867136445,1.1730349888553309,30.409325012921002,-16.13460444983363,38.24169611998027,1,S02
9600,0.039081828179618146,-0.12051071591671084,10.144123228501794,-5.003725120442169,-0.7508197736315741,0.8181614197407109,29.46140249424378,-17.097657136500835,38.5299418088611,1,S02
9620,0.05918055191918659,-0.12584426224882472,10.146898881276945,-3.6807453562036776,-1.1779097648975945,-0.7301485416637769,29.597207972873303,-16.4754177612455,38.46942313568538,1,S02
9640,0.052341113824071986,-0.10068582177150183,10.138152938108806,-5.247047682361662,-1.031562525934065,0.751178776528592,29.628865290922455,-16.238749591270462,38.51668937165819,1,S02
9660,0.04683374988365414,-0.11130195695044703,10.135391624329134,-4.27727630176992,-0.21908024361157852,0.5070584110328415,30.50990483144962,-16.4651766149575,38.16160500218092,1,S02
9680,0.043069031213881816,-0.1037247496605383,10.168575043697542,-4.478077163086521,-0.885395889595556,1.6170149741808038,29.481156616985306,-16.53906279344086,38.24710588112251,1,S02
9700,0.07016975392126196,-0.11838550057763969,10.145464292914886,-3.905947056326601,-0.9483487100122219,0.6119410231075953,29.113522500247768,-16.061304653593524,38.56791176372345,1,S02
9720,0.06973994631528665,-0.11507855210952277,10.135361742956407,-4.981127423734354,-0.7346398132249772,0.5912851511020321,29.782820309548114,-16.00128296445699,38.59057818329279,1,S02
9740,0.061931444609678095,-0.11109313109248758,10.135373101578617,-4.279695321851737,-0.7582386034423308,1.2347947306928033,29.907504221278476,-17.339622346780004,39.10610201056639,1,S02
9760,0.08035365545288747,-0.10253052975053638,10.143723288370543,-4.28235659070742,-0.777320713024401,-0.2833563294645901,30.278647734914372,-16.764535247314477,37.78096041682156,1,S02
9780,0.07476778014833893,-0.0952364833853267,10.131598604275,-5.2012835414298415,-1.2631444166894839,0.1796996019346162,30.272152107703068,-16.741761594529827,38.065006871968265,1,S02
9800,0.0826894649396337,-0.09796000834852507,10.152445705443439,-3.828825526103418,-0.301144037857878,0.9064182076638722,29.554012617209295,-16.18183160183988,38.73152495109785,1,S02
9820,0.08911902445447968,-0.09288052120165059,10.143031809529019,-4.0530678210470095,-1.9376619262428179,-0.06095300816482485,29.54709637826338,-17.190395111334574,38.1304331796358,1,S02
9840,0.09886264536550483,-0.08332018024321312,10.147116521755791,-4.850769724426833,-1.5101594020798652,1.7591103427974804,29.464824149542075,-17.050860473542514,38.37616397117156,1,S02
9860,0.10957938772816961,-0.06297110567063004,10.145220514852468,-3.5828609285916824,-1.547792231864051,0.992821192114786,29.99178170749901,-16.943093351903705,38.55812100864758,1,S02
9880,0.10435168897127375,-0.08154138253356627,10.148735837353883,-3.7383130875820187,-1.2775326031716359,1.249368131939394,30.099497726094583,-16.65052587435598,37.667611617619315,1,S02
9900,0.09893571721280901,-0.06406048054448714,10.154580723613366,-3.8568268852167074,-1.3276535090930615,0.6648896210286388,29.594990877301917,-16.9384001655538,37.990273227183216,1,S02
9920,0.10598751374909784,-0.05388554176090125,10.142220106347267,-3.8710526720078966,-1.3381055694235,1.2419533957457602,30.04595356176973,-16.903187409615718,38.458048649023084,1,S02
9940,0.11833556747664829,-0.05528293025056038,10.159403841791853,-4.975692436191311,-0.6826232793869018,0.35186675566464354,29.300393839965867,-15.918721007138581,38.34549462010955,1,S02
9960,0.12089534416481196,-0.053479125766505015,10.135081142715286,-3.3264904226718084,-0.2472455008500548,1.563763204980377,29.985413163779484,-16.7343772988564,38.15322051422073,1,S02
9980,0.1265596109575461,-0.04917496175053084,10.151565013677363,-4.151418986775754,-1.2520432359131093,1.5143890116633782,29.621744866179412,-16.464952265723575,38.73715283924203,1,S02
10000,0.13264331543736152,-0.034498032447001545,10.145626431660675,-4.684558808684604,-0.689813287229281,0.8240435326804434,30.352084802879695,-18.043591334772486,38.084792545346254,1,S02
10020,0.1411893222406161,-0.024396715151541654,10.139230222378785,-3.808828892579587,-0.7825979138990125,0.7531486946434882,29.35854886948963,-16.584372821185774,38.283232681711596,1,S02
10040,0.1484317235487893,-0.01879390637884995,10.149656086836549,-5.14782957078234,-0.910634570715552,1.7713208068889554,30.001606969888737,-16.208082158116564,38.83893192912963,1,S02
10060,0.15375438264318936,-0.04029305790662098,10.139829204599817,-4.582370885060283,-2.27810903915036,1.6468994713313876,29.84411663258033,-16.565430587923057,38.114893339246144,1,S02
10080,0.15481079893567812,-0.04448042533247844,10.155850553560017,-3.8971425929275973,-0.8018996414699228,0.48829986061277575,29.75054521536683,-16.042018355808633,38.09357974450571,1,S02
10100,0.15348665014698043,-0.004947943225549686,10.17037823769773,-3.4803401070675037,-0.2823048400262983,1.449540247590885,30.36075447168287,-17.00624406918076,38.6978225990171,1,S02
10120,0.15177433265757084,-0.023634407917920063,10.150509924709967,-3.5393634466592134,-0.4917445687971572,0.92041338662411,29.660844084510284,-16.384066667969456,38.41590350684787,1,S02
10140,0.14481355262591084,-0.033226183236045474,10.132863187132207,-3.7724443684548987,-1.4621125350922466,1.0498045538064962,29.374100543338074,-16.9420225886223,38.13789017018603,1,S02
10160,0.14902234759401237,-0.031033597881455245,10.161461596728403,-3.9156192591690293,-1.2787705619030507,0.2797982638447179,30.12584533272007,-16.261051899844745,37.756863652424386,1,S02
10180,0.16154160342756238,-0.012869788640296614,10.141012891038201,-4.641669757916557,-0.2573503339209321,0.5860956171201062,29.873531018220135,-16.534772635784694,38.24101875262753,1,S02
10200,0.17202711058132542,-0.02261117748625096,10.137386954423171,-3.598769027184469,-1.3352825428237796,1.7710700658831113,29.08646167593974,-16.8931976521096,38.4731193379484,1,S02
10220,0.1905825088176253,-0.02287935030163058,10.149896060968368,-3.9084867273101453,-0.7091848403738638,1.3298080762352549,29.85486019670085,-16.932324411727095,37.85441888971954,1,S02
10240,0.1635782052113178,-0.0051751272623913325,10.157286691580811,-3.136410522119818,-1.4081559747858232,1.068448786230609,29.027707173353733,-16.002754129092978,38.52735030492159,1,S02
10260,0.17323687798299464,-0.022899221150519587,10.160498787993813,-2.7092191795696405,-0.6906151202712089,1.2521017501922553,28.903252082789976,-16.479461122405432,38.57410354439686,1,S02
10280,0.18936836448222744,-0.02411362732663111,10.144448363598658,-3.153341460202886,-1.3698102658775753,0.8795260912327982,29.812085443411185,-17.30394961875999,38.537984627998384,1,S02
10300,0.158028329531572,-0.014813386733438814,10.154159584990866,-4.365647947687447,-1.548436745950423,0.7669345893746835,29.481521743389475,-16.766027522547198,37.738776487704044,1,S02
10320,0.17884953300852335,-0.023276623200219768,10.147895947089562,-4.914805577271623,-0.7578978617851503,1.1276179142102443,30.113303308917587,-16.512614808144413,38.26231327828999,1,S02
10340,0.1799831839438341,-0.03287673132286793,10.144860859894214,-4.24624394672661,-1.7750056691524687,1.322167069890218,29.952404396014558,-16.715306523784527,38.25919737159338,1,S02
10360,0.18078843326882482,-0.015805904325924963,10.153586581034212,-3.919002789393623,-0.500588323036099,0.9370503284612517,29.52649652259316,-16.715569295847068,37.98664556785971,1,S02
10380,0.18101202995546575,-0.01850400848222209,10.140081611022861,-4.503339716314455,-0.2614359154643777,1.0076833211946725,29.013800641594187,-16.189934005886897,38.12855473986685,1,S02
10400,0.18275711057507288,-0.027672665481026405,10.146946227390478,-3.994120720424068,-0.2514682531069832,-0.10063620515834348,29.187702979838654,-16.81680237818947,38.57437333348636,1,S02
10420,0.1883460816157297,-0.03678856564519586,10.157991418775405,-3.416041059427618,-2.0348937867438233,-0.20103728792871212,30.00076132660079,-16.463128852369177,37.876103791356165,1,S02
10440,0.18992590348809402,-0.04841497399088754,10.144651124641575,-4.283945869323987,-1.6742739441405243,0.3264066504178805,29.91499083068914,-17.272644482731927,38.39356747883469,1,S02
10460,0.16749317669295327,-0.03218113910343267,10.129418127883126,-4.290168196674719,-0.3582163890348339,1.2567417926246387,30.477706519011402,-16.164455848945813,37.31340294212054,1,S02
10480,0.16114134375069333,-0.04747896197836246,10.165635992970428,-3.28204074966389,-0.5225577021865839,1.0761901617915266,29.572154035503797,-16.549050142433032,37.96455555992201,1,S02
10500,0.19418206022068815,-0.047257474621915804,10.1554454293662,-4.166345762457637,-0.7020695127604343,1.0691432322749705,29.14072498899367,-17.016349789766238,38.416670084340595,1,S02
10520,0.16546907836959068,-0.04945188758343723,10.138658762446974,-4.711584390284052,-1.1203611451797453,0.40591172517362467,29.831063532657986,-16.794955815252564,37.638705445939216,1,S02
10540,0.18126650838062178,-0.0768934838207561,10.14390630272458,-4.1429173623400715,-1.726743414215835,0.6191260764467565,29.508907415021895,-16.256953920768446,39.17049993952463,1,S02
10560,0.1573149739023258,-0.058917054778876855,10.14943165503244,-3.6759761985672585,0.5668257039715885,-0.48956528215995887,29.95955323527441,-17.21538232041498,37.92994505785407,1,S02
10580,0.18070591986145312,-0.06628035090210548,10.161567760356926,-3.9461075757080533,-1.3803344330675618,1.1896743722444323,29.260544992919183,-16.427030610982726,38.08656309602466,1,S02
10600,0.1476249910936115,-0.06962188382324591,10.133213604363442,-3.357562576890446,-0.5652579116479366,1.6017367806926792,30.169142658352875,-17.11290213619329,37.721763124594474,1,S02
10620,0.14352585506710477,-0.08502594966804067,10.159779817055213,-4.006618959746083,-0.904181729383275,0.6215886844148102,29.868368619365924,-15.7427442944136,38.8855460658143,1,S02
10640,0.1450485320998916,-0.09460518800768314,10.118303727417743,-3.5807508349577364,0.07051310944985589,0.6253347552713493,29.54657626682378,-16.770610007704455,38.165142754405224,1,S02
10660,0.1464647157505093,-0.08334016637114558,10.124472281150036,-4.900193820239607,-1.5165965458091923,0.8966977285926819,29.84014920860165,-17.08324928707131,38.53775428927088,1,S02
10680,0.15533593933508394,-0.09884778395979316,10.135497585995452,-4.533341088675868,-1.1079981587033487,0.48990891500483114,29.75747462501558,-17.259759242463947,38.52016151684704,1,S02
10700,0.12113294405983918,-0.08161091768943608,10.159385382441137,-4.165135422627111,-1.6712864230750522,0.7584126447782923,30.81648817185295,-17.271002684778853,38.51026758187687,1,S02
10720,0.14619581789972724,-0.08764517267389631,10.143466253509938,-4.179269699877784,-0.22657411890761348,0.3887644710138945,29.759665128049797,-17.153417527293826,38.21659023181432,1,S02
10740,0.13597830082195944,-0.11645203809098334,10.13834130158338,-4.204603471242809,0.03616529921410239,1.2956799523262088,29.963396862976474,-16.881641962407826,38.2582976126967,1,S02
10760,0.12526307934140643,-0.10657244769714469,10.149600304963087,-4.100809555738755,-0.921764255673722,0.7118867626250596,29.293039546301127,-17.020860459037976,38.266009199251755,1,S02
10780,0.1345960402662108,-0.10914883116927587,10.136213355697993,-4.991041885932565,-1.1597678900601658,-0.012623775343490795,29.568330593840162,-16.43868210026055,38.507528011891864,1,S02
10800,0.11394823187344987,-0.133664309811691,10.149532449745186,-4.122983582686755,-0.5426204379641707,0.028895993456955926,30.426701238252562,-16.381593308326853,38.04820673818989,1,S02
10820,0.10086990191314849,-0.1045175514828839,10.142629149719893,-3.629848520854058,-1.3841233996993838,0.09929640310245125,29.406948722442298,-16.526527388127953,37.634836973158976,1,S02
10840,0.0910501085137827,-0.1194794795537289,10.14401165485572,-3.9239329834482644,-0.24337349756745053,0.513096048763286,29.280666829168958,-16.220612653854403,39.239884403915624,1,S02
10860,0.11045710905131688,-0.10139214872977767,10.148279969309934,-4.00233663483399,-1.694887441014506,-0.10304558017153287,29.700196992595036,-15.762948571708813,38.43115011542283,1,S02
10880,0.10140315605534513,-0.13337822338263017,10.148769305368692,-4.239674350111943,-0.8679325800309234,0.044884647212541706,29.55918964545259,-15.777563270398806,38.92307986697564,1,S02
10900,0.07641246941704474,-0.09282062731630998,10.148715599588217,-4.731153994030333,-1.3911080845496935,0.43687909539503794,30.128692698837344,-16.16209430442931,38.81401966801415,1,S02
10920,0.06561649855905294,-0.1257584942599258,10.143304032055276,-4.318079358739557,-1.5711986123874901,0.2051075146506362,30.00357674492816,-16.549162032309773,37.32380763534197,1,S02
10940,0.0783097678625709,-0.13328610764194188,10.148217473125005,-4.400107410898534,-1.2254192843054834,0.008853466117995645,29.65025394280029,-16.06731527396284,38.7373578796288,1,S02
10960,0.08547825161582395,-0.11827317416039793,10.141189459168814,-4.728231664328821,-0.9835443332463099,-0.19757093485721744,30.023619075621482,-16.65991171739446,38.02893169349752,1,S02
10980,0.07883320216932531,-0.10423429021083624,10.149876132925906,-4.301300326511784,-0.7686790551126719,0.6147929647580284,30.119987552474612,-17.291970347599708,37.94393003895601,1,S02
11000,0.06791931433675924,-0.10892896501712053,10.147061170249149,-4.286138798501355,-1.0522053401860718,-0.33622215234139685,30.131169701307144,-16.169949416715205,39.078937588651726,1,S02
11020,0.06315753801904896,-0.1348074096236532,10.122569423599279,-5.7323800500905175,-1.92164679256764,0.06199197415031099,29.91086679015097,-16.660720985235542,37.79202171641591,1,S02
11040,0.047309298326151675,-0.10798281630152845,10.140980024817969,-4.309595262971,-0.23315471117197117,0.37510327190642756,30.228402914229047,-16.596186074792485,37.005396977000146,1,S02
11060,0.06606288335885874,-0.10964689579958015,10.147768978737806,-4.789247116384384,-1.3176168879282621,0.5098826975302375,29.992047697617036,-16.60834926337876,38.54108025231825,1,S02
11080,0.05052803124932015,-0.103186524045869,10.143389789428754,-5.165124159042999,-1.2739690367566947,0.10907017467603275,30.53701888332971,-16.768779829479108,38.26535095704469,1,S02
11100,0.029419979975970748,-0.11211240422983845,10.136244311395089,-3.967114331533191,-1.5375752513745706,-0.2344524691973039,29.968468084976987,-16.426468641945185,37.408588339747574,1,S02
11120,0.046409075252660824,-0.12161480559922092,10.145838567976822,-4.254378874914445,-1.531794022428405,0.5161254424696364,30.021215610718077,-16.50996410350954,39.43934391908587,1,S02
11140,0.03481532964380621,-0.11796311768069737,10.160823298420976,-4.2250456544731065,-1.1831651724432484,0.687724020953664,29.40165488295781,-16.123485019658787,38.30745405294704,1,S02
11160,0.036045751048017896,-0.09359808716083629,10.13983783267709,-4.906391367426497,-1.0433909956549867,-0.07188616723341401,29.39815149935499,-17.32846247370974,38.173731422597584,1,S02
11180,0.030471584277780045,-0.08945512584842469,10.145130459932666,-4.086784223856776,-1.6922807736075602,0.7319860977460971,30.09285165789193,-16.405457683898653,38.030636664720845,1,S02
11200,0.022985574261542574,-0.08971630561151035,10.149342648994384,-4.909396649231353,-1.5839435886100173,0.7134892553875909,29.585119940188708,-16.290620594715964,38.09999275339787,1,S02
11220,0.024463406103383503,-0.07254814560311655,10.136880606977916,-4.100455680795285,-0.8317232630764535,0.32707139392631573,29.803441210524536,-15.773752520594543,38.08412488510849,1,S02
11240,0.0451873857056405,-0.08542945610509953,10.141400447270248,-3.8702520788146884,-1.2192399018345799,0.19087444360091133,29.445620807891913,-16.68087535476377,38.08948069118237,1,S02
11260,0.014244201127977696,-0.10027191200683405,10.16277880746235,-5.212401500029288,-2.0069944518713836,0.13255323606582103,29.129778419684172,-16.45948197555459,38.442184092747716,1,S02
11280,0.020748442768411937,-0.08718475495077804,10.137348821840327,-4.058881486280413,-1.4954531159619362,-0.20030441869002835,29.826923696629144,-16.81735925387458,38.32307438960864,1,S02
11300,0.0262800422475966,-0.0698434304081936,10.147437001073882,-4.225965352765367,-1.8828569722825694,-0.952239200271552,29.190655415926948,-16.659300548739285,38.173456257623315,1,S02
11320,0.01603054762032645,-0.0730355231554883,10.145832612014129,-4.270104963751436,-1.668392861269282,0.30659198774097784,29.734570409899355,-16.008318986923275,38.96181120950537,1,S02
11340,0.025756457356438195,-0.07392920106723966,10.152133002603206,-5.502112255309084,-1.4896607438643958,0.9910866163611409,28.991624937466053,-16.36193098111449,38.36653871409195,1,S02
11360,0.031085637567735816,-0.06526751713991492,10.138126672806147,-4.706110873651355,-1.3212263824196464,-0.230925027478058,29.713449659698004,-16.79280420780001,38.08972595092808,1,S02
11380,0.02463138444543768,-0.06133720755420005,10.151054306632728,-5.053497137700932,-1.540212357451217,0.17755160779035362,29.968989763740698,-16.460997978160027,38.20919097589011,1,S02
11400,0.017764245323512173,-0.05888226902549436,10.127599160054087,-4.160216396500261,-1.0966461160161045,-0.04303711556362866,29.408451627230324,-16.68331933184821,38.663361477344225,1,S02
11420,0.04076920721644746,-0.04863057005432159,10.150388467220054,-5.0177140892448815,-0.42319185323866915,-0.088942648452767,29.22320183390075,-16.119017194291473,38.574241912148985,1,S02
11440,0.012875685406574355,-0.05461812932041386,10.166204774414105,-5.2987760492906935,-1.8098443309171628,0.2216605405077694,30.178750133754413,-16.36044380158181,38.24368644756757,1,S02
11460,0.031173126383629235,-0.04251603738564247,10.157229477778726,-3.5471068647970214,-1.6461913852031664,-0.09469017066493346,29.65298300904978,-16.000167132951532,38.30775294354073,1,S02
11480,0.009224094205333197,-0.05147345379295815,10.123246249729565,-4.67642069289978,-1.6958477526698181,-0.32519379585510577,29.46612213800867,-16.220604411702315,38.485491872321035,1,S02
11500,0.028757808930919032,-0.033761434796527795,10.14138322591894,-5.4273561026930395,-0.9634556626987207,-0.9872641645520065,29.76734631812236,-16.479113731612458,38.239716575566135,1,S02
11520,0.023832861629668273,-0.020734857407111118,10.151743345742691,-4.5817420468418115,-1.4419166511032055,0.5339675675547526,29.000353148312534,-16.39727601106155,38.93565683227329,1,S02
11540,0.03129715729569882,-0.027111364281450667,10.14964714647686,-4.731818058862185,-1.0575375931535074,1.0974388881817048,30.054748837456806,-17.018950974227582,37.89036919076378,1,S02
11560,0.05019125866866693,-0.037890906862734504,10.144625869477984,-4.499795373091647,-2.190074171274786,0.5084049514125762,30.156804128423133,-16.302258151195737,38.33613548549538,1,S02
11580,0.05815086893799339,-0.020059377894942165,10.142619020617655,-5.251551530996219,-1.8826527612910242,0.1415362349232615,29.80653575225519,-16.386010945727417,37.185613532686986,1,S02
11600,0.03954881321414004,-0.0071732808851006635,10.142340573804086,-5.127722071992965,-2.05231642058581,-0.6050040301213621,29.49257650143162,-16.537151261337236,37.98887485385154,1,S02
11620,0.04412034698409331,-0.01565203309065346,10.144343591001142,-4.863558361051086,-1.312681679456474,0.8209724423032141,30.08775212941872,-16.914591500033694,38.023777282022884,1,S02
11640,0.052470174399462464,-0.005195417118834533,10.167577700361386,-4.269950877320177,-0.4563880988859239,0.866078411741009,30.355587673495176,-16.73355411542297,37.905954875160084,1,S02
11660,0.0513344402519005,-0.017238410731887005,10.141740148275272,-4.438559723287259,-0.9587661617042074,0.1593125586549966,29.93081427127863,-16.372060347087462,38.26798416737412,1,S02
11680,0.05990852382886319,0.0007267787146228583,10.148228816170045,-4.534957324361646,-0.859482513744472,0.19187781810897853,30.46927366123066,-16.519460098352333,38.60555736747444,1,S02
11700,0.05690252448084955,-0.023861147059281475,10.130923802448894,-4.881530147945775,-0.9764277353515906,0.39771656804093536,29.695699008271834,-16.30578321330278,39.14870795633959,1,S02
11720,0.06671593069981915,-0.0009514783032464752,10.143589994303792,-3.511418657246571,-2.018394776298775,0.028264691574894862,29.578188803544766,-16.39323463138922,38.110914157508155,1,S02
11740,0.06983289372256712,-0.0401669594908768,10.149369147375841,-4.6792600748496165,-1.935073367337651,-0.35694394657314665,29.400608846666696,-16.437877150031184,37.59608000279196,1,S02
11760,0.08932198045469628,-0.0272795859517767,10.1625058421323,-4.288071059293799,-1.8111122068282528,0.09248170118708743,29.936938468626938,-17.27307202198641,38.456001378842736,1,S02
11780,0.07377219355930052,-0.009233014070145922,10.145481232684928,-4.381533479308162,-2.107783354155212,-0.5684547300662953,29.729633047687653,-16.455377022111136,37.96741172594083,1,S02
11800,0.07821130890102496,-0.015471499116995337,10.151952669110418,-3.25029362153897,-1.2722928306265904,0.9521726364981848,30.32810281123962,-16.42980635787493,38.084057861229496,1,S02
11820,0.08900109088386651,-0.03676982463762256,10.156352502604877,-3.4875879097551907,-1.6012882074458403,0.883664500581881,29.789991273104302,-16.447550566785836,37.48388096549867,1,S02
11840,0.09958947329691288,-0.03194815905634807,10.134739340785812,-4.0563260153323375,-1.6347394460084357,0.3210213810435061,29.342634130284992,-16.357327998258743,38.82799852362323,1,S02
11860,0.0843228587899092,-0.0322762958970846,10.138182714222935,-4.301541827927056,-0.8298230707191081,1.3142204179821069,30.21874432105014,-16.64720871760295,38.488598256291745,1,S02
11880,0.09849678491488369,-0.04483922958765631,10.130382211185383,-3.551746755496902,-1.7932163632049005,1.0431528081181423,29.667491869840415,-16.352384058338366,38.28489147224182,1,S02
11900,0.0823034652604374,-0.037672507724355236,10.160062005122372,-3.4643247368462764,-1.1074191652920162,1.0485559707283651,29.637929332305465,-16.539169166663754,38.589868524416445,1,S02
11920,0.10146386665876156,-0.03789691128248564,10.140724983938593,-3.8495619149975973,-1.66566905403905,0.36161311362928067,29.860669028613362,-17.267987718980017,38.67421835911215,1,S02
11940,0.123741557635034,-0.04668121500498197,10.142425168275691,-4.830922465123266,-0.6358557609567932,-0.27402901330186147,29.881293606243602,-16.65696043191686,37.832833047464604,1,S02
11960,0.12765311679222216,-0.06282835641974559,10.133749943215939,-3.353689477417002,-1.417994216466312,1.1696222250953054,29.299761154045644,-17.133264925387707,38.51004410450817,1,S02
11980,0.1254709416664116,-0.07967454574699001,10.151361303970713,-3.474423212237139,-0.9711677398086654,0.9556987591192376,29.37154236811546,-16.636267040507235,37.916018951224764,1,S02
12000,0.12955017227938082,-0.0783566613762246,10.139388225919078,-3.944969876865141,-1.2512336133639024,0.35323262701422087,29.807074790868906,-16.59800126224851,37.72812695932011,1,S02
12020,0.13306704644619238,-0.06745561550714864,10.163180496383868,-4.267684494184321,-1.7239637497657294,0.8654141245655833,29.811042950766044,-16.29453742462503,38.7542251278652,1,S02
12040,0.13781522212735497,-0.06902728735602905,10.13408975862982,-4.081214587586434,-0.5232581549364478,1.2443158549534776,29.366546705572276,-16.708596335921982,38.032935260964486,1,S02
12060,0.14341465904040884,-0.07830224677890113,10.132137814472664,-3.5498640380032973,-1.9659139998054027,1.1421411366530156,29.583872478405777,-16.61762342266616,38.32230017502013,1,S02
12080,0.1530486209412853,-0.07613590760472358,10.145390515478113,-3.9037054457291807,-0.7147977127235088,0.7694775975826432,30.065471929804833,-16.50692706471103,38.25094447679314,1,S02
12100,0.1560389124940474,-0.07338884491534747,10.136001004237555,-3.968604027137542,-0.8822833547446999,0.9973664542543034,29.678899052456842,-16.705291408690684,38.500671048140845,1,S02
12120,0.14972189329672547,-0.08207304192306676,10.148474752415007,-2.7826871511744113,-1.9493145403460532,1.0056681759902397,30.067752375107318,-16.164804803907433,38.00338386151679,1,S02
12140,0.1698320953040991,-0.09239041837733836,10.144996387520347,-2.7021556456315654,-0.5138892046335521,1.141617053722273,29.360470233114636,-16.683071828634077,38.738256483837915,1,S02
12160,0.1617315580750288,-0.10449671982588059,10.143416884143116,-4.172798115950117,-1.0699854329582181,0.3879106730413058,29.33844581990342,-16.826024169758256,38.18251575775175,1,S02
12180,0.17063757642391209,-0.11533286049547845,10.147192542189234,-5.109904756735689,-0.6756049895334985,0.7249020609000886,29.82029785712043,-16.46627961371831,38.308758477230846,1,S02
12200,0.17243003578573063,-0.11137220348573182,10.182076175276068,-4.047986563513414,-0.617858893345147,0.7925401111465895,30.323165880892287,-16.675522104940512,38.811088997329335,1,S02
12220,0.1790528893947539,-0.11637685875905077,10.146154305747299,-3.9383542351673393,-1.4677070865504889,0.49247468555088075,30.208652908294273,-16.506475084338405,38.475483579979695,1,S02
12240,0.18674654373448996,-0.12496860211461869,10.14001545573405,-3.803619559295843,-0.5163301528350439,0.2250212951054421,30.330065226399046,-16.454651334709247,38.714827920690524,1,S02
12260,0.17468559760757432,-0.12408805142721639,10.150230105047813,-4.378932073697077,-0.5098550056136877,0.4932838422440582,30.32625033256615,-16.156287872779952,38.93440120517896,1,S02
12280,0.16219518949162304,-0.12090858333719293,10.152272323825128,-3.779802507462288,-0.6241901905016163,1.0171766696273936,29.700318046889112,-17.159342467271635,38.01465771871666,1,S02
12300,0.18641907644194222,-0.10155036687396507,10.156028141336357,-3.5595775742113522,-0.6773509915958696,1.2185876760959613,30.224289851142682,-16.67760418341331,38.44764296899953,1,S02
12320,0.1884777990365641,-0.12603105645138007,10.137526827192891,-3.6544510968894155,-0.5821651864511886,0.5968582378427727,29.62693859658199,-16.5358485730966,37.69515218022852,1,S02
12340,0.1671882639652401,-0.10825524006661491,10.15249245858567,-4.039696249833901,-1.1518199085170977,1.2632127796683097,29.595370704718473,-16.332776057215703,39.017678374733066,1,S02
12360,0.1852732884063763,-0.12181514601632185,10.137736842540518,-3.29039324068095,-0.6066843406531693,0.8822961586830083,29.819175021490345,-17.161315252063396,38.15697702758687,1,S02
12380,0.18557361673932404,-0.08823093571138742,10.145547042373218,-2.606790170637985,-0.8251622615945066,0.41253037360084527,29.92253871729119,-16.89751367631258,38.37752721903511,1,S02
12400,0.1758621990106971,-0.09794022565392196,10.16296066791876,-3.721963504041213,-0.915782124389783,1.4594911790232352,29.61100605940513,-16.602474923158265,38.10078737155333,1,S02
12420,0.17374734724500046,-0.11832185806172886,10.154925295167399,-3.84797901606051,-1.7340120324945874,1.0880386400325635,29.62508426902719,-17.091303619743123,38.64985934575511,1,S02
12440,0.1708428859870981,-0.11050193435866783,10.132997306956172,-3.199929740699192,-1.4220107308056604,0.7604644866919396,29.648965046003067,-16.686716421185547,38.22222175050506,1,S02
12460,0.17474610641261454,-0.10150686523303928,10.158693608905791,-3.6952520220000045,-1.6369258126151656,0.7925995066637026,28.8487910693598,-16.47750606193229,38.29043206034614,1,S02
12480,0.17310851092687563,-0.11847906019984117,10.137783019565278,-3.288889996910733,-0.9370352009599947,1.1816175264976576,29.94173473902727,-17.364660842860395,37.98197544030405,1,S02
12500,0.17806097472054366,-0.1060047188356851,10.14937073025686,-3.6352542378890726,-0.49478775518464024,0.7282147011943679,29.8460423993839,-16.713396030561235,38.60779959877936,1,S02
12520,0.1599651753862125,-0.09939712574433955,10.149291785691378,-3.8993368549782277,-1.0130210885834425,0.6256211624691035,29.613758951023375,-16.532826853287325,37.843871734217984,1,S02
12540,0.16251496632931495,-0.1113276343741221,10.145440982004208,-3.937911408047052,-1.5239437465334305,1.81420217490947,29.871955461355522,-16.77157575095377,38.235244073527035,1,S02
12560,0.17478601168304891,-0.10069085454465984,10.147139876489936,-3.503248246359318,-0.3943511982618102,0.8950705167231474,30.148313323268194,-17.09465956031532,38.45840511710513,1,S02
12580,0.17110919212768344,-0.08458061112893377,10.133045942360392,-4.146612102222728,-1.6357585761209186,0.7520446027990529,29.1659756765963,-16.681802411502147,38.3888666499078,1,S02
12600,0.14350325115729992,-0.10004419582642071,10.153028693169746,-4.3013845066452845,-1.1371979059474864,1.03206702252086,29.875001167375515,-16.44344494807971,38.10673351640618,1,S02
12620,0.162086418867666,-0.1060097132582702,10.122893062571373,-3.340388332367583,-1.837445780515352,0.8229232614517387,29.862088880592847,-16.896067129808458,37.62695713165614,1,S02
12640,0.15267786079384532,-0.08685727128824644,10.140189833647757,-4.514018746478596,-0.9124476339727532,0.5799896768835873,29.621390880222787,-15.792810536375761,37.862552285303686,1,S02
12660,0.14986337797880633,-0.07208676428462987,10.138715286303453,-4.178588001267587,-1.7037049369937693,1.4297555898416383,29.592007970988018,-16.379008400971,38.37914954935254,1,S02
12680,0.13520733541140592,-0.08508121629100172,10.159111688367185,-4.360996154169024,-1.4777520962918962,0.2836860749596467,30.397013564724105,-16.839044590630344,38.36898882032279,1,S02
12700,0.12904762539393436,-0.07181484530115229,10.161004546949401,-3.8480397567875526,-1.5673223161580268,0.5726789788848202,30.31532485497721,-17.11284548125616,37.79590955891063,1,S02
12720,0.13847815996864632,-0.07447612055320964,10.155658764888654,-3.707792381403511,-1.9663753170870681,0.55598656624082,30.126080539200427,-15.963404515674988,38.25804893926382,1,S02
12740,0.1305664150599739,-0.06837589020646753,10.150790645175515,-4.148478012756363,-1.3450392399507711,0.06373822823168229,29.985268567598276,-16.752959997811747,38.350582927543776,1,S02
12760,0.12685817895317375,-0.06940280413942546,10.138644363803209,-3.43336977976291,-0.9444001832157589,1.187177384884818,29.44074275944329,-17.140873295245758,38.03951191374022,1,S02
12780,0.11720225711199572,-0.06025541727473882,10.159596571256563,-4.159280889272918,-1.1085270565394647,1.5746333106617272,29.358057120555788,-16.644067606393556,37.93023951969908,1,S02
12800,0.12193830036773272,-0.05177521355350579,10.1436369356146,-4.659840118184932,-1.151949040309643,0.6124931360804615,30.161341519550383,-17.041416179735197,38.44847867760982,1,S02
12820,0.10410533852211233,-0.04514939575590242,10.148724196287118,-4.646428942814032,-0.021311034139416263,0.5179438104280053,30.56056182948486,-16.396827416762946,38.45176367428307,1,S02
12840,0.11289465741534624,-0.043644659255168416,10.161503392176941,-4.8869245557795224,-0.8038912439032815,-0.252345955859519,29.082053646999103,-16.63539399708639,38.39643308034938,1,S02
12860,0.10089964911558384,-0.03376135537525225,10.15962862321594,-2.6486081889092077,-0.2676041236201253,0.32233814909723124,30.14459575328094,-16.6303431989714,38.54083863296398,1,S02
12880,0.10623690071927362,-0.044376395604055346,10.136714131084753,-4.393129145209915,-0.5855964863281127,0.9798039576128204,30.049910514818304,-16.494411338193405,38.26443937791227,1,S02
