timestamp,ax,ay,az,gx,gy,gz,mx,my,mz,label,subject_id
0,-9.55287,2.05662,0.83079,8.1098,-2.2561,10.3659,9.82,12.94,-37.43,2,S01
20,-9.80426,2.14760,-0.20830,8.9024,-1.8293,10.3049,9.82,12.94,-37.43,2,S01
40,-10.84573,3.05740,-1.34794,9.6951,4.4512,11.8293,9.82,12.94,-37.43,2,S01
60,-11.65497,3.68228,-1.75974,11.3415,10.1220,17.1341,9.82,13.21,-37.43,2,S01
80,-11.69568,3.81396,-2.42772,2.3171,6.0976,21.9512,6.97,13.21,-36.51,2,S01
100,-10.63265,2.72939,-2.46363,-13.4756,-6.4024,23.9634,6.97,13.21,-36.51,2,S01
120,-9.09797,1.30005,-2.64799,-23.5366,-22.1341,19.2073,6.97,13.21,-36.51,2,S01
140,-7.79073,0.20830,-2.65996,-22.4390,-32.3171,10.3659,5.96,14.77,-35.50,2,S01
160,-6.94558,-0.05028,-2.93769,-14.5122,-35.9756,2.6220,5.96,14.77,-35.50,2,S01
180,-6.87615,0.55785,-3.35667,-6.7683,-29.9390,-3.1707,5.96,14.77,-35.50,2,S01
200,-7.57525,1.72622,-2.87783,-3.6585,-14.8780,-5.7927,6.24,15.32,-35.32,2,S01
220,-8.42759,2.66954,-2.40617,-8.6585,-2.5610,-3.3537,6.24,15.32,-35.32,2,S01
240,-9.28471,3.10049,-2.07098,-21.5244,4.6951,0.5488,6.24,15.32,-35.32,2,S01
260,-10.03649,2.92332,-1.74537,-39.4512,8.3537,0.5488,5.50,14.50,-36.24,2,S01
280,-10.43872,2.51631,-1.55384,-54.2683,8.5366,-4.4512,5.50,14.50,-36.24,2,S01
300,-10.25915,2.15957,-1.59214,-62.1951,5.9146,-12.7439,5.50,14.50,-36.24,2,S01
320,-9.54089,1.84114,-1.92494,-65.2439,3.7195,-20.5488,5.50,14.50,-36.24,2,S01
340,-8.85136,1.65679,-2.10690,-66.7683,5.3659,-25.3659,3.21,14.77,-35.78,2,S01
360,-8.41801,1.62327,-2.18112,-67.5610,9.7561,-26.6463,3.21,14.77,-35.78,2,S01
380,-8.44674,1.50595,-1.74537,-69.8171,15.9756,-25.0610,3.21,14.77,-35.78,2,S01
400,-8.73644,1.29047,-1.20189,-73.3537,20.5488,-22.5000,2.57,13.85,-36.51,2,S01
420,-8.95431,1.01514,-0.96726,-76.8902,21.5244,-20.5488,2.57,13.85,-36.51,2,S01
440,-9.17219,0.93613,-0.79487,-78.5976,22.5610,-19.9390,2.57,13.85,-36.51,2,S01
460,-9.34218,0.90740,-0.77333,-77.1951,23.2317,-19.2683,0.18,13.30,-36.51,2,S01
480,-9.42597,0.85473,-0.77093,-75.3659,23.1098,-18.2317,0.18,13.30,-36.51,2,S01
500,-9.38048,0.83558,-0.62249,-75.4268,22.3171,-17.1951,0.18,13.30,-36.51,2,S01
520,-9.20331,0.88346,-0.51475,-76.5244,20.3659,-16.2195,0.18,13.30,-36.51,2,S01
540,-9.05487,0.78290,-0.51715,-77.1341,18.8415,-15.1220,-2.29,12.84,-36.15,2,S01
560,-9.07163,0.76136,-0.51236,-75.7927,19.1463,-13.8415,-2.29,12.84,-36.15,2,S01
580,-9.23204,0.69671,-0.23942,-72.6829,20.3049,-11.2805,-2.29,12.84,-36.15,2,S01
600,-9.46667,0.63207,-0.02634,-68.4146,18.6585,-8.3537,-3.58,12.11,-36.15,2,S01
620,-9.62230,0.51954,-0.05507,-64.6341,14.0854,-6.1585,-3.58,12.11,-36.15,2,S01
640,-9.64145,0.54348,0.20830,-62.0732,9.5732,-5.4878,-3.58,12.11,-36.15,2,S01
660,-9.54329,0.74939,0.14844,-61.2805,3.3537,-5.7317,-5.50,12.11,-35.41,2,S01
680,-9.48822,1.02472,0.04310,-62.9268,-1.2195,-6.3415,-5.50,12.11,-35.41,2,S01
700,-9.53132,1.38385,0.39025,-68.2927,-2.2561,-5.9146,-5.50,12.11,-35.41,2,S01
720,-9.51216,1.26893,0.64165,-72.5610,-4.7561,-4.6341,-5.50,12.11,-35.41,2,S01
740,-9.50977,0.71108,0.72065,-71.8902,-7.7439,-4.8171,-7.06,12.57,-34.31,2,S01
760,-9.62469,0.27294,0.86191,-70.3659,-8.0488,-7.3780,-7.06,12.57,-34.31,2,S01
780,-9.83299,0.57700,1.25456,-70.3049,-6.3415,-11.4634,-7.06,12.57,-34.31,2,S01
800,-9.95988,1.19950,1.64960,-72.1951,-4.6951,-13.6585,-6.88,12.48,-33.58,2,S01
820,-9.97185,1.70467,1.65679,-74.8171,-2.3171,-12.5000,-6.88,12.48,-33.58,2,S01
840,-10.15142,1.67115,0.34716,-78.4756,3.2927,-8.6585,-6.88,12.48,-33.58,2,S01
860,-11.48977,1.31202,-0.75896,-84.2683,15.9146,-4.7561,-13.21,12.75,-30.64,2,S01
880,-12.90475,0.01676,-0.41659,-84.4512,24.0244,-5.4878,-13.21,12.75,-30.64,2,S01
900,-13.18008,-1.25935,-1.61369,-72.1341,13.7195,-12.9878,-13.21,12.75,-30.64,2,S01
920,-12.33014,-0.27533,-2.18351,-54.7561,1.0366,-27.0732,-13.21,12.75,-30.64,2,S01
940,-10.06044,1.41976,-2.91853,-50.4268,-15.1220,-35.5488,-14.77,14.04,-28.90,2,S01
960,-7.64229,2.80600,-3.98395,-56.8902,-25.2439,-33.4756,-14.77,14.04,-28.90,2,S01
980,-6.34224,2.89698,-4.26168,-68.9024,-20.7927,-24.8171,-14.77,14.04,-28.90,2,S01
1000,-6.44280,1.82199,-3.82115,-73.9024,-10.7927,-14.2683,-19.36,15.69,-24.50,2,S01
1020,-7.62314,0.29688,-3.09570,-68.6585,-0.9146,-5.0610,-19.36,15.69,-24.50,2,S01
1040,-9.00459,-0.48602,-2.33195,-58.1098,6.5244,-0.4268,-19.36,15.69,-24.50,2,S01
1060,-9.83538,-0.16281,-1.48919,-49.3902,10.2439,-0.3659,-11.01,13.12,-28.81,2,S01
1080,-9.98861,0.69911,-1.30245,-39.2073,7.8659,-1.2805,-11.01,13.12,-28.81,2,S01
1100,-9.89045,1.39821,-1.73340,-27.5610,3.3537,0.6707,-11.01,13.12,-28.81,2,S01
1120,-9.84496,1.38145,-1.82917,-22.3780,3.9634,5.7317,-11.01,13.12,-28.81,2,S01
1140,-9.65103,1.24977,-1.52989,-22.6829,5.1829,10.4268,-17.98,13.58,-26.79,2,S01
1160,-9.32542,1.15401,-1.31921,-24.5122,5.1829,13.2317,-17.98,13.58,-26.79,2,S01
1180,-8.89925,1.19950,-1.13485,-25.5488,5.9146,14.5122,-17.98,13.58,-26.79,2,S01
1200,-8.65265,1.32639,-0.85473,-25.4878,6.6463,15.9756,-17.16,12.29,-27.34,2,S01
1220,-8.94474,1.55623,-0.39983,-23.9024,8.8415,16.0976,-17.16,12.29,-27.34,2,S01
1240,-9.32302,1.47004,-0.29209,-22.8049,9.1463,14.3902,-17.16,12.29,-27.34,2,S01
1260,-9.52174,1.19231,-0.19872,-20.6098,8.5976,12.5000,-17.06,11.47,-27.34,2,S01
1280,-9.52413,0.96247,-0.06464,-16.2195,6.9512,10.9756,-17.06,11.47,-27.34,2,S01
1300,-9.43794,0.90980,0.09098,-12.0122,4.5732,9.6341,-17.06,11.47,-27.34,2,S01
1320,-9.32302,0.93374,0.44053,-9.9390,1.5854,7.8049,-17.06,11.47,-27.34,2,S01
1340,-9.20092,0.98641,0.59855,-7.9268,-4.0854,5.5488,-16.42,11.28,-27.61,2,S01
1360,-9.08839,1.09894,0.64883,-5.3049,-8.9024,2.8049,-16.42,11.28,-27.61,2,S01
1380,-9.06445,1.36230,0.77572,-4.4512,-11.4634,0.2439,-16.42,11.28,-27.61,2,S01
1400,-9.12430,1.67115,0.90980,-6.1585,-14.6951,-0.8537,-16.51,11.47,-27.43,2,S01
1420,-9.12430,1.93452,0.68953,-8.2317,-19.6951,-0.5488,-16.51,11.47,-27.43,2,S01
1440,-9.00938,2.10211,0.07901,-10.0000,-23.0488,0.3049,-16.51,11.47,-27.43,2,S01
1460,-8.92798,2.44927,-0.62489,-12.8049,-21.6463,1.0976,-19.08,12.39,-26.06,2,S01
1480,-9.37091,2.66235,0.16999,-12.9268,-15.1829,1.7683,-19.08,12.39,-26.06,2,S01
1500,-10.15620,2.38223,1.14443,-7.0732,-10.0000,4.0854,-19.08,12.39,-26.06,2,S01
1520,-11.70765,1.98240,1.93452,-2.0732,-8.2927,9.3902,-19.08,12.39,-26.06,2,S01
1540,-11.28387,1.54187,1.54665,-0.3659,-12.1341,15.0610,-13.21,11.28,-27.34,2,S01
1560,-11.31021,1.73580,0.15083,2.4390,-10.6098,19.9390,-13.21,11.28,-27.34,2,S01
1580,-12.11227,3.07416,-0.97923,7.5610,1.5854,25.0610,-13.21,11.28,-27.34,2,S01
1600,-13.01249,4.47955,-1.32639,6.0366,9.8171,31.8293,-20.92,10.18,-26.79,2,S01
1620,-12.44027,3.95762,-1.47722,-4.1463,2.1341,39.6951,-20.92,10.18,-26.79,2,S01
1640,-10.29507,2.41336,-2.11647,-20.1829,-17.1951,38.1707,-20.92,10.18,-26.79,2,S01
1660,-8.28394,0.75417,-2.72939,-24.9390,-30.1220,28.1098,-22.20,10.73,-24.68,2,S01
1680,-6.99825,-0.21069,-2.93769,-14.4512,-33.6585,15.4268,-22.20,10.73,-24.68,2,S01
1700,-6.28957,-0.42856,-3.17950,-3.4146,-33.0488,4.8780,-22.20,10.73,-24.68,2,S01
1720,-6.73010,0.55067,-3.71820,-1.0366,-23.3537,-1.0976,-22.20,10.73,-24.68,2,S01
1740,-8.16902,1.93452,-2.83952,-10.3659,-1.8293,-2.0122,-22.48,11.01,-24.50,2,S01
1760,-9.58399,2.99993,-1.96325,-28.4146,12.1951,0.3049,-22.48,11.01,-24.50,2,S01
1780,-10.23521,2.96642,-1.69270,-47.5610,10.9146,1.6463,-22.48,11.01,-24.50,2,S01
1800,-10.19930,2.46363,-1.75495,-62.1951,4.5122,-2.7439,-22.66,10.28,-23.30,2,S01
1820,-10.01495,1.98000,-1.70467,-72.3781,1.3415,-10.1220,-22.66,10.28,-23.30,2,S01
1840,-9.54808,1.49159,-1.69988,-79.6951,-0.3049,-15.4878,-22.66,10.28,-23.30,2,S01
1860,-8.86333,0.90980,-1.79805,-83.7805,1.3415,-17.9268,-23.67,11.01,-20.73,2,S01
1880,-8.52336,0.67756,-1.47483,-83.6585,8.9024,-19.2073,-23.67,11.01,-20.73,2,S01
1900,-8.54012,0.69192,-1.16837,-81.3415,16.1585,-18.7195,-23.67,11.01,-20.73,2,S01
1920,-8.72926,0.90261,-0.89783,-80.0610,20.7927,-17.4390,-23.67,11.01,-20.73,2,S01
1940,-8.89685,1.11570,-0.72305,-79.4512,23.1707,-15.1220,-24.40,11.01,-18.90,2,S01
1960,-9.06684,1.00556,-0.57700,-78.1098,24.6341,-12.0122,-24.40,11.01,-18.90,2,S01
1980,-9.14585,0.74699,-0.56264,-75.4268,25.2439,-9.2073,-24.40,11.01,-18.90,2,S01
2000,-9.17458,0.65601,-0.64404,-72.5610,25.6098,-7.4390,-25.32,10.64,-16.97,2,S01
2020,-9.12430,0.64643,-0.65601,-71.0366,26.7683,-6.2195,-25.32,10.64,-16.97,2,S01
2040,-9.15303,0.59855,-0.54109,-69.4512,28.3537,-5.1220,-25.32,10.64,-16.97,2,S01
2060,-9.37091,0.56024,-0.41899,-67.6829,29.3293,-4.0244,-25.78,10.28,-15.32,2,S01
2080,-9.59357,0.60813,-0.39983,-67.2561,29.1463,-3.2927,-25.78,10.28,-15.32,2,S01
2100,-9.70370,0.71587,-0.38547,-67.8659,28.2927,-2.8049,-25.78,10.28,-15.32,2,S01
2120,-9.74679,0.73023,-0.08859,-67.5000,26.0976,-2.4390,-25.78,10.28,-15.32,2,S01
2140,-9.65342,0.54588,-0.19632,-64.6341,20.9146,-2.3780,-26.24,9.91,-13.30,2,S01
2160,-9.72285,0.10534,0.02394,-61.0976,17.3171,-2.9878,-26.24,9.91,-13.30,2,S01
2180,-9.82580,-0.43335,-0.02873,-55.8537,12.9878,-4.4512,-26.24,9.91,-13.30,2,S01
2200,-9.78271,-0.52672,0.18914,-51.8902,8.8415,-6.4024,-25.96,9.91,-11.93,2,S01
2220,-9.68455,-0.41899,0.46448,-47.9878,4.8171,-7.6220,-25.96,9.91,-11.93,2,S01
2240,-9.66060,-0.32322,0.65841,-42.0732,0.4268,-8.3537,-25.96,9.91,-11.93,2,S01
2260,-9.67497,-0.14605,0.81882,-37.3171,-3.9024,-8.7805,-25.32,10.18,-10.73,2,S01
2280,-9.57441,0.09337,0.78769,-35.0610,-7.9878,-8.4756,-25.32,10.18,-10.73,2,S01
2300,-9.39006,0.38068,0.75417,-34.6341,-10.0610,-7.8659,-25.32,10.18,-10.73,2,S01
2320,-9.25598,0.49081,0.83558,-35.4878,-9.5732,-7.0732,-25.32,10.18,-10.73,2,S01
2340,-9.30866,0.67038,0.96007,-37.1951,-8.1098,-6.8293,-25.14,10.28,-9.36,2,S01
2360,-9.52174,0.81163,1.18513,-39.3293,-6.0366,-6.1585,-25.14,10.28,-9.36,2,S01
2380,-9.73482,0.90980,1.36948,-41.7073,-4.2073,-4.5122,-25.14,10.28,-9.36,2,S01
2400,-9.74679,1.03908,1.37188,-45.4878,-3.0488,-1.7073,-25.05,9.91,-7.71,2,S01
2420,-9.79229,1.13485,0.05986,-50.7317,-1.5244,2.3171,-25.05,9.91,-7.71,2,S01
2440,-11.55921,0.98402,-1.47004,-58.5976,8.5366,6.4024,-25.05,9.91,-7.71,2,S01
2460,-13.50569,0.10295,-1.17795,-58.4756,16.7683,6.2195,-27.43,10.18,-4.86,2,S01
2480,-13.36204,0.20590,-1.94170,-48.3537,7.7439,-3.7805,-27.43,10.18,-4.86,2,S01
2500,-11.34373,1.09415,-2.13084,-39.9390,-5.1220,-15.1829,-27.43,10.18,-4.86,2,S01
2520,-8.72208,2.49476,-2.52109,-41.7683,-14.3902,-20.0000,-27.43,10.18,-4.86,2,S01
2540,-6.67743,3.07176,-2.88501,-49.0244,-14.9390,-18.1098,-30.83,11.28,-1.10,2,S01
2560,-6.10761,2.38702,-2.76291,-55.4878,-8.1098,-10.9146,-30.83,11.28,-1.10,2,S01
2580,-7.18739,1.27611,-2.25534,-54.0854,5.8537,-0.7927,-30.83,11.28,-1.10,2,S01
2600,-9.17698,0.08140,-1.15401,-46.4024,20.2439,8.5976,-24.59,10.09,-2.29,2,S01
2620,-10.88404,-0.49799,-0.55785,-32.6220,22.1341,12.1341,-24.59,10.09,-2.29,2,S01
2640,-10.72124,1.00078,-0.70629,-5.4878,1.7683,9.2073,-24.59,10.09,-2.29,2,S01
2660,-9.78271,1.84832,-1.17316,-5.6098,-5.6707,10.9756,-27.98,9.27,-2.11,2,S01
2680,-8.99262,2.20506,-1.48440,-7.5610,-8.2927,14.6341,-27.98,9.27,-2.11,2,S01
2700,-8.47308,2.14999,-1.71664,-9.0244,-6.9512,17.8659,-27.98,9.27,-2.11,2,S01
2720,-8.30549,1.87705,-1.72143,-9.2683,-2.4390,19.8780,-27.98,9.27,-2.11,2,S01
2740,-8.32703,1.68312,-1.43173,-8.5366,2.6829,19.9390,-28.07,7.89,-2.02,2,S01
2760,-8.45632,1.71904,-1.19950,-6.7683,5.6098,18.7195,-28.07,7.89,-2.02,2,S01
2780,-8.72208,1.80283,-1.04148,-4.9390,6.7073,16.6463,-28.07,7.89,-2.02,2,S01
2800,-8.91840,1.82438,-1.01275,-4.0244,5.7317,14.1463,-28.44,7.25,-2.20,2,S01
2820,-9.10275,1.64242,-1.06063,-3.3537,3.9634,12.3171,-28.44,7.25,-2.20,2,S01
2840,-9.27274,1.51792,-1.04148,-1.4634,2.9878,10.7927,-28.44,7.25,-2.20,2,S01
2860,-9.33978,1.51792,-0.98402,0.7317,2.5000,10.1220,-28.62,6.70,-2.39,2,S01
2880,-9.35415,1.47483,-0.83558,2.5000,2.0732,10.3659,-28.62,6.70,-2.39,2,S01
2900,-9.32781,1.31681,-0.66080,5.1829,1.3415,10.1829,-28.62,6.70,-2.39,2,S01
2920,-9.34457,1.11091,-0.44293,9.2683,0.4878,8.9024,-28.62,6.70,-2.39,2,S01
2940,-9.33739,1.01993,-0.37110,13.5366,-0.9146,7.3780,-28.35,6.24,-3.12,2,S01
2960,-9.32302,1.05345,-0.29688,16.6463,-1.4024,6.5244,-28.35,6.24,-3.12,2,S01
2980,-9.27993,1.21386,-0.19632,18.7805,-1.0976,6.5244,-28.35,6.24,-3.12,2,S01
3000,-9.24880,1.33118,-0.07422,21.3415,-0.6707,7.1341,-28.62,5.69,-4.31,2,S01
3020,-9.22007,1.39821,-0.02873,25.0000,-1.2195,7.6220,-28.62,5.69,-4.31,2,S01
3040,-9.22965,1.41018,-0.05986,28.9634,-2.3171,7.3780,-28.62,5.69,-4.31,2,S01
3060,-9.28950,1.47004,-0.03352,32.8049,-3.2317,6.4024,-28.81,5.32,-5.87,2,S01
3080,-9.31105,1.65679,-0.01437,35.9146,-4.0244,5.2439,-28.81,5.32,-5.87,2,S01
3100,-9.27035,1.88663,-0.04549,37.5000,-4.9390,4.6951,-28.81,5.32,-5.87,2,S01
3120,-9.21768,2.07338,-0.00718,37.7439,-5.3659,4.4512,-28.81,5.32,-5.87,2,S01
3140,-9.29429,2.22661,0.12689,36.7683,-4.9390,4.1463,-28.90,4.95,-7.43,2,S01
3160,-9.44513,2.31040,0.29209,35.1220,-4.5122,4.0854,-28.90,4.95,-7.43,2,S01
3180,-9.62230,2.35829,0.48842,33.9634,-4.9390,4.4512,-28.90,4.95,-7.43,2,S01
3200,-9.76834,2.29365,0.64165,33.8415,-6.4634,5.3049,-28.44,4.59,-8.99,2,S01
3220,-9.80186,2.14281,0.74699,35.3659,-8.2927,6.2195,-28.44,4.59,-8.99,2,S01
3240,-9.73961,1.92494,0.90740,38.3537,-9.4512,6.7073,-28.44,4.59,-8.99,2,S01
3260,-9.59596,1.79326,0.92416,41.4634,-10.3659,6.4024,-27.89,4.13,-10.73,2,S01
3280,-9.93115,2.13084,-0.11492,43.0488,-10.3659,5.4268,-27.89,4.13,-10.73,2,S01
3300,-10.98939,3.06697,-1.11091,43.0488,-3.5976,7.5610,-27.89,4.13,-10.73,2,S01
3320,-11.34612,4.04141,-1.66397,34.6341,0.2439,13.5366,-27.89,4.13,-10.73,2,S01
3340,-11.24557,4.42927,-2.52109,17.0122,-3.4756,19.6341,-31.47,3.76,-10.73,2,S01
3360,-10.57519,3.33752,-2.17633,2.8659,-9.2073,25.5488,-31.47,3.76,-10.73,2,S01
3380,-9.31344,1.28090,-2.06380,-4.0854,-18.0488,25.5488,-31.47,3.76,-10.73,2,S01
3400,-8.28394,-0.28970,-2.03986,2.8659,-22.1951,18.1707,-30.37,3.03,-10.55,2,S01
3420,-7.62553,-0.72544,-2.15478,17.8659,-21.6463,8.7805,-30.37,3.03,-10.55,2,S01
3440,-7.61117,0.00000,-2.73897,28.3537,-18.2317,0.7927,-30.37,3.03,-10.55,2,S01
3460,-8.33900,1.60651,-2.59771,27.7439,-7.8049,-4.4512,-31.56,3.21,-11.65,2,S01
3480,-9.25359,2.99515,-2.06620,15.7317,0.9756,-4.1463,-31.56,3.21,-11.65,2,S01
3500,-9.72285,3.18429,-1.68312,-0.7927,1.7683,-1.2195,-31.56,3.21,-11.65,2,S01
3520,-9.73243,2.27210,-1.59693,-11.8293,-2.0122,-1.4024,-31.56,3.21,-11.65,2,S01
3540,-9.59835,1.38864,-1.61130,-16.5854,-5.7927,-6.5244,-31.19,3.67,-10.37,2,S01
3560,-9.31823,0.89304,-1.81480,-18.3537,-7.1341,-12.5000,-31.19,3.67,-10.37,2,S01
3580,-9.08600,0.78051,-1.72861,-17.6220,-3.1707,-16.4024,-31.19,3.67,-10.37,2,S01
3600,-8.87770,0.93613,-1.53468,-15.1220,2.3171,-18.5366,-30.64,4.59,-10.18,2,S01
3620,-8.68856,1.04148,-1.40300,-13.5976,6.0366,-19.5732,-30.64,4.59,-10.18,2,S01
3640,-8.68856,1.09894,-1.15161,-14.0854,8.9024,-20.1220,-30.64,4.59,-10.18,2,S01
3660,-8.83221,1.14443,-0.85473,-15.4878,10.7317,-19.6341,-29.91,5.50,-10.00,2,S01
3680,-9.13867,1.13485,-0.40223,-16.6463,11.6463,-18.4756,-29.91,5.50,-10.00,2,S01
3700,-9.31584,0.98402,-0.11732,-17.1951,9.8780,-16.8902,-29.91,5.50,-10.00,2,S01
3720,-9.32542,0.79727,-0.08859,-17.6220,6.5244,-15.3659,-29.91,5.50,-10.00,2,S01
3740,-9.27514,0.78051,-0.05986,-18.4146,3.7195,-13.9634,-29.82,6.15,-9.17,2,S01
3760,-9.07642,0.85712,-0.12210,-18.5976,1.4024,-12.0122,-29.82,6.15,-9.17,2,S01
3780,-8.92080,1.00078,-0.10774,-18.9634,0.9146,-9.2683,-29.82,6.15,-9.17,2,S01
3800,-8.88967,1.13725,0.04549,-20.0000,2.5000,-5.7317,-29.54,6.15,-8.35,2,S01
3820,-8.94474,1.21865,0.31603,-21.2195,4.6341,-2.2561,-29.54,6.15,-8.35,2,S01
3840,-9.08600,1.19471,0.49560,-22.9268,5.4878,0.7317,-29.54,6.15,-8.35,2,S01
3860,-9.34936,1.06781,0.73023,-24.5732,4.5732,2.4390,-28.90,5.87,-7.34,2,S01
3880,-9.63906,0.79727,0.92416,-25.0000,1.1585,2.6829,-28.90,5.87,-7.34,2,S01
3900,-9.73722,0.41659,0.92895,-25.1220,-5.3659,1.4024,-28.90,5.87,-7.34,2,S01
3920,-9.66300,0.09337,0.67516,-25.6098,-11.5854,-0.7317,-28.90,5.87,-7.34,2,S01
3940,-9.67736,0.02155,0.54827,-26.2195,-13.0488,-3.1098,-29.08,6.06,-5.69,2,S01
3960,-9.80426,0.01197,0.73023,-25.3049,-10.7927,-4.8780,-29.08,6.06,-5.69,2,S01
3980,-10.07720,0.09337,1.14682,-23.5366,-7.0122,-6.6463,-29.08,6.06,-5.69,2,S01
4000,-10.61589,0.46687,0.33519,-23.2927,-3.1098,-9.1463,-28.17,6.51,-4.77,2,S01
4020,-12.27507,0.60094,-0.34955,-24.5732,5.4878,-11.3415,-28.17,6.51,-4.77,2,S01
4040,-13.67807,-0.04310,0.22984,-17.9878,11.0976,-16.3415,-28.17,6.51,-4.77,2,S01
4060,-12.57195,-0.46926,-1.46286,3.8415,-4.1463,-37.0732,-27.61,8.26,-4.40,2,S01
4080,-10.40520,0.94332,-2.40138,1.1585,-15.7317,-38.1098,-27.61,8.26,-4.40,2,S01
4100,-8.17620,2.67432,-3.31118,-13.0488,-19.7561,-28.4756,-27.61,8.26,-4.40,2,S01
4120,-6.70137,3.35667,-3.25851,-28.9634,-14.7561,-14.0244,-27.61,8.26,-4.40,2,S01
4140,-6.65109,2.33674,-2.79164,-32.9268,-7.1341,-0.4268,-34.13,9.54,0.73,2,S01
4160,-7.82425,0.64643,-2.08774,-23.1707,2.6220,7.3780,-34.13,9.54,0.73,2,S01
4180,-9.12670,-0.42617,-1.56341,-10.2439,9.8780,8.1098,-34.13,9.54,0.73,2,S01
4200,-9.84017,-0.39744,-1.26174,0.1220,9.7561,4.5122,-26.61,8.07,-2.66,2,S01
4220,-9.68455,0.36631,-1.62087,9.5732,2.0122,2.3780,-26.61,8.07,-2.66,2,S01
4240,-9.28471,0.81403,-2.32956,18.5366,-3.7805,6.4024,-26.61,8.07,-2.66,2,S01
4260,-9.12430,0.82121,-2.38223,22.1341,-1.5244,13.5366,-32.84,8.07,-1.83,2,S01
4280,-9.05248,0.85952,-2.01113,23.1098,3.2317,18.3537,-32.84,8.07,-1.83,2,S01
4300,-8.94713,1.20907,-1.80283,23.4756,6.7073,19.3902,-32.84,8.07,-1.83,2,S01
4320,-8.82742,1.67115,-1.61130,22.9268,9.3293,20.1829,-32.84,8.07,-1.83,2,S01
4340,-8.78433,2.03507,-1.35991,21.8293,10.9756,22.1951,-30.00,5.87,-4.95,2,S01
4360,-8.84658,2.13323,-0.87388,19.2683,11.9512,24.0244,-30.00,5.87,-4.95,2,S01
4380,-8.88009,1.90818,-0.55545,16.5854,10.3049,24.2683,-30.00,5.87,-4.95,2,S01
4400,-8.77236,1.51553,-0.60094,15.3049,6.7683,22.3780,-30.18,4.59,-5.69,2,S01
4420,-8.80827,1.17316,-0.40462,16.2195,5.4268,17.9268,-30.18,4.59,-5.69,2,S01
4440,-8.85855,1.08218,-0.24421,19.2073,4.2683,12.6220,-30.18,4.59,-5.69,2,S01
4460,-8.99741,1.11330,-0.06225,21.8902,2.9268,8.3537,-30.18,4.50,-6.70,2,S01
4480,-9.07881,1.16837,0.24421,23.2927,1.6463,5.6098,-30.18,4.50,-6.70,2,S01
4500,-9.06445,1.27372,0.50278,23.5976,-1.6463,3.7805,-30.18,4.50,-6.70,2,S01
4520,-8.97107,1.54905,0.65841,22.2561,-5.7317,2.3780,-30.18,4.50,-6.70,2,S01
4540,-8.94474,1.79805,0.82600,19.3293,-8.7195,1.6463,-29.63,4.31,-7.89,2,S01
4560,-9.11712,2.02071,0.95289,16.4024,-11.0366,1.0976,-29.63,4.31,-7.89,2,S01
4580,-9.35654,2.21224,0.95768,14.7561,-14.8780,1.1585,-29.63,4.31,-7.89,2,S01
4600,-9.49780,2.28646,0.78530,14.0244,-19.2073,2.1951,-29.45,4.22,-8.07,2,S01
4620,-9.52653,2.23618,0.41659,15.4878,-21.0976,3.8415,-29.45,4.22,-8.07,2,S01
4640,-9.59596,2.21943,0.31603,19.3902,-18.4146,5.9146,-29.45,4.22,-8.07,2,S01
4660,-9.74679,2.45166,0.54588,22.9878,-13.9634,8.4146,-28.53,3.39,-9.27,2,S01
4680,-10.12747,2.72221,0.61292,23.7195,-10.7927,10.7317,-28.53,3.39,-9.27,2,S01
4700,-11.44668,2.68390,-0.68235,24.9390,-6.1585,12.5610,-28.53,3.39,-9.27,2,S01
4720,-13.19923,3.17711,-1.52271,25.6098,2.9268,17.8659,-28.53,3.39,-9.27,2,S01
4740,-13.10586,3.78044,-1.81959,13.9634,4.1463,27.1951,-31.65,2.66,-8.90,2,S01
4760,-12.16494,3.84269,-2.58574,-2.6829,-1.2195,34.0854,-31.65,2.66,-8.90,2,S01
4780,-10.82419,2.24816,-2.73657,-5.1220,-7.5000,38.4756,-31.65,2.66,-8.90,2,S01
4800,-9.27753,-0.64404,-2.79403,9.9390,-12.8659,34.8780,-31.74,1.93,-8.26,2,S01
4820,-8.61194,-2.12605,-2.94487,26.3415,-14.1463,21.4634,-31.74,1.93,-8.26,2,S01
4840,-8.57364,-1.10373,-2.54264,30.8537,-12.5610,7.3780,-31.74,1.93,-8.26,2,S01
4860,-8.68616,1.25935,-2.14042,22.3171,-13.8415,-1.2195,-31.01,1.65,-10.09,2,S01
4880,-8.75081,3.32794,-2.13563,5.9756,-15.4878,-4.6951,-31.01,1.65,-10.09,2,S01
4900,-8.59040,3.63919,-2.06141,-10.6707,-14.8171,-6.2195,-31.01,1.65,-10.09,2,S01
4920,-8.21690,2.70545,-2.06859,-23.1707,-12.4390,-10.0610,-31.01,1.65,-10.09,2,S01
4940,-8.12832,1.66876,-1.79086,-30.7317,-7.5610,-15.9146,-30.55,2.57,-8.72,2,S01
4960,-8.11634,0.79009,-1.87705,-34.8780,-4.8780,-19.6341,-30.55,2.57,-8.72,2,S01
4980,-8.22648,0.38068,-1.80283,-35.4878,0.7317,-20.1220,-30.55,2.57,-8.72,2,S01
5000,-8.66940,0.15562,-1.16358,-32.0122,10.4268,-18.3537,-30.09,3.58,-7.71,2,S01
5020,-9.04769,-0.00958,-0.79248,-26.0366,14.4512,-16.6463,-30.09,3.58,-7.71,2,S01
5040,-9.24880,0.12929,-0.47645,-21.2805,12.9268,-17.2561,-30.09,3.58,-7.71,2,S01
5060,-9.26077,0.63686,-0.27533,-18.7195,9.3902,-18.7195,-28.81,4.31,-7.80,2,S01
5080,-9.00459,0.97444,-0.14126,-17.6220,5.6707,-18.7195,-28.81,4.31,-7.80,2,S01
5100,-8.62152,0.96247,-0.24660,-16.8902,2.2561,-16.9512,-28.81,4.31,-7.80,2,S01
5120,-8.46590,0.77812,-0.33998,-16.7683,1.4634,-13.7805,-28.81,4.31,-7.80,2,S01
5140,-8.59279,0.64165,-0.19393,-18.0488,3.3537,-9.9390,-28.17,4.68,-7.34,2,S01
5160,-8.74123,0.66559,0.00000,-19.3902,4.3293,-6.0976,-28.17,4.68,-7.34,2,S01
5180,-8.82982,0.79487,0.26336,-20.6098,4.2073,-2.3780,-28.17,4.68,-7.34,2,S01
5200,-8.98544,0.96247,0.57700,-23.0488,2.6829,0.6098,-27.34,4.40,-6.79,2,S01
5220,-9.30866,0.92656,0.88585,-26.0366,-0.6098,2.3171,-27.34,4.40,-6.79,2,S01
5240,-9.58638,0.58897,0.80445,-27.0122,-6.2805,2.4390,-27.34,4.40,-6.79,2,S01
5260,-9.65582,0.26336,0.78290,-28.3537,-11.8293,-0.2439,-27.06,4.40,-5.50,2,S01
5280,-9.50977,0.06704,0.54588,-30.4268,-14.8171,-5.5488,-27.06,4.40,-5.50,2,S01
5300,-9.44991,-0.10774,0.35434,-31.6463,-13.7195,-10.1220,-27.06,4.40,-5.50,2,S01
5320,-9.78510,-0.11492,0.74699,-32.6829,-7.3171,-12.7439,-27.06,4.40,-5.50,2,S01
5340,-10.37408,0.32561,1.22823,-35.0610,0.8537,-14.2683,-24.59,4.86,-4.95,2,S01
5360,-11.28866,1.10852,-0.03831,-40.9146,7.5610,-14.5732,-24.59,4.86,-4.95,2,S01
5380,-13.25430,1.03908,-0.21548,-44.5732,18.5976,-14.5122,-24.59,4.86,-4.95,2,S01
5400,-14.23114,-0.50757,-0.75178,-38.5976,18.3537,-17.2561,-26.70,6.97,-2.66,2,S01
5420,-14.21438,-1.18034,-1.95846,-23.0488,6.4024,-25.4878,-26.70,6.97,-2.66,2,S01
5440,-12.58871,0.56264,-2.55222,-18.2927,-7.3780,-36.1585,-26.70,6.97,-2.66,2,S01
5460,-9.89045,2.51152,-2.99754,-28.5976,-18.5366,-34.8780,-30.55,8.07,0.28,2,S01
5480,-7.32147,3.64398,-3.25133,-37.8049,-21.5244,-23.6585,-30.55,8.07,0.28,2,S01
5500,-6.50265,0.68953,-2.32716,-35.3049,-6.8293,4.5732,-30.55,8.07,0.28,2,S01
5520,-7.66623,-1.14682,-1.93691,-21.9512,2.2561,12.3780,-30.55,8.07,0.28,2,S01
5540,-8.98783,-1.74777,-1.39582,-6.0976,9.6951,13.5366,-27.61,7.34,-0.46,2,S01
5560,-9.57681,-0.42856,-1.37188,9.5122,9.8780,8.9024,-27.61,7.34,-0.46,2,S01
5580,-9.44513,1.36470,-1.48201,20.1220,6.8293,7.0732,-27.61,7.34,-0.46,2,S01
5600,-9.26796,2.37505,-1.45089,21.3415,5.7927,11.0366,-27.80,6.70,-2.57,2,S01
5620,-9.16979,2.53546,-1.18034,17.9878,6.7683,16.2195,-27.80,6.70,-2.57,2,S01
5640,-9.05966,2.37984,-1.06542,15.0000,7.3780,18.7805,-27.80,6.70,-2.57,2,S01
5660,-8.86333,2.20745,-1.01035,12.0122,8.3537,19.0854,-26.79,5.60,-4.13,2,S01
5680,-8.66462,2.03986,-0.76854,10.2439,10.3049,19.8171,-26.79,5.60,-4.13,2,S01
5700,-8.57124,1.89860,-0.35674,9.0854,11.1585,21.0366,-26.79,5.60,-4.13,2,S01
5720,-8.56406,1.83156,-0.22027,8.2927,9.6341,21.7073,-26.79,5.60,-4.13,2,S01
5740,-8.67898,1.87227,-0.09816,7.5610,8.5366,20.7317,-27.25,4.68,-4.68,2,S01
5760,-8.88728,1.95606,0.11013,6.5854,8.0488,17.8659,-27.25,4.68,-4.68,2,S01
5780,-9.05248,2.00395,0.29209,5.1220,6.0366,13.5976,-27.25,4.68,-4.68,2,S01
5800,-9.00938,1.92494,0.42138,5.4878,2.0732,9.8780,-27.25,4.40,-5.32,2,S01
5820,-8.84897,1.80044,0.53391,6.7683,-3.2317,6.5854,-27.25,4.40,-5.32,2,S01
5840,-8.90643,1.59693,0.86431,7.9268,-8.0488,3.1098,-27.25,4.40,-5.32,2,S01
5860,-9.22965,1.43413,1.11570,10.3659,-13.2317,-0.7317,-26.15,4.59,-6.06,2,S01
5880,-9.55765,1.76213,0.99359,13.0488,-17.8049,-3.8415,-26.15,4.59,-6.06,2,S01
5900,-9.54568,2.36068,0.58658,12.8049,-19.5122,-2.9268,-26.15,4.59,-6.06,2,S01
5920,-9.48343,2.95923,0.01915,13.4146,-18.4756,1.3415,-26.15,4.59,-6.06,2,S01
5940,-9.66779,3.44526,-0.08380,15.8537,-13.4146,5.4878,-28.44,5.05,-6.06,2,S01
5960,-10.22803,3.79002,0.62968,14.5732,-7.1341,7.5000,-28.44,5.05,-6.06,2,S01
5980,-11.23120,3.23935,0.72784,11.5244,-1.1585,8.6585,-28.44,5.05,-6.06,2,S01
6000,-12.62702,2.86347,-0.57461,7.9878,2.8659,11.2805,-24.50,4.31,-7.43,2,S01
6020,-12.49055,3.26569,-1.51314,-2.9878,-0.1220,17.0732,-24.50,4.31,-7.43,2,S01
6040,-11.78666,3.45483,-2.77249,-17.8659,-4.5122,23.8415,-24.50,4.31,-7.43,2,S01
6060,-10.73081,1.86269,-2.77727,-21.7683,-9.5732,32.0122,-31.74,4.77,-3.21,2,S01
6080,-9.29908,-0.48363,-3.54581,-14.5732,-18.5976,33.9634,-31.74,4.77,-3.21,2,S01
6100,-8.50660,-1.85072,-3.52187,-10.5488,-19.0854,25.0610,-31.74,4.77,-3.21,2,S01
6120,-8.18817,-1.13006,-3.06937,-3.9024,-16.2195,13.4756,-31.74,4.77,-3.21,2,S01
6140,-8.28394,0.90740,-2.60010,-0.0610,-13.2317,3.1707,-30.18,4.13,-4.68,2,S01
6160,-8.77714,3.08134,-2.27210,-4.0244,-9.3293,-4.0244,-30.18,4.13,-4.68,2,S01
6180,-9.07881,3.56736,-1.76453,-17.7439,-8.4756,-6.9512,-30.18,4.13,-4.68,2,S01
6200,-8.84658,2.65278,-1.70467,-35.6098,-11.0976,-9.9390,-29.45,4.86,-3.39,2,S01
6220,-8.58082,1.74058,-1.85790,-48.7805,-11.5854,-14.9390,-29.45,4.86,-3.39,2,S01
6240,-8.29351,1.28090,-1.98000,-56.6463,-8.2927,-18.3537,-29.45,4.86,-3.39,2,S01
6260,-8.35576,1.15161,-1.63285,-59.8171,-1.1585,-19.1463,-29.17,6.15,-1.10,2,S01
6280,-8.63349,0.92177,-1.03430,-59.2683,5.2439,-18.7805,-29.17,6.15,-1.10,2,S01
6300,-8.88249,0.32801,-0.55545,-56.7073,7.1341,-18.4146,-29.17,6.15,-1.10,2,S01
6320,-9.01417,-0.39265,-0.23224,-52.4390,6.5854,-19.2073,-29.17,6.15,-1.10,2,S01
6340,-9.11951,-0.76854,-0.06704,-46.8902,4.8171,-20.3659,-25.41,6.97,-0.55,2,S01
6360,-9.22007,-0.64404,0.00958,-41.1585,2.4390,-20.7927,-25.41,6.97,-0.55,2,S01
6380,-9.15303,-0.19632,0.01197,-36.2195,0.1829,-19.8171,-25.41,6.97,-0.55,2,S01
6400,-9.00699,0.28252,0.25379,-32.1951,0.0000,-17.9878,-25.23,7.80,0.18,2,S01
6420,-8.73165,0.45011,0.41420,-28.7195,0.4878,-14.5122,-25.23,7.80,0.18,2,S01
6440,-8.48984,0.38068,0.61052,-26.2805,2.8659,-10.3049,-25.23,7.80,0.18,2,S01
6460,-8.37971,0.38786,0.87149,-24.8780,6.4024,-6.5244,-24.40,8.07,0.55,2,S01
6480,-8.42759,0.43335,1.14203,-24.7561,10.1829,-2.5000,-24.40,8.07,0.55,2,S01
6500,-8.67659,0.31843,1.41976,-25.0000,14.5732,1.4634,-24.40,8.07,0.55,2,S01
6520,-9.25359,-0.07661,1.74058,-24.6341,18.7195,3.7805,-24.40,8.07,0.55,2,S01
6540,-9.81383,-0.37110,1.58975,-23.6585,18.7195,2.9268,-21.74,8.07,0.55,2,S01
6560,-10.06522,-0.10774,1.08457,-25.8537,16.3415,-0.6707,-21.74,8.07,0.55,2,S01
6580,-10.21845,0.39025,0.82121,-29.8171,14.6951,-4.4512,-21.74,8.07,0.55,2,S01
6600,-10.39323,0.30167,1.08218,-29.8171,13.4756,-6.9512,-22.48,8.72,1.01,2,S01
6620,-10.41717,0.33758,1.68312,-28.4756,12.0732,-9.3293,-22.48,8.72,1.01,2,S01
6640,-10.64223,-0.08859,1.43892,-30.6098,11.3415,-10.9756,-22.48,8.72,1.01,2,S01
6660,-12.18409,-0.00239,-1.10373,-33.1098,12.5610,-11.1585,-25.41,10.83,3.49,2,S01
6680,-13.40274,-1.51553,-1.12527,-26.8293,12.6220,-13.9634,-25.41,10.83,3.49,2,S01
6700,-12.66533,-2.93050,-3.08373,-5.7317,-4.7561,-25.1220,-25.41,10.83,3.49,2,S01
6720,-11.20247,-1.10612,-3.21781,8.0488,-16.8902,-42.7439,-25.41,10.83,3.49,2,S01
6740,-10.00776,2.10929,-2.61926,8.8415,-20.8537,-49.3902,-25.14,11.93,2.48,2,S01
6760,-9.55765,3.53863,-2.32716,14.2683,-17.5000,-38.1098,-25.14,11.93,2.48,2,S01
6780,-9.61272,2.46603,-1.41737,20.9756,-10.6098,-17.7439,-25.14,11.93,2.48,2,S01
6800,-9.66539,0.34955,-1.28329,26.2805,-10.0000,3.0488,-22.11,11.74,1.10,2,S01
6820,-9.67497,-1.26893,-1.30245,29.2073,-9.2683,16.5244,-22.11,11.74,1.10,2,S01
6840,-9.22246,-1.47243,-1.37427,32.7439,-8.0488,22.9878,-22.11,11.74,1.10,2,S01
6860,-8.64786,-0.30885,-1.26414,38.6585,-4.8171,24.5122,-25.60,10.73,-0.55,2,S01
6880,-8.03255,1.01993,-1.40300,45.9146,-2.1951,23.9024,-25.60,10.73,-0.55,2,S01
6900,-7.72609,1.41737,-1.50356,51.9512,-1.7073,24.5732,-25.60,10.73,-0.55,2,S01
6920,-8.21451,1.40779,-1.38624,55.1829,1.4024,24.3293,-25.60,10.73,-0.55,2,S01
6940,-9.36133,1.67355,-0.16520,49.5732,6.6463,23.2927,-23.67,9.45,-3.85,2,S01
6960,-8.99741,1.56581,-0.03831,43.3537,1.4024,23.4146,-23.67,9.45,-3.85,2,S01
6980,-8.54251,1.24738,-0.07422,39.8780,-1.7683,23.0488,-23.67,9.45,-3.85,2,S01
7000,-8.21451,1.00796,0.06225,37.9878,-1.6463,20.3659,-24.95,8.99,-5.32,2,S01
7020,-7.90565,1.00556,0.25857,34.7561,-0.9146,15.3049,-24.95,8.99,-5.32,2,S01
7040,-8.17380,1.07500,0.96726,31.0366,-0.8537,10.0610,-24.95,8.99,-5.32,2,S01
7060,-8.76757,1.18034,1.65918,28.2317,-6.5244,5.0000,-21.74,8.81,-7.25,2,S01
7080,-9.16979,1.30723,1.56820,25.2439,-14.9390,1.8293,-21.74,8.81,-7.25,2,S01
7100,-9.47386,1.64003,1.23780,22.9268,-18.5366,1.8902,-21.74,8.81,-7.25,2,S01
7120,-9.45949,1.97522,0.47166,20.7317,-17.2561,7.5000,-21.74,8.81,-7.25,2,S01
7140,-9.09078,1.55144,-0.69192,22.6829,-13.4146,14.8171,-24.50,9.08,-7.52,2,S01
7160,-9.13627,1.97043,-0.86191,27.0732,-4.2683,15.7317,-24.50,9.08,-7.52,2,S01
7180,-10.10593,2.07577,0.38068,24.0244,5.7927,12.5000,-24.50,9.08,-7.52,2,S01
7200,-12.28704,1.54665,-0.18675,24.0244,8.2317,10.3049,-21.10,8.62,-9.36,2,S01
7220,-13.60864,2.07817,-1.18513,22.3171,7.0122,15.8537,-21.10,8.62,-9.36,2,S01
7240,-12.90475,2.70545,-2.01113,7.7439,1.8293,26.4634,-21.10,8.62,-9.36,2,S01
7260,-11.39640,3.05021,-2.88980,-3.4756,-2.2561,35.3659,-29.63,8.62,-6.70,2,S01
7280,-9.64384,1.00556,-2.41575,3.1707,-5.3049,40.4268,-29.63,8.62,-6.70,2,S01
7300,-9.21289,-1.08218,-3.01669,14.9390,-6.5854,30.7927,-29.63,8.62,-6.70,2,S01
7320,-9.85453,-1.43892,-2.20985,15.6707,1.7073,15.1220,-29.63,8.62,-6.70,2,S01
7340,-10.09635,0.06943,-1.29526,13.1707,2.9268,5.0000,-25.32,8.17,-9.63,2,S01
7360,-9.70370,1.78847,-1.20189,8.7805,-4.6341,-1.4024,-25.32,8.17,-9.63,2,S01
7380,-9.01656,2.65996,-1.47962,3.5366,-10.2439,-7.7439,-25.32,8.17,-9.63,2,S01
7400,-8.32224,2.45885,-1.52032,-5.9146,-11.2805,-15.7927,-27.71,9.36,-8.90,2,S01
7420,-8.01579,1.39821,-1.30484,-13.7195,-8.6585,-22.9878,-27.71,9.36,-8.90,2,S01
7440,-7.89847,-0.17717,-1.42455,-15.0610,-3.0488,-24.9390,-27.71,9.36,-8.90,2,S01
7460,-8.01579,-1.53229,-1.28329,-12.6829,6.1585,-23.5366,-23.39,10.64,-9.36,2,S01
7480,-8.54730,-1.60412,-0.86670,-4.8171,13.2317,-22.4390,-23.39,10.64,-9.36,2,S01
7500,-9.07642,-0.77333,-0.63207,6.5854,14.8171,-21.4634,-23.39,10.64,-9.36,2,S01
7520,-9.27035,-0.02634,-0.48842,15.9756,11.7683,-20.2439,-23.39,10.64,-9.36,2,S01
7540,-9.21289,0.51475,-0.41180,20.1829,7.4390,-19.5732,-23.85,11.47,-10.73,2,S01
7560,-8.98783,0.82839,-0.28252,19.7561,4.2073,-18.4146,-23.85,11.47,-10.73,2,S01
7580,-8.74602,0.73023,-0.20351,17.5610,2.0122,-14.8171,-23.85,11.47,-10.73,2,S01
7600,-8.59518,0.52912,-0.17238,14.9390,1.2195,-9.5732,-23.03,12.02,-11.65,2,S01
7620,-8.60237,0.49321,-0.05986,11.0366,0.9756,-3.6585,-23.03,12.02,-11.65,2,S01
7640,-8.72208,0.50757,0.07422,7.0122,1.0976,2.9268,-23.03,12.02,-11.65,2,S01
7660,-9.00699,0.52433,0.52194,2.5610,0.8537,9.6341,-22.20,11.38,-12.11,2,S01
7680,-9.26077,0.26576,1.05824,-1.7683,-1.8902,15.3659,-22.20,11.38,-12.11,2,S01
7700,-9.28711,-0.53630,1.11091,-1.8902,-7.8049,17.4390,-22.20,11.38,-12.11,2,S01
7720,-9.17219,-1.42455,0.55306,3.1707,-12.9268,13.9024,-22.20,11.38,-12.11,2,S01
7740,-9.47625,-2.01113,-0.08619,10.4268,-11.7073,6.6463,-22.20,11.47,-12.20,2,S01
7760,-10.36450,-2.03268,0.01437,18.2927,-6.1585,-0.7927,-22.20,11.47,-12.20,2,S01
7780,-11.16656,-0.86910,1.35272,21.6463,-2.5000,-9.6951,-22.20,11.47,-12.20,2,S01
7800,-11.76032,0.94332,2.36787,18.2927,-4.4512,-17.6220,-17.89,11.74,-14.13,2,S01
7820,-11.12825,2.47800,0.90980,7.8049,-10.5488,-19.0244,-17.89,11.74,-14.13,2,S01
7840,-11.67892,2.01592,-2.08056,-7.8659,-8.7805,-12.3780,-17.89,11.74,-14.13,2,S01
7860,-12.69885,-0.41659,-2.94726,-16.8902,-2.8659,-6.3415,-26.06,14.86,-8.81,2,S01
7880,-12.47618,-2.09732,-3.93846,-10.9756,-7.4390,-16.9512,-26.06,14.86,-8.81,2,S01
7900,-11.00136,-0.60813,-4.31675,1.8902,-16.6463,-42.0732,-26.06,14.86,-8.81,2,S01
7920,-9.82341,2.73418,-3.93367,8.9024,-18.7805,-53.8415,-26.06,14.86,-8.81,2,S01
7940,-9.74440,4.23774,-2.71981,6.4024,-8.4146,-40.9146,-25.41,15.78,-10.28,2,S01
7960,-9.62948,2.48039,-1.37667,4.0244,-1.8902,-15.9756,-25.41,15.78,-10.28,2,S01
7980,-9.17219,-0.66798,-1.19710,15.5488,-6.8293,5.5488,-25.41,15.78,-10.28,2,S01
8000,-8.67898,-2.95684,-1.13246,34.0854,-10.9146,16.9512,-19.27,15.23,-12.29,2,S01
8020,-8.22169,-3.01909,-1.65679,52.4390,-12.8049,20.9756,-19.27,15.23,-12.29,2,S01
8040,-8.15705,-1.00556,-1.71425,61.4024,-6.4634,19.0244,-19.27,15.23,-12.29,2,S01
8060,-8.35337,1.24738,-1.55863,67.5610,1.5244,18.5366,-23.85,14.31,-14.77,2,S01
8080,-8.61194,2.40378,-1.56341,72.4390,3.7805,20.9756,-23.85,14.31,-14.77,2,S01
8100,-9.06924,2.54025,-1.05345,71.0976,5.9146,21.5854,-23.85,14.31,-14.77,2,S01
8120,-9.28471,2.43730,-0.48363,63.9634,4.2683,20.0610,-23.85,14.31,-14.77,2,S01
8140,-8.90404,2.18591,-0.43096,54.6341,-1.7073,19.3902,-18.17,12.75,-18.81,2,S01
8160,-8.41323,1.81241,-0.55306,46.4634,-4.5732,19.5122,-18.17,12.75,-18.81,2,S01
8180,-8.18578,1.51074,-0.25618,42.4390,-1.1585,18.4756,-18.17,12.75,-18.81,2,S01
8200,-8.09719,1.38145,0.14605,39.9390,2.1341,15.5488,-18.99,12.39,-20.28,2,S01
8220,-8.13789,1.48440,0.42617,36.1585,3.7805,11.4024,-18.99,12.39,-20.28,2,S01
8240,-8.35098,1.69749,0.80206,32.8659,4.8171,7.4390,-18.99,12.39,-20.28,2,S01
8260,-8.69335,1.79805,1.47243,30.7927,2.9878,4.5732,-16.88,12.39,-21.65,2,S01
8280,-9.22486,1.59214,1.90578,30.3049,-3.2927,2.8659,-16.88,12.39,-21.65,2,S01
8300,-9.55526,1.43652,1.37906,31.4634,-9.4512,1.8902,-16.88,12.39,-21.65,2,S01
8320,-9.68215,1.71664,0.41899,30.1220,-9.8780,3.9634,-16.88,12.39,-21.65,2,S01
8340,-9.71806,2.10690,-0.18675,26.2805,-5.0610,9.5122,-19.91,12.94,-21.74,2,S01
8360,-10.28549,2.98796,0.47884,24.0854,-0.1220,15.4878,-19.91,12.94,-21.74,2,S01
8380,-11.76750,2.47560,-0.05746,27.3171,1.4634,14.8780,-19.91,12.94,-21.74,2,S01
8400,-13.63737,2.53307,-1.58257,27.8049,6.3415,18.7805,-16.33,12.20,-23.39,2,S01
8420,-13.51048,3.18908,-2.40617,12.0122,3.5976,28.2927,-16.33,12.20,-23.39,2,S01
8440,-12.36845,2.12366,-3.14119,-6.7683,-3.4146,37.8659,-16.33,12.20,-23.39,2,S01
8460,-10.82897,-0.44772,-2.45885,1.8902,-11.5244,41.2195,-23.39,12.94,-20.09,2,S01
8480,-9.47146,-2.31280,-3.15316,22.8049,-24.6341,31.3415,-23.39,12.94,-20.09,2,S01
8500,-8.75799,-2.10690,-3.12443,27.8659,-27.0122,17.2561,-23.39,12.94,-20.09,2,S01
8520,-8.35337,-0.25139,-2.55940,22.8659,-26.0366,7.0122,-23.39,12.94,-20.09,2,S01
8540,-8.25281,2.12605,-2.22661,13.3537,-25.6098,0.1829,-21.47,12.94,-21.83,2,S01
8560,-8.31267,3.34709,-2.35350,2.3171,-22.5610,-4.6341,-21.47,12.94,-21.83,2,S01
8580,-8.42998,2.91614,-2.01831,-9.6341,-16.1585,-7.2561,-21.47,12.94,-21.83,2,S01
8600,-8.53054,1.82199,-1.44610,-20.5488,-11.0976,-11.2195,-21.83,13.94,-21.19,2,S01
8620,-8.71489,0.67516,-0.88825,-27.8659,-8.4146,-14.3902,-21.83,13.94,-21.19,2,S01
8640,-8.70532,-0.30885,-0.92416,-32.1341,-8.7805,-14.4512,-21.83,13.94,-21.19,2,S01
8660,-8.56645,-0.57940,-1.27372,-32.8049,-6.7073,-12.6829,-20.37,14.50,-20.46,2,S01
8680,-8.68138,-0.41420,-1.18992,-29.8171,0.0000,-10.6707,-20.37,14.50,-20.46,2,S01
8700,-8.88009,-0.26336,-0.97683,-25.1220,5.6098,-9.0244,-20.37,14.50,-20.46,2,S01
8720,-8.90643,-0.02155,-0.91459,-20.9146,7.6220,-8.4756,-20.37,14.50,-20.46,2,S01
8740,-8.90883,0.15323,-0.89543,-17.8049,10.5488,-7.9878,-19.72,14.40,-20.73,2,S01
8760,-9.12191,0.16759,-0.85234,-13.8415,15.3659,-6.9512,-19.72,14.40,-20.73,2,S01
8780,-9.24641,-0.02394,-0.92656,-10.2439,18.7195,-5.1220,-19.72,14.40,-20.73,2,S01
8800,-9.28471,0.07901,-0.94571,-8.8415,21.4024,-3.4146,-20.37,14.22,-21.01,2,S01
8820,-9.27993,0.44532,-0.82361,-9.5122,23.6585,-1.4024,-20.37,14.22,-21.01,2,S01
8840,-9.19613,0.84276,-0.40462,-12.2561,23.2317,0.3659,-20.37,14.22,-21.01,2,S01
8860,-8.99741,0.90501,0.00479,-15.0610,17.9878,1.0366,-20.37,13.67,-21.19,2,S01
8880,-8.74602,0.70868,0.10774,-15.7317,10.0000,0.3049,-20.37,13.67,-21.19,2,S01
8900,-8.71011,0.39265,0.26097,-15.6707,4.1463,-1.1585,-20.37,13.67,-21.19,2,S01
8920,-8.87770,-0.07661,-0.12210,-13.2927,-1.0976,-2.4390,-20.37,13.67,-21.19,2,S01
8940,-8.99262,0.20590,-0.45969,-12.2561,-4.9390,-3.2317,-20.92,14.04,-20.64,2,S01
8960,-9.39724,0.53151,0.22745,-16.2195,-3.2927,-1.7683,-20.92,14.04,-20.64,2,S01
8980,-9.99819,0.59376,0.51475,-15.1829,-2.3780,-0.8537,-20.92,14.04,-20.64,2,S01
9000,-10.65180,0.82600,-0.30885,-12.9878,-2.4390,-2.0732,-19.45,13.94,-20.92,2,S01
9020,-11.50893,1.01275,-1.10133,-16.7073,-0.3049,-4.3293,-19.45,13.94,-20.92,2,S01
9040,-12.60787,0.85234,-1.95127,-18.9024,-0.6098,-8.7805,-19.45,13.94,-20.92,2,S01
9060,-12.73955,0.97923,-2.00155,-18.9024,-7.5000,-18.8415,-22.02,15.60,-19.27,2,S01
9080,-11.24557,1.57060,-2.64080,-19.3902,-20.3659,-32.1341,-22.02,15.60,-19.27,2,S01
9100,-9.18895,2.84910,-3.32315,-25.2439,-26.8293,-40.0000,-22.02,15.60,-19.27,2,S01
9120,-7.94396,3.29442,-3.08852,-31.7073,-17.7439,-34.9390,-22.02,15.60,-19.27,2,S01
9140,-8.16902,2.48518,-2.37984,-35.3659,-1.8293,-21.2195,-24.59,17.43,-16.42,2,S01
9160,-8.98544,0.75417,-1.55863,-33.7805,8.7195,-6.0366,-24.59,17.43,-16.42,2,S01
9180,-9.68694,-1.25217,-1.20907,-23.2317,8.5976,4.8780,-24.59,17.43,-16.42,2,S01
9200,-10.12987,-2.49476,-1.36470,-7.6220,2.7439,8.7195,-17.25,16.79,-17.80,2,S01
9220,-10.14423,-1.31921,-1.34315,7.5000,0.0000,7.0122,-17.25,16.79,-17.80,2,S01
9240,-9.78031,0.61052,-1.43892,16.3415,-2.6220,6.0976,-17.25,16.79,-17.80,2,S01
9260,-9.31823,2.16196,-1.47962,21.0976,-5.6098,8.7195,-23.39,15.87,-18.72,2,S01
9280,-8.99502,2.55222,-1.55863,23.5366,-6.4634,14.1463,-23.39,15.87,-18.72,2,S01
9300,-8.83939,2.22421,-1.38145,22.1951,-3.2927,18.8415,-23.39,15.87,-18.72,2,S01
9320,-8.73644,1.76692,-1.07021,17.7439,0.8537,21.6463,-23.39,15.87,-18.72,2,S01
9340,-8.65504,1.38864,-0.82600,12.5610,2.6829,21.7683,-20.09,14.59,-20.73,2,S01
9360,-8.59040,1.13964,-0.85712,10.2439,2.9268,20.0000,-20.09,14.59,-20.73,2,S01
9380,-8.68377,0.98162,-0.72065,10.6707,5.1220,17.4390,-20.09,14.59,-20.73,2,S01
9400,-8.95910,1.10133,-0.36152,12.6220,8.1707,14.4512,-21.19,14.13,-21.47,2,S01
9420,-9.16022,1.22344,-0.11732,13.7195,9.0244,11.7683,-21.19,14.13,-21.47,2,S01
9440,-9.27274,1.32878,0.18675,15.0610,8.4146,9.0244,-21.19,14.13,-21.47,2,S01
9460,-9.17219,1.26174,0.26815,16.7683,6.1585,6.3415,-20.55,13.85,-22.48,2,S01
9480,-8.93756,1.05105,0.40223,18.4146,4.8780,3.9024,-20.55,13.85,-22.48,2,S01
9500,-8.82742,0.90980,0.56024,20.4878,4.3293,1.5854,-20.55,13.85,-22.48,2,S01
9520,-8.88488,0.94810,0.68474,22.9268,3.7195,-0.1220,-20.55,13.85,-22.48,2,S01
9540,-9.19852,1.15640,0.91937,25.6707,1.6463,-0.9146,-19.17,13.85,-23.94,2,S01
9560,-9.46189,1.91057,0.49321,26.0976,-3.9024,-0.9146,-19.17,13.85,-23.94,2,S01
9580,-9.62708,2.44448,0.25139,20.8537,-7.4390,0.9756,-19.17,13.85,-23.94,2,S01
9600,-9.63906,2.47321,0.10056,18.2927,-9.5732,3.4756,-19.91,13.94,-24.13,2,S01
9620,-9.75398,2.43490,0.41899,18.3537,-9.5122,4.5732,-19.91,13.94,-24.13,2,S01
9640,-10.04846,2.37505,1.25935,18.4756,-8.2927,4.9390,-19.91,13.94,-24.13,2,S01
9660,-10.30225,2.31519,1.46525,17.7439,-8.1707,6.2805,-16.15,13.67,-25.41,2,S01
9680,-10.78348,2.04704,0.39504,13.5366,-6.5244,8.7195,-16.15,13.67,-25.41,2,S01
9700,-11.96143,2.34153,-1.01275,12.1341,0.6098,12.9268,-16.15,13.67,-25.41,2,S01
9720,-12.36126,3.38780,-1.68552,8.7805,6.1585,19.7561,-16.15,13.67,-25.41,2,S01
9740,-11.87285,4.09887,-2.29843,-6.6463,5.4268,26.2195,-23.76,13.39,-23.85,2,S01
9760,-10.51294,2.78925,-2.31040,-20.2439,-1.4634,32.3171,-23.76,13.39,-23.85,2,S01
9780,-8.72687,0.60573,-2.82516,-21.3415,-13.4146,30.0610,-23.76,13.39,-23.85,2,S01
9800,-7.35978,-1.12527,-3.24893,4.7561,-20.1829,9.3293,-23.76,13.94,-22.84,2,S01
9820,-7.84340,0.39983,-3.49075,11.2195,-16.5854,0.7317,-23.76,13.94,-22.84,2,S01
9840,-8.56167,2.60010,-3.09570,1.9512,-7.3780,-2.9878,-23.76,13.94,-22.84,2,S01
9860,-9.16500,3.82115,-2.46842,-18.7195,1.2805,-1.9512,-23.85,13.58,-23.12,2,S01
9880,-9.32302,3.38301,-2.18591,-36.6463,3.5366,-0.7927,-23.85,13.58,-23.12,2,S01
9900,-9.16022,2.35589,-2.35111,-46.3415,1.2195,-5.6707,-23.85,13.58,-23.12,2,S01
9920,-9.03093,1.59214,-2.38223,-52.7439,2.5000,-14.5122,-23.85,13.58,-23.12,2,S01
9940,-8.85615,1.09654,-2.14520,-57.9878,6.7073,-20.9756,-24.77,14.59,-21.01,2,S01
9960,-8.70771,0.64165,-1.93930,-58.1098,11.2805,-22.5610,-24.77,14.59,-21.01,2,S01
9980,-8.82503,0.23703,-1.55863,-52.9878,17.2561,-22.1341,-24.77,14.59,-21.01,2,S01
10000,-8.99980,-0.11013,-1.21865,-47.1951,20.7317,-21.6463,-24.40,15.14,-20.18,2,S01
10020,-9.06684,-0.16520,-0.93374,-42.9268,20.7927,-21.8293,-24.40,15.14,-20.18,2,S01
10040,-9.13388,-0.02873,-0.60813,-38.6585,19.2683,-21.4634,-24.40,15.14,-20.18,2,S01
10060,-9.24641,0.18196,-0.36392,-33.4146,16.6463,-20.0610,-23.58,15.50,-19.91,2,S01
10080,-9.22725,0.23703,-0.09577,-28.5366,13.7195,-17.5000,-23.58,15.50,-19.91,2,S01
10100,-9.06924,0.24660,0.00958,-24.0244,10.9146,-14.3293,-23.58,15.50,-19.91,2,S01
10120,-8.93277,0.39025,0.15323,-19.5122,9.3293,-10.8537,-23.58,15.50,-19.91,2,S01
10140,-8.94234,0.57700,0.37589,-15.5488,7.7439,-6.5854,-23.49,15.78,-19.72,2,S01
10160,-9.12670,0.85234,0.54109,-13.1098,4.2073,-2.1951,-23.49,15.78,-19.72,2,S01
10180,-9.51695,1.10373,0.85712,-14.7561,-2.5000,1.7683,-23.49,15.78,-19.72,2,S01
10200,-9.90002,0.85473,1.27372,-17.1341,-13.0488,4.4512,-22.48,15.50,-19.27,2,S01
10220,-9.83778,0.61531,0.67038,-15.5488,-26.7683,3.5366,-22.48,15.50,-19.27,2,S01
10240,-9.49062,0.73263,0.39983,-17.5000,-31.8293,0.0000,-22.48,15.50,-19.27,2,S01
10260,-9.33260,0.84276,0.62489,-21.2805,-28.5976,-4.2683,-23.30,16.42,-17.71,2,S01
10280,-9.49780,0.63925,1.16837,-21.5854,-23.1707,-8.5366,-23.30,16.42,-17.71,2,S01
10300,-9.84256,0.84036,1.64721,-21.6463,-16.5244,-13.5976,-23.30,16.42,-17.71,2,S01
10320,-10.17775,1.20189,1.89381,-26.0976,-8.7195,-17.7439,-23.30,16.42,-17.71,2,S01
10340,-10.52730,1.62566,0.48363,-34.3902,-2.3171,-17.3780,-20.09,16.79,-17.25,2,S01
10360,-12.21282,0.98402,-0.26815,-43.3537,9.2073,-13.2317,-20.09,16.79,-17.25,2,S01
10380,-13.78102,-0.23703,-0.71108,-42.8659,13.5366,-10.2439,-20.09,16.79,-17.25,2,S01
10400,-14.16888,-0.27054,-1.74537,-34.5122,3.9634,-14.3902,-22.84,17.98,-14.77,2,S01
10420,-12.36366,1.26414,-2.58095,-32.6220,-12.3171,-22.9878,-22.84,17.98,-14.77,2,S01
10440,-9.47146,3.04303,-3.61524,-39.7561,-22.6829,-24.2683,-22.84,17.98,-14.77,2,S01
10460,-6.84742,4.24013,-3.97916,-51.9512,-20.0610,-18.1098,-29.63,19.91,-9.17,2,S01
10480,-5.90410,3.77326,-3.71101,-64.3293,-11.4634,-7.5610,-29.63,19.91,-9.17,2,S01
10500,-6.54814,1.88663,-3.14598,-66.5854,-0.9146,3.7195,-29.63,19.91,-9.17,2,S01
10520,-8.00382,-0.06704,-2.57856,-58.5976,9.6341,11.7683,-29.63,19.91,-9.17,2,S01
10540,-9.55526,-0.78530,-1.92015,-46.6463,15.7317,15.2439,-27.71,18.62,-9.63,2,S01
10560,-10.40281,0.28970,-1.52032,-35.9146,16.8293,15.7317,-27.71,18.62,-9.63,2,S01
10580,-10.67574,1.95606,-0.87388,-31.1585,15.7927,15.9146,-27.71,18.62,-9.63,2,S01
10600,-10.34056,3.10289,-0.84515,-32.3780,7.8049,17.5610,-24.95,16.24,-11.10,2,S01
10620,-9.73482,3.10528,-1.28090,-35.9146,-0.7927,18.2317,-24.95,16.24,-11.10,2,S01
10640,-9.26317,2.69827,-1.48201,-39.0244,-2.9268,15.9146,-24.95,16.24,-11.10,2,S01
10660,-8.78193,2.24576,-1.46525,-43.1098,-1.6463,13.4756,-27.25,16.15,-8.81,2,S01
10680,-8.38689,1.89621,-1.30005,-48.1707,1.2805,11.8902,-27.25,16.15,-8.81,2,S01
10700,-8.32464,1.63524,-0.90261,-51.5244,4.2683,10.9146,-27.25,16.15,-8.81,2,S01
10720,-8.44435,1.53947,-0.67756,-51.4634,5.4268,9.2073,-27.25,16.15,-8.81,2,S01
10740,-8.61673,1.68552,-0.46687,-49.1463,6.8293,6.7073,-27.25,15.87,-7.16,2,S01
10760,-8.81066,1.87945,-0.18435,-46.7683,7.7439,4.6341,-27.25,15.87,-7.16,2,S01
10780,-8.83460,2.05423,-0.10774,-44.3293,7.3780,3.4756,-27.25,15.87,-7.16,2,S01
10800,-8.79630,2.31519,-0.05267,-41.9512,7.9878,2.3780,-26.88,15.50,-6.06,2,S01
10820,-8.67898,2.51391,-0.00479,-40.0000,9.0244,1.8293,-26.88,15.50,-6.06,2,S01
10840,-8.47308,2.48758,0.07183,-37.7439,10.5488,1.6463,-26.88,15.50,-6.06,2,S01
10860,-8.29591,2.39181,0.10295,-34.0854,12.6829,0.4878,-26.24,15.32,-5.41,2,S01
10880,-8.32464,2.24816,0.01676,-30.1829,15.4878,-2.2561,-26.24,15.32,-5.41,2,S01
10900,-8.59758,2.69587,-0.69192,-27.1951,17.9878,-5.6098,-26.24,15.32,-5.41,2,S01
10920,-8.86333,3.89058,-1.40061,-32.4390,18.9634,-7.4390,-26.24,15.32,-5.41,2,S01
10940,-9.24401,4.81953,-1.27132,-37.5610,16.3415,-6.3415,-28.81,15.69,-3.67,2,S01
10960,-9.81623,4.60644,-0.52433,-37.0122,11.4024,-3.5366,-28.81,15.69,-3.67,2,S01
10980,-10.42675,3.22978,0.35195,-37.0122,6.5244,0.4268,-28.81,15.69,-3.67,2,S01
11000,-11.27430,1.30723,0.66559,-37.5610,0.6098,5.2439,-21.38,15.14,-2.84,2,S01
11020,-11.99256,0.90022,0.27533,-33.7195,-6.4024,8.9024,-21.38,15.14,-2.84,2,S01
11040,-12.08354,1.78607,-1.05824,-23.2927,-11.7683,12.3780,-21.38,15.14,-2.84,2,S01
11060,-11.67892,3.73974,-1.48919,-23.5976,-13.5976,17.5000,-29.45,13.76,-0.55,2,S01
11080,-10.68532,3.48356,-1.85311,-33.8415,-25.0000,25.1220,-29.45,13.76,-0.55,2,S01
11100,-9.30626,1.33596,-2.80840,-43.1098,-37.7439,27.5000,-29.45,13.76,-0.55,2,S01
11120,-8.26478,-0.57940,-3.18908,-44.5732,-38.5366,20.2439,-29.45,13.76,-0.55,2,S01
11140,-7.81707,-0.69911,-2.90656,-37.6829,-32.8659,9.4512,-28.44,13.30,2.02,2,S01
11160,-7.83622,0.06943,-2.62405,-33.1098,-27.0122,2.0122,-28.44,13.30,2.02,2,S01
11180,-8.30309,1.58017,-2.91135,-40.1220,-17.4390,-2.1951,-28.44,13.30,2.02,2,S01
11200,-9.11233,2.49476,-2.60729,-59.3902,-3.5366,-2.3171,-27.98,13.49,4.50,2,S01
11220,-9.56484,2.21703,-2.20027,-77.9878,6.5854,-2.4390,-27.98,13.49,4.50,2,S01
11240,-9.73961,1.10373,-1.72861,-97.5000,17.9268,-18.0488,-27.98,13.49,4.50,2,S01
11260,-9.71328,0.81163,-1.28569,-102.5610,20.7927,-25.3659,-24.31,14.50,6.97,2,S01
11280,-9.52892,0.43574,-0.75657,-105.1220,20.1220,-26.5244,-24.31,14.50,6.97,2,S01
11300,-9.13867,-0.08859,-0.62968,-103.7805,16.6463,-23.7805,-24.31,14.50,6.97,2,S01
11320,-8.91361,-0.52194,-0.47166,-97.4390,16.4024,-20.9146,-24.31,14.50,6.97,2,S01
11340,-8.93995,-0.60573,-0.31125,-87.7439,18.9024,-19.6951,-21.38,15.41,9.17,2,S01
11360,-9.01178,-0.36871,-0.26815,-77.6220,21.2195,-18.9634,-21.38,15.41,9.17,2,S01
11380,-9.04769,0.01437,-0.19632,-70.2439,22.9878,-17.0122,-21.38,15.41,9.17,2,S01
11400,-9.08360,0.29688,-0.24900,-65.4878,23.8415,-13.4146,-19.82,16.33,10.37,2,S01
11420,-9.19613,0.39265,-0.26815,-62.0732,24.9390,-9.0244,-19.82,16.33,10.37,2,S01
11440,-9.39485,0.31603,-0.26576,-58.7195,25.7927,-5.4878,-19.82,16.33,10.37,2,S01
11460,-9.52653,0.23463,-0.27533,-54.6951,25.4268,-3.9024,-18.35,16.70,11.19,2,S01
11480,-9.58878,0.14605,-0.36152,-49.5122,23.2927,-3.9024,-18.35,16.70,11.19,2,S01
11500,-9.54089,0.05507,-0.46687,-44.2683,21.0976,-4.3902,-18.35,16.70,11.19,2,S01
11520,-9.51695,-0.05746,-0.41420,-39.8780,19.2073,-5.0000,-18.35,16.70,11.19,2,S01
11540,-9.50259,-0.21548,-0.36392,-36.2805,16.5244,-5.3659,-17.43,17.16,11.56,2,S01
11560,-9.43555,-0.35434,-0.20351,-33.4146,13.6585,-5.0610,-17.43,17.16,11.56,2,S01
11580,-9.46907,-0.47166,0.04788,-30.4878,10.8537,-4.0244,-17.43,17.16,11.56,2,S01
11600,-9.57681,-0.49081,0.42617,-26.3415,7.6220,-2.9268,-16.24,17.34,11.65,2,S01
11620,-9.62708,-0.43096,0.72784,-22.3171,3.2927,-1.7683,-16.24,17.34,11.65,2,S01
11640,-9.55287,-0.30167,0.86670,-18.9024,-1.4024,-0.1220,-16.24,17.34,11.65,2,S01
11660,-9.43316,-0.24181,0.98402,-15.2439,-5.4268,1.8902,-14.31,16.70,11.65,2,S01
11680,-9.23683,-0.24181,1.07021,-11.5854,-8.1707,3.3537,-14.31,16.70,11.65,2,S01
11700,-9.00220,-0.24421,1.04387,-8.0488,-8.7195,3.6585,-14.31,16.70,11.65,2,S01
11720,-8.83939,0.11253,1.15161,-4.8171,-6.5854,3.9024,-14.31,16.70,11.65,2,S01
11740,-8.93756,0.04070,1.14443,-4.5732,-3.0488,5.3659,-14.04,16.24,11.74,2,S01
11760,-9.22007,0.23463,1.32160,-6.7073,0.8537,7.8049,-14.04,16.24,11.74,2,S01
11780,-9.54089,0.79487,1.69031,-10.1829,3.5976,10.0000,-14.04,16.24,11.74,2,S01
11800,-9.66060,1.18752,1.78129,-14.6341,4.2683,12.8049,-13.03,15.50,11.56,2,S01
11820,-10.07480,0.69671,0.15562,-21.7073,4.2683,16.4024,-13.03,15.50,11.56,2,S01
11840,-12.27268,-0.56264,-1.69270,-33.4146,12.0122,18.5366,-13.03,15.50,11.56,2,S01
11860,-14.67406,-2.14520,-1.47004,-31.7073,21.7073,14.2073,-17.25,17.34,14.50,2,S01
11880,-15.45457,-2.13084,-1.85551,-7.9878,15.4878,-5.9756,-17.25,17.34,14.50,2,S01
11900,-13.82173,-0.71108,-2.30322,27.5610,-6.7683,-26.0366,-17.25,17.34,14.50,2,S01
11920,-11.02051,1.47243,-3.69665,40.0000,-31.4634,-33.4146,-17.25,17.34,14.50,2,S01
11940,-8.09719,2.96402,-4.49392,27.3780,-38.3537,-26.5854,-18.72,16.70,14.22,2,S01
11960,-6.33745,3.08134,-3.42131,6.6463,-28.9634,-12.8659,-18.72,16.70,14.22,2,S01
11980,-5.91368,1.46765,-2.88262,-5.9756,-23.4756,2.8049,-18.72,16.70,14.22,2,S01
12000,-6.86896,-0.58179,-2.61447,-6.8902,-15.8537,12.9878,-19.82,16.61,15.60,2,S01
12020,-8.47308,-1.65679,-2.10211,3.7195,-4.0854,14.5122,-19.82,16.61,15.60,2,S01
12040,-9.65582,-1.41497,-1.54665,20.1220,0.9756,12.0122,-19.82,16.61,15.60,2,S01
12060,-9.99819,0.08619,-1.57060,36.8902,-1.8902,9.9390,-14.77,15.14,11.10,2,S01
12080,-9.62948,1.46286,-1.42694,48.4146,-5.9146,9.2683,-14.77,15.14,11.10,2,S01
12100,-9.10515,1.81959,-1.88184,54.7561,-10.7927,10.3049,-14.77,15.14,11.10,2,S01
12120,-8.96150,1.24259,-1.91057,58.0488,-8.1098,12.6220,-14.77,15.14,11.10,2,S01
12140,-9.01896,0.62968,-1.66158,61.0976,-2.0122,14.3902,-20.64,15.05,10.73,2,S01
12160,-9.05727,0.50039,-1.42934,65.5488,1.3415,15.3049,-20.64,15.05,10.73,2,S01
12180,-9.17458,0.72544,-1.26174,70.8537,1.8902,16.4634,-20.64,15.05,10.73,2,S01
12200,-9.40921,1.09654,-0.98641,75.5488,1.3415,17.9878,-20.92,13.94,7.34,2,S01
12220,-9.51216,1.32160,-0.87867,78.4756,-0.1220,19.4512,-20.92,13.94,7.34,2,S01
12240,-9.41640,1.18274,-0.88346,79.6951,-2.3780,20.2439,-20.92,13.94,7.34,2,S01
12260,-9.25838,0.83079,-0.83318,80.9146,-3.8415,19.0244,-22.11,13.30,4.31,2,S01
12280,-9.11712,0.66559,-0.78769,83.1707,-4.2683,16.5244,-22.11,13.30,4.31,2,S01
12300,-9.03332,0.60334,-0.65841,84.2683,-3.9024,14.2073,-22.11,13.30,4.31,2,S01
12320,-9.00699,0.89064,-0.45250,84.1463,-3.8415,12.1951,-22.11,13.30,4.31,2,S01
12340,-8.98783,1.19231,-0.31364,82.5610,-4.8780,11.3415,-22.94,12.66,1.38,2,S01
12360,-9.05248,1.57060,-0.11253,79.6951,-6.4024,10.8537,-22.94,12.66,1.38,2,S01
12380,-9.17698,1.83396,0.21787,74.0244,-8.6585,10.0000,-22.94,12.66,1.38,2,S01
12400,-9.22725,2.08296,0.38547,66.4634,-12.0122,8.4756,-22.84,12.20,-1.01,2,S01
12420,-9.29669,2.42054,0.47166,59.0854,-14.2683,6.4024,-22.84,12.20,-1.01,2,S01
12440,-9.53850,2.84910,0.50757,52.6220,-14.8171,5.5488,-22.84,12.20,-1.01,2,S01
12460,-9.82102,2.94008,0.64643,44.9390,-15.8537,7.3780,-23.12,11.65,-2.29,2,S01
12480,-9.81623,2.49955,0.66080,40.8537,-17.6829,9.8780,-23.12,11.65,-2.29,2,S01
12500,-9.61990,1.99676,0.66080,39.5732,-17.4390,11.0976,-23.12,11.65,-2.29,2,S01
12520,-9.30866,1.83635,0.63925,36.8902,-17.5000,11.2195,-23.12,11.65,-2.29,2,S01
12540,-9.16740,1.75256,0.67038,35.9756,-16.8902,10.1829,-23.49,11.28,-3.39,2,S01
12560,-9.84496,1.14443,0.20351,39.8780,-12.6220,8.9634,-23.49,11.28,-3.39,2,S01
12580,-11.60709,0.84515,-0.64643,45.6707,-4.2073,10.2439,-23.49,11.28,-3.39,2,S01
12600,-12.75391,1.38385,-0.78530,43.8415,-2.0122,17.0732,-24.04,10.46,-5.05,2,S01
12620,-12.56238,2.46842,-2.30083,33.9024,-13.4756,25.9146,-24.04,10.46,-5.05,2,S01
12640,-11.58315,2.29125,-2.90896,25.2439,-22.1951,36.0976,-24.04,10.46,-5.05,2,S01
12660,-8.90404,-1.43892,-2.55461,46.4024,-30.0610,28.9634,-27.52,10.09,-4.04,2,S01
12680,-8.70292,-1.79326,-2.37984,61.3415,-28.5366,13.4756,-27.52,10.09,-4.04,2,S01
12700,-8.56885,-0.57461,-2.37265,65.2439,-28.2927,1.8293,-27.52,10.09,-4.04,2,S01
12720,-8.37971,1.10852,-2.33674,59.3293,-25.5488,-4.0244,-27.52,10.09,-4.04,2,S01
12740,-8.48505,2.09732,-1.96803,52.1951,-18.9024,-6.6463,-26.15,10.09,-7.16,2,S01
12760,-8.60237,1.78129,-1.66636,47.0122,-14.3902,-8.5976,-26.15,10.09,-7.16,2,S01
12780,-8.66222,0.98162,-1.71904,42.1341,-13.7195,-13.4756,-26.15,10.09,-7.16,2,S01
12800,-8.83221,0.46448,-1.84593,37.1341,-10.6098,-19.5732,-24.22,10.73,-8.90,2,S01
12820,-8.97347,0.26336,-1.58736,32.9268,-2.5610,-21.7073,-24.22,10.73,-8.90,2,S01
12840,-9.19134,0.18914,-1.10133,30.6098,5.0610,-20.3659,-24.22,10.73,-8.90,2,S01
12860,-9.41161,0.16041,-0.77812,30.4268,9.0244,-17.3171,-23.39,11.28,-10.64,2,S01
12880,-9.51216,0.15802,-0.69911,32.3171,9.5732,-14.3902,-23.39,11.28,-10.64,2,S01
12900,-9.46667,0.36392,-0.62249,35.1220,9.0854,-13.1707,-23.39,11.28,-10.64,2,S01
12920,-9.27035,0.57221,-0.65601,37.6829,7.3780,-13.3537,-23.30,11.83,-12.11,2,S01
12940,-9.00938,0.66798,-0.83318,39.0854,5.7927,-14.2073,-23.30,11.83,-12.11,2,S01
12960,-8.88009,0.75417,-1.05105,37.5610,6.1585,-14.4512,-23.30,11.83,-12.11,2,S01
12980,-9.07642,0.61292,-0.89304,32.1951,9.4512,-13.2317,-23.30,11.83,-12.11,2,S01
13000,-9.26077,0.54827,-0.68714,24.8780,11.9512,-11.5854,-22.29,12.11,-13.58,2,S01
13020,-9.27274,0.67995,-0.51715,17.4390,11.8902,-9.7561,-22.29,12.11,-13.58,2,S01
13040,-9.17698,0.86910,-0.35674,11.5854,10.4268,-7.8049,-22.29,12.11,-13.58,2,S01
13060,-9.07881,0.97444,-0.27533,7.4390,8.6585,-5.4878,-22.11,12.02,-14.04,2,S01
13080,-8.95671,0.93613,-0.23942,3.5976,6.3415,-2.7439,-22.11,12.02,-14.04,2,S01
13100,-8.91840,0.71826,-0.25139,-0.0610,4.8171,0.1220,-22.11,12.02,-14.04,2,S01
13120,-9.02375,0.45969,-0.30885,-2.4390,5.1220,2.9878,-21.93,11.74,-14.13,2,S01
13140,-9.22965,0.29928,-0.41899,-4.8171,6.0366,5.1220,-21.93,11.74,-14.13,2,S01
13160,-9.50498,0.17957,-0.40941,-8.9024,6.4024,6.0366,-21.93,11.74,-14.13,2,S01
13180,-9.74919,0.08380,-0.26576,-14.3902,5.2439,5.6098,-21.93,11.74,-14.13,2,S01
13200,-9.89763,-0.16759,0.06464,-18.0488,3.4756,3.9634,-21.74,11.28,-14.04,2,S01
13220,-10.04368,-0.59616,0.47166,-16.8293,1.2805,1.2195,-21.74,11.28,-14.04,2,S01
13240,-10.13226,-1.05824,0.59137,-14.5732,-2.0122,-2.4390,-21.74,11.28,-14.04,2,S01
13260,-10.38844,-1.14203,0.27773,-13.8415,-3.1098,-5.4268,-20.28,11.47,-13.94,2,S01
13280,-11.15698,-0.80685,-0.59137,-13.7805,0.3049,-5.4268,-20.28,11.47,-13.94,2,S01
13300,-12.48097,-0.88107,-0.74699,-10.2439,7.0122,-3.9024,-20.28,11.47,-13.94,2,S01
13320,-13.06276,-1.31681,-1.15161,-0.1220,5.6707,-6.0976,-20.83,12.02,-13.94,2,S01
13340,-12.73476,-1.59454,-1.75495,12.7439,-2.9268,-14.0244,-20.83,12.02,-13.94,2,S01
13360,-11.41316,-0.65601,-2.01113,25.3049,-15.4268,-23.4756,-20.83,12.02,-13.94,2,S01
13380,-9.69891,0.47884,-2.37505,30.1829,-23.4146,-26.5854,-20.83,12.02,-13.94,2,S01
13400,-8.06128,1.52271,-2.84910,25.2439,-24.2073,-22.6220,-22.66,13.30,-13.76,2,S01
13420,-6.97431,2.41096,-3.30400,14.9390,-20.6098,-14.2073,-22.66,13.30,-13.76,2,S01
13440,-6.88333,2.30562,-3.08134,4.7561,-13.5976,-4.8171,-22.66,13.30,-13.76,2,S01
13460,-7.80270,1.20907,-2.45166,5.4878,-6.4024,2.3780,-22.20,13.12,-14.40,2,S01
13480,-9.16740,0.04310,-1.91776,17.9268,-1.5854,4.3902,-22.20,13.12,-14.40,2,S01
13500,-10.14423,-0.45011,-1.65679,33.2317,-3.1098,1.5854,-22.20,13.12,-14.40,2,S01
13520,-10.29028,-0.13408,-1.64482,45.4268,-11.0976,-1.4024,-20.37,13.30,-16.42,2,S01
13540,-10.10114,0.27533,-1.80283,53.1098,-18.4146,-0.6098,-20.37,13.30,-16.42,2,S01
13560,-9.71088,0.57700,-2.43011,58.4146,-22.5000,3.7805,-20.37,13.30,-16.42,2,S01
13580,-9.29908,0.72544,-2.68390,62.6829,-18.9024,9.6341,-20.37,13.30,-16.42,2,S01
13600,-8.99262,0.83318,-2.46842,65.7927,-11.0976,14.3902,-20.37,12.84,-18.35,2,S01
13620,-8.82742,1.20668,-2.02549,66.7683,-4.7561,16.2195,-20.37,12.84,-18.35,2,S01
13640,-8.81545,1.75734,-1.75974,64.6951,-2.1341,16.5244,-20.37,12.84,-18.35,2,S01
13660,-8.87052,2.32477,-1.66158,58.2317,-0.8537,17.0732,-19.72,12.11,-20.28,2,S01
13680,-8.96868,2.67432,-1.38145,47.4390,2.2561,17.8659,-19.72,12.11,-20.28,2,S01
13700,-9.00938,2.58095,-1.02472,36.0976,4.8780,19.0854,-19.72,12.11,-20.28,2,S01
13720,-8.89925,2.05901,-0.94332,28.4146,4.8171,19.8171,-18.72,11.28,-21.74,2,S01
13740,-8.77475,1.40300,-0.87149,24.9390,4.1463,18.1098,-18.72,11.28,-21.74,2,S01
13760,-8.85376,0.92177,-0.59376,23.9634,4.7561,14.0244,-18.72,11.28,-21.74,2,S01
13780,-8.99741,0.75896,-0.37828,23.2927,4.5732,9.5122,-18.72,11.28,-21.74,2,S01
13800,-9.04051,0.86191,-0.20590,22.0732,3.2317,6.3415,-17.34,11.01,-22.84,2,S01
13820,-9.04529,1.05584,-0.02634,20.1220,1.9512,4.3293,-17.34,11.01,-22.84,2,S01
13840,-9.07402,1.39582,0.18914,17.7439,0.7317,2.6220,-17.34,11.01,-22.84,2,S01
13860,-9.14585,1.61609,0.37110,14.8780,-1.1585,2.4390,-16.79,10.83,-23.67,2,S01
13880,-9.30387,1.66876,0.52672,12.9878,-3.9024,2.5610,-16.79,10.83,-23.67,2,S01
13900,-9.39245,1.72861,0.56982,11.7073,-7.7439,2.6829,-16.79,10.83,-23.67,2,S01
13920,-9.27035,1.89142,0.45490,9.2073,-12.3171,3.6585,-16.88,11.10,-23.67,2,S01
13940,-9.22725,2.26731,0.39504,4.0244,-15.0610,4.0854,-16.88,11.10,-23.67,2,S01
13960,-9.42358,2.67193,0.45250,-1.6463,-15.7927,3.7805,-16.88,11.10,-23.67,2,S01
13980,-9.71567,2.93050,0.77572,-6.4024,-16.9512,3.4756,-16.88,11.10,-23.67,2,S01
14000,-9.94551,2.94966,1.11809,-7.0122,-19.3293,4.5122,-16.06,11.10,-23.76,2,S01
14020,-9.74201,2.58334,1.09415,-3.5976,-19.8780,7.8659,-16.06,11.10,-23.76,2,S01
14040,-9.44034,1.83396,1.26653,1.7683,-15.1829,11.6463,-16.06,11.10,-23.76,2,S01
14060,-9.25838,1.24259,1.63763,7.5000,-8.2927,13.1098,-14.68,10.83,-24.40,2,S01
14080,-9.50738,1.01993,0.68235,12.6829,-2.7439,11.2805,-14.68,10.83,-24.40,2,S01
14100,-12.58871,3.23696,-1.48680,20.5488,19.2073,13.0488,-14.68,10.83,-24.40,2,S01
14120,-12.27268,4.66630,-2.70784,4.4512,19.8171,22.5000,-19.45,10.28,-23.94,2,S01
14140,-11.51132,4.26168,-3.14119,-17.5000,15.1829,32.3780,-19.45,10.28,-23.94,2,S01
14160,-10.20169,1.40540,-2.75573,-22.1341,6.7683,40.3659,-19.45,10.28,-23.94,2,S01
14180,-9.20331,-2.06859,-2.86347,-9.0244,-0.4268,36.2195,-19.45,10.28,-23.94,2,S01
14200,-9.17219,-3.04542,-2.75094,4.2683,-4.5122,20.9146,-17.61,10.18,-23.76,2,S01
14220,-9.09078,-1.52989,-2.80600,8.8415,-10.6098,5.2439,-17.61,10.18,-23.76,2,S01
14240,-8.85376,1.02472,-2.99036,7.8049,-13.5366,-3.4146,-17.61,10.18,-23.76,2,S01
14260,-8.88967,2.70066,-2.64559,2.7439,-10.7927,-5.5488,-20.46,10.83,-23.39,2,S01
14280,-8.97107,2.83474,-2.31998,-5.7927,-9.4512,-6.6463,-20.46,10.83,-23.39,2,S01
14300,-9.05966,2.05183,-1.84593,-15.9756,-8.9634,-11.8293,-20.46,10.83,-23.39,2,S01
14320,-8.99262,1.44370,-1.44610,-25.3659,-8.5976,-19.4512,-16.61,11.28,-24.68,2,S01
14340,-8.68856,1.10373,-1.39103,-31.0366,-8.3537,-23.9024,-16.61,11.28,-24.68,2,S01
14360,-8.40125,0.90980,-1.39343,-32.9878,-5.0000,-23.2927,-16.61,11.28,-24.68,2,S01
14380,-8.35576,0.68953,-1.44131,-32.9878,0.1220,-20.0610,-16.61,11.28,-24.68,2,S01
14400,-8.56885,0.39744,-1.29526,-32.5610,5.4268,-17.1341,-18.81,12.29,-23.21,2,S01
14420,-8.84897,0.39983,-0.95529,-30.3659,8.7805,-15.2439,-18.81,12.29,-23.21,2,S01
14440,-9.01178,0.72544,-0.67277,-26.8902,8.9024,-13.9634,-18.81,12.29,-23.21,2,S01
14460,-9.10036,0.93134,-0.53391,-23.6585,7.9878,-12.1951,-18.07,12.48,-23.67,2,S01
14480,-9.13627,0.86431,-0.53630,-20.9756,7.5000,-10.4268,-18.07,12.48,-23.67,2,S01
14500,-9.16979,0.74460,-0.43096,-19.4512,7.5000,-9.1463,-18.07,12.48,-23.67,2,S01
14520,-9.04290,0.79487,-0.42856,-19.8780,6.3415,-7.8049,-17.43,12.57,-23.76,2,S01
14540,-8.86573,0.90740,-0.16281,-21.8293,5.7317,-6.5854,-17.43,12.57,-23.76,2,S01
14560,-8.75799,1.04387,0.00000,-23.1098,5.2439,-5.1220,-17.43,12.57,-23.76,2,S01
14580,-8.75081,1.06542,0.18196,-24.6951,4.9390,-2.8049,-17.43,12.57,-23.76,2,S01
14600,-8.79151,0.99838,0.26336,-27.0732,4.5732,-0.0610,-17.61,12.39,-23.67,2,S01
14620,-8.90404,0.86431,0.35434,-30.1220,4.7561,2.3171,-17.61,12.39,-23.67,2,S01
14640,-9.20810,0.51236,0.66319,-31.7073,5.0000,2.8659,-17.61,12.39,-23.67,2,S01
14660,-9.48822,0.21069,0.55306,-29.6341,1.7073,1.0976,-17.71,12.57,-23.30,2,S01
14680,-9.61511,0.13168,0.55785,-31.3415,-3.4756,-1.7683,-17.71,12.57,-23.30,2,S01
14700,-9.71088,0.09816,0.62968,-34.0854,-7.6829,-4.6341,-17.71,12.57,-23.30,2,S01
14720,-9.81862,0.10534,0.93374,-34.8171,-8.8415,-7.8049,-17.71,13.12,-22.48,2,S01
14740,-9.90481,0.26336,1.32160,-36.0366,-7.6220,-11.7073,-17.71,13.12,-22.48,2,S01
14760,-9.89284,0.70390,1.63524,-39.3902,-5.2439,-15.2439,-17.71,13.12,-22.48,2,S01
14780,-9.86411,1.09654,1.76453,-44.6341,-1.4024,-16.4024,-17.71,13.12,-22.48,2,S01
14800,-10.31422,1.19471,0.54588,-49.3293,4.3293,-14.3902,-16.97,13.58,-21.93,2,S01
14820,-12.20803,0.32801,-1.51553,-52.4390,14.6341,-10.1829,-16.97,13.58,-21.93,2,S01
14840,-14.40591,-1.22104,-1.17076,-46.8293,23.2927,-9.2683,-16.97,13.58,-21.93,2,S01
14860,-14.42506,-1.69270,-1.71664,-27.0122,14.0244,-17.8049,-19.27,15.14,-20.55,2,S01
14880,-12.51928,-0.82839,-2.72939,-6.2195,-5.5488,-30.9756,-19.27,15.14,-20.55,2,S01
14900,-9.62708,1.09654,-3.25372,-2.0732,-19.7561,-36.0976,-19.27,15.14,-20.55,2,S01
14920,-7.31907,2.94726,-3.28963,-10.5488,-20.5488,-29.8171,-23.21,17.16,-17.89,2,S01
14940,-6.54814,2.88741,-2.44448,-16.9512,-11.4024,-15.9756,-23.21,17.16,-17.89,2,S01
14960,-7.04135,1.36948,-2.07098,-11.4024,-4.5732,-1.2805,-23.21,17.16,-17.89,2,S01
14980,-8.30788,-0.22027,-1.86987,-1.7683,2.8049,8.4756,-23.21,17.16,-17.89,2,S01
15000,-9.70370,-1.12288,-1.71425,4.8171,8.1098,12.0732,-17.25,16.06,-21.28,2,S01
15020,-10.11550,-0.65841,-1.65439,12.0732,5.9756,11.0366,-17.25,16.06,-21.28,2,S01
15040,-9.72525,0.56982,-1.68552,20.9146,1.2195,9.6951,-17.25,16.06,-21.28,2,S01
15060,-9.00459,1.62327,-1.79326,23.4756,-2.8659,10.2439,-20.64,16.06,-21.83,2,S01
15080,-8.53772,2.16675,-1.84354,21.6463,-3.9024,12.8049,-20.64,16.06,-21.83,2,S01
15100,-8.54012,2.18591,-1.72383,18.6585,-0.2439,15.6098,-20.64,16.06,-21.83,2,S01
15120,-8.70053,2.01113,-1.55384,15.9146,4.3293,17.6829,-18.99,14.95,-23.67,2,S01
15140,-8.79151,1.79086,-1.12288,12.9878,8.1707,19.1463,-18.99,14.95,-23.67,2,S01
15160,-8.83460,1.65679,-0.69911,10.9756,8.9634,19.4512,-18.99,14.95,-23.67,2,S01
15180,-8.82982,1.64960,-0.41899,9.8171,7.0732,18.2317,-18.99,14.95,-23.67,2,S01
15200,-8.77236,1.67355,-0.35674,8.1707,4.5732,15.6707,-19.27,14.59,-24.40,2,S01
15220,-8.72208,1.69988,-0.12450,5.4268,4.0244,11.7683,-19.27,14.59,-24.40,2,S01
15240,-8.64067,1.69988,-0.08859,3.1707,2.8049,8.2317,-19.27,14.59,-24.40,2,S01
15260,-8.59518,1.68073,0.02155,2.3171,2.0732,5.2439,-19.27,14.77,-24.86,2,S01
15280,-8.63589,1.64721,0.21787,2.6829,2.1341,2.5610,-19.27,14.77,-24.86,2,S01
15300,-8.81784,1.59693,0.68474,3.9024,2.3780,-0.8537,-19.27,14.77,-24.86,2,S01
15320,-9.18655,1.64482,1.08936,5.5488,0.0000,-5.3659,-16.79,15.23,-26.15,2,S01
15340,-9.43794,1.83156,0.88825,6.5854,-6.0976,-8.2927,-16.79,15.23,-26.15,2,S01
15360,-9.44991,2.51152,0.03591,4.5732,-11.4634,-7.2561,-16.79,15.23,-26.15,2,S01
15380,-9.34696,3.17232,-0.70390,-2.0732,-13.0488,-1.7683,-16.79,15.23,-26.15,2,S01
15400,-9.38767,3.78044,-0.58419,-5.4878,-10.0610,4.2683,-20.55,15.87,-25.23,2,S01
15420,-9.98622,4.17309,0.38068,-6.7073,-5.1220,6.5244,-20.55,15.87,-25.23,2,S01
15440,-11.40598,3.61764,0.31603,-7.5000,0.2439,7.6220,-20.55,15.87,-25.23,2,S01
15460,-13.17769,2.73897,-0.63207,-12.1341,5.3659,11.5244,-18.07,15.14,-26.24,2,S01
15480,-13.28064,3.14838,-1.73819,-22.0732,4.6341,18.9024,-18.07,15.14,-26.24,2,S01
15500,-12.67251,3.79481,-2.53067,-33.5976,3.6585,27.0732,-18.07,15.14,-26.24,2,S01
15520,-9.56244,-0.08380,-2.82995,-23.2927,-16.7073,35.3049,-24.31,15.96,-22.66,2,S01
15540,-8.18578,-1.47962,-3.77805,-14.6341,-24.2073,23.9634,-24.31,15.96,-22.66,2,S01
15560,-7.76200,-0.85473,-3.47638,-12.5610,-19.0244,10.2439,-24.31,15.96,-22.66,2,S01
15580,-7.88411,1.19231,-2.78925,-16.4024,-13.9634,-1.0366,-24.31,15.96,-22.66,2,S01
15600,-8.24324,3.28245,-2.64320,-26.5244,-11.2195,-7.8659,-24.68,16.61,-22.39,2,S01
15620,-8.42041,3.51708,-2.53307,-44.4512,-8.1707,-10.0000,-24.68,16.61,-22.39,2,S01
15640,-8.27676,2.48518,-2.63362,-62.6829,-5.9756,-12.0732,-24.68,16.61,-22.39,2,S01
15660,-8.28873,1.40061,-2.45645,-74.2073,0.0000,-15.7927,-25.69,17.71,-19.82,2,S01
15680,-8.55448,0.81882,-2.03028,-79.8171,7.0122,-19.9390,-25.69,17.71,-19.82,2,S01
15700,-8.87052,0.70868,-1.70946,-81.4024,11.5854,-21.8293,-25.69,17.71,-19.82,2,S01
15720,-9.22246,0.70150,-1.24020,-80.2439,16.7073,-21.2805,-25.41,18.35,-18.44,2,S01
15740,-9.27514,0.40223,-1.13485,-77.1951,19.0244,-19.8171,-25.41,18.35,-18.44,2,S01
15760,-9.05487,-0.15802,-1.12049,-72.2561,19.3902,-19.6951,-25.41,18.35,-18.44,2,S01
15780,-8.82503,-0.67995,-1.13006,-65.6707,20.3659,-20.6098,-25.41,18.35,-18.44,2,S01
15800,-8.73884,-0.71108,-1.13006,-60.1220,22.5610,-21.0976,-25.87,19.08,-17.06,2,S01
15820,-8.83221,-0.39025,-1.03190,-59.5122,25.3659,-19.6341,-25.87,19.08,-17.06,2,S01
15840,-9.07163,0.11492,-0.73741,-59.9390,26.9512,-17.3171,-25.87,19.08,-17.06,2,S01
15860,-9.08360,0.66319,-0.37110,-59.8781,23.9024,-14.9390,-26.33,19.36,-15.87,2,S01
15880,-8.78433,0.84994,-0.19154,-60.6098,17.6220,-11.5854,-26.33,19.36,-15.87,2,S01
15900,-8.39647,0.67038,-0.11492,-60.2439,13.7805,-7.8659,-26.33,19.36,-15.87,2,S01
15920,-8.12113,0.36392,0.03831,-58.2927,13.5976,-4.4512,-26.88,19.54,-14.50,2,S01
15940,-8.39886,0.26815,0.37350,-55.9146,15.4878,-1.5244,-26.88,19.54,-14.50,2,S01
15960,-9.22007,0.32801,0.86670,-54.1463,16.3415,1.4634,-26.88,19.54,-14.50,2,S01
15980,-10.13705,0.28730,1.28329,-54.0854,12.2561,3.1098,-26.88,19.54,-14.50,2,S01
16000,-10.55843,0.87388,0.80924,-53.6585,2.9268,1.3415,-23.85,19.08,-13.76,2,S01
16020,-10.21845,2.11887,1.02711,-58.1707,-2.0732,0.1220,-23.85,19.08,-13.76,2,S01
16040,-10.03889,2.41096,1.54665,-62.3171,-1.0366,2.8049,-23.85,19.08,-13.76,2,S01
16060,-10.10593,1.62327,1.87945,-60.0610,-0.4268,5.7317,-24.50,18.81,-11.83,2,S01
16080,-10.49379,0.81163,1.39582,-57.1341,-0.3659,7.3780,-24.50,18.81,-11.83,2,S01
16100,-11.75792,0.11253,-0.50996,-57.4390,3.3537,6.1585,-24.50,18.81,-11.83,2,S01
16120,-13.99171,-1.35033,-2.45406,-50.0610,5.4878,0.9146,-30.37,21.10,-6.97,2,S01
16140,-14.27184,-2.46124,-2.79882,-27.0732,-5.1220,-11.4634,-30.37,21.10,-6.97,2,S01
16160,-12.30859,-1.97282,-3.87861,-4.7561,-22.9268,-31.3415,-30.37,21.10,-6.97,2,S01
16180,-10.15860,0.17957,-4.45561,2.4390,-28.7805,-45.4878,-30.37,21.10,-6.97,2,S01
16200,-8.85136,2.19309,-4.13957,3.2927,-20.6707,-39.9390,-30.18,23.39,-6.42,2,S01
16220,-8.39407,1.98958,-2.87065,6.5854,-8.9024,-19.0244,-30.18,23.39,-6.42,2,S01
16240,-8.42280,-0.10534,-1.86029,15.1220,-5.5488,3.2317,-30.18,23.39,-6.42,2,S01
16260,-8.48505,-2.28646,-1.48680,31.5244,-7.3171,15.7317,-26.24,22.11,-9.27,2,S01
16280,-8.41562,-3.09570,-1.86029,52.8049,-8.8415,17.1951,-26.24,22.11,-9.27,2,S01
16300,-8.14029,-1.75016,-2.55940,69.6951,-7.1951,15.4878,-26.24,22.11,-9.27,2,S01
16320,-8.15226,0.42138,-2.52349,79.1463,0.2439,15.1829,-30.18,21.47,-12.20,2,S01
16340,-8.46111,2.49476,-2.29365,85.4878,5.1829,17.2561,-30.18,21.47,-12.20,2,S01
16360,-8.85136,3.07655,-2.27449,87.6220,5.7927,22.0122,-30.18,21.47,-12.20,2,S01
16380,-9.27993,2.65517,-1.77650,84.4512,8.9634,25.3659,-30.18,21.47,-12.20,2,S01
16400,-9.36133,2.03507,-1.15879,76.5244,8.5976,26.6463,-27.16,19.54,-17.89,2,S01
16420,-9.07402,1.51792,-0.95289,66.8902,2.8049,25.8537,-27.16,19.54,-17.89,2,S01
16440,-8.76278,1.25935,-0.74939,61.2195,-1.4634,22.8659,-27.16,19.54,-17.89,2,S01
16460,-8.54969,1.16119,-0.49321,59.3293,-3.7195,20.2439,-27.06,18.99,-19.82,2,S01
16480,-8.37492,1.19471,-0.37828,57.3781,-4.3902,18.7195,-27.06,18.99,-19.82,2,S01
16500,-8.31985,1.59214,0.00239,51.5244,-3.2927,15.3659,-27.06,18.99,-19.82,2,S01
16520,-8.44435,2.10211,0.54827,41.2805,-4.4512,10.7927,-24.59,18.26,-22.11,2,S01
16540,-8.83221,2.40857,1.06063,29.9390,-9.3902,7.0732,-24.59,18.26,-22.11,2,S01
16560,-9.11473,2.58813,1.39103,20.6707,-16.3415,5.2439,-24.59,18.26,-22.11,2,S01
16580,-9.14825,2.65517,0.67277,13.9634,-23.6585,5.6098,-24.59,18.26,-22.11,2,S01
16600,-9.31584,3.16513,-0.28252,7.3780,-23.0488,6.3415,-27.25,18.99,-21.01,2,S01
16620,-9.49062,3.12204,-0.43814,1.3415,-15.9756,8.2927,-27.25,18.99,-21.01,2,S01
16640,-9.51216,3.11725,-0.57700,-1.0976,-10.9146,8.7805,-27.25,18.99,-21.01,2,S01
16660,-10.01734,2.73897,0.85473,-4.2073,-4.6341,7.5610,-24.13,18.44,-21.65,2,S01
16680,-11.39401,1.57299,0.40701,-0.9756,-2.9878,7.5610,-24.13,18.44,-21.65,2,S01
16700,-13.27106,1.16119,-0.91698,-0.9146,0.0610,11.0366,-24.13,18.44,-21.65,2,S01
16720,-13.32613,2.16915,-1.84593,-8.1098,0.1829,20.6098,-30.92,17.98,-19.17,2,S01
16740,-12.52886,3.06458,-3.10049,-18.9634,-1.2195,30.7317,-30.92,17.98,-19.17,2,S01
16760,-10.94390,1.36709,-2.72460,-18.2927,-4.8171,39.2073,-30.92,17.98,-19.17,2,S01
16780,-9.69412,-0.63925,-3.45962,-0.6098,-14.6951,35.0000,-30.92,17.98,-19.17,2,S01
16800,-9.25598,-1.70228,-3.37104,7.1341,-15.2439,21.8902,-31.19,17.71,-18.53,2,S01
16820,-9.00459,-0.81403,-2.43490,9.0244,-13.8415,10.6707,-31.19,17.71,-18.53,2,S01
16840,-8.31027,1.54426,-2.22182,3.1707,-20.8537,2.6829,-31.19,17.71,-18.53,2,S01
16860,-7.45554,3.42131,-3.10767,-12.1341,-26.2195,-1.8293,-32.66,18.17,-16.79,2,S01
16880,-7.08205,3.94804,-3.63919,-32.8659,-17.9268,-4.4512,-32.66,18.17,-16.79,2,S01
16900,-7.60398,3.00233,-2.71263,-51.2805,-2.5000,-7.4390,-32.66,18.17,-16.79,2,S01
16920,-8.46111,1.80283,-1.65679,-62.9268,7.5610,-11.0366,-28.90,17.98,-16.06,2,S01
16940,-9.08839,0.36392,-1.08936,-72.3781,11.8902,-13.1707,-28.90,17.98,-16.06,2,S01
16960,-9.42837,-0.93613,-0.63686,-70.5488,18.8415,-17.8049,-28.90,17.98,-16.06,2,S01
16980,-9.39006,-0.76375,-0.20830,-61.2805,20.5488,-18.6585,-28.90,17.98,-16.06,2,S01
17000,-9.10515,-0.49081,-0.23703,-50.2439,18.0488,-18.8415,-27.80,18.81,-13.94,2,S01
17020,-8.84418,-0.28252,-0.15562,-40.3659,16.5854,-18.6585,-27.80,18.81,-13.94,2,S01
17040,-8.68856,-0.17478,-0.12929,-30.9146,16.0976,-17.1951,-27.80,18.81,-13.94,2,S01
17060,-8.74123,-0.10295,0.12450,-22.5000,16.7073,-13.8415,-26.70,19.36,-13.85,2,S01
17080,-8.82024,0.01197,0.28491,-15.0000,16.2805,-9.2683,-26.70,19.36,-13.85,2,S01
17100,-8.88249,0.00479,0.46926,-8.1707,15.0000,-3.4756,-26.70,19.36,-13.85,2,S01
17120,-8.88488,0.11253,0.61531,-2.6829,12.1341,1.4634,-26.70,18.90,-14.40,2,S01
17140,-8.91361,0.35195,0.67038,0.0000,6.3415,4.3293,-26.70,18.90,-14.40,2,S01
17160,-9.00699,0.58179,0.63925,2.3780,-1.2805,5.4878,-26.70,18.90,-14.40,2,S01
17180,-9.13627,0.89064,0.48842,5.4878,-8.9634,5.0610,-26.70,18.90,-14.40,2,S01
17200,-9.42358,1.12049,0.29209,6.8293,-13.0488,3.8415,-27.52,18.72,-14.59,2,S01
17220,-9.95509,1.17076,0.63686,5.3049,-11.7683,2.4390,-27.52,18.72,-14.59,2,S01
17240,-10.65420,0.94332,1.41737,2.7439,-8.9634,-0.0610,-27.52,18.72,-14.59,2,S01
17260,-11.28148,0.99359,1.73340,-1.6463,-6.0366,-6.1585,-25.78,19.17,-14.59,2,S01
17280,-12.03086,1.30245,0.85234,-8.0488,-1.0366,-13.6585,-25.78,19.17,-14.59,2,S01
17300,-13.40753,1.35033,-0.59137,-12.0122,3.2927,-19.2683,-25.78,19.17,-14.59,2,S01
17320,-14.03002,0.58419,-1.50116,-11.7073,0.9146,-23.5366,-30.18,21.19,-13.30,2,S01
17340,-12.84968,0.39744,-2.65756,-4.8780,-10.6098,-29.2683,-30.18,21.19,-13.30,2,S01
17360,-10.00537,0.92895,-3.74214,-5.2439,-24.3902,-33.9024,-30.18,21.19,-13.30,2,S01
17380,-7.38132,2.12126,-3.90973,-14.1463,-26.8902,-33.5976,-30.18,21.19,-13.30,2,S01
17400,-6.55054,3.16513,-3.61046,-18.5976,-18.5366,-27.0732,-33.30,22.84,-10.92,2,S01
17420,-7.13233,2.53785,-2.75573,-19.1463,-6.4024,-14.5122,-33.30,22.84,-10.92,2,S01
17440,-8.17859,0.77333,-2.05662,-15.0000,-0.1220,-2.2561,-33.30,22.84,-10.92,2,S01
17460,-9.11712,-1.03430,-2.00395,-4.1463,-0.3049,5.1829,-29.72,22.29,-12.02,2,S01
17480,-9.66300,-1.92015,-2.22182,10.7927,0.0000,8.5366,-29.72,22.29,-12.02,2,S01
17500,-9.75877,-0.82839,-1.71904,22.2561,4.3902,8.3537,-29.72,22.29,-12.02,2,S01
17520,-9.42837,0.68474,-1.38864,29.8780,4.6341,9.3293,-31.10,21.56,-13.85,2,S01
17540,-8.99262,1.82678,-1.53708,35.7927,1.0976,13.1707,-31.10,21.56,-13.85,2,S01
17560,-8.80587,2.32477,-1.63285,37.1951,0.9756,17.3780,-31.10,21.56,-13.85,2,S01
17580,-8.75320,2.35111,-1.45328,32.8659,4.0854,20.6707,-31.10,21.56,-13.85,2,S01
17600,-8.71011,2.35111,-1.12527,24.9390,7.5000,22.4390,-30.83,20.09,-15.41,2,S01
17620,-8.53533,2.35829,-0.73023,15.0000,9.3293,22.1341,-30.83,20.09,-15.41,2,S01
17640,-8.36774,2.39899,-0.41899,5.8537,9.2073,19.4512,-30.83,20.09,-15.41,2,S01
17660,-8.30070,2.27928,-0.24181,0.0000,10.0000,15.8537,-31.47,19.36,-15.41,2,S01
17680,-8.25760,2.11169,-0.14126,-4.2683,12.5000,11.0366,-31.47,19.36,-15.41,2,S01
17700,-8.23366,1.93452,-0.03352,-7.5610,15.5488,6.9512,-31.47,19.36,-15.41,2,S01
17720,-8.32224,1.82199,0.15802,-9.8780,17.9268,3.6585,-31.19,18.99,-15.41,2,S01
17740,-8.79390,1.65918,0.91219,-9.6951,16.9512,0.4268,-31.19,18.99,-15.41,2,S01
17760,-9.29669,1.47243,1.30963,-5.4268,6.9512,-2.8049,-31.19,18.99,-15.41,2,S01
17780,-9.45231,1.84593,0.62249,-2.6220,-6.3415,-5.4268,-31.19,18.99,-15.41,2,S01
17800,-9.22007,2.26013,0.11971,-7.4390,-13.5976,-4.7561,-29.72,19.27,-14.95,2,S01
17820,-9.17458,2.12126,-0.30885,-5.3659,-14.2683,-2.1341,-29.72,19.27,-14.95,2,S01
17840,-9.52413,2.36068,-0.51475,0.8537,-10.8537,-1.1585,-29.72,19.27,-14.95,2,S01
17860,-10.21845,2.92332,0.66080,0.7927,-6.4024,-0.9756,-27.61,18.90,-15.32,2,S01
17880,-11.62385,2.68151,0.78290,-0.6098,-4.5732,-0.1220,-27.61,18.90,-15.32,2,S01
17900,-13.69005,2.83234,-0.70390,-0.0610,-1.5854,5.2439,-27.61,18.90,-15.32,2,S01
17920,-13.49372,3.87142,-2.32716,-8.6585,-1.8902,15.4268,-34.13,18.44,-12.11,2,S01
17940,-12.45943,3.87861,-3.28724,-27.1951,-0.1220,27.2561,-34.13,18.44,-12.11,2,S01
17960,-11.04206,1.33118,-2.37984,-28.4146,-0.3659,38.5976,-34.13,18.44,-12.11,2,S01
17980,-9.84017,-1.40061,-3.02148,-13.1098,-9.3902,37.4390,-34.13,18.44,-12.11,2,S01
18000,-9.46907,-2.55222,-3.25851,-7.8659,-9.5122,25.0610,-32.48,17.61,-11.56,2,S01
18020,-9.22486,-1.53229,-2.17633,-7.9268,-4.8171,11.8902,-32.48,17.61,-11.56,2,S01
18040,-8.70532,1.22823,-1.93452,-10.3659,-8.8415,0.6707,-32.48,17.61,-11.56,2,S01
18060,-8.29591,4.04141,-2.52109,-21.8902,-13.5366,-7.3780,-34.13,17.71,-10.09,2,S01
18080,-7.73567,4.75010,-2.72939,-43.4756,-10.4268,-11.1585,-34.13,17.71,-10.09,2,S01
18100,-7.55371,3.67271,-2.41575,-63.0488,-3.1098,-15.0610,-34.13,17.71,-10.09,2,S01
18120,-7.90805,1.91057,-1.79086,-72.0732,4.5122,-18.6585,-31.38,18.53,-7.71,2,S01
18140,-8.43477,-0.09337,-1.45567,-73.7195,7.9268,-20.6098,-31.38,18.53,-7.71,2,S01
18160,-8.86094,-1.26414,-1.37667,-70.2439,9.5122,-22.5000,-31.38,18.53,-7.71,2,S01
18180,-9.33260,-1.16837,-0.88107,-62.4390,14.0244,-23.1707,-31.38,18.53,-7.71,2,S01
18200,-9.52892,-0.65362,-0.51475,-55.0610,14.6341,-21.1585,-27.61,19.36,-6.61,2,S01
18220,-9.20810,-0.21548,-0.33519,-49.2073,11.8902,-19.3902,-27.61,19.36,-6.61,2,S01
18240,-8.69813,0.16281,-0.31125,-43.6585,9.3902,-18.3537,-27.61,19.36,-6.61,2,S01
18260,-8.25521,0.23942,-0.19393,-37.8659,9.1463,-15.9756,-27.16,19.72,-5.87,2,S01
18280,-8.22169,0.10056,-0.03352,-30.9756,10.3659,-12.7439,-27.16,19.72,-5.87,2,S01
18300,-8.35098,-0.15802,0.29209,-22.9878,10.6707,-9.1463,-27.16,19.72,-5.87,2,S01
18320,-8.45871,-0.41420,0.46926,-15.4878,9.0244,-5.7927,-26.15,19.63,-5.87,2,S01
18340,-8.54491,-0.39025,0.51715,-10.3049,7.1341,-2.8659,-26.15,19.63,-5.87,2,S01
18360,-8.68377,0.05986,0.53870,-8.1098,5.7317,0.1829,-26.15,19.63,-5.87,2,S01
18380,-9.57441,0.96007,0.77333,-11.7073,-0.5488,5.3049,-26.15,19.63,-5.87,2,S01
18400,-9.90242,0.91459,0.55306,-12.0122,-6.9512,5.3659,-25.87,18.99,-5.50,2,S01
18420,-10.17057,0.30406,0.35434,-8.2317,-10.6707,3.3537,-25.87,18.99,-5.50,2,S01
18440,-10.77870,-0.33040,1.06781,-6.7073,-9.8171,-0.1220,-25.87,18.99,-5.50,2,S01
18460,-12.33732,-0.25857,2.23858,-10.9146,-5.9756,-8.6585,-22.66,19.27,-5.32,2,S01
18480,-12.43070,1.94888,2.74854,-17.2561,-3.9634,-20.6098,-22.66,19.27,-5.32,2,S01
18500,-11.83214,3.40216,0.76375,-25.4878,-5.5488,-26.5854,-22.66,19.27,-5.32,2,S01
18520,-12.59111,2.03747,-2.14760,-33.5976,-2.4390,-24.5732,-27.61,21.10,-2.75,2,S01
18540,-13.43865,-0.01197,-3.24175,-41.4024,-0.1829,-24.4512,-27.61,21.10,-2.75,2,S01
18560,-12.18170,-0.60094,-4.12042,-44.6951,-7.5610,-32.4390,-27.61,21.10,-2.75,2,S01
18580,-9.73243,0.85952,-4.76686,-40.5488,-17.4390,-43.6585,-27.61,21.10,-2.75,2,S01
18600,-8.38450,2.71742,-4.08930,-31.8902,-13.0488,-42.6220,-27.89,23.21,0.83,2,S01
18620,-8.14029,3.15795,-3.15316,-31.2195,-4.6341,-29.6341,-27.89,23.21,0.83,2,S01
18640,-8.12113,1.54426,-2.21943,-33.9634,-2.3171,-12.6220,-27.89,23.21,0.83,2,S01
18660,-8.17620,-0.75178,-2.04944,-26.2195,-6.5854,0.2439,-25.14,22.48,-0.09,2,S01
18680,-8.41083,-2.25294,-2.17872,-11.3415,-7.0732,7.9878,-25.14,22.48,-0.09,2,S01
18700,-8.62631,-2.03028,-2.27928,4.3293,-2.3171,14.1463,-25.14,22.48,-0.09,2,S01
18720,-8.73405,-0.07422,-1.62806,14.4512,7.5000,16.4634,-25.96,21.47,-1.47,2,S01
18740,-8.61673,2.10211,-1.17076,18.9634,14.1463,17.2561,-25.96,21.47,-1.47,2,S01
18760,-8.66940,3.24175,-1.00317,16.2195,14.1463,19.6341,-25.96,21.47,-1.47,2,S01
18780,-8.75560,3.18189,-1.08697,9.3293,10.7317,23.1098,-25.96,21.47,-1.47,2,S01
18800,-8.84418,2.37984,-1.02472,2.3171,10.2439,26.7073,-25.96,20.09,-2.84,2,S01
18820,-8.98065,1.76692,-0.58419,-5.0000,13.2927,28.1707,-25.96,20.09,-2.84,2,S01
18840,-8.93277,1.57299,0.00479,-11.5854,14.6341,27.0732,-25.96,20.09,-2.84,2,S01
18860,-8.62631,1.77650,0.16281,-15.0610,12.8659,24.1463,-24.31,18.62,-3.94,2,S01
18880,-8.48984,1.86029,0.45250,-17.3780,11.8293,20.6098,-24.31,18.62,-3.94,2,S01
18900,-8.45393,1.75016,0.73502,-17.7439,9.4512,16.2805,-24.31,18.62,-3.94,2,S01
18920,-8.62391,1.56102,1.30484,-15.7317,5.0000,11.5854,-23.76,18.07,-4.13,2,S01
18940,-9.01178,1.14203,1.95846,-10.6707,-4.6951,7.3171,-23.76,18.07,-4.13,2,S01
18960,-9.11233,0.99359,1.41976,-2.9268,-18.5976,3.4756,-23.76,18.07,-4.13,2,S01
18980,-8.99502,1.52032,0.71587,0.1829,-24.4512,1.3415,-23.76,18.07,-4.13,2,S01
19000,-8.76996,2.08056,-0.61531,1.8293,-21.4024,4.0244,-24.22,17.80,-3.94,2,S01
19020,-9.00938,3.10289,-0.84276,6.2805,-10.7317,8.1707,-24.22,17.80,-3.94,2,S01
19040,-9.90960,3.89776,1.15161,11.7683,-1.2805,10.1220,-24.22,17.80,-3.94,2,S01
19060,-12.11945,3.52426,0.46687,20.2439,-0.3659,11.8902,-20.37,16.61,-6.24,2,S01
19080,-14.90391,2.87304,-1.43173,16.6463,3.6585,17.8659,-20.37,16.61,-6.24,2,S01
19100,-14.54956,3.43329,-2.56180,1.7073,1.4024,27.7439,-20.37,16.61,-6.24,2,S01
19120,-13.27106,3.55300,-4.07014,-9.2683,-2.9268,36.2805,-30.00,16.33,-2.20,2,S01
19140,-11.46583,1.19471,-2.95205,-9.3293,-7.6220,43.9634,-30.00,16.33,-2.20,2,S01
19160,-9.68455,-1.03908,-3.73735,0.3659,-20.9756,42.0122,-30.00,16.33,-2.20,2,S01
19180,-8.76517,-2.20267,-3.71341,-1.1585,-20.1829,31.4024,-30.00,16.33,-2.20,2,S01
19200,-8.36295,-1.29526,-2.52588,-4.5732,-11.5854,18.1707,-28.26,14.86,-3.85,2,S01
19220,-8.23366,1.05345,-1.86508,-6.4634,-11.4024,4.3902,-28.26,14.86,-3.85,2,S01
19240,-8.02776,3.11486,-1.88184,-14.0244,-15.4268,-7.6829,-28.26,14.86,-3.85,2,S01
19260,-7.39808,3.64637,-2.85389,-33.0488,-18.5976,-15.6707,-28.44,15.14,-2.66,2,S01
19280,-7.20894,3.21781,-3.26809,-54.2683,-9.0244,-19.7561,-28.44,15.14,-2.66,2,S01
19300,-7.90565,2.21464,-1.92494,-70.2439,8.7195,-17.5610,-28.44,15.14,-2.66,2,S01
19320,-8.65743,1.08697,-1.31921,-80.0610,14.0854,-13.4146,-23.76,15.23,-2.02,2,S01
19340,-9.14106,0.27533,-1.06303,-82.5610,13.1707,-12.9878,-23.76,15.23,-2.02,2,S01
19360,-9.46667,-0.34237,-0.72065,-78.0488,14.5122,-14.2683,-23.76,15.23,-2.02,2,S01
19380,-9.51695,-0.82839,-0.25857,-69.0244,15.3659,-16.0976,-23.76,15.23,-2.02,2,S01
19400,-9.22725,-0.97444,-0.05746,-57.8659,12.4390,-18.2317,-22.29,15.69,-0.92,2,S01
19420,-8.73165,-0.76136,-0.14126,-47.0122,8.7805,-18.6585,-22.29,15.69,-0.92,2,S01
19440,-8.40844,-0.39744,-0.18435,-37.3171,8.3537,-16.5244,-22.29,15.69,-0.92,2,S01
19460,-8.39407,0.03591,-0.05507,-28.7195,9.8171,-12.8659,-21.65,15.87,-1.01,2,S01
19480,-8.60955,0.33040,0.04070,-22.0122,10.4268,-8.2927,-21.65,15.87,-1.01,2,S01
19500,-8.82982,0.43814,0.19393,-17.7439,10.0610,-3.5976,-21.65,15.87,-1.01,2,S01
19520,-8.79869,0.53870,0.34955,-16.3415,8.3537,0.3049,-21.19,15.41,-1.01,2,S01
19540,-8.68856,0.80685,0.38547,-18.9634,6.3415,3.2317,-21.19,15.41,-1.01,2,S01
19560,-8.82742,1.18513,0.48602,-24.5732,4.9390,5.5488,-21.19,15.41,-1.01,2,S01
19580,-9.22725,1.19710,0.82121,-29.9390,3.1098,7.3780,-21.19,15.41,-1.01,2,S01
19600,-9.61751,0.84994,1.03430,-32.0732,-0.7927,6.7683,-20.28,14.77,-0.28,2,S01
19620,-9.77074,0.35674,0.83079,-32.5000,-5.0610,2.9878,-20.28,14.77,-0.28,2,S01
19640,-9.91439,-0.09577,0.99359,-32.7439,-6.5244,-1.4634,-20.28,14.77,-0.28,2,S01
19660,-10.39323,-0.36871,1.47483,-30.7317,-5.4268,-4.9390,-18.81,14.86,0.55,2,S01
19680,-11.23599,-0.06943,1.48440,-29.5122,-1.9512,-8.4756,-18.81,14.86,0.55,2,S01
19700,-12.53125,0.31603,0.17957,-31.5244,3.9024,-12.1341,-18.81,14.86,0.55,2,S01
19720,-14.19043,-0.06704,-0.95289,-29.3293,9.3293,-16.4024,-23.39,16.61,2.39,2,S01
19740,-14.29578,-1.01035,-1.65918,-18.4146,2.8659,-24.6341,-23.39,16.61,2.39,2,S01
19760,-12.46182,-0.56982,-3.25133,-4.6341,-13.3537,-37.9268,-23.39,16.61,2.39,2,S01
19780,-9.80905,1.26653,-3.49075,-5.2439,-23.2317,-47.1951,-23.39,16.61,2.39,2,S01
19800,-7.85059,3.34231,-2.16436,-9.8171,-11.8902,-23.1098,-24.77,17.34,3.21,2,S01
19820,-8.24324,1.52989,-1.60890,-5.8537,-7.1341,-2.8659,-24.77,17.34,3.21,2,S01
19840,-8.76517,-0.51954,-1.14203,0.9146,-4.8171,11.2805,-24.77,17.34,3.21,2,S01
19860,-9.04769,-1.64003,-0.98162,11.2195,-3.9024,17.5610,-19.17,16.33,1.56,2,S01
19880,-9.10754,-1.48680,-1.00078,23.4146,-2.8659,17.7439,-19.17,16.33,1.56,2,S01
19900,-9.00699,-0.03591,-0.80445,33.0488,2.0732,14.2683,-19.17,16.33,1.56,2,S01
19920,-8.46590,1.40061,-0.92656,37.9268,3.6585,13.3537,-23.03,15.23,-0.37,2,S01
19940,-7.90565,2.19069,-1.38624,41.4024,1.7683,16.0976,-23.03,15.23,-0.37,2,S01
19960,-7.93199,2.10450,-1.59214,45.0000,3.4146,19.6341,-23.03,15.23,-0.37,2,S01
19980,-8.38450,1.84354,-1.48440,47.1341,7.7439,21.7073,-23.03,15.23,-0.37,2,S01
20000,-8.81784,1.73340,-0.98402,44.2073,12.0122,22.0122,-23.03,14.13,-2.57,2,S01
20020,-8.98304,1.84832,-0.71826,37.1951,12.7439,20.5488,-23.03,14.13,-2.57,2,S01
20040,-8.92319,1.93212,-0.39025,30.3049,11.5244,18.7195,-23.03,14.13,-2.57,2,S01
20060,-8.75320,1.97761,-0.13168,25.5488,9.8780,16.2805,-23.39,13.49,-4.04,2,S01
20080,-8.63828,1.98958,-0.02394,22.5000,8.3537,13.1098,-23.39,13.49,-4.04,2,S01
20100,-8.71729,1.95367,0.14844,19.2683,7.8049,9.3293,-23.39,13.49,-4.04,2,S01
20120,-9.00699,1.89381,0.79248,17.1341,6.0976,5.1829,-22.11,13.21,-5.14,2,S01
20140,-9.26317,1.62806,1.10852,17.9878,-1.2805,2.8659,-22.11,13.21,-5.14,2,S01
20160,-9.30387,1.65200,0.66319,18.2317,-8.5366,2.5000,-22.11,13.21,-5.14,2,S01
20180,-9.36851,2.34871,0.01197,12.0122,-9.8780,5.0000,-22.11,13.21,-5.14,2,S01
20200,-9.38288,2.70305,-0.42617,1.9512,-9.1463,9.9390,-23.58,12.94,-4.86,2,S01
20220,-9.68694,2.69587,-0.43335,2.0732,-6.8293,13.3537,-23.58,12.94,-4.86,2,S01
20240,-10.32859,2.64559,0.77333,1.9512,-3.2317,13.4756,-23.58,12.94,-4.86,2,S01
20260,-11.06121,2.41096,1.58257,3.2317,-3.1707,12.0732,-18.17,12.20,-5.78,2,S01
20280,-11.99016,1.62806,0.32322,5.7317,-4.5732,10.6098,-18.17,12.20,-5.78,2,S01
20300,-12.73476,1.80283,-0.98402,9.6951,-3.2317,14.2073,-18.17,12.20,-5.78,2,S01
20320,-11.75553,2.58095,-2.16436,7.8049,-7.4390,22.6220,-25.78,11.93,-4.50,2,S01
20340,-10.26873,2.67432,-3.40934,0.1829,-15.0000,30.2439,-25.78,11.93,-4.50,2,S01
20360,-8.92319,0.87149,-3.46441,4.7561,-18.8415,36.8902,-25.78,11.93,-4.50,2,S01
20380,-9.16022,-0.79727,-3.39977,10.3659,-17.1951,31.5244,-25.78,11.93,-4.50,2,S01
20400,-10.06044,-1.14682,-1.56820,14.2073,-9.3293,21.4634,-25.69,11.56,-4.40,2,S01
20420,-10.00297,0.52672,-1.26653,16.5244,-16.5854,12.2561,-25.69,11.56,-4.40,2,S01
20440,-9.32302,2.34392,-2.14999,6.9512,-27.4390,3.5976,-25.69,11.56,-4.40,2,S01
20460,-8.37492,4.43646,-2.93290,-7.3171,-26.0976,-5.4268,-26.70,11.38,-4.04,2,S01
20480,-7.88889,4.45561,-2.67432,-25.7927,-13.9024,-12.9878,-26.70,11.38,-4.04,2,S01
20500,-7.73088,2.80600,-1.76213,-41.2195,-2.4390,-17.8659,-26.70,11.38,-4.04,2,S01
20520,-7.90087,0.80206,-1.44610,-48.4756,2.1341,-20.4268,-24.31,12.75,-2.75,2,S01
20540,-8.54491,-0.67516,-1.17316,-51.7683,7.1341,-21.3415,-24.31,12.75,-2.75,2,S01
20560,-9.18416,-1.45328,-0.63446,-49.5122,13.4756,-21.5854,-24.31,12.75,-2.75,2,S01
20580,-9.60314,-1.28329,0.14365,-39.8171,16.2195,-21.1585,-24.31,12.75,-2.75,2,S01
20600,-9.40921,-0.82121,0.24660,-27.4390,12.8659,-20.6098,-18.44,13.76,-2.75,2,S01
20620,-8.98544,-0.52433,0.17717,-18.1098,9.9390,-21.2195,-18.44,13.76,-2.75,2,S01
20640,-8.50660,-0.19154,-0.05267,-12.8049,9.2683,-20.9146,-18.44,13.76,-2.75,2,S01
20660,-8.30788,0.12210,0.00479,-10.1220,11.5244,-18.1098,-17.98,14.50,-3.03,2,S01
20680,-8.41083,0.16520,0.31603,-7.3780,14.6341,-12.8659,-17.98,14.50,-3.03,2,S01
20700,-8.52336,0.05507,0.56264,-4.0244,15.4268,-7.0732,-17.98,14.50,-3.03,2,S01
20720,-8.55688,-0.06225,0.71826,-0.5488,13.5976,-1.8902,-16.79,14.50,-3.49,2,S01
20740,-8.68377,0.06225,0.74460,1.2805,9.5122,2.3171,-16.79,14.50,-3.49,2,S01
20760,-8.95671,0.34955,0.87149,-1.2805,2.9268,5.0610,-16.79,14.50,-3.49,2,S01
20780,-9.03332,0.73263,0.87149,-4.4512,-6.0976,5.2439,-16.79,14.50,-3.49,2,S01
20800,-8.88009,1.18992,0.23463,-3.1707,-12.0122,2.3780,-17.25,14.22,-3.03,2,S01
20820,-9.32542,0.81403,0.16999,0.8537,-8.4146,-0.4878,-17.25,14.22,-3.03,2,S01
20840,-10.44590,0.17717,1.39582,2.6220,-0.0610,-2.3171,-17.25,14.22,-3.03,2,S01
20860,-12.49773,0.23224,2.19309,-1.9512,7.9268,-9.1463,-14.86,15.23,-3.21,2,S01
20880,-14.15452,0.67516,0.51475,-7.0732,9.4512,-21.3415,-14.86,15.23,-3.21,2,S01
20900,-15.10741,0.56024,-0.79248,-6.1585,8.1098,-29.1463,-14.86,15.23,-3.21,2,S01
20920,-14.65251,-0.76614,-2.23858,0.8537,-0.3659,-30.2439,-19.54,17.25,-1.83,2,S01
20940,-12.92390,-0.14605,-3.00712,9.5732,-13.2317,-35.9756,-19.54,17.25,-1.83,2,S01
20960,-10.25197,1.50595,-3.16513,8.4146,-22.6220,-40.8537,-19.54,17.25,-1.83,2,S01
20980,-8.14986,3.16753,-3.65116,10.5488,-20.7927,-35.6707,-19.54,17.25,-1.83,2,S01
21000,-7.33105,3.09810,-2.81079,9.7561,-7.9878,-20.7927,-21.74,17.89,-0.83,2,S01
21020,-7.29513,1.53947,-1.87945,4.2683,-0.7927,-3.3537,-21.74,17.89,-0.83,2,S01
21040,-7.61596,-0.13168,-1.79805,3.1098,-0.2439,9.2683,-21.74,17.89,-0.83,2,S01
21060,-8.37492,-1.14682,-1.84354,10.7927,2.8049,15.0000,-17.52,16.88,-3.03,2,S01
21080,-9.00220,-1.44370,-2.09253,22.6829,7.2561,17.5610,-17.52,16.88,-3.03,2,S01
21100,-9.28232,-0.63207,-1.82438,34.8780,10.9146,18.5976,-17.52,16.88,-3.03,2,S01
21120,-8.98544,0.45250,-1.57538,43.7195,8.9634,19.2683,-20.00,16.15,-4.77,2,S01
21140,-8.71968,1.49877,-1.76213,50.0610,4.5122,20.0000,-20.00,16.15,-4.77,2,S01
21160,-8.76038,2.26013,-1.69749,51.7073,3.9024,20.3049,-20.00,16.15,-4.77,2,S01
21180,-8.86333,2.72939,-1.55144,48.5976,4.3902,21.2805,-20.00,16.15,-4.77,2,S01
21200,-8.68377,2.62644,-0.88825,31.3415,4.3902,22.6220,-20.09,15.23,-6.42,2,S01
21220,-8.53054,2.27449,-0.64883,23.3537,2.9268,21.4024,-20.09,15.23,-6.42,2,S01
21240,-8.31267,1.90100,-0.44053,17.9268,2.8049,18.5366,-20.09,15.23,-6.42,2,S01
21260,-8.10198,1.76692,-0.17238,14.6341,4.1463,12.8049,-20.09,14.86,-6.88,2,S01
21280,-8.02776,1.71904,0.10295,12.4390,6.0366,6.1585,-20.09,14.86,-6.88,2,S01
21300,-8.19056,1.65200,0.44293,12.5000,8.8415,0.2439,-20.09,14.86,-6.88,2,S01
21320,-8.51378,1.31442,0.94332,15.3049,9.3902,-3.2927,-18.81,14.95,-7.98,2,S01
21340,-9.02614,0.96247,0.93374,20.2439,4.7561,-5.7317,-18.81,14.95,-7.98,2,S01
21360,-9.63187,1.40300,0.42138,21.7073,-1.9512,-7.0732,-18.81,14.95,-7.98,2,S01
21380,-9.82820,1.85311,-0.00718,16.5854,-8.4756,-4.6341,-18.81,14.95,-7.98,2,S01
21400,-9.70370,2.14520,-0.77093,16.5854,-11.8293,-0.2439,-19.72,15.41,-7.89,2,S01
21420,-10.02452,3.25851,0.28491,16.8902,-7.3171,1.7683,-19.72,15.41,-7.89,2,S01
21440,-10.92953,3.99832,2.08774,15.3659,-2.6220,4.1463,-19.72,15.41,-7.89,2,S01
21460,-12.34211,3.57933,0.84036,13.1098,-1.3415,9.2683,-14.95,14.68,-9.54,2,S01
21480,-13.52484,3.20823,-1.06063,6.0976,3.9634,17.5000,-14.95,14.68,-9.54,2,S01
21500,-13.03643,3.98156,-2.25534,-7.6829,8.7805,27.7439,-14.95,14.68,-9.54,2,S01
21520,-11.87285,4.06775,-3.32315,-26.2195,9.3293,35.9146,-24.50,14.40,-5.96,2,S01
21540,-10.35013,1.96564,-3.14598,-35.0000,3.7195,41.4024,-24.50,14.40,-5.96,2,S01
21560,-9.32781,-0.56024,-3.97916,-27.1951,-4.8780,38.2927,-24.50,14.40,-5.96,2,S01
21580,-9.49780,-2.08056,-3.51708,-23.6585,-2.4390,26.7683,-24.50,14.40,-5.96,2,S01
21600,-9.40682,-1.22583,-2.15478,-21.5244,-2.0732,13.1098,-23.21,13.94,-5.50,2,S01
21620,-8.87052,1.31921,-2.19548,-23.5366,-12.4390,1.4024,-23.21,13.94,-5.50,2,S01
21640,-8.24084,3.42610,-2.84910,-35.7927,-20.6098,-6.2805,-23.21,13.94,-5.50,2,S01
21660,-7.58244,3.61764,-3.26090,-51.5854,-19.8171,-10.0610,-25.50,14.68,-2.20,2,S01
21680,-7.69257,2.28167,-2.87065,-62.8659,-10.4268,-12.8049,-25.50,14.68,-2.20,2,S01
21700,-8.33900,0.56024,-2.40138,-66.1585,0.1220,-15.9756,-25.50,14.68,-2.20,2,S01
21720,-8.92798,-0.79966,-1.94170,-66.5244,6.9512,-20.1220,-20.18,15.41,-1.74,2,S01
21740,-9.25120,-1.10612,-1.77171,-63.4756,10.4878,-22.9878,-20.18,15.41,-1.74,2,S01
21760,-9.43076,-0.77333,-1.35272,-59.2073,13.3537,-22.9268,-20.18,15.41,-1.74,2,S01
21780,-9.40921,-0.57461,-1.00078,-54.5122,12.9268,-20.4878,-20.18,15.41,-1.74,2,S01
21800,-9.16022,-0.48123,-0.85473,-47.1341,10.1829,-18.5976,-20.28,16.15,-0.55,2,S01
21820,-8.78433,-0.36152,-0.63686,-38.2317,8.5366,-16.9512,-20.28,16.15,-0.55,2,S01
21840,-8.48984,-0.26336,-0.61531,-29.0244,7.6829,-14.9390,-20.28,16.15,-0.55,2,S01
21860,-8.47547,-0.26336,-0.44772,-19.7561,8.7195,-11.4024,-18.99,16.42,-0.46,2,S01
21880,-8.63828,-0.21787,-0.16520,-11.7073,9.0854,-6.5854,-18.99,16.42,-0.46,2,S01
21900,-8.82742,-0.08619,0.08859,-7.3171,5.8537,-1.7073,-18.99,16.42,-0.46,2,S01
21920,-8.94234,0.14844,0.25379,-5.0610,-0.1829,1.9512,-18.53,16.15,-0.55,2,S01
21940,-8.96629,0.42856,0.29449,-1.4024,-6.0366,2.9878,-18.53,16.15,-0.55,2,S01
21960,-9.05487,0.61770,0.40223,4.2683,-9.6951,1.8293,-18.53,16.15,-0.55,2,S01
21980,-9.39485,0.88585,0.42377,9.3902,-11.8902,-0.1829,-18.53,16.15,-0.55,2,S01
22000,-9.77313,1.20428,0.64165,9.3902,-12.9268,-0.8537,-18.26,15.78,-0.64,2,S01
22020,-10.05804,1.08457,0.56503,8.1098,-13.4756,0.9756,-18.26,15.78,-0.64,2,S01
22040,-10.23042,-0.02155,-0.28012,11.4024,-14.9390,4.2073,-18.26,15.78,-0.64,2,S01
22060,-10.97742,-1.63045,-1.99916,17.0122,-14.7561,5.0000,-21.10,16.33,0.46,2,S01
22080,-12.41633,-1.72622,-3.05740,22.1341,-10.2439,-4.2073,-21.10,16.33,0.46,2,S01
22100,-12.27747,-0.15562,-2.92093,26.2805,-9.6341,-23.9634,-21.10,16.33,0.46,2,S01
22120,-10.66377,1.77171,-3.32555,35.7927,-19.1463,-39.6951,-22.29,17.52,-0.37,2,S01
22140,-9.85453,3.71341,-3.18189,40.4878,-22.0732,-42.0732,-22.29,17.52,-0.37,2,S01
22160,-9.53132,3.47399,-2.79164,34.0244,-17.9268,-26.4634,-22.29,17.52,-0.37,2,S01
22180,-9.51216,1.70228,-2.30322,27.9878,-10.7927,-4.0854,-22.29,17.52,-0.37,2,S01
22200,-9.65582,-0.39744,-1.06542,27.6220,-4.2683,11.4634,-20.46,16.79,-1.74,2,S01
22220,-9.41640,-1.98479,-0.72784,35.3659,-8.0488,16.5244,-20.46,16.79,-1.74,2,S01
22240,-8.74362,-1.83635,-1.49398,49.7561,-14.1463,13.7805,-20.46,16.79,-1.74,2,S01
22260,-8.22169,-0.11971,-1.74537,58.7195,-10.0000,7.3171,-21.74,16.15,-3.67,2,S01
22280,-8.14986,1.53468,-1.06303,60.4268,-0.7927,5.6707,-21.74,16.15,-3.67,2,S01
22300,-8.42041,2.13084,-0.90261,62.0732,2.1341,10.6098,-21.74,16.15,-3.67,2,S01
22320,-8.81306,1.96564,-0.73981,64.2073,1.2195,16.8902,-20.73,14.95,-6.61,2,S01
22340,-8.99262,1.69031,-0.22984,61.2805,-1.5244,20.4268,-20.73,14.95,-6.61,2,S01
22360,-8.83939,1.77650,0.36871,52.8659,-6.0366,19.6951,-20.73,14.95,-6.61,2,S01
22380,-8.63110,2.13323,0.75657,44.1463,-10.8537,15.9146,-20.73,14.95,-6.61,2,S01
22400,-8.52815,2.32956,0.73263,38.0488,-13.9634,12.2561,-20.37,14.22,-7.98,2,S01
22420,-8.86333,2.38223,0.89064,32.6220,-13.7195,8.4146,-20.37,14.22,-7.98,2,S01
22440,-9.11233,2.20506,0.63925,26.8902,-14.1463,6.2195,-20.37,14.22,-7.98,2,S01
22460,-9.48583,1.53708,-1.83156,19.3293,-15.1829,5.7927,-23.21,14.95,-6.97,2,S01
22480,-10.39802,1.49638,-3.53863,11.7683,-7.3171,7.2561,-23.21,14.95,-6.97,2,S01
22500,-11.02530,0.79966,-2.09014,6.7073,3.0488,10.6098,-23.21,14.95,-6.97,2,S01
22520,-11.63582,-0.48842,-2.18591,7.9878,3.7805,10.3049,-22.39,14.95,-7.61,2,S01
22540,-11.83214,-1.00556,-2.18351,9.3902,1.7683,7.2561,-22.39,14.95,-7.61,2,S01
22560,-10.96066,-0.29688,-2.35111,15.2439,-3.2927,0.7317,-22.39,14.95,-7.61,2,S01
22580,-10.30225,0.51475,-1.91536,22.8659,-3.5366,-7.6829,-22.39,14.95,-7.61,2,S01
22600,-10.24958,0.57700,-1.56581,28.8415,-5.0610,-13.1098,-23.67,15.32,-8.44,2,S01
22620,-9.95030,-0.14126,-1.71185,24.1463,-9.5122,-15.3049,-23.67,15.32,-8.44,2,S01
22640,-8.98544,-0.50039,-2.04465,3.1098,-3.5366,-22.6829,-23.67,15.32,-8.44,2,S01
22660,-8.75560,-0.00239,-1.73101,-0.6707,6.3415,-26.0366,-22.75,16.42,-8.81,2,S01
22680,-8.47787,0.29449,-1.51553,-0.7317,11.8902,-25.7927,-22.75,16.42,-8.81,2,S01
22700,-8.38210,0.00479,-1.30963,1.4024,12.4390,-22.0732,-22.75,16.42,-8.81,2,S01
22720,-8.55688,-0.44772,-1.33596,2.0732,10.6098,-17.4390,-21.10,16.79,-9.72,2,S01
22740,-8.71011,-0.81882,-1.34794,1.8293,10.1220,-12.2561,-21.10,16.79,-9.72,2,S01
22760,-8.84897,-0.91459,-1.23780,1.8902,10.9146,-8.4146,-21.10,16.79,-9.72,2,S01
22780,-9.07402,-0.83558,-0.99359,2.6220,12.1951,-6.0976,-21.10,16.79,-9.72,2,S01
22800,-9.24162,-0.72065,-0.78530,3.9634,12.3780,-4.3902,-20.92,16.61,-10.37,2,S01
22820,-9.23683,-0.65841,-0.63686,5.3659,11.6463,-2.7439,-20.92,16.61,-10.37,2,S01
22840,-9.11712,-0.75178,-0.49321,7.1951,10.4268,-1.0366,-20.92,16.61,-10.37,2,S01
22860,-8.89685,-0.94810,-0.48363,8.8415,8.3537,1.3415,-20.92,16.42,-11.10,2,S01
22880,-8.80109,-1.13964,-0.45729,10.0610,7.3171,4.2073,-20.92,16.42,-11.10,2,S01
22900,-8.80587,-1.22823,-0.52672,12.8659,7.9878,7.3780,-20.92,16.42,-11.10,2,S01
22920,-8.93756,-1.19950,-0.57700,17.1951,9.4512,10.9146,-21.47,15.78,-12.02,2,S01
22940,-8.96629,-1.24259,-0.25139,21.0366,8.5366,14.5122,-21.47,15.78,-12.02,2,S01
22960,-8.97347,-1.47722,-0.18435,24.2683,5.1829,17.3780,-21.47,15.78,-12.02,2,S01
22980,-9.04051,-1.91536,-0.39983,27.6829,2.6829,18.4756,-21.47,15.78,-12.02,2,S01
23000,-9.24401,-2.39420,-0.67516,31.4634,0.1829,17.6829,-21.01,15.05,-13.30,2,S01
23020,-9.70609,-2.54025,-0.48363,31.2805,-1.8293,14.5122,-21.01,15.05,-13.30,2,S01
23040,-10.27591,-2.19548,0.26815,27.4390,-4.0244,9.1463,-21.01,15.05,-13.30,2,S01
23060,-10.69729,-1.65679,1.22104,24.5122,-7.1951,3.0488,-17.52,14.77,-14.86,2,S01
23080,-10.92474,-1.00556,0.51954,22.9878,-10.9146,-0.1829,-17.52,14.77,-14.86,2,S01
23100,-11.75792,-0.09098,-1.25217,14.3902,-2.5610,3.0488,-17.52,14.77,-14.86,2,S01
23120,-12.98854,-0.01915,-1.40300,12.6829,13.3537,9.2683,-23.76,14.95,-14.59,2,S01
23140,-13.22557,-1.27372,-2.15957,23.2317,14.0244,6.1585,-23.76,14.95,-14.59,2,S01
23160,-12.25113,-1.08218,-2.54025,41.8293,8.9634,-11.4024,-23.76,14.95,-14.59,2,S01
23180,-10.11550,0.78051,-3.09810,50.6707,1.5244,-28.4146,-23.76,14.95,-14.59,2,S01
23200,-8.20972,3.32076,-3.19626,41.7073,2.6220,-30.8537,-21.83,15.60,-17.34,2,S01
23220,-7.46512,4.84826,-2.97599,26.0366,10.3049,-19.2683,-21.83,15.60,-17.34,2,S01
23240,-7.95833,4.05817,-2.43251,17.7439,15.0610,0.0000,-21.83,15.60,-17.34,2,S01
23260,-8.93516,1.21147,-2.02549,24.2683,15.4878,19.0854,-23.67,15.23,-17.80,2,S01
23280,-10.00297,-1.27850,-1.88903,39.2683,14.1463,29.1463,-23.67,15.23,-17.80,2,S01
23300,-10.39802,-1.14682,-1.94409,54.8781,11.2805,27.5000,-23.67,15.23,-17.80,2,S01
23320,-10.09395,0.67516,-1.86508,63.9024,5.4878,22.0122,-17.52,13.49,-22.39,2,S01
23340,-9.39964,2.43969,-1.97282,64.5732,-2.8659,21.8902,-17.52,13.49,-22.39,2,S01
23360,-8.67898,3.40934,-2.15718,58.1707,-8.5976,26.0366,-17.52,13.49,-22.39,2,S01
23380,-8.23845,3.47638,-1.94888,48.2317,-7.3780,29.2073,-17.52,13.49,-22.39,2,S01
23400,-8.29830,2.81079,-1.57060,38.7805,-2.7439,28.4146,-22.48,13.03,-22.39,2,S01
23420,-8.64786,2.01831,-1.27372,30.4878,0.3659,25.0000,-22.48,13.03,-22.39,2,S01
23440,-8.83221,1.46286,-1.07021,22.3171,0.0000,21.3415,-22.48,13.03,-22.39,2,S01
23460,-8.75560,1.21625,-0.99838,16.4024,-2.6220,19.8780,-19.27,12.11,-24.31,2,S01
23480,-8.62631,1.03190,-0.84994,14.0244,-4.7561,19.5732,-19.27,12.11,-24.31,2,S01
23500,-8.60955,1.01754,-0.93134,14.3902,-6.4634,17.1951,-19.27,12.11,-24.31,2,S01
23520,-8.69574,1.39821,-0.92177,13.9024,-5.7317,13.0488,-19.45,12.02,-25.05,2,S01
23540,-8.93995,1.62566,-0.28012,10.9756,-5.1829,9.8171,-19.45,12.02,-25.05,2,S01
23560,-8.89446,1.76932,0.16759,8.0488,-10.6098,6.9512,-19.45,12.02,-25.05,2,S01
23580,-8.72208,1.97282,0.52672,6.7683,-18.2317,3.6585,-19.45,12.02,-25.05,2,S01
23600,-8.79151,1.92973,0.98641,7.1951,-24.2683,-0.4878,-18.53,12.39,-25.14,2,S01
23620,-9.00220,1.71185,0.80685,10.9756,-29.2683,-4.2683,-18.53,12.39,-25.14,2,S01
23640,-9.19613,2.01592,0.24181,13.3537,-31.3415,-6.6463,-18.53,12.39,-25.14,2,S01
23660,-9.34936,2.55701,-0.47405,13.5366,-30.2439,-4.5122,-19.82,13.58,-24.59,2,S01
23680,-9.62469,3.42610,-0.85712,16.0366,-25.2439,1.4634,-19.82,13.58,-24.59,2,S01
23700,-10.26873,4.32393,-0.07901,17.5610,-18.8415,6.8293,-19.82,13.58,-24.59,2,S01
23720,-11.37006,5.02782,0.71587,15.3659,-16.8902,10.1829,-14.95,12.39,-26.88,2,S01
23740,-12.70363,4.27844,-0.37828,6.3415,-18.4146,13.2927,-14.95,12.39,-26.88,2,S01
23760,-13.38838,3.56257,-1.72622,-0.0610,-17.9878,16.8293,-14.95,12.39,-26.88,2,S01
23780,-12.30859,3.20105,-2.00395,-8.4756,-18.8415,22.8049,-14.95,12.39,-26.88,2,S01
23800,-10.76194,1.93930,-2.84192,-12.9268,-28.9634,30.9146,-23.12,14.04,-22.94,2,S01
23820,-9.71567,-0.81882,-3.83312,-3.5976,-40.3659,38.7195,-23.12,14.04,-22.94,2,S01
23840,-9.32542,-2.80122,-4.29999,8.9634,-38.3537,36.0366,-23.12,14.04,-22.94,2,S01
23860,-9.87129,-2.65038,-2.85628,17.6829,-25.3049,22.7439,-20.92,13.94,-24.13,2,S01
23880,-10.14423,-0.85712,-1.92494,26.8293,-21.6463,7.3171,-20.92,13.94,-24.13,2,S01
23900,-9.87848,1.35991,-1.97282,22.7439,-25.4878,-9.0244,-20.92,13.94,-24.13,2,S01
23920,-9.04051,2.50673,-2.07817,5.0000,-26.0366,-24.2683,-21.38,15.87,-23.39,2,S01
23940,-7.85777,2.62644,-1.79326,-13.3537,-21.4024,-34.9390,-21.38,15.87,-23.39,2,S01
23960,-7.27837,1.82917,-1.12767,-24.5122,-15.0610,-38.9024,-21.38,15.87,-23.39,2,S01
23980,-7.56328,0.62249,-0.73981,-26.9512,-9.6951,-35.7317,-21.38,15.87,-23.39,2,S01
24000,-8.25521,-0.14605,-0.76854,-27.2561,-3.7195,-28.2927,-15.96,16.61,-23.76,2,S01
24020,-8.59279,-0.02873,-0.99599,-29.3293,3.6585,-18.2317,-15.96,16.61,-23.76,2,S01
24040,-9.08839,0.55785,-0.82600,-32.8049,10.7317,-10.1220,-15.96,16.61,-23.76,2,S01
24060,-10.12987,1.15161,-0.31125,-40.0610,11.8293,-4.2683,-19.45,16.70,-23.03,2,S01
24080,-9.82341,1.10612,-0.42138,-44.3902,5.7927,-5.3049,-19.45,16.70,-23.03,2,S01
24100,-9.27753,0.85473,-0.75657,-45.1829,2.5610,-5.1220,-19.45,16.70,-23.03,2,S01
24120,-8.89925,0.44293,-1.04627,-41.8902,4.7561,-3.0488,-21.10,17.06,-21.47,2,S01
24140,-8.73644,0.13647,-1.10612,-37.3780,10.3659,-0.3659,-21.10,17.06,-21.47,2,S01
24160,-8.61673,0.10774,-1.09415,-34.2683,15.6707,1.2195,-21.10,17.06,-21.47,2,S01
24180,-8.46111,0.49560,-1.01035,-35.1220,18.9634,1.3415,-21.10,17.06,-21.47,2,S01
24200,-8.32464,0.91937,-0.58897,-38.5366,21.6463,1.2195,-20.28,16.33,-21.74,2,S01
24220,-8.25281,1.27132,-0.03591,-41.2195,21.7683,1.2805,-20.28,16.33,-21.74,2,S01
24240,-8.30549,0.85234,0.22266,-42.0732,17.6829,2.6220,-20.28,16.33,-21.74,2,S01
24260,-8.64307,0.08140,-0.29209,-39.6341,11.7683,4.2683,-20.18,16.15,-21.01,2,S01
24280,-9.15782,0.06464,-0.39744,-42.9268,10.6707,4.6951,-20.18,16.15,-21.01,2,S01
24300,-9.68933,0.19154,0.31125,-51.2195,11.6463,4.2073,-20.18,16.15,-21.01,2,S01
24320,-10.19930,0.31603,1.30245,-51.1585,8.4146,2.0122,-19.63,15.69,-20.09,2,S01
24340,-10.56322,0.08619,2.14281,-47.0122,2.5000,-1.2805,-19.63,15.69,-20.09,2,S01
24360,-10.26155,1.05824,1.84354,-47.6220,-2.9268,-2.8659,-19.63,15.69,-20.09,2,S01
24380,-10.36929,1.47962,0.51715,-53.2317,-2.3780,-0.4878,-19.63,15.69,-20.09,2,S01
24400,-11.94228,0.77572,-0.86431,-56.9512,4.3902,1.2195,-22.39,16.15,-18.07,2,S01
24420,-13.40514,-0.29928,-1.68791,-50.4878,5.3659,-7.6220,-22.39,16.15,-18.07,2,S01
24440,-12.25592,0.26576,-1.88424,-43.5366,-5.9146,-27.5000,-22.39,16.15,-18.07,2,S01
24460,-9.33020,1.23541,-2.84431,-37.1951,-21.8293,-42.2561,-23.39,18.44,-15.69,2,S01
24480,-7.55849,2.55701,-3.66313,-31.8902,-21.9512,-45.8537,-23.39,18.44,-15.69,2,S01
24500,-7.70694,2.66954,-2.88741,-35.0610,-6.5854,-35.5488,-23.39,18.44,-15.69,2,S01
24520,-8.63110,1.21625,-2.19069,-39.2683,2.6829,-16.0976,-25.87,19.36,-13.58,2,S01
24540,-9.47625,-0.51715,-1.68312,-36.8902,3.2317,2.0122,-25.87,19.36,-13.58,2,S01
24560,-10.06762,-1.52511,-1.43652,-29.4512,1.0976,13.0488,-25.87,19.36,-13.58,2,S01
24580,-10.16339,-0.65601,-1.39343,-18.2317,1.1585,15.7317,-25.87,19.36,-13.58,2,S01
24600,-9.84496,1.05824,-1.21147,-7.7439,2.8659,14.5122,-20.64,17.98,-15.50,2,S01
24620,-9.29669,2.26013,-1.26414,-0.3659,1.7683,14.8780,-20.64,17.98,-15.50,2,S01
24640,-8.89925,2.55461,-1.30963,2.5000,2.1951,16.0976,-20.64,17.98,-15.50,2,S01
24660,-8.65265,2.26970,-1.44610,1.0366,4.3902,16.9512,-25.14,17.43,-15.32,2,S01
24680,-8.66940,2.00155,-1.27850,-2.3171,9.8171,17.4390,-25.14,17.43,-15.32,2,S01
24700,-8.83221,1.88424,-0.84036,-6.2195,15.0000,17.7439,-25.14,17.43,-15.32,2,S01
24720,-8.79390,1.75495,-0.61770,-9.1463,16.0976,17.9268,-24.68,16.33,-15.87,2,S01
24740,-8.62631,1.60890,-0.60573,-9.6951,16.1585,17.2561,-24.68,16.33,-15.87,2,S01
24760,-8.48026,1.37906,-0.67756,-8.2927,17.9268,15.0000,-24.68,16.33,-15.87,2,S01
24780,-8.50181,1.34075,-0.41420,-6.2805,21.4634,11.0366,-24.68,16.33,-15.87,2,S01
24800,-8.62631,1.34315,-0.15802,-3.9024,23.1098,7.2561,-24.40,15.96,-16.70,2,S01
24820,-8.70532,1.30245,0.09816,-0.8537,23.2317,3.6585,-24.40,15.96,-16.70,2,S01
24840,-8.63589,1.32399,0.28012,1.8902,21.7073,-0.4268,-24.40,15.96,-16.70,2,S01
24860,-8.48984,1.65200,0.35913,2.4390,18.7195,-4.2073,-23.94,15.87,-17.61,2,S01
24880,-8.57364,2.10450,0.36152,0.3049,14.8780,-5.8537,-23.94,15.87,-17.61,2,S01
24900,-8.87291,2.68151,0.00718,-1.0976,11.0366,-5.1220,-23.94,15.87,-17.61,2,S01
24920,-9.28950,3.37343,-0.35195,-6.2805,9.1463,-2.9878,-25.32,15.96,-17.43,2,S01
24940,-9.84735,3.64398,-0.21069,-13.2317,7.3780,-1.4634,-25.32,15.96,-17.43,2,S01
24960,-10.62547,3.77805,0.43814,-17.3780,3.6585,-2.3171,-25.32,15.96,-17.43,2,S01
24980,-11.45147,3.50272,1.50116,-21.7683,1.7683,-3.5976,-25.32,15.96,-17.43,2,S01
25000,-11.95425,2.38463,1.47004,-27.2561,0.0610,-3.5976,-19.91,15.87,-17.16,2,S01
25020,-12.11466,1.96325,-0.65122,-30.4268,-3.4756,-2.4390,-19.91,15.87,-17.16,2,S01
25040,-12.08832,2.45166,-2.55940,-26.4024,-4.2073,0.6098,-19.91,15.87,-17.16,2,S01
25060,-10.74039,3.91691,-4.01029,-25.0000,-6.5854,6.2195,-30.92,17.34,-11.93,2,S01
25080,-9.18655,4.01029,-4.95121,-32.6220,-12.3780,14.3902,-30.92,17.34,-11.93,2,S01
25100,-8.50899,1.99916,-5.46117,-37.6220,-14.1463,22.8049,-30.92,17.34,-11.93,2,S01
25120,-8.97826,-0.10774,-4.86981,-41.5244,-6.7683,19.5732,-31.65,17.25,-9.63,2,S01
25140,-9.48343,-0.33998,-3.43807,-43.6585,-1.3415,7.7439,-31.65,17.25,-9.63,2,S01
25160,-9.50738,1.25217,-2.82276,-46.8293,-7.1341,-5.7927,-31.65,17.25,-9.63,2,S01
25180,-9.34936,2.87544,-2.77488,-56.4634,-11.2805,-17.9878,-31.65,17.25,-9.63,2,S01
25200,-8.95910,3.64876,-2.51870,-71.0366,-5.0610,-26.0976,-28.53,16.70,-10.64,2,S01
25220,-8.57124,3.55300,-2.08535,-86.0366,2.0732,-31.7683,-28.53,16.70,-10.64,2,S01
25240,-8.04212,3.23217,-2.19069,-97.2561,2.9268,-33.8415,-28.53,16.70,-10.64,2,S01
25260,-7.71172,1.73101,-2.51870,-108.2927,3.2927,-32.3171,-29.36,18.90,-5.50,2,S01
25280,-8.15705,0.32082,-2.60010,-114.5122,11.2195,-31.5854,-29.36,18.90,-5.50,2,S01
25300,-8.99980,-0.54109,-1.98479,-117.0122,22.5000,-30.3049,-29.36,18.90,-5.50,2,S01
25320,-9.51935,-0.64404,-1.57778,-117.0732,27.9878,-27.0732,-27.06,19.54,-2.84,2,S01
25340,-9.56723,-0.28012,-1.34794,-117.0732,27.2561,-23.2317,-27.06,19.54,-2.84,2,S01
25360,-9.24880,0.26097,-1.03430,-115.6707,23.2317,-19.5122,-27.06,19.54,-2.84,2,S01
25380,-8.82024,0.80445,-1.14682,-112.3781,17.5610,-15.8537,-27.06,19.54,-2.84,2,S01
25400,-8.58800,0.85712,-1.25217,-110.0000,15.3659,-11.5854,-27.16,20.09,0.92,2,S01
25420,-8.55688,0.70868,-0.89543,-106.1585,15.7927,-7.4390,-27.16,20.09,0.92,2,S01
25440,-8.50660,0.55785,-0.34477,-101.6463,14.2683,-3.5976,-27.16,20.09,0.92,2,S01
25460,-8.52815,0.78051,0.30885,-96.7683,10.5488,-0.4878,-24.68,19.45,3.03,2,S01
25480,-8.64546,0.80685,1.12767,-83.5976,0.4268,2.7439,-24.68,19.45,3.03,2,S01
25500,-8.88488,0.51475,0.68474,-75.3049,-3.7805,0.9146,-24.68,19.45,3.03,2,S01
25520,-9.57920,-0.02873,0.36392,-67.0122,-4.6341,-2.3171,-24.22,19.36,5.87,2,S01
25540,-9.98861,0.34716,0.11971,-57.4390,-7.5000,-3.8415,-24.22,19.36,5.87,2,S01
25560,-10.33577,0.34237,1.30963,-50.7927,-8.2317,-0.1220,-24.22,19.36,5.87,2,S01
25580,-10.91756,0.46208,2.35829,-38.4146,-6.7073,3.4756,-24.22,19.36,5.87,2,S01
25600,-11.93270,1.91297,2.73657,-33.1098,-2.1341,4.3902,-18.17,18.26,5.69,2,S01
25620,-12.55280,3.19387,0.59376,-39.0854,0.6707,2.8659,-18.17,18.26,5.69,2,S01
25640,-13.67568,3.10767,-2.40857,-45.3049,-3.2317,0.3049,-18.17,18.26,5.69,2,S01
25660,-13.17290,1.50116,-3.12683,-44.3902,-14.1463,-11.1585,-26.06,20.09,11.19,2,S01
25680,-11.56878,0.86910,-3.61046,-39.3293,-29.3293,-33.3537,-26.06,20.09,11.19,2,S01
25700,-9.78031,2.50194,-4.80756,-37.5000,-35.9756,-47.0122,-26.06,20.09,11.19,2,S01
25720,-8.68138,2.99275,-4.46997,-43.9024,-22.8049,-35.3049,-24.86,21.19,13.85,2,S01
25740,-8.58082,1.56341,-3.32794,-48.2317,-9.4512,-11.8293,-24.86,21.19,13.85,2,S01
25760,-8.95910,-0.60094,-2.15718,-44.9390,-7.8659,8.2317,-24.86,21.19,13.85,2,S01
25780,-8.84897,-1.92973,-2.03028,-32.7439,-12.8659,17.8049,-24.86,21.19,13.85,2,S01
25800,-8.49942,-1.74537,-1.98000,-18.5976,-12.4390,18.5976,-19.91,18.99,12.48,2,S01
25820,-8.43238,0.16281,-0.94810,-10.1220,-3.7805,12.3780,-19.91,18.99,12.48,2,S01
25840,-8.36055,2.16196,-0.55067,-5.4268,-1.2195,5.6098,-19.91,18.99,12.48,2,S01
25860,-8.28154,2.79643,-0.86910,-5.1829,-4.5732,5.7317,-22.20,18.35,11.65,2,S01
25880,-8.44196,1.90100,-0.82839,-9.0244,-3.1098,10.8537,-22.20,18.35,11.65,2,S01
25900,-8.76996,0.75417,-0.51954,-7.4390,2.4390,15.6098,-22.20,18.35,11.65,2,S01
25920,-9.02854,0.20351,0.04788,0.0610,6.7073,16.5244,-19.82,17.61,10.55,2,S01
25940,-8.84658,0.75896,0.29209,9.3293,5.6707,10.7927,-19.82,17.61,10.55,2,S01
25960,-8.37013,1.51553,0.05986,17.6220,0.1829,3.7195,-19.82,17.61,10.55,2,S01
25980,-7.94875,2.12605,-0.18435,20.9756,-3.5366,-1.2195,-19.82,17.61,10.55,2,S01
26000,-7.63272,2.35589,-0.32561,18.5976,-4.5732,-2.6220,-22.66,17.71,9.91,2,S01
26020,-7.49146,2.52349,-0.09577,10.7927,-2.8659,-3.3537,-22.66,17.71,9.91,2,S01
26040,-7.63750,2.62405,0.24421,1.5854,-0.7317,-3.0488,-22.66,17.71,9.91,2,S01
26060,-8.14507,2.67432,0.21787,-6.2195,-0.2439,-0.2439,-20.64,17.34,9.17,2,S01
26080,-9.05248,2.57137,0.33758,-12.5610,1.4634,3.4146,-20.64,17.34,9.17,2,S01
26100,-9.98382,2.51631,0.39504,-14.3293,2.2561,5.7927,-20.64,17.34,9.17,2,S01
26120,-10.47703,2.19069,0.22984,-10.3049,-0.9146,7.8659,-20.46,16.88,9.17,2,S01
26140,-10.83616,1.97043,-0.11492,-10.4878,-3.2927,8.7195,-20.46,16.88,9.17,2,S01
26160,-12.16015,2.75333,-1.97761,-13.2927,-2.3171,7.5610,-20.46,16.88,9.17,2,S01
26180,-15.01404,4.64715,-2.84431,-14.1463,6.3415,13.5366,-20.46,16.88,9.17,2,S01
26200,-14.90151,3.35907,-3.23935,-30.8537,3.2927,35.1829,-25.78,16.79,11.65,2,S01
26220,-11.35809,0.22984,-2.72700,-54.1463,-11.2195,54.6951,-25.78,16.79,11.65,2,S01
26240,-9.05008,-1.52511,-2.35829,-48.9634,-14.2683,49.7561,-25.78,16.79,11.65,2,S01
26260,-8.43717,-1.35991,-2.07577,-26.3415,-7.2561,30.0610,-23.58,15.23,12.02,2,S01
26280,-7.88889,-0.34955,-1.55384,-15.7927,-3.4146,9.3293,-23.58,15.23,12.02,2,S01
26300,-7.44597,0.75896,-2.14760,-20.4878,-7.3780,-6.3415,-23.58,15.23,12.02,2,S01
26320,-7.82186,2.07817,-2.99036,-28.6585,-7.0122,-14.2073,-24.95,16.24,14.04,2,S01
26340,-8.54491,2.25773,-3.47878,-34.0244,1.2805,-11.6463,-24.95,16.24,14.04,2,S01
26360,-9.43555,1.21625,-2.21943,-48.1707,13.8415,-7.2561,-24.95,16.24,14.04,2,S01
26380,-10.20888,-0.09098,-0.88346,-57.8659,18.3537,-6.7683,-24.95,16.24,14.04,2,S01
26400,-10.47942,-0.82361,-0.53151,-55.3049,14.0854,-9.2683,-15.60,16.70,13.39,2,S01
26420,-10.24000,-0.97683,-0.42856,-47.8049,9.0854,-13.4146,-15.60,16.70,13.39,2,S01
26440,-9.40203,-0.23942,-0.43096,-39.6341,7.5000,-17.5000,-15.60,16.70,13.39,2,S01
26460,-8.65025,0.55306,-0.67516,-32.9878,8.5366,-18.2927,-18.62,17.52,13.67,2,S01
26480,-8.21211,0.80206,-0.80924,-29.2073,11.3415,-16.2805,-18.62,17.52,13.67,2,S01
26500,-8.25760,0.69671,-0.55785,-28.2927,14.8171,-13.9634,-18.62,17.52,13.67,2,S01
26520,-8.50660,0.35913,-0.30406,-28.4756,16.2195,-10.0610,-15.41,18.35,13.39,2,S01
26540,-8.77954,0.00718,-0.03831,-27.1341,15.9756,-5.3049,-15.41,18.35,13.39,2,S01
26560,-8.91122,-0.25857,0.06943,-22.6829,14.1463,-0.1220,-15.41,18.35,13.39,2,S01
26580,-8.84418,-0.49081,0.04310,-16.1585,11.7683,5.0610,-15.41,18.35,13.39,2,S01
26600,-8.71968,-0.44772,0.05507,-9.2683,9.9390,9.1463,-16.24,18.07,12.94,2,S01
26620,-8.70771,-0.26336,0.15083,-4.7561,8.1707,11.9512,-16.24,18.07,12.94,2,S01
26640,-8.92798,-0.15562,0.12450,-2.7439,4.9390,14.1463,-16.24,18.07,12.94,2,S01
26660,-9.26796,0.12450,-0.07422,-2.8659,0.3049,15.7317,-17.16,17.52,12.75,2,S01
26680,-9.61033,0.43096,-0.35434,-5.3049,-3.4146,16.7073,-17.16,17.52,12.75,2,S01
26700,-10.05804,0.41420,-0.16041,-7.3171,-6.0976,16.6463,-17.16,17.52,12.75,2,S01
26720,-10.46506,-0.12929,0.63686,-6.4634,-9.4512,14.5122,-14.40,17.06,12.84,2,S01
26740,-10.78827,-0.63446,1.27850,-3.7805,-12.1341,8.8415,-14.40,17.06,12.84,2,S01
26760,-11.21205,-0.34477,0.81163,-2.0732,-11.7683,1.6463,-14.40,17.06,12.84,2,S01
26780,-12.24155,-0.48602,-0.83079,-0.0610,-9.8780,-2.3171,-14.40,17.06,12.84,2,S01
26800,-13.47457,-1.73340,-2.35350,6.3415,-8.8415,-4.9390,-20.37,18.17,13.76,2,S01
26820,-13.34289,-1.20189,-2.61686,17.8659,-13.4756,-14.5732,-20.37,18.17,13.76,2,S01
26840,-11.53287,0.12210,-2.83713,29.3902,-24.5122,-29.6341,-20.37,18.17,13.76,2,S01
26860,-9.17937,1.72383,-3.42371,38.1098,-34.5122,-38.4146,-21.56,18.72,12.94,2,S01
26880,-7.55849,2.81079,-2.54982,36.0976,-19.2683,-19.6951,-21.56,18.72,12.94,2,S01
26900,-7.80031,1.54187,-1.88903,32.8049,-10.1829,0.3659,-21.56,18.72,12.94,2,S01
26920,-8.52336,-0.11492,-1.70467,38.4756,-3.5976,13.6585,-21.01,18.35,10.92,2,S01
26940,-9.49540,-0.84036,-1.86987,53.1707,0.0610,16.5854,-21.01,18.35,10.92,2,S01
26960,-10.03889,-0.03591,-2.08774,68.1098,-1.2805,15.9146,-21.01,18.35,10.92,2,S01
26980,-9.95749,1.12767,-1.62327,76.7683,-3.1707,15.7317,-21.01,18.35,10.92,2,S01
27000,-9.42118,2.28646,-1.50356,81.4024,-7.3171,17.9878,-23.94,17.80,8.07,2,S01
27020,-8.90883,2.36547,-1.37427,81.4024,-9.5122,22.1951,-23.94,17.80,8.07,2,S01
27040,-8.93756,2.02549,-1.16837,78.4146,-7.6220,25.8537,-23.94,17.80,8.07,2,S01
27060,-9.13149,1.75974,-0.78051,75.4268,-4.2073,28.9634,-24.86,16.42,4.50,2,S01
27080,-9.17219,1.60651,-0.32561,72.0732,-3.8415,30.1829,-24.86,16.42,4.50,2,S01
27100,-8.93277,1.52750,-0.27294,69.3902,-6.7683,29.2073,-24.86,16.42,4.50,2,S01
27120,-8.61913,1.41976,-0.23942,67.7439,-7.3171,26.7683,-25.96,15.41,1.74,2,S01
27140,-8.41083,1.63763,-0.05507,65.9146,-5.3049,22.5610,-25.96,15.41,1.74,2,S01
27160,-8.23366,1.99676,-0.08619,61.2805,-4.3902,17.0122,-25.96,15.41,1.74,2,S01
27180,-8.18338,2.12605,0.16281,54.0854,-2.3780,11.8902,-25.96,15.41,1.74,2,S01
27200,-8.48266,2.17633,0.56982,44.0244,-1.7683,8.0488,-26.24,15.23,-0.64,2,S01
27220,-8.90883,2.14999,0.68235,31.8293,-4.5732,6.3415,-26.24,15.23,-0.64,2,S01
27240,-9.21289,2.07577,0.87628,21.7683,-6.8902,5.9146,-26.24,15.23,-0.64,2,S01
27260,-9.43794,2.52349,0.78051,17.3171,-8.7805,6.7683,-25.23,14.95,-1.74,2,S01
27280,-9.57202,2.32716,0.30885,16.8902,-10.8537,9.8171,-25.23,14.95,-1.74,2,S01
27300,-9.80426,1.39103,0.61292,23.6585,-8.0488,11.0976,-25.23,14.95,-1.74,2,S01
27320,-9.81623,1.02711,0.93374,28.4756,-4.3293,8.9024,-23.76,14.77,-3.39,2,S01
27340,-9.91678,0.79727,1.22823,30.7927,-3.1098,4.6341,-23.76,14.77,-3.39,2,S01
27360,-11.23838,0.46687,0.09577,31.3415,-1.8293,0.7317,-23.76,14.77,-3.39,2,S01
27380,-13.05558,1.27132,-0.63207,30.0000,0.6098,4.1463,-23.76,14.77,-3.39,2,S01
27400,-12.49294,2.63602,-1.35512,28.9634,-8.7805,15.1220,-26.79,14.86,-4.31,2,S01
27420,-11.15459,3.27527,-2.98557,20.4268,-21.4024,27.1951,-26.79,14.86,-4.31,2,S01
27440,-9.45949,0.90261,-3.00712,23.6585,-24.6341,38.2317,-26.79,14.86,-4.31,2,S01
27460,-8.88009,-1.44610,-3.76608,40.5488,-22.3171,30.7927,-30.37,15.05,-3.03,2,S01
27480,-9.53850,-1.51792,-3.42371,54.3293,-9.8780,12.5610,-30.37,15.05,-3.03,2,S01
27500,-10.35013,0.27533,-2.04944,59.4512,-2.5000,-0.8537,-30.37,15.05,-3.03,2,S01
27520,-9.80905,2.21224,-2.35829,53.2317,-10.7927,-7.0732,-26.97,14.50,-7.71,2,S01
27540,-9.11473,2.99754,-2.15478,45.9146,-14.5732,-12.6829,-26.97,14.50,-7.71,2,S01
27560,-8.04212,2.38702,-2.07338,44.3902,-18.1707,-19.8171,-26.97,14.50,-7.71,2,S01
27580,-7.38132,1.41497,-2.24576,44.0854,-20.1220,-30.1220,-26.97,14.50,-7.71,2,S01
27600,-7.35499,0.64404,-2.09253,41.7683,-12.8659,-37.3780,-27.34,16.97,-8.17,2,S01
27620,-7.88411,0.33040,-1.95127,40.1829,-3.2927,-36.9512,-27.34,16.97,-8.17,2,S01
27640,-8.59040,0.21548,-1.72383,38.9024,5.3659,-31.0366,-27.34,16.97,-8.17,2,S01
27660,-9.40442,0.34477,-1.18992,37.3171,12.2561,-24.2683,-25.69,17.80,-10.46,2,S01
27680,-9.82580,0.52433,-1.19950,35.9756,12.2561,-18.4756,-25.69,17.80,-10.46,2,S01
27700,-9.81862,0.71587,-1.11330,34.1463,11.2805,-15.1220,-25.69,17.80,-10.46,2,S01
27720,-9.50738,0.62010,-0.91459,31.6463,11.2195,-12.5000,-24.77,18.26,-12.02,2,S01
27740,-9.05008,0.20351,-0.67995,29.3902,11.1585,-8.4146,-24.77,18.26,-12.02,2,S01
27760,-8.60955,-0.04310,-0.50996,28.0488,11.3415,-4.6951,-24.77,18.26,-12.02,2,S01
27780,-8.28633,-0.11492,-0.44293,27.9878,12.2561,-1.4024,-24.77,18.26,-12.02,2,S01
27800,-8.22648,0.01197,-0.56264,28.1098,11.8902,0.7317,-23.94,17.98,-13.39,2,S01
27820,-8.47308,0.44053,-0.47645,25.0610,9.5732,2.4390,-23.94,17.98,-13.39,2,S01
27840,-8.74602,0.55306,0.01915,18.2927,4.8171,5.3049,-23.94,17.98,-13.39,2,S01
27860,-8.86094,0.17717,0.16281,16.0976,-0.7317,7.6829,-22.39,17.52,-14.68,2,S01
27880,-8.95431,-0.16520,-0.55545,19.0854,-4.6951,7.9878,-22.39,17.52,-14.68,2,S01
27900,-9.43555,-0.62489,-0.75896,19.3293,-4.1463,7.1341,-22.39,17.52,-14.68,2,S01
27920,-10.38365,-0.50039,0.21069,18.9634,-2.6829,3.4146,-20.64,17.34,-15.78,2,S01
27940,-11.37964,0.16759,1.94649,19.0244,-3.5366,-2.5000,-20.64,17.34,-15.78,2,S01
27960,-11.95904,1.00796,1.92254,19.2073,-6.4024,-8.4756,-20.64,17.34,-15.78,2,S01
27980,-12.18170,1.10852,-0.73981,17.0732,-5.3659,-10.6707,-20.64,17.34,-15.78,2,S01
28000,-13.25909,0.24900,-2.41336,9.6951,-0.3659,-10.8537,-23.39,18.81,-14.13,2,S01
28020,-13.33092,-0.73741,-3.25372,7.7439,-3.4146,-14.1463,-23.39,18.81,-14.13,2,S01
28040,-12.14818,-0.20351,-3.90494,13.1707,-12.2561,-23.2927,-23.39,18.81,-14.13,2,S01
28060,-9.89045,1.72383,-4.01986,13.2927,-19.1463,-31.3415,-23.39,20.09,-13.85,2,S01
28080,-8.15465,3.45483,-3.84748,9.9390,-17.3780,-29.3902,-23.39,20.09,-13.85,2,S01
28100,-7.70454,3.18189,-2.67193,3.8415,-8.0488,-18.7195,-23.39,20.09,-13.85,2,S01
28120,-8.18099,1.38864,-1.92254,2.7439,-4.0854,-3.8415,-21.38,19.82,-14.68,2,S01
28140,-8.95192,-0.71826,-1.46046,12.3780,-3.4146,9.8780,-21.38,19.82,-14.68,2,S01
28160,-9.51695,-1.62327,-1.81959,29.1463,-5.0610,15.9756,-21.38,19.82,-14.68,2,S01
28180,-9.55526,-1.18274,-2.23618,42.8049,-6.4024,17.2561,-21.38,18.72,-14.68,2,S01
28200,-9.40203,0.24181,-1.81002,48.6585,-5.4268,16.8293,-21.56,18.72,-16.33,2,S01
28220,-9.03332,1.64960,-1.58736,48.1098,-7.8049,17.2561,-21.56,18.72,-16.33,2,S01
28240,-8.68856,2.54264,-1.69270,45.3659,-11.2805,20.7927,-21.56,18.72,-16.33,2,S01
28260,-8.49223,2.72460,-1.78368,39.5732,-10.3049,25.0000,-21.47,17.80,-17.61,2,S01
28280,-8.48026,2.36547,-1.51314,32.3171,-5.8537,27.2561,-21.47,17.80,-17.61,2,S01
28300,-8.71011,1.56102,-1.00078,22.1341,1.5244,22.9268,-21.47,17.80,-17.61,2,S01
28320,-8.69335,1.49398,-0.80206,19.0854,0.7927,18.4146,-20.64,16.88,-18.62,2,S01
28340,-8.49463,1.50356,-0.73263,16.3415,-0.7927,15.2439,-20.64,16.88,-18.62,2,S01
28360,-8.47069,1.40061,-0.33998,15.2439,1.5244,11.4634,-20.64,16.88,-18.62,2,S01
28380,-8.49942,1.31442,-0.11492,17.0122,3.5366,6.4024,-20.64,16.61,-19.54,2,S01
28400,-8.53054,1.15879,0.21548,20.1220,2.3780,2.1951,-19.91,16.61,-19.54,2,S01
28420,-8.87291,1.10852,0.54109,21.1585,-2.8049,-0.3659,-19.91,16.61,-19.54,2,S01
28440,-9.03811,1.19950,0.62010,20.6707,-11.1585,-1.2805,-19.91,16.61,-19.54,2,S01
28460,-9.10754,2.20027,0.07661,18.5976,-18.9024,-0.3049,-18.99,16.97,-19.91,2,S01
28480,-9.07642,2.56180,-0.40462,13.7195,-23.6585,4.2073,-18.99,16.97,-19.91,2,S01
28500,-9.22725,2.12605,-0.49081,15.1829,-23.4146,7.3780,-18.99,16.97,-19.91,2,S01
28520,-9.76355,2.31040,0.82121,13.3537,-17.8659,5.4878,-18.62,17.16,-19.91,2,S01
28540,-11.64779,2.30322,1.83875,8.9024,-15.1220,2.1341,-18.62,17.16,-19.91,2,S01
28560,-12.51449,1.92973,-0.05986,6.8902,-16.2195,0.9146,-18.62,17.16,-19.91,2,S01
28580,-14.19522,1.90578,-1.75495,6.3415,-12.6220,8.1707,-21.47,17.61,-18.26,2,S01
28600,-13.59907,3.56975,-3.68228,-3.7805,-16.3415,22.1341,-21.47,17.61,-18.26,2,S01
28620,-11.99495,1.72622,-3.42371,-18.6585,-18.9634,42.8659,-21.47,17.61,-18.26,2,S01
28640,-10.79546,-1.25696,-3.80199,-14.3902,-24.0244,49.2683,-21.47,17.61,-18.26,2,S01
28660,-10.72363,-2.05662,-3.46202,-7.0122,-19.9390,33.3537,-24.04,17.52,-15.32,2,S01
28680,-10.84334,-0.22745,-2.71263,10.7927,-15.6098,16.7073,-24.04,17.52,-15.32,2,S01
28700,-10.31422,1.12049,-2.40857,20.1829,-18.4146,4.7561,-24.04,17.52,-15.32,2,S01
28720,-9.15782,1.69270,-2.56180,20.7317,-25.0000,-3.9634,-22.84,17.43,-16.79,2,S01
28740,-7.72369,2.63602,-3.22260,21.3415,-29.8171,-13.0488,-22.84,17.43,-16.79,2,S01
28760,-6.68222,3.57933,-3.92649,10.4878,-23.6585,-21.5854,-22.84,17.43,-16.79,2,S01
28780,-5.90650,1.72143,-2.65756,-11.6463,-4.7561,-23.0488,-23.94,18.90,-15.14,2,S01
28800,-5.40371,-0.16999,-2.44209,-22.8049,5.8537,-22.6829,-23.94,18.90,-15.14,2,S01
28820,-5.76524,-0.46687,-2.55940,-21.0366,15.0610,-20.1220,-23.94,18.90,-15.14,2,S01
28840,-6.98867,0.24660,-2.33195,-22.3780,25.3659,-14.6341,-23.94,18.90,-15.14,2,S01
28860,-8.33661,0.96247,-1.64242,-26.6463,33.1098,-7.8659,-22.84,18.44,-16.15,2,S01
28880,-9.71567,1.47243,-0.96965,-26.8293,33.4146,-3.0488,-22.84,18.44,-16.15,2,S01
28900,-10.79785,1.05824,-0.57700,-23.7195,31.7073,0.2439,-22.84,18.44,-16.15,2,S01
28920,-11.27430,0.06464,-0.51715,-20.7317,27.8049,0.8537,-20.55,17.71,-17.34,2,S01
28940,-11.05882,-0.42138,-0.60334,-19.9390,21.0976,0.4878,-20.55,17.71,-17.34,2,S01
28960,-10.48421,-0.23224,-0.84994,-20.8537,15.4268,-0.0610,-20.55,17.71,-17.34,2,S01
28980,-9.84017,0.42377,-0.89064,-20.3659,15.3659,-3.7195,-22.20,17.52,-16.79,2,S01
29000,-9.26556,1.06063,-0.64165,-18.9634,16.5854,-7.3171,-22.20,17.52,-16.79,2,S01
29020,-8.98544,1.18034,-0.41180,-17.6220,15.1829,-6.9512,-22.20,17.52,-16.79,2,S01
29040,-8.91601,0.80685,-0.38307,-17.3780,12.4390,-3.3537,-22.20,17.52,-16.79,2,S01
29060,-8.92319,-0.20590,-0.48123,-16.0366,9.0854,1.0366,-21.65,17.43,-16.61,2,S01
29080,-8.75320,-0.56743,-0.94571,-12.6829,4.5732,2.9878,-21.65,17.43,-16.61,2,S01
29100,-8.67659,-0.21308,-0.54588,-16.9512,3.8415,4.7561,-21.65,17.43,-16.61,2,S01
29120,-8.88967,0.39504,-0.16999,-20.3659,3.9024,6.6463,-21.38,16.61,-16.61,2,S01
29140,-9.41161,0.95289,0.17478,-21.7683,2.5000,7.7439,-21.38,16.61,-16.61,2,S01
29160,-9.98143,1.24977,0.71347,-26.1585,-0.3049,9.8780,-21.38,16.61,-16.61,2,S01
29180,-10.23761,1.15401,1.42216,-32.1951,-4.3293,12.3780,-20.55,16.15,-15.50,2,S01
29200,-10.18015,0.67756,2.14281,-34.2073,-10.1829,12.9878,-20.55,16.15,-15.50,2,S01
29220,-10.19930,0.04310,2.13323,-29.0244,-14.3902,12.1341,-20.55,16.15,-15.50,2,S01
29240,-10.76194,-0.41899,0.17238,-21.5854,-12.3171,11.7683,-20.55,16.15,-15.50,2,S01
29260,-12.50970,-0.36871,-1.66876,-16.3415,-0.7317,13.7805,-23.49,16.15,-13.94,2,S01
29280,-13.96059,-0.55306,-2.16915,-5.4268,4.0244,11.7683,-23.49,16.15,-13.94,2,S01
29300,-13.35007,-0.76854,-2.56658,18.6585,-6.0976,-4.1463,-23.49,16.15,-13.94,2,S01
29320,-10.89362,-0.13886,-3.48117,44.9390,-22.6220,-22.9268,-23.85,17.71,-14.22,2,S01
29340,-8.38210,1.23062,-4.21858,50.7317,-34.0244,-31.8293,-23.85,17.71,-14.22,2,S01
29360,-7.16824,2.60489,-3.96001,43.9024,-31.2805,-26.5244,-23.85,17.71,-14.22,2,S01
29380,-7.12275,2.31280,-2.82276,36.8902,-21.8293,-9.8780,-24.50,17.61,-14.86,2,S01
29400,-7.77637,0.66798,-2.37265,40.0000,-17.7439,7.8049,-24.50,17.61,-14.86,2,S01
29420,-8.82263,-0.96486,-2.03028,50.8537,-13.2927,18.9634,-24.50,17.61,-14.86,2,S01
29440,-9.71567,-1.47962,-1.65200,63.1098,-8.2927,21.6463,-24.50,17.61,-14.86,2,S01
29460,-10.05804,-0.40462,-1.63524,75.2439,-6.2805,19.0244,-19.91,16.06,-19.27,2,S01
29480,-9.94312,1.35991,-1.36709,82.8659,-6.7073,15.5488,-19.91,16.06,-19.27,2,S01
