timestamp,ax,ay,az,gx,gy,gz,mx,my,mz,label,subject_id
0,-13.82173,-0.39025,-3.38301,11.9512,11.2805,9.6341,-3.94,12.29,-36.33,6,S01
20,-14.43225,0.00000,-3.84509,9.8171,6.7073,8.9024,-3.94,12.29,-36.33,6,S01
40,-13.59188,0.88825,-4.20661,8.2317,0.6707,5.4878,-3.94,12.29,-36.33,6,S01
60,-11.94228,1.80044,-4.38618,6.3415,-3.5976,1.8902,-3.94,12.29,-36.33,6,S01
80,-10.35732,2.63841,-3.91213,4.6341,-4.9390,-0.0610,-3.21,13.21,-36.06,6,S01
100,-9.10036,3.40695,-3.22978,2.3780,-4.2073,-0.1220,-3.21,13.21,-36.06,6,S01
120,-8.42280,3.96959,-3.00472,-0.8537,-2.3171,2.2561,-3.21,13.21,-36.06,6,S01
140,-8.52575,3.62722,-2.90896,-4.7561,3.7195,8.0488,-3.30,13.21,-35.87,6,S01
160,-8.94474,2.78685,-2.89698,-5.5488,10.4268,14.8171,-3.30,13.21,-35.87,6,S01
180,-9.00938,2.27689,-3.02867,-4.8780,11.6463,19.3902,-3.30,13.21,-35.87,6,S01
200,-8.58561,2.37744,-3.08134,-5.7927,9.0244,21.7683,-3.85,13.12,-36.33,6,S01
220,-8.12592,2.74615,-2.89459,-5.3049,8.5366,23.5976,-3.85,13.12,-36.33,6,S01
240,-8.23366,3.08373,-2.45166,-2.3171,11.0976,25.1829,-3.85,13.12,-36.33,6,S01
260,-8.65265,2.92571,-2.02071,-1.8902,13.1707,26.2195,-3.85,13.12,-36.33,6,S01
280,-8.69574,2.50912,-1.87945,-3.5366,10.8537,25.7317,-4.22,12.84,-36.79,6,S01
300,-8.23605,2.33914,-2.13323,-5.2439,5.2439,23.7195,-4.22,12.84,-36.79,6,S01
320,-7.67342,2.37026,-2.17872,-6.7073,2.3780,21.8293,-4.22,12.84,-36.79,6,S01
340,-7.39329,2.44448,-2.16436,-6.9512,2.6220,19.0854,-4.59,12.75,-36.97,6,S01
360,-7.57286,2.32956,-1.89860,-6.3415,5.3049,16.4024,-4.59,12.75,-36.97,6,S01
380,-7.73806,2.17872,-2.07817,-7.8659,5.8537,14.0244,-4.59,12.75,-36.97,6,S01
400,-7.83622,2.09253,-2.01113,-11.5854,6.8902,12.6220,-5.14,12.48,-37.16,6,S01
420,-7.93438,2.02071,-1.79565,-14.8780,5.0000,11.7073,-5.14,12.48,-37.16,6,S01
440,-8.00382,2.05901,-1.89142,-16.1585,-0.3049,10.3659,-5.14,12.48,-37.16,6,S01
460,-8.15465,2.01831,-1.85551,-15.8537,-5.1829,9.6341,-5.14,12.48,-37.16,6,S01
480,-8.38928,1.91057,-1.60172,-14.6951,-10.9146,9.2683,-5.69,13.03,-36.88,6,S01
500,-8.58561,1.92733,-1.83635,-14.5122,-17.5610,7.3780,-5.69,13.03,-36.88,6,S01
520,-8.59040,1.99916,-1.98719,-15.5488,-18.1098,4.9390,-5.69,13.03,-36.88,6,S01
540,-8.50181,2.02071,-1.69749,-16.2805,-13.7195,3.1707,-6.06,13.39,-36.51,6,S01
560,-8.32943,2.11169,-1.58736,-17.1951,-10.9756,1.1585,-6.06,13.39,-36.51,6,S01
580,-8.19775,2.04465,-1.43652,-17.8049,-3.9634,-1.6463,-6.06,13.39,-36.51,6,S01
600,-8.24084,1.95606,-1.43413,-18.1098,0.7317,-3.9634,-6.51,13.12,-36.24,6,S01
620,-8.40365,2.00155,-1.37906,-18.0488,5.0000,-6.7073,-6.51,13.12,-36.24,6,S01
640,-8.66940,1.91057,-1.21625,-17.4390,6.7683,-9.1463,-6.51,13.12,-36.24,6,S01
660,-8.95910,1.95127,-1.04866,-17.8049,5.6098,-12.1951,-6.51,13.12,-36.24,6,S01
680,-9.41879,2.09732,-0.82361,-19.0244,4.3902,-15.1829,-6.79,12.66,-36.24,6,S01
700,-9.98382,2.09972,-0.78769,-20.6098,3.7195,-16.4634,-6.79,12.66,-36.24,6,S01
720,-10.37168,1.86269,-1.36948,-22.4390,2.1341,-16.1585,-6.79,12.66,-36.24,6,S01
740,-10.43632,2.07338,-2.74854,-23.8415,1.7073,-16.0976,-7.16,12.39,-36.15,6,S01
760,-10.74997,3.56018,-3.86903,-27.3171,5.5488,-14.6951,-7.16,12.39,-36.15,6,S01
780,-12.13621,4.78601,-2.62165,-32.2561,11.1585,-7.4390,-7.16,12.39,-36.15,6,S01
800,-13.76187,4.39097,-2.02549,-37.3780,6.9512,1.7683,-8.62,11.83,-35.69,6,S01
820,-13.50569,2.75094,-2.98078,-44.0244,2.0122,5.1220,-8.62,11.83,-35.69,6,S01
840,-12.17691,2.03986,-4.09408,-38.4146,3.6585,1.0976,-8.62,11.83,-35.69,6,S01
860,-10.70926,2.32716,-4.27604,-24.6341,7.6829,-2.9878,-8.62,11.83,-35.69,6,S01
880,-9.46667,2.76291,-4.31435,-13.1098,11.5854,-6.7073,-8.81,11.65,-36.42,6,S01
900,-8.61913,3.31358,-4.53462,-11.3415,14.7561,-11.0976,-8.81,11.65,-36.42,6,S01
920,-8.00382,3.57694,-4.46040,-20.5488,17.3171,-12.0732,-8.81,11.65,-36.42,6,S01
940,-7.93917,3.22499,-4.06535,-28.6585,20.8537,-9.5732,-9.27,10.83,-36.97,6,S01
960,-8.11634,2.67911,-3.89776,-32.0732,24.0854,-10.3049,-9.27,10.83,-36.97,6,S01
980,-8.31267,2.08296,-3.88340,-33.6585,27.2561,-14.0854,-9.27,10.83,-36.97,6,S01
1000,-8.39886,1.62087,-3.70622,-34.3293,31.2805,-15.6707,-10.28,9.72,-37.52,6,S01
1020,-8.24084,1.61369,-3.35428,-35.6707,35.6098,-15.0610,-10.28,9.72,-37.52,6,S01
1040,-7.88889,2.10929,-2.97839,-39.9390,38.6585,-15.7317,-10.28,9.72,-37.52,6,S01
1060,-7.07965,1.76453,-2.75812,-51.1585,34.7561,-22.2561,-10.28,9.72,-37.52,6,S01
1080,-6.54575,1.24977,-3.09810,-56.8902,27.9878,-34.3902,-12.11,8.81,-37.61,6,S01
1100,-6.69179,0.84276,-3.22260,-54.3902,28.4756,-38.1707,-12.11,8.81,-37.61,6,S01
1120,-7.16106,0.56982,-3.07655,-53.0488,29.0854,-34.3293,-12.11,8.81,-37.61,6,S01
1140,-7.69496,0.67516,-2.98557,-50.0000,25.6098,-29.3293,-13.67,8.44,-37.25,6,S01
1160,-8.13550,0.92895,-2.89220,-48.5976,20.2439,-25.4268,-13.67,8.44,-37.25,6,S01
1180,-8.34619,1.11809,-2.89459,-49.3293,14.6341,-23.7195,-13.67,8.44,-37.25,6,S01
1200,-8.43717,1.33596,-2.90656,-48.8415,10.8537,-23.8415,-15.23,8.35,-36.70,6,S01
1220,-8.56645,1.43892,-2.96402,-47.5610,8.6585,-25.0000,-15.23,8.35,-36.70,6,S01
1240,-8.65504,1.33596,-2.98318,-47.2561,7.6829,-26.5244,-15.23,8.35,-36.70,6,S01
1260,-8.73644,1.08218,-3.03585,-48.2317,6.5854,-28.2927,-15.23,8.35,-36.70,6,S01
1280,-8.68616,0.91459,-3.00951,-50.6098,6.0366,-30.0610,-16.51,8.90,-35.69,6,S01
1300,-8.50899,0.74699,-2.98557,-53.7195,5.0000,-31.1585,-16.51,8.90,-35.69,6,S01
1320,-8.00382,0.71347,-2.98796,-54.9390,5.0610,-30.9146,-16.51,8.90,-35.69,6,S01
1340,-8.42759,0.71108,-2.83952,-57.0732,6.8902,-27.7439,-17.98,9.36,-34.40,6,S01
1360,-8.92558,0.44772,-2.86107,-61.1585,3.2317,-22.7439,-17.98,9.36,-34.40,6,S01
1380,-9.05487,0.06704,-2.66954,-61.3415,1.9512,-20.4878,-17.98,9.36,-34.40,6,S01
1400,-9.06924,0.16520,-2.71742,-59.3293,2.3780,-22.7439,-19.36,10.37,-32.29,6,S01
1420,-9.13388,0.35913,-2.93290,-56.7683,-0.9756,-26.2195,-19.36,10.37,-32.29,6,S01
1440,-9.26556,0.48123,-2.82755,-55.6098,-4.7561,-27.8049,-19.36,10.37,-32.29,6,S01
1460,-9.18895,0.45250,-2.78206,-56.5244,-8.9024,-27.0732,-19.36,10.37,-32.29,6,S01
1480,-9.14585,0.15323,-2.71024,-56.5244,-11.4024,-25.6707,-20.92,11.19,-29.63,6,S01
1500,-9.42118,-0.18914,-2.82516,-55.6707,-12.1951,-25.3659,-20.92,11.19,-29.63,6,S01
1520,-9.89524,-0.12689,-3.04303,-58.2317,-12.9268,-26.4634,-20.92,11.19,-29.63,6,S01
1540,-10.41717,0.20111,-2.81558,-67.0122,-13.0488,-26.5854,-23.21,12.20,-26.88,6,S01
1560,-11.04445,0.67277,-2.66714,-79.6341,-14.5732,-26.2805,-23.21,12.20,-26.88,6,S01
1580,-11.15459,1.46286,-3.72538,-93.0488,-17.7439,-26.8293,-23.21,12.20,-26.88,6,S01
1600,-10.55843,1.88663,-5.79157,-107.8659,-16.1585,-24.9390,-26.51,12.94,-22.66,6,S01
1620,-10.65659,1.09415,-6.95276,-115.4268,-4.6341,-20.8537,-26.51,12.94,-22.66,6,S01
1640,-11.69807,0.92416,-5.69820,-110.1829,8.7805,-20.3049,-26.51,12.94,-22.66,6,S01
1660,-12.30859,2.24816,-3.97677,-108.0488,10.4878,-26.7073,-26.51,12.94,-22.66,6,S01
1680,-11.28866,3.45723,-4.01986,-115.2439,3.8415,-32.6829,-29.63,13.94,-18.53,6,S01
1700,-9.91678,3.23457,-3.86424,-121.0976,0.4878,-31.5244,-29.63,13.94,-18.53,6,S01
1720,-9.20331,2.33914,-2.98557,-116.3415,-0.8537,-26.6463,-29.63,13.94,-18.53,6,S01
1740,-8.93516,1.77171,-2.51152,-105.9146,-0.4268,-21.8293,-32.29,14.77,-14.59,6,S01
1760,-8.71489,1.54426,-2.67193,-95.5488,4.1463,-17.9268,-32.29,14.77,-14.59,6,S01
1780,-8.71968,1.49398,-2.80122,-83.3537,12.0732,-16.4024,-32.29,14.77,-14.59,6,S01
1800,-8.71729,1.28090,-2.65996,-73.7195,16.3415,-16.0366,-33.85,15.32,-12.48,6,S01
1820,-8.31027,1.14922,-2.29365,-72.5000,15.7927,-16.4634,-33.85,15.32,-12.48,6,S01
1840,-7.73567,1.51553,-1.99437,-78.1707,13.0488,-16.9512,-33.85,15.32,-12.48,6,S01
1860,-7.35020,2.09732,-1.89860,-84.0854,12.1341,-15.4268,-33.85,15.32,-12.48,6,S01
1880,-7.13712,2.70784,-1.91536,-89.4512,13.1098,-13.9024,-35.41,15.78,-8.99,6,S01
1900,-6.97431,2.93529,-1.91297,-97.7439,13.8415,-13.5976,-35.41,15.78,-8.99,6,S01
1920,-6.90248,2.83474,-2.11408,-110.7317,12.8049,-15.8537,-35.41,15.78,-8.99,6,S01
1940,-7.13472,2.25294,-2.65038,-132.5610,15.6098,-26.8902,-36.61,16.51,-3.30,6,S01
1960,-7.54174,2.20985,-2.54264,-136.6464,20.2439,-33.2317,-36.61,16.51,-3.30,6,S01
1980,-7.85059,2.12605,-2.49476,-138.9024,22.7439,-37.1951,-36.61,16.51,-3.30,6,S01
2000,-8.06367,1.86029,-2.55222,-139.9390,24.3293,-38.7805,-36.42,18.35,2.20,6,S01
2020,-8.22169,1.65439,-2.63602,-136.5854,24.8780,-39.6341,-36.42,18.35,2.20,6,S01
2040,-8.32224,1.71904,-2.70305,-129.7561,25.3049,-39.7561,-36.42,18.35,2.20,6,S01
2060,-8.55448,2.14760,-2.57856,-121.6463,26.2195,-38.8415,-36.42,18.35,2.20,6,S01
2080,-8.65265,2.44927,-2.60010,-115.1829,25.6098,-36.0976,-35.32,20.37,6.33,6,S01
2100,-8.94234,2.59531,-2.47800,-108.2927,24.6951,-33.4146,-35.32,20.37,6.33,6,S01
2120,-9.27274,2.83474,-2.51152,-102.8659,21.8293,-33.1707,-35.32,20.37,6.33,6,S01
2140,-9.40203,3.24893,-2.87304,-101.5854,17.3171,-34.3293,-34.13,21.93,10.00,6,S01
2160,-9.10515,3.32794,-3.21781,-101.8902,14.0244,-34.2683,-34.13,21.93,10.00,6,S01
2180,-8.58082,3.19626,-3.17711,-102.6829,14.3293,-32.2561,-34.13,21.93,10.00,6,S01
2200,-8.00860,2.76291,-3.07176,-103.7805,15.1220,-29.3293,-32.39,23.21,13.85,6,S01
2220,-7.93199,2.11647,-3.32555,-103.9634,15.7927,-26.2805,-32.39,23.21,13.85,6,S01
2240,-8.54251,1.56820,-4.04859,-105.1220,18.7195,-20.9146,-32.39,23.21,13.85,6,S01
2260,-9.16022,0.65122,-3.91691,-108.9634,22.5610,-11.4634,-32.39,23.21,13.85,6,S01
2280,-8.95671,-0.21308,-3.09331,-107.1341,20.6098,-5.4268,-30.46,24.04,17.71,6,S01
2300,-8.76038,-0.39265,-2.67193,-98.5976,15.3049,-6.7683,-30.46,24.04,17.71,6,S01
2320,-9.19852,-0.76136,-2.48758,-88.8415,14.4512,-7.0732,-30.46,24.04,17.71,6,S01
2340,-9.76834,-1.47004,-2.35350,-78.5366,16.8293,-5.4268,-28.44,25.05,20.37,6,S01
2360,-10.06044,-1.87227,-2.46363,-69.0854,18.8415,-6.3415,-28.44,25.05,20.37,6,S01
2380,-10.09874,-1.67834,-2.46124,-58.1098,20.0610,-10.5488,-28.44,25.05,20.37,6,S01
2400,-10.04128,-1.06063,-2.09493,-49.2683,20.8537,-15.0000,-27.34,25.50,21.28,6,S01
2420,-9.84735,-0.49560,-1.78129,-43.5976,20.4878,-17.6220,-27.34,25.50,21.28,6,S01
2440,-9.53850,-0.11732,-1.54905,-39.4512,20.3049,-18.5976,-27.34,25.50,21.28,6,S01
2460,-9.22246,-0.12210,-1.25696,-36.7073,20.4268,-18.5976,-27.34,25.50,21.28,6,S01
2480,-9.07402,-0.01676,-1.09894,-33.3537,18.4146,-17.8659,-26.88,25.69,21.47,6,S01
2500,-8.86812,-0.01676,-1.24977,-32.6829,15.0000,-15.3049,-26.88,25.69,21.47,6,S01
2520,-8.88249,-0.06704,-1.24498,-32.3780,12.2561,-11.7683,-26.88,25.69,21.47,6,S01
2540,-8.81066,-0.13408,-1.34075,-30.0000,7.3780,-8.2317,-26.42,25.50,22.48,6,S01
2560,-8.54251,-0.18914,-1.47722,-28.4146,2.0732,-5.6707,-26.42,25.50,22.48,6,S01
2580,-8.22169,-0.25379,-1.62806,-26.3415,-1.8293,-4.6951,-26.42,25.50,22.48,6,S01
2600,-7.70694,-0.35434,-1.87227,-22.5000,-3.7195,-6.5854,-26.70,25.78,23.39,6,S01
2620,-6.92164,-0.66319,-2.66475,-15.5488,-3.1098,-9.7561,-26.70,25.78,23.39,6,S01
2640,-6.44519,-1.07500,-3.10767,-4.5122,2.0732,-12.4390,-26.70,25.78,23.39,6,S01
2660,-6.61997,-0.68474,-3.37822,4.7561,7.1951,-16.4634,-26.70,25.78,23.39,6,S01
2680,-7.52019,0.18196,-3.17950,9.9390,11.1585,-17.7439,-27.34,27.16,21.74,6,S01
2700,-8.44435,1.09176,-2.84910,7.6829,10.1220,-16.5854,-27.34,27.16,21.74,6,S01
2720,-8.65983,1.57538,-2.43011,3.2927,3.8415,-15.6707,-27.34,27.16,21.74,6,S01
2740,-8.38689,2.05662,-1.67355,1.2805,-3.7195,-16.8293,-26.79,27.80,20.18,6,S01
2760,-8.60237,2.55940,-1.04627,-2.3171,-13.2317,-15.9756,-26.79,27.80,20.18,6,S01
2780,-9.06205,2.55461,-1.14682,-8.2927,-19.2073,-11.2805,-26.79,27.80,20.18,6,S01
2800,-9.37091,1.99676,-1.60172,-11.5244,-14.2683,-8.0488,-25.96,27.43,20.18,6,S01
2820,-9.67018,1.85311,-2.13084,-9.4512,-3.8415,-10.4878,-25.96,27.43,20.18,6,S01
2840,-9.99819,2.19309,-2.58095,-8.5366,4.7561,-14.2683,-25.96,27.43,20.18,6,S01
2860,-11.16895,2.26252,-2.09972,-7.5610,17.0732,-13.2927,-25.96,27.43,20.18,6,S01
2880,-13.12741,2.27210,-1.52750,-2.8659,32.5610,-7.6829,-25.23,28.72,18.53,6,S01
2900,-15.52640,2.55940,-1.62327,-1.8902,42.5000,0.9146,-25.23,28.72,18.53,6,S01
2920,-17.64287,3.82593,-1.62327,-7.8049,42.8049,11.5244,-25.23,28.72,18.53,6,S01
2940,-18.50000,5.57131,-1.40779,-14.6951,35.2439,26.8293,-26.33,29.54,17.52,6,S01
2960,-17.87750,6.11958,-1.42216,-14.8171,23.4146,41.8902,-26.33,29.54,17.52,6,S01
2980,-15.62695,5.08050,-1.36230,-9.7561,2.4390,47.6220,-26.33,29.54,17.52,6,S01
3000,-12.04762,2.75812,-2.10450,-12.9878,-29.8171,41.0976,-26.06,29.45,20.37,6,S01
3020,-8.19056,-0.36152,-2.07577,-26.9512,-53.4756,26.0366,-26.06,29.45,20.37,6,S01
3040,-4.32872,-1.82199,-0.77812,-42.3780,-52.1341,2.3171,-26.06,29.45,20.37,6,S01
3060,-0.41899,-2.06380,-0.32561,-45.7317,-34.8171,-20.7317,-26.06,29.45,20.37,6,S01
3080,2.92811,-1.86508,-1.51553,-39.3293,-23.8415,-33.0488,-22.02,32.02,22.57,6,S01
3100,4.13000,-1.24259,-3.38780,-23.2317,-23.2317,-23.7195,-22.02,32.02,22.57,6,S01
3120,3.09570,-0.62249,-3.62243,6.4024,-8.4756,-4.0854,-22.02,32.02,22.57,6,S01
3140,0.76854,0.32322,-1.25217,25.0610,13.1098,4.3293,-22.20,32.02,21.28,6,S01
3160,-1.18752,0.73981,0.96726,22.6220,15.2439,3.2317,-22.20,32.02,21.28,6,S01
3180,-1.88184,0.88585,1.44370,5.7317,3.4146,-0.8537,-22.20,32.02,21.28,6,S01
3200,-1.53468,0.44532,0.98641,-14.8171,-12.7439,-3.4756,-19.27,30.55,24.04,6,S01
3220,-0.66080,-0.05986,0.10056,-29.1463,-29.0244,-5.0000,-19.27,30.55,24.04,6,S01
3240,0.33758,0.10295,-1.27850,-39.6341,-35.9146,-4.0854,-19.27,30.55,24.04,6,S01
3260,1.04148,0.83558,-2.02789,-51.9512,-24.4512,-0.7927,-19.27,30.55,24.04,6,S01
3280,1.28808,1.19471,-1.46286,-60.4878,-9.1463,2.6220,-13.58,28.17,25.69,6,S01
3300,-0.35913,3.23457,-6.57448,-47.5000,-37.5000,2.2561,-13.58,28.17,25.69,6,S01
3320,-6.37097,4.87938,-10.58477,-22.1951,-55.7317,20.9146,-13.58,28.17,25.69,6,S01
3340,-18.66759,6.83784,-11.86327,7.2561,-50.8537,41.4024,-9.91,23.94,25.14,6,S01
3360,-29.70486,7.77397,-9.44034,19.5122,-43.1098,58.0488,-9.91,23.94,25.14,6,S01
3380,-26.90843,6.38534,-12.19367,-33.9024,-49.7561,30.1220,-9.91,23.94,25.14,6,S01
3400,-17.80568,2.74376,-13.68526,-72.3781,-54.3293,-14.2683,-5.87,21.19,24.04,6,S01
3420,-11.98777,1.51314,-11.78666,-17.2561,-18.7195,-39.6341,-5.87,21.19,24.04,6,S01
3440,-12.45224,1.12527,-8.33661,-2.8049,42.8049,-46.1585,-5.87,21.19,24.04,6,S01
3460,-13.79060,3.39258,-7.27358,-27.5610,89.0244,-31.5244,-5.87,21.19,24.04,6,S01
3480,-14.51365,1.66876,-5.02064,-41.6463,137.6220,-4.3293,-3.58,25.41,19.82,6,S01
3500,-13.02206,-0.83318,-3.59370,-38.1098,163.9634,1.8902,-3.58,25.41,19.82,6,S01
3520,-9.29908,-1.32878,-2.93529,-20.6098,152.5000,-6.8902,-3.58,25.41,19.82,6,S01
3540,-9.55765,-0.29209,-1.91536,-6.4024,140.6707,-10.6098,-2.39,28.26,13.39,6,S01
3560,-9.40921,0.08859,-0.79727,-3.9634,146.8902,-11.5854,-2.39,28.26,13.39,6,S01
3580,-8.28394,-1.51792,0.25139,1.2195,144.5732,-16.8902,-2.39,28.26,13.39,6,S01
3600,-7.31907,-1.60651,-1.76932,16.5244,109.2073,-29.2683,-0.28,28.99,8.62,6,S01
3620,-8.35576,0.39504,-5.18824,28.5366,61.9512,-30.4878,-0.28,28.99,8.62,6,S01
3640,-9.44752,1.16837,-8.24324,19.5732,45.4268,-37.1341,-0.28,28.99,8.62,6,S01
3660,-10.34295,1.21386,-9.53850,16.1585,43.0488,-45.3659,-0.28,28.99,8.62,6,S01
3680,-11.08036,0.99359,-10.87207,20.3659,29.1463,-41.1585,2.75,28.62,6.33,6,S01
3700,-12.02847,1.81720,-12.12184,30.4268,9.0854,-32.1341,2.75,28.62,6.33,6,S01
3720,-12.96700,2.39181,-13.01249,36.2195,-7.5000,-21.8902,2.75,28.62,6.33,6,S01
3740,-13.42190,2.55701,-13.99411,44.6951,-19.1463,-9.1463,3.76,28.62,6.15,6,S01
3760,-13.49133,3.12443,-14.37958,49.5122,-21.7073,5.9756,3.76,28.62,6.15,6,S01
3780,-13.42668,3.16513,-14.06833,44.8780,-16.4024,18.2927,3.76,28.62,6.15,6,S01
3800,-13.32134,2.80361,-13.31655,40.6098,-10.0610,28.2317,2.02,29.36,5.60,6,S01
3820,-13.16332,2.46842,-11.85609,38.7805,-8.7195,39.0244,2.02,29.36,5.60,6,S01
3840,-12.74434,2.23618,-10.16817,39.9390,-14.4512,51.4024,2.02,29.36,5.60,6,S01
3860,-12.03086,2.05423,-8.97107,43.8415,-23.4146,66.2805,2.02,29.36,5.60,6,S01
3880,-11.24317,1.88663,-8.02536,49.3293,-30.3659,81.9512,-2.02,30.18,5.96,6,S01
3900,-10.34535,1.66397,-6.97431,55.6098,-32.6220,91.3415,-2.02,30.18,5.96,6,S01
3920,-9.74440,1.46525,-6.23929,63.2927,-34.5732,98.4756,-2.02,30.18,5.96,6,S01
3940,-9.23922,1.28090,-6.16028,68.5976,-38.2927,103.0488,-7.61,30.09,6.42,6,S01
3960,-8.76278,0.93134,-6.65109,69.4512,-43.7805,102.7439,-7.61,30.09,6.42,6,S01
3980,-8.50181,1.05824,-6.77799,69.0244,-47.1951,93.4756,-7.61,30.09,6.42,6,S01
4000,-8.20732,1.33596,-6.50744,70.3049,-48.5976,83.7805,-11.93,29.91,6.79,6,S01
4020,-7.85538,0.81163,-6.15549,75.0610,-46.7073,75.0000,-11.93,29.91,6.79,6,S01
4040,-7.30232,0.39504,-6.31351,84.4512,-42.1951,61.5244,-11.93,29.91,6.79,6,S01
4060,-6.70855,0.39744,-6.52181,92.8659,-35.9146,50.9146,-11.93,29.91,6.79,6,S01
4080,-6.31351,0.82121,-6.48350,101.4024,-31.0976,49.8171,-15.41,30.00,5.69,6,S01
4100,-5.55455,1.56102,-5.85861,109.0244,-25.4268,60.3049,-15.41,30.00,5.69,6,S01
4120,-5.24330,1.69749,-4.91290,113.5366,-18.7805,86.5854,-15.41,30.00,5.69,6,S01
4140,-5.15232,1.33836,-3.58891,118.4146,-16.9512,116.9512,-21.83,27.16,2.75,6,S01
4160,-4.18746,0.85473,-3.13162,122.7439,-25.4878,145.2439,-21.83,27.16,2.75,6,S01
4180,-2.85149,1.02232,-3.47638,113.2927,-23.9024,174.7561,-21.83,27.16,2.75,6,S01
4200,-3.76129,0.83318,-2.97360,110.5488,-23.9024,205.0000,-29.17,20.09,-0.83,6,S01
4220,-7.66863,0.21548,-3.17471,126.7683,-52.2561,200.8537,-29.17,20.09,-0.83,6,S01
4240,-9.71328,0.89543,-4.20901,133.6585,-82.3781,139.1464,-29.17,20.09,-0.83,6,S01
4260,-9.82341,-0.06943,-4.73334,119.2073,-82.2561,84.1463,-29.17,20.09,-0.83,6,S01
4280,-9.94791,-2.00874,-5.18345,116.1585,-71.1585,48.9634,-29.72,20.09,-4.86,6,S01
4300,-8.04212,-0.77572,-5.95199,125.7927,-69.2073,13.5976,-29.72,20.09,-4.86,6,S01
4320,-6.11479,1.03669,-5.61919,126.5854,-56.4024,6.3415,-29.72,20.09,-4.86,6,S01
4340,-5.67426,1.61609,-4.41012,125.0610,-35.7927,22.5000,-28.81,20.09,-11.01,6,S01
4360,-5.93044,1.77889,-3.52905,125.9146,-26.4634,36.0366,-28.81,20.09,-11.01,6,S01
4380,-6.28478,1.54426,-3.40695,123.9634,-26.2195,41.1585,-28.81,20.09,-11.01,6,S01
4400,-6.51223,1.06063,-3.67271,117.3781,-26.4634,42.8049,-27.61,19.91,-16.88,6,S01
4420,-6.64152,0.61052,-4.30717,110.3049,-26.8902,44.0854,-27.61,19.91,-16.88,6,S01
4440,-6.80193,0.23224,-4.68785,106.2195,-25.1829,45.6098,-27.61,19.91,-16.88,6,S01
4460,-7.06050,-0.08859,-4.64475,107.3171,-22.1951,46.5854,-27.61,19.91,-16.88,6,S01
4480,-7.29753,-0.11971,-4.43646,110.8537,-22.4390,47.5000,-26.15,20.37,-21.93,6,S01
4500,-7.50582,0.00958,-4.48913,112.2561,-28.3537,48.2927,-26.15,20.37,-21.93,6,S01
4520,-7.76200,0.37589,-4.78362,109.5122,-35.4268,46.5854,-26.15,20.37,-21.93,6,S01
4540,-7.75003,0.61770,-4.77164,104.8781,-37.2561,43.7195,-25.05,20.18,-23.85,6,S01
4560,-7.53455,0.74699,-4.64715,99.3293,-36.4024,39.8171,-25.05,20.18,-23.85,6,S01
4580,-7.52737,0.71347,-4.56574,91.7683,-34.2683,39.2073,-25.05,20.18,-23.85,6,S01
4600,-7.60398,0.48363,-4.38857,84.4512,-32.9878,42.8049,-24.40,18.17,-25.23,6,S01
4620,-7.88889,0.26336,-4.24492,78.6585,-33.4756,45.6098,-24.40,18.17,-25.23,6,S01
4640,-8.20732,0.28012,-4.27365,73.6585,-34.8171,45.1829,-24.40,18.17,-25.23,6,S01
4660,-8.31027,-0.42138,-4.81713,68.5366,-32.2561,47.0122,-24.40,18.17,-25.23,6,S01
4680,-8.16662,-0.53391,-4.66869,67.4390,-31.2195,46.8293,-23.67,16.15,-26.79,6,S01
4700,-8.31027,-0.71587,-4.38139,69.6341,-32.7439,47.6829,-23.67,16.15,-26.79,6,S01
4720,-8.49463,-1.00796,-4.26647,73.9024,-35.9146,48.4756,-23.67,16.15,-26.79,6,S01
4740,-8.52336,-1.57299,-4.56814,77.2561,-40.0610,48.2927,-21.93,14.68,-27.61,6,S01
4760,-8.53772,-2.27928,-5.50427,82.2561,-42.1951,47.8049,-21.93,14.68,-27.61,6,S01
4780,-8.59758,-2.15957,-5.32949,88.7195,-41.8902,47.5610,-21.93,14.68,-27.61,6,S01
4800,-8.78193,-1.87945,-4.35266,97.8049,-45.4268,50.2439,-18.72,13.94,-28.44,6,S01
4820,-9.02135,-1.91536,-4.19464,109.3293,-52.9268,53.1707,-18.72,13.94,-28.44,6,S01
4840,-9.36612,-1.24259,-6.56011,107.5000,-53.2927,50.1220,-18.72,13.94,-28.44,6,S01
4860,-10.49379,0.37110,-7.42921,81.7073,-38.9634,44.2683,-18.72,13.94,-28.44,6,S01
4880,-10.58955,1.98240,-8.08282,78.9634,-33.3537,43.1707,-15.69,13.94,-29.45,6,S01
4900,-9.78271,4.50589,-7.36456,90.8537,-42.2561,39.5122,-15.69,13.94,-29.45,6,S01
4920,-8.97826,6.05972,-5.25048,100.7927,-55.6707,38.3537,-15.69,13.94,-29.45,6,S01
4940,-8.42520,7.30710,-3.64637,105.7927,-70.6098,36.2805,-11.65,16.15,-30.18,6,S01
4960,-8.26000,7.45794,-3.62003,93.0488,-75.6098,33.0488,-11.65,16.15,-30.18,6,S01
4980,-8.95431,5.68862,-3.29203,63.6585,-61.9512,38.9024,-11.65,16.15,-30.18,6,S01
5000,-9.32781,3.08134,-2.82037,48.1098,-54.5122,50.0000,-10.18,17.61,-30.18,6,S01
5020,-9.04769,2.53785,-3.11486,51.2805,-59.7561,55.6707,-10.18,17.61,-30.18,6,S01
5040,-8.08282,3.45004,-3.11007,56.8902,-61.4024,57.7439,-10.18,17.61,-30.18,6,S01
5060,-7.31189,4.67588,-2.78925,57.3171,-57.5610,58.5976,-10.18,17.61,-30.18,6,S01
5080,-6.79714,4.73094,-2.68390,49.9390,-47.9878,58.2317,-8.99,19.36,-30.46,6,S01
5100,-6.86896,4.16352,-2.40138,40.0000,-36.5244,52.8049,-8.99,19.36,-30.46,6,S01
5120,-7.46033,3.62722,-2.27928,33.3537,-30.3049,44.5122,-8.99,19.36,-30.46,6,S01
5140,-8.46111,3.21302,-2.28886,29.5732,-27.1341,38.8415,-8.62,19.82,-30.83,6,S01
5160,-9.17458,3.16035,-1.78607,27.3780,-25.7317,37.1341,-8.62,19.82,-30.83,6,S01
5180,-9.31823,3.05979,-1.39582,23.9634,-30.4878,35.3659,-8.62,19.82,-30.83,6,S01
5200,-9.13627,3.20823,-1.20189,18.8415,-39.2073,31.0976,-8.26,20.92,-30.64,6,S01
5220,-9.02854,3.20344,-1.18752,14.5122,-43.5976,29.0854,-8.26,20.92,-30.64,6,S01
5240,-8.82742,3.40695,-1.08936,7.3171,-43.1707,27.3780,-8.26,20.92,-30.64,6,S01
5260,-8.70532,3.61764,-0.91459,-2.3780,-44.5122,25.3659,-8.26,20.92,-30.64,6,S01
5280,-8.46829,3.73256,-0.99120,-12.1341,-49.0854,22.3171,-8.81,22.48,-29.91,6,S01
5300,-8.38450,3.48596,-1.20428,-19.8780,-52.0122,17.1951,-8.81,22.48,-29.91,6,S01
5320,-7.97030,3.07655,-1.43892,-23.2317,-51.7683,9.3902,-8.81,22.48,-29.91,6,S01
5340,-7.00783,2.88501,-1.21386,-22.5000,-49.4512,0.1829,-9.36,24.50,-28.62,6,S01
5360,-6.25605,2.93290,-1.14922,-13.2317,-51.0976,-5.4268,-9.36,24.50,-28.62,6,S01
5380,-6.16028,2.80840,-0.87388,-0.2439,-52.1341,-7.8659,-9.36,24.50,-28.62,6,S01
5400,-5.91847,2.62405,-0.49799,7.5610,-52.5610,-14.8171,-7.80,26.70,-27.71,6,S01
5420,-6.04296,2.30801,-0.04788,14.4512,-55.3049,-22.3171,-7.80,26.70,-27.71,6,S01
5440,-6.91924,2.08296,1.04387,21.8293,-53.2317,-25.4878,-7.80,26.70,-27.71,6,S01
5460,-8.72926,1.89142,2.15957,28.8415,-46.9512,-22.8659,-7.80,26.70,-27.71,6,S01
5480,-10.69490,1.78607,2.09493,27.6220,-34.0244,-16.3415,-5.96,27.89,-27.52,6,S01
5500,-13.27585,1.93212,1.03190,17.7439,-13.1098,-6.1585,-5.96,27.89,-27.52,6,S01
5520,-17.06587,2.00634,0.54588,21.8902,5.6707,6.0976,-5.96,27.89,-27.52,6,S01
5540,-20.02032,3.64637,0.24900,39.8171,15.7927,7.2561,-4.50,26.61,-30.18,6,S01
5560,-19.56781,5.86579,-1.00796,48.2927,23.5976,-5.6098,-4.50,26.61,-30.18,6,S01
5580,-17.51119,8.43956,-1.14922,45.7927,28.7805,-18.9634,-4.50,26.61,-30.18,6,S01
5600,-14.64533,8.31985,-1.61369,45.4268,44.9390,-11.9512,-1.65,24.95,-34.04,6,S01
5620,-11.16416,5.59764,-2.65038,25.4268,64.0854,0.2439,-1.65,24.95,-34.04,6,S01
5640,-9.30866,3.99353,-2.64080,17.7439,69.3293,-4.3293,-1.65,24.95,-34.04,6,S01
5660,-9.64145,5.16669,-2.66954,14.5122,54.1463,-28.1098,-1.65,24.95,-34.04,6,S01
5680,-10.23282,6.66546,-4.06775,0.7317,35.0610,-46.1585,1.10,24.04,-37.16,6,S01
5700,-9.22486,6.51223,-5.48751,-6.8293,36.0976,-37.4390,1.10,24.04,-37.16,6,S01
5720,-8.24084,5.38695,-4.91051,-11.7073,50.9756,-20.4878,1.10,24.04,-37.16,6,S01
5740,-7.55371,3.82593,-3.55300,-16.0366,56.7683,-13.6585,1.65,21.56,-40.55,6,S01
5760,-6.69658,2.67193,-2.87544,-19.3293,49.5122,-20.0000,1.65,21.56,-40.55,6,S01
5780,-6.12437,2.19788,-3.11246,-27.3171,42.5610,-32.6829,1.65,21.56,-40.55,6,S01
5800,-5.93044,1.97761,-3.03345,-34.5122,46.5854,-38.7805,1.56,19.27,-42.84,6,S01
5820,-6.03099,1.82438,-2.65278,-36.8902,55.6098,-37.0732,1.56,19.27,-42.84,6,S01
5840,-6.14113,1.52750,-2.45166,-38.1098,58.2317,-34.3902,1.56,19.27,-42.84,6,S01
5860,-6.22253,1.31681,-2.40138,-39.5122,51.9512,-35.9756,1.56,19.27,-42.84,6,S01
5880,-6.15070,1.18034,-2.48997,-39.6341,41.5854,-41.1585,0.92,16.97,-44.50,6,S01
5900,-5.92325,1.07260,-2.73418,-39.8171,33.4146,-46.0976,0.92,16.97,-44.50,6,S01
5920,-5.75806,0.65362,-2.66714,-38.3537,29.5122,-47.1951,0.92,16.97,-44.50,6,S01
5940,-5.88734,0.44772,-2.74854,-34.8171,26.5244,-47.3781,0.64,15.96,-45.32,6,S01
5960,-6.39491,0.43814,-2.86586,-34.6341,24.5122,-48.2317,0.64,15.96,-45.32,6,S01
5980,-6.88094,0.58419,-3.09570,-37.4390,20.1220,-47.9268,0.64,15.96,-45.32,6,S01
6000,-7.24007,0.99599,-2.97120,-41.7683,13.3537,-48.0488,-0.37,16.06,-45.14,6,S01
6020,-7.12514,1.67834,-3.29442,-56.9512,-3.4146,-54.5732,-0.37,16.06,-45.14,6,S01
6040,-7.02219,1.60172,-3.32315,-62.6829,-8.4146,-55.3049,-0.37,16.06,-45.14,6,S01
6060,-7.29034,0.97923,-3.28724,-63.5976,-13.3537,-50.9146,-0.37,16.06,-45.14,6,S01
6080,-7.80031,0.39265,-3.41174,-62.5000,-17.3171,-46.7073,-2.94,16.97,-43.85,6,S01
6100,-7.95114,0.41899,-3.43807,-62.4390,-17.9878,-44.2683,-2.94,16.97,-43.85,6,S01
6120,-7.56568,0.80924,-3.33991,-60.8537,-19.6341,-40.4268,-2.94,16.97,-43.85,6,S01
6140,-7.36696,0.93374,-3.30639,-58.6585,-21.8293,-35.3659,-5.60,17.80,-42.20,6,S01
6160,-7.71651,0.85473,-3.55539,-58.1098,-18.9024,-31.6463,-5.60,17.80,-42.20,6,S01
6180,-8.42280,0.48123,-3.62961,-58.9634,-10.9756,-27.8659,-5.60,17.80,-42.20,6,S01
6200,-9.03332,0.10295,-3.33752,-60.3659,-2.1341,-24.0854,-8.53,17.71,-41.10,6,S01
6220,-9.58878,0.10534,-2.94008,-62.0732,4.4512,-21.2805,-8.53,17.71,-41.10,6,S01
6240,-10.47942,-0.06225,-2.58574,-62.0122,11.5244,-17.5610,-8.53,17.71,-41.10,6,S01
6260,-11.77229,-0.43814,-2.69348,-60.3659,21.0976,-11.8293,-8.53,17.71,-41.10,6,S01
6280,-13.06276,-0.01915,-3.48117,-63.6585,32.9878,-5.7317,-11.56,15.69,-40.83,6,S01
6300,-13.93665,1.51074,-4.58490,-75.6707,45.9146,-0.3659,-11.56,15.69,-40.83,6,S01
6320,-14.54956,2.72221,-5.44441,-92.6829,53.9024,3.1707,-11.56,15.69,-40.83,6,S01
6340,-14.89672,2.89459,-6.25605,-106.8293,51.8293,1.3415,-17.16,12.02,-39.63,6,S01
6360,-13.67807,2.29843,-6.92643,-111.1585,49.2073,-2.6829,-17.16,12.02,-39.63,6,S01
6380,-11.88721,1.75016,-6.01423,-111.4024,48.1707,-4.3293,-17.16,12.02,-39.63,6,S01
6400,-9.64624,2.20745,-4.54659,-113.1098,38.7805,-6.5244,-22.39,9.72,-37.52,6,S01
6420,-7.51061,2.96402,-3.87382,-107.8049,22.1951,-4.7561,-22.39,9.72,-37.52,6,S01
6440,-6.32069,2.91853,-4.07014,-94.5732,10.6707,1.4024,-22.39,9.72,-37.52,6,S01
6460,-5.75087,2.70305,-4.17309,-86.0976,12.7439,5.0610,-22.39,9.72,-37.52,6,S01
6480,-5.32949,2.88741,-4.47955,-85.6098,16.3415,4.2073,-25.96,8.44,-35.41,6,S01
6500,-5.39174,3.53863,-4.49392,-91.0976,16.8293,-0.3659,-25.96,8.44,-35.41,6,S01
6520,-5.79397,3.91931,-4.31675,-100.4268,16.4634,-5.4878,-25.96,8.44,-35.41,6,S01
6540,-6.08845,3.77805,-4.22816,-109.8171,18.9024,-10.6707,-30.18,7.71,-31.93,6,S01
6560,-5.99029,3.58173,-4.03184,-118.1707,22.9878,-16.8902,-30.18,7.71,-31.93,6,S01
6580,-5.73411,3.56736,-4.04381,-125.1829,25.4268,-24.7561,-30.18,7.71,-31.93,6,S01
6600,-5.71975,3.60806,-4.12521,-133.3537,27.5000,-32.5000,-34.86,7.52,-26.61,6,S01
6620,-5.85622,3.57933,-4.15633,-142.1342,30.0000,-37.3780,-34.86,7.52,-26.61,6,S01
6640,-6.02381,3.30639,-4.37181,-149.1464,32.8049,-40.0000,-34.86,7.52,-26.61,6,S01
6660,-6.21056,3.17711,-4.39815,-150.9756,36.6463,-43.6585,-34.86,7.52,-26.61,6,S01
6680,-6.36618,3.06458,-4.03423,-150.1829,40.9146,-47.8049,-38.90,8.35,-20.46,6,S01
6700,-6.53138,3.00712,-3.43089,-149.5122,44.3902,-51.7683,-38.90,8.35,-20.46,6,S01
6720,-6.60800,3.04542,-2.72700,-148.3537,45.6707,-55.0000,-38.90,8.35,-20.46,6,S01
6740,-6.60081,3.16274,-2.17154,-145.1220,43.4756,-57.8659,-41.38,10.37,-14.31,6,S01
6760,-6.53378,3.33752,-1.68791,-141.0366,38.2927,-61.0976,-41.38,10.37,-14.31,6,S01
6780,-6.37576,3.64158,-1.30245,-137.3780,30.2439,-64.4512,-41.38,10.37,-14.31,6,S01
6800,-6.09803,3.79481,-1.53229,-134.5732,21.2805,-67.3171,-41.65,13.76,-8.07,6,S01
6820,-6.12676,3.87861,-2.26252,-132.6829,16.6463,-70.3049,-41.65,13.76,-8.07,6,S01
6840,-6.79235,3.67749,-3.27048,-123.6585,18.4146,-71.4634,-41.65,13.76,-8.07,6,S01
6860,-7.94875,3.23696,-5.08289,-107.6220,23.9634,-71.2195,-41.65,13.76,-8.07,6,S01
6880,-9.50019,3.68946,-6.61278,-104.1463,32.6220,-73.1707,-40.55,17.89,-4.04,6,S01
6900,-11.72919,4.59687,-5.83467,-120.1829,36.2195,-73.1707,-40.55,17.89,-4.04,6,S01
6920,-12.91911,4.51068,-3.69904,-137.9878,24.0854,-64.3902,-40.55,17.89,-4.04,6,S01
6940,-12.17212,3.66313,-2.73657,-149.5122,4.2073,-57.1951,-39.82,20.73,3.21,6,S01
6960,-10.30943,2.59531,-3.28484,-152.0122,-6.2195,-54.3293,-39.82,20.73,3.21,6,S01
6980,-8.51618,1.57538,-4.26647,-142.3780,-6.5854,-51.0976,-39.82,20.73,3.21,6,S01
7000,-7.46991,1.26653,-5.18584,-123.5366,-0.7927,-47.9878,-37.80,23.39,7.25,6,S01
7020,-7.82425,1.42934,-5.04458,-102.2561,13.3537,-42.0732,-37.80,23.39,7.25,6,S01
7040,-8.52575,1.57060,-4.33351,-96.7073,25.1220,-34.9390,-37.80,23.39,7.25,6,S01
7060,-8.63828,1.35512,-4.40054,-104.5122,24.6951,-31.0976,-37.80,23.39,7.25,6,S01
7080,-8.32703,1.17316,-4.51307,-102.6829,21.4024,-28.4756,-35.87,25.14,10.37,6,S01
7100,-8.12832,1.16358,-4.28562,-87.3171,22.5610,-26.8902,-35.87,25.14,10.37,6,S01
7120,-8.18578,1.46765,-3.99353,-74.6341,25.9756,-28.3537,-35.87,25.14,10.37,6,S01
7140,-8.33661,1.79326,-3.60806,-70.0000,26.8293,-29.4512,-34.13,26.88,12.02,6,S01
7160,-8.33900,1.44849,-3.23457,-69.5122,24.8171,-27.9268,-34.13,26.88,12.02,6,S01
7180,-8.41083,0.87867,-2.94487,-65.2439,23.1098,-24.4512,-34.13,26.88,12.02,6,S01
7200,-8.59040,0.65362,-2.73657,-54.8171,22.8049,-19.8780,-32.94,27.89,13.03,6,S01
7220,-8.65983,0.91937,-2.86347,-45.1829,21.4634,-14.6951,-32.94,27.89,13.03,6,S01
7240,-8.63589,1.37427,-2.96881,-39.0854,20.3049,-8.9634,-32.94,27.89,13.03,6,S01
7260,-8.82982,1.66636,-2.64799,-34.3293,20.3659,-3.5976,-32.94,27.89,13.03,6,S01
7280,-9.13627,1.58257,-2.36787,-29.8780,19.6341,-1.3415,-32.20,28.35,13.30,6,S01
7300,-9.24880,1.35272,-2.40138,-27.1951,17.0122,-2.0122,-32.20,28.35,13.30,6,S01
7320,-8.95671,1.27850,-2.61207,-26.2805,14.0244,-2.6829,-32.20,28.35,13.30,6,S01
7340,-8.54012,1.31681,-2.54504,-26.7073,13.1098,-1.5244,-31.74,28.90,13.58,6,S01
7360,-8.14986,0.78769,-2.43730,-26.5244,13.9634,3.7195,-31.74,28.90,13.58,6,S01
7380,-8.20732,0.34716,-2.70305,-22.6829,13.9634,3.9024,-31.74,28.90,13.58,6,S01
7400,-8.08282,0.15323,-3.16274,-18.4756,12.5610,1.8293,-31.10,28.90,13.58,6,S01
7420,-7.76918,0.11013,-3.35188,-15.5488,11.2195,-1.1585,-31.10,28.90,13.58,6,S01
7440,-7.28556,0.11732,-3.09570,-10.1829,9.9390,-4.2073,-31.10,28.90,13.58,6,S01
7460,-6.71334,0.29449,-3.42131,-2.9878,8.0488,-7.1951,-31.10,28.90,13.58,6,S01
7480,-6.18901,0.57940,-4.81235,0.4268,10.9146,-8.1707,-30.73,28.72,13.21,6,S01
7500,-6.16986,0.71108,-6.72771,1.2805,21.9512,-7.1951,-30.73,28.72,13.21,6,S01
7520,-7.01262,1.95127,-5.83467,15.4268,37.8049,-5.7317,-30.73,28.72,13.21,6,S01
7540,-8.38210,3.77805,-2.69827,36.7073,35.6707,2.3780,-30.83,27.98,10.55,6,S01
7560,-9.20092,5.18824,-1.43892,31.7073,10.0000,10.9146,-30.83,27.98,10.55,6,S01
7580,-8.62391,4.75010,-1.65200,-0.8537,-6.2195,7.9268,-30.83,27.98,10.55,6,S01
7600,-7.72130,3.42131,-2.31040,-31.2805,-4.4512,-5.5488,-30.55,26.79,12.39,6,S01
7620,-7.86256,2.53067,-2.62165,-45.6707,0.1829,-15.4878,-30.55,26.79,12.39,6,S01
7640,-8.69095,2.78446,-2.39899,-49.1463,3.0488,-15.9146,-30.55,26.79,12.39,6,S01
7660,-9.50019,3.76608,-2.58813,-46.2195,6.4634,-9.8171,-30.55,26.79,12.39,6,S01
7680,-10.10832,4.29520,-3.16274,-41.6463,7.6829,-4.3293,-29.63,26.79,13.12,6,S01
7700,-10.45069,4.61123,-4.15394,-43.8415,2.5610,-5.4878,-29.63,26.79,13.12,6,S01
7720,-10.51533,5.21936,-4.39336,-49.6951,1.8902,-11.0366,-29.63,26.79,13.12,6,S01
7740,-10.26394,5.41329,-4.08451,-54.8171,10.2439,-14.0244,-28.72,26.61,14.50,6,S01
7760,-10.03889,5.22894,-4.01268,-53.7195,20.0000,-14.0244,-28.72,26.61,14.50,6,S01
7780,-11.03966,4.69742,-3.65116,-46.2805,26.4024,-10.4878,-28.72,26.61,14.50,6,S01
7800,-13.12262,4.64475,-2.88741,-36.5244,29.5122,-6.8902,-27.61,27.16,14.31,6,S01
7820,-15.38275,5.84425,-2.03268,-31.5244,32.9878,-3.7195,-27.61,27.16,14.31,6,S01
7840,-16.56069,7.22091,-1.40540,-30.4878,32.8049,3.9634,-27.61,27.16,14.31,6,S01
7860,-16.02200,7.75721,-2.23618,-40.3049,23.5366,18.6585,-27.61,27.16,14.31,6,S01
7880,-13.89834,6.67264,-3.77805,-55.5488,17.2561,35.0610,-27.52,26.61,15.32,6,S01
7900,-12.02847,5.13556,-3.34470,-59.9390,13.7805,40.1220,-27.52,26.61,15.32,6,S01
7920,-10.27591,3.08134,-2.37505,-51.8293,-0.3659,28.5976,-27.52,26.61,15.32,6,S01
7940,-8.07085,1.41976,-1.49638,-53.9024,-27.1951,3.7195,-26.88,26.97,18.62,6,S01
7960,-4.74770,0.46208,-0.48602,-55.3049,-44.5122,-23.5366,-26.88,26.97,18.62,6,S01
7980,-1.12049,0.33998,-0.04310,-47.9878,-47.1341,-49.6341,-26.88,26.97,18.62,6,S01
8000,1.99437,0.12689,-0.41899,-51.0976,-54.2073,-68.4146,-22.39,29.08,22.66,6,S01
8020,4.24013,-0.08859,-2.17394,-66.9512,-72.9268,-65.7927,-22.39,29.08,22.66,6,S01
8040,4.53941,-0.57940,-5.35822,-61.2195,-75.7317,-42.3780,-22.39,29.08,22.66,6,S01
8060,2.96642,-0.22027,-4.85784,-26.7073,-32.7439,-19.4512,-22.39,29.08,22.66,6,S01
8080,0.80206,0.79248,-2.22900,6.5244,17.9878,-7.1951,-21.10,29.45,22.66,6,S01
8100,-0.63686,1.08457,0.27773,24.2073,34.6341,5.2439,-21.10,29.45,22.66,6,S01
8120,-0.74939,0.81403,0.13408,17.2561,15.7927,10.2439,-21.10,29.45,22.66,6,S01
8140,-0.00239,0.69671,-0.88107,-7.3780,-8.5976,4.5732,-20.28,28.81,22.57,6,S01
8160,0.68235,0.34237,-1.71425,-19.6341,-23.3537,0.3659,-20.28,28.81,22.57,6,S01
8180,1.01754,0.00000,-2.02310,-16.5854,-25.0610,0.2439,-20.28,28.81,22.57,6,S01
8200,1.31202,-0.07661,-1.79805,-14.2073,-20.3049,1.7073,-17.25,27.25,23.30,6,S01
8220,1.66636,-0.14126,-1.77171,-15.3049,-21.8293,3.4756,-17.25,27.25,23.30,6,S01
8240,1.67355,-0.04549,-1.00556,-12.6220,-28.4756,4.9390,-17.25,27.25,23.30,6,S01
8260,1.39103,0.61770,-1.02232,-0.6098,-38.2317,5.3049,-17.25,27.25,23.30,6,S01
8280,-1.35751,4.06296,-4.29520,-0.7927,-44.2683,4.8171,-12.94,24.68,23.03,6,S01
8300,-6.89291,9.04051,-13.84327,-29.0854,-34.5122,12.8049,-12.94,24.68,23.03,6,S01
8320,-23.90132,10.03170,-6.15070,-38.1707,-43.0488,45.5488,-12.94,24.68,23.03,6,S01
8340,-25.59402,10.14902,-8.73405,9.7561,-83.4146,77.6829,-11.01,21.28,21.83,6,S01
8360,-18.94532,4.58011,-9.92157,-39.9390,-55.3049,31.4634,-11.01,21.28,21.83,6,S01
8380,-10.67096,1.03908,-7.38851,-15.1829,4.2073,-18.7195,-11.01,21.28,21.83,6,S01
8400,-10.77391,1.60890,-6.62476,-1.4024,38.5976,-29.0244,-8.81,20.64,17.06,6,S01
8420,-14.11621,4.90572,-5.77721,-24.2683,51.8293,15.3659,-8.81,20.64,17.06,6,S01
8440,-17.70033,6.32069,-3.78044,-42.8049,105.8537,48.1098,-8.81,20.64,17.06,6,S01
8460,-16.63491,5.44681,-3.40695,-34.8171,134.3293,23.9024,-8.81,20.64,17.06,6,S01
8480,-12.78025,4.00550,-4.75488,-34.9390,102.4390,-12.4390,-7.16,22.48,12.02,6,S01
8500,-11.91594,2.70545,-5.33189,-34.3902,76.4024,-27.1951,-7.16,22.48,12.02,6,S01
8520,-13.74032,2.73897,-5.41090,-31.2195,73.5366,-27.7439,-7.16,22.48,12.02,6,S01
8540,-15.87116,4.75010,-6.25844,-31.0976,66.2805,-28.8415,-4.59,23.21,8.90,6,S01
8560,-17.35317,6.51702,-8.30788,-17.3171,17.9268,-33.5976,-4.59,23.21,8.90,6,S01
8580,-18.62689,7.58004,-9.79707,-9.9390,-27.7439,-37.8659,-4.59,23.21,8.90,6,S01
8600,-19.15122,9.08839,-10.88644,-17.8659,-40.9756,-34.9390,-2.84,23.67,9.17,6,S01
8620,-19.39543,9.27514,-10.63265,-28.3537,-26.7683,-25.7317,-2.84,23.67,9.17,6,S01
8640,-19.14164,7.90087,-9.60075,-32.2561,-16.5854,-19.7561,-2.84,23.67,9.17,6,S01
8660,-18.37310,6.67503,-8.03015,-28.1707,-25.9146,-19.8780,-2.84,23.67,9.17,6,S01
8680,-17.27656,6.17225,-6.27520,-28.0488,-36.7073,-23.4756,-2.84,25.96,9.72,6,S01
8700,-15.08826,6.09564,-4.24253,-32.8659,-29.9390,-27.7439,-2.84,25.96,9.72,6,S01
8720,-10.67096,4.87938,-1.78368,-45.9146,-0.0610,-31.4024,-2.84,25.96,9.72,6,S01
8740,-9.43794,3.32555,-1.86987,-53.3537,7.8049,-36.2805,0.46,27.98,11.10,6,S01
8760,-8.54969,1.59933,-2.39660,-53.7805,8.7195,-33.7805,0.46,27.98,11.10,6,S01
8780,-7.85777,0.23463,-2.39899,-47.3171,6.8293,-24.2073,0.46,27.98,11.10,6,S01
8800,-7.44836,-0.18914,-1.65679,-38.0488,7.6829,-13.0488,1.74,28.62,10.28,6,S01
8820,-6.86418,0.06943,-1.30484,-30.3659,11.4024,-5.9756,1.74,28.62,10.28,6,S01
8840,-5.89692,0.76854,-0.82839,-24.5732,11.7073,-3.2317,1.74,28.62,10.28,6,S01
8860,-5.20739,1.07500,-0.51236,-20.4878,4.3902,-0.2439,1.74,28.62,10.28,6,S01
8880,-6.01423,1.24498,-0.59137,-17.5000,-6.3415,0.0000,1.93,28.72,12.39,6,S01
8900,-7.22810,1.48680,-1.12288,-17.7439,-17.3171,1.4024,1.93,28.72,12.39,6,S01
8920,-7.84101,1.56581,-2.62644,-27.6220,-27.7439,1.9512,1.93,28.72,12.39,6,S01
8940,-8.85376,2.36547,-2.67193,-40.7317,-29.5122,-5.6707,1.47,30.18,14.68,6,S01
8960,-9.44752,3.69904,-3.45004,-52.8049,-35.8537,-16.7073,1.47,30.18,14.68,6,S01
8980,-9.93833,4.70939,-5.10204,-73.8415,-42.3171,-25.6707,1.47,30.18,14.68,6,S01
9000,-9.79707,4.22577,-6.73010,-92.8659,-38.9024,-24.6341,4.68,31.01,17.16,6,S01
9020,-9.59357,4.38378,-7.14669,-88.7195,-27.9878,-19.3293,4.68,31.01,17.16,6,S01
9040,-10.08198,5.36780,-6.39970,-71.0976,-13.0488,-15.4268,4.68,31.01,17.16,6,S01
9060,-10.06283,6.05015,-5.76045,-60.9756,-6.0366,-8.4756,4.68,32.48,17.16,6,S01
9080,-9.30387,5.78679,-5.00628,-64.6341,-2.0732,-2.3780,6.33,32.48,17.98,6,S01
9100,-8.03015,4.88657,-4.43167,-74.8171,3.2317,-2.3171,6.33,32.48,17.98,6,S01
9120,-6.74686,4.22337,-3.70862,-80.7927,9.6951,-6.7683,6.33,32.48,17.98,6,S01
9140,-6.06451,3.71101,-2.97120,-83.0488,16.8902,-10.4268,7.89,33.76,17.80,6,S01
9160,-5.70778,3.29442,-3.17950,-84.8171,17.6220,-11.2805,7.89,33.76,17.80,6,S01
9180,-5.54497,3.01669,-2.45166,-99.9390,27.0122,-12.9878,7.89,33.76,17.80,6,S01
9200,-5.40371,3.39977,-1.80762,-110.0610,32.5610,-18.9634,10.28,34.86,15.87,6,S01
9220,-5.04458,3.54102,-1.71664,-118.9634,25.2439,-25.8537,10.28,34.86,15.87,6,S01
9240,-4.70461,3.69904,-1.63285,-134.8780,15.0000,-32.3171,10.28,34.86,15.87,6,S01
9260,-4.35026,3.50272,-1.64960,-146.7073,11.7073,-35.1220,10.28,34.95,14.22,6,S01
9280,-4.57293,3.02627,-1.98719,-151.4634,12.5610,-33.9024,14.22,34.95,14.22,6,S01
9300,-5.07331,2.62644,-2.54743,-149.9390,16.7683,-30.3049,14.22,34.95,14.22,6,S01
9320,-5.73172,2.95684,-2.48039,-146.9512,26.1585,-31.4634,14.22,34.95,14.22,6,S01
9340,-6.34942,3.55539,-2.15718,-143.9634,31.8293,-32.5610,17.06,35.05,11.01,6,S01
9360,-6.83305,4.14197,-1.80762,-138.3537,34.0244,-30.1829,17.06,35.05,11.01,6,S01
9380,-7.23528,4.33829,-1.53468,-135.1220,34.6951,-26.9512,17.06,35.05,11.01,6,S01
9400,-7.40527,4.25928,-1.15640,-137.1342,35.6707,-26.5854,19.17,34.77,7.43,6,S01
9420,-7.47949,4.04141,-1.00317,-138.2927,37.9268,-28.7805,19.17,34.77,7.43,6,S01
9440,-7.98466,3.67271,-1.19231,-134.9390,42.5000,-31.6463,19.17,34.77,7.43,6,S01
9460,-8.23366,3.10289,-0.97444,-125.7317,46.4634,-33.9634,20.83,34.13,3.49,6,S01
9480,-8.27197,3.10289,-0.74699,-114.7561,41.7683,-36.9512,20.83,34.13,3.49,6,S01
9500,-8.08043,3.38780,-0.57221,-105.1220,32.6220,-38.3537,20.83,34.13,3.49,6,S01
9520,-8.25760,4.04141,-0.36392,-99.2683,24.6341,-37.6829,20.83,34.13,3.49,6,S01
9540,-8.57364,5.06134,0.02394,-96.7073,18.4146,-35.4268,22.11,33.21,1.10,6,S01
9560,-8.76038,5.71017,0.03112,-95.4878,11.9512,-31.2195,22.11,33.21,1.10,6,S01
9580,-8.81545,5.50188,-0.10774,-97.1341,6.8293,-26.1585,22.11,33.21,1.10,6,S01
9600,-8.65504,4.59687,-0.44053,-101.1585,4.0244,-22.9878,22.48,32.57,-0.37,6,S01
9620,-8.65504,3.83312,-1.73580,-104.5732,3.8415,-22.5000,22.48,32.57,-0.37,6,S01
9640,-9.67258,3.59609,-3.68468,-111.4634,11.2195,-19.5122,22.48,32.57,-0.37,6,S01
9660,-10.20169,2.83952,-3.25851,-123.5366,21.2805,-7.9878,21.65,32.57,-2.84,6,S01
9680,-9.09797,1.93212,-2.58095,-127.6829,8.8415,1.9512,21.65,32.57,-2.84,6,S01
9700,-8.13310,1.52511,-2.79403,-127.3171,1.1585,1.7683,21.65,32.57,-2.84,6,S01
9720,-8.94234,2.01592,-3.66552,-131.8293,19.1463,-4.5122,21.65,32.57,-2.84,6,S01
9740,-10.80024,2.15239,-3.73256,-139.4512,38.9024,-10.3049,21.10,32.20,-6.33,6,S01
9760,-11.62385,1.31921,-3.95762,-140.2439,34.8171,-16.7073,21.10,32.20,-6.33,6,S01
9780,-11.34373,0.56982,-3.64637,-143.5976,24.0244,-26.1585,21.10,32.20,-6.33,6,S01
9800,-10.39323,-0.63686,-3.16753,-144.8171,19.1463,-28.4756,21.10,31.01,-9.08,6,S01
9820,-9.21528,-0.72544,-3.00951,-136.5854,20.0610,-27.7439,21.10,31.01,-9.08,6,S01
9840,-8.66701,0.55306,-2.59053,-125.6098,25.9146,-25.3659,21.10,31.01,-9.08,6,S01
9860,-8.45393,1.71664,-2.10450,-116.2195,30.1220,-17.0122,20.28,29.91,-11.93,6,S01
9880,-8.11874,1.88663,-1.86508,-114.6341,32.9878,-10.4878,20.28,29.91,-11.93,6,S01
9900,-7.84340,1.21865,-1.93212,-120.7927,38.6585,-9.9390,20.28,29.91,-11.93,6,S01
9920,-7.92241,0.35195,-2.00634,-123.4756,44.2073,-10.9756,20.28,29.91,-11.93,6,S01
9940,-8.19535,-0.04549,-1.92494,-118.9634,44.5732,-9.8780,18.62,28.81,-15.32,6,S01
9960,-8.32943,0.06943,-1.56581,-111.4634,41.0976,-7.3171,18.62,28.81,-15.32,6,S01
9980,-8.58800,0.58658,-1.15640,-104.0244,40.8537,-4.5732,18.62,28.81,-15.32,6,S01
10000,-9.18416,1.09176,-1.15401,-99.8781,43.1098,-3.6585,16.79,27.61,-17.89,6,S01
10020,-9.78989,1.41497,-1.33836,-98.5976,43.7805,-6.2195,16.79,27.61,-17.89,6,S01
10040,-10.17536,1.30723,-1.30245,-95.4268,40.1829,-10.7927,16.79,27.61,-17.89,6,S01
10060,-9.85453,-0.07183,-1.11570,-86.4634,27.8659,-19.8171,15.78,26.61,-19.54,6,S01
10080,-9.49540,-0.42617,-1.39343,-78.4146,23.1098,-21.7683,15.78,26.61,-19.54,6,S01
10100,-9.28950,-0.19872,-1.56820,-67.5000,22.0732,-19.3902,15.78,26.61,-19.54,6,S01
10120,-9.23683,0.33519,-1.29287,-60.2439,23.1707,-14.5732,15.78,26.61,-19.54,6,S01
10140,-9.22246,0.91937,-1.02232,-57.7439,22.5610,-9.8780,15.05,26.15,-20.73,6,S01
10160,-9.39006,1.45567,-0.47645,-58.0488,21.8293,-6.5244,15.05,26.15,-20.73,6,S01
10180,-9.73243,1.43652,-0.11013,-59.4512,19.1463,-4.4512,15.05,26.15,-20.73,6,S01
10200,-9.84735,1.15161,-0.90022,-63.9024,15.4268,-5.0000,13.58,25.87,-21.47,6,S01
10220,-9.60554,1.12049,-1.27850,-71.2805,14.7561,-6.8293,13.58,25.87,-21.47,6,S01
10240,-9.76116,0.76614,-1.43892,-73.4146,11.3415,-5.9756,13.58,25.87,-21.47,6,S01
10260,-10.58237,0.39265,-1.54426,-70.4268,10.1220,-4.5732,12.02,26.33,-21.93,6,S01
10280,-11.38443,1.10373,-2.10929,-69.0854,8.4756,-5.8537,12.02,26.33,-21.93,6,S01
10300,-12.27268,2.08296,-2.88262,-71.5244,6.0366,-9.3902,12.02,26.33,-21.93,6,S01
10320,-11.92312,2.84910,-3.67749,-59.7561,-0.4268,-15.0000,12.02,26.33,-21.93,6,S01
10340,-10.31662,3.17232,-5.27203,-40.4268,-13.2927,-19.2073,11.83,27.25,-21.56,6,S01
10360,-8.43956,4.61602,-5.16429,-34.0854,-17.8659,-25.0000,11.83,27.25,-21.56,6,S01
10380,-7.08684,6.43083,-3.68707,-39.4512,-19.2683,-22.9878,11.83,27.25,-21.56,6,S01
10400,-7.05571,5.83467,-3.06937,-49.4512,-15.0610,-7.9878,11.74,28.17,-21.19,6,S01
10420,-7.82904,3.75411,-3.43329,-68.4756,4.2683,5.9146,11.74,28.17,-21.19,6,S01
10440,-8.72926,1.55623,-3.87382,-82.9878,25.7927,13.2927,11.74,28.17,-21.19,6,S01
10460,-9.54568,1.00317,-3.99832,-76.5854,33.2317,16.5244,9.17,27.61,-23.30,6,S01
10480,-9.53371,1.91297,-2.98078,-49.7561,28.2317,18.7805,9.17,27.61,-23.30,6,S01
10500,-8.85615,3.36385,-1.63045,-31.2195,17.8659,15.2439,9.17,27.61,-23.30,6,S01
10520,-7.82425,4.07972,-1.49877,-33.0488,3.5976,10.4268,9.17,27.61,-23.30,6,S01
10540,-7.18979,3.99113,-2.11887,-42.9268,-1.0976,10.1220,8.17,28.26,-23.49,6,S01
10560,-7.51779,3.45244,-2.14281,-47.1951,10.7317,15.3659,8.17,28.26,-23.49,6,S01
10580,-8.21211,2.93529,-1.75016,-45.7927,24.0244,21.2195,8.17,28.26,-23.49,6,S01
10600,-8.69813,3.08613,-1.17076,-44.6951,28.7805,21.8902,6.42,27.52,-24.95,6,S01
10620,-8.98065,3.26090,-1.05105,-44.4512,24.0244,20.6098,6.42,27.52,-24.95,6,S01
10640,-9.26556,2.99993,-0.65362,-43.2927,19.5732,19.8780,6.42,27.52,-24.95,6,S01
10660,-9.29190,2.58095,-0.49560,-42.6829,13.2927,18.3537,4.77,27.43,-25.41,6,S01
10680,-9.05487,1.95127,-0.75417,-43.4756,7.0732,14.4512,4.77,27.43,-25.41,6,S01
10700,-8.67419,1.54665,-0.79727,-41.8902,4.9390,7.8659,4.77,27.43,-25.41,6,S01
10720,-8.24084,1.48201,-0.99120,-38.3537,2.2561,0.3049,4.77,27.43,-25.41,6,S01
10740,-7.80749,1.79805,-0.94810,-32.8659,1.8293,-6.0976,4.40,27.80,-26.06,6,S01
10760,-7.57525,2.29604,-0.60094,-27.7439,3.1707,-9.4512,4.40,27.80,-26.06,6,S01
10780,-7.84101,2.79403,-0.06704,-26.9512,5.4878,-11.4024,4.40,27.80,-26.06,6,S01
10800,-8.50181,3.06458,0.31125,-26.4634,6.2195,-12.6829,4.40,27.71,-26.79,6,S01
10820,-9.23683,3.43568,0.11253,-24.9390,4.4512,-14.6951,4.40,27.71,-26.79,6,S01
10840,-9.80905,4.55377,-0.14844,-30.0000,2.8659,-18.9024,4.40,27.71,-26.79,6,S01
10860,-10.19451,5.86101,0.04549,-41.2805,3.6585,-21.0976,3.85,27.61,-27.98,6,S01
10880,-10.79546,6.31112,-0.81403,-50.4878,9.5732,-18.8415,3.85,27.61,-27.98,6,S01
10900,-12.30141,7.15866,-2.58334,-65.6098,23.4146,-16.4024,3.85,27.61,-27.98,6,S01
10920,-15.48809,7.74285,-1.34554,-70.4268,33.9634,-7.1341,3.85,27.61,-27.98,6,S01
10940,-16.34761,6.62954,-3.30400,-56.7073,26.2805,6.0976,1.83,25.69,-29.82,6,S01
10960,-13.21120,5.21457,-4.75967,-78.3537,38.5366,-1.5244,1.83,25.69,-29.82,6,S01
10980,-9.80426,4.51307,-5.18824,-89.8171,51.6463,-20.9146,1.83,25.69,-29.82,6,S01
11000,-7.77876,4.22577,-5.55934,-70.1220,42.7439,-33.0488,1.56,23.94,-32.66,6,S01
11020,-7.60398,3.20105,-5.62877,-48.9634,34.4512,-34.5732,1.56,23.94,-32.66,6,S01
11040,-7.97987,2.71742,-4.47476,-47.0122,43.9634,-36.7073,1.56,23.94,-32.66,6,S01
11060,-8.13310,2.24576,-3.97437,-51.7683,49.9390,-35.6098,1.28,21.38,-35.23,6,S01
11080,-8.16902,2.10211,-4.21858,-50.1220,48.4756,-34.8780,1.28,21.38,-35.23,6,S01
11100,-8.04212,2.26731,-4.12521,-44.7561,49.8781,-38.9634,1.28,21.38,-35.23,6,S01
11120,-7.83622,2.13563,-3.65355,-38.7805,50.5488,-41.6463,1.28,21.38,-35.23,6,S01
11140,-7.74285,1.98479,-3.40695,-35.0610,46.8293,-42.4390,1.74,18.99,-37.34,6,S01
11160,-7.84101,1.99437,-3.55300,-38.7805,41.1585,-43.4756,1.74,18.99,-37.34,6,S01
11180,-8.01339,1.96564,-3.72777,-44.8780,36.1585,-43.9634,1.74,18.99,-37.34,6,S01
11200,-8.16183,1.66158,-3.56018,-47.1341,29.4512,-43.3537,0.92,17.52,-38.72,6,S01
11220,-7.92720,1.46286,-3.56736,-49.0854,19.5732,-44.6951,0.92,17.52,-38.72,6,S01
11240,-7.51061,1.71425,-3.83551,-52.2561,12.0122,-47.8049,0.92,17.52,-38.72,6,S01
11260,-7.21134,1.98479,-3.89058,-54.2683,8.5366,-47.1951,-0.37,16.88,-39.17,6,S01
11280,-7.04135,2.15957,-3.87621,-56.0976,6.7073,-46.0366,-0.37,16.88,-39.17,6,S01
11300,-6.96713,2.01831,-3.75171,-59.7561,5.7317,-47.5610,-0.37,16.88,-39.17,6,S01
11320,-6.58166,1.59693,-3.82354,-63.7195,1.7073,-50.9146,-0.37,16.88,-39.17,6,S01
11340,-6.44519,0.77093,-3.19147,-62.4390,-1.8293,-52.8659,-1.93,16.97,-39.08,6,S01
11360,-6.26084,-0.08140,-2.34871,-54.2683,-9.5122,-53.4146,-1.93,16.97,-39.08,6,S01
11380,-5.81073,-0.83318,-1.53468,-44.6341,-18.6585,-53.5366,-1.93,16.97,-39.08,6,S01
11400,-5.21457,-0.70629,-1.54426,-37.3171,-28.5976,-54.3902,-2.39,18.81,-38.26,6,S01
11420,-6.35661,0.57940,-1.90578,-38.6585,-25.6098,-48.5366,-2.39,18.81,-38.26,6,S01
11440,-8.30788,0.41659,-1.80044,-37.9268,-13.8415,-43.1707,-2.39,18.81,-38.26,6,S01
11460,-10.31901,0.06943,-2.46124,-39.0854,-5.1220,-39.4512,-4.04,18.99,-37.80,6,S01
11480,-12.10030,0.39504,-3.21062,-45.1220,3.1098,-32.8659,-4.04,18.99,-37.80,6,S01
11500,-13.95580,1.38145,-3.42371,-46.4634,10.2439,-18.2317,-4.04,18.99,-37.80,6,S01
11520,-16.14650,2.28167,-3.83072,-40.9756,17.9268,1.8902,-4.04,18.99,-37.80,6,S01
11540,-18.61013,2.85149,-4.27365,-43.9024,31.6463,22.6829,-6.97,17.06,-38.44,6,S01
11560,-19.57978,2.82276,-4.02465,-60.0000,38.5366,37.5610,-6.97,17.06,-38.44,6,S01
11580,-18.19354,2.13323,-4.46040,-73.3537,24.8780,40.1829,-6.97,17.06,-38.44,6,S01
11600,-15.13375,2.09014,-5.18584,-78.7195,19.5122,28.0488,-11.83,14.68,-38.53,6,S01
11620,-11.37485,1.15879,-4.94642,-72.7439,21.8293,16.5854,-11.83,14.68,-38.53,6,S01
11640,-8.07804,1.45328,-5.16429,-69.3902,14.8780,11.7073,-11.83,14.68,-38.53,6,S01
11660,-5.78200,3.37582,-4.89375,-82.4390,12.5000,13.1707,-15.50,13.30,-37.89,6,S01
11680,-5.85143,3.90015,-4.43646,-88.9634,10.4268,25.8537,-15.50,13.30,-37.89,6,S01
11700,-6.61039,3.18189,-4.18506,-79.2073,4.4512,35.3049,-15.50,13.30,-37.89,6,S01
11720,-7.13712,3.16035,-4.18506,-73.3537,1.0366,19.8780,-15.50,13.30,-37.89,6,S01
11740,-7.72130,3.17950,-4.10606,-79.2683,2.0732,-4.6951,-19.08,12.66,-36.70,6,S01
11760,-8.09958,2.87065,-3.99592,-88.5366,-1.8293,-17.3171,-19.08,12.66,-36.70,6,S01
11780,-7.92720,2.20027,-3.49793,-94.6341,-7.2561,-16.2805,-19.08,12.66,-36.70,6,S01
11800,-7.22091,1.94409,-3.31836,-96.2805,-10.4878,-12.9268,-23.03,13.30,-34.50,6,S01
11820,-6.56730,1.96803,-3.31597,-92.3781,-10.4268,-12.3171,-23.03,13.30,-34.50,6,S01
11840,-6.25844,2.09014,-3.47638,-84.8171,-9.1463,-13.5366,-23.03,13.30,-34.50,6,S01
11860,-6.13873,2.19548,-3.26090,-80.1829,-4.2073,-14.6341,-25.69,13.49,-32.66,6,S01
11880,-6.30154,2.48279,-2.95205,-78.9634,1.8293,-14.6341,-25.69,13.49,-32.66,6,S01
11900,-6.61518,2.72221,-2.59292,-80.2439,5.7927,-13.9634,-25.69,13.49,-32.66,6,S01
11920,-7.00783,2.60250,-2.20267,-83.1707,6.4634,-14.6341,-25.69,13.49,-32.66,6,S01
11940,-7.18739,2.24097,-2.34632,-88.7195,6.2805,-16.7073,-28.99,13.12,-29.91,6,S01
11960,-7.37175,2.02549,-2.16436,-94.2683,10.7317,-18.8415,-28.99,13.12,-29.91,6,S01
11980,-7.44357,2.23379,-2.01592,-99.4512,13.9024,-20.9756,-28.99,13.12,-29.91,6,S01
12000,-7.26880,2.49715,-1.80283,-103.0488,17.3171,-22.3171,-32.57,12.66,-26.33,6,S01
12020,-7.14909,2.65756,-1.46525,-104.2683,22.1951,-23.4146,-32.57,12.66,-26.33,6,S01
12040,-7.22331,2.68390,-1.35272,-105.7317,25.9146,-25.6707,-32.57,12.66,-26.33,6,S01
12060,-7.66863,2.63362,-1.12767,-106.5854,30.7927,-28.2317,-35.50,12.29,-22.57,6,S01
12080,-8.29112,2.53067,-0.78769,-105.7927,35.7317,-30.1220,-35.50,12.29,-22.57,6,S01
12100,-8.83700,2.56898,-0.62010,-103.4146,38.6585,-32.6220,-35.50,12.29,-22.57,6,S01
12120,-9.24641,2.58813,-0.53630,-98.9024,39.5122,-35.5488,-35.50,12.29,-22.57,6,S01
12140,-9.63187,2.84671,-0.17238,-91.7073,37.5610,-39.7561,-37.16,12.39,-19.17,6,S01
12160,-9.64384,3.61285,0.06225,-85.9146,29.8171,-45.4878,-37.16,12.39,-19.17,6,S01
12180,-8.85855,4.57771,-0.89543,-89.0244,15.6098,-49.5732,-37.16,12.39,-19.17,6,S01
12200,-7.58483,5.54737,-2.00395,-104.1463,4.4512,-48.5976,-38.62,14.04,-14.13,6,S01
12220,-6.48589,6.46195,-2.82516,-118.2317,2.5000,-43.9024,-38.62,14.04,-14.13,6,S01
12240,-6.35182,6.75644,-3.43807,-122.7439,12.5000,-37.1951,-38.62,14.04,-14.13,6,S01
12260,-7.37893,6.08606,-4.23295,-128.2927,30.8537,-27.5000,-40.37,13.76,-8.35,6,S01
12280,-8.47308,4.08930,-4.26168,-140.9146,45.7317,-16.4024,-40.37,13.76,-8.35,6,S01
12300,-8.32464,1.86029,-4.63996,-143.1098,41.4024,-13.9024,-40.37,13.76,-8.35,6,S01
12320,-7.64947,0.99599,-4.84108,-137.6220,33.7805,-21.4024,-40.37,13.76,-8.35,6,S01
12340,-7.83383,1.62087,-4.59926,-131.3415,33.5366,-30.1829,-41.10,14.68,-3.12,6,S01
12360,-8.64786,2.35350,-3.93846,-125.9146,33.7805,-32.4390,-41.10,14.68,-3.12,6,S01
12380,-9.33739,2.60729,-3.61764,-122.6220,31.5854,-32.4390,-41.10,14.68,-3.12,6,S01
12400,-9.79229,2.28167,-3.48356,-122.1341,31.7073,-32.9268,-40.92,16.24,1.74,6,S01
12420,-9.52892,1.87705,-3.48596,-122.5610,29.2073,-35.2439,-40.92,16.24,1.74,6,S01
12440,-8.56885,1.82678,-3.83072,-124.2073,23.1098,-38.7195,-40.92,16.24,1.74,6,S01
12460,-7.70694,2.13802,-4.03902,-125.4268,22.1341,-40.4268,-39.63,18.07,6.70,6,S01
12480,-7.42921,2.63123,-3.57694,-125.0000,28.5976,-39.3293,-39.63,18.07,6.70,6,S01
12500,-7.85538,2.54504,-3.34949,-125.9146,33.4146,-36.7683,-39.63,18.07,6.70,6,S01
12520,-8.30549,1.99437,-3.45962,-128.5976,35.3659,-36.6463,-39.63,18.07,6.70,6,S01
12540,-8.46350,1.71664,-3.28484,-129.9390,35.3659,-39.2683,-37.71,19.82,11.74,6,S01
12560,-8.56167,1.56341,-2.84910,-129.5122,32.6220,-39.5732,-37.71,19.82,11.74,6,S01
12580,-8.51618,1.32399,-2.36068,-130.0000,30.3659,-37.9878,-37.71,19.82,11.74,6,S01
12600,-8.32943,1.21386,-2.28167,-130.0610,30.1829,-35.9146,-35.14,21.38,16.06,6,S01
12620,-8.43238,0.95529,-2.05662,-125.3049,32.9268,-31.6463,-35.14,21.38,16.06,6,S01
12640,-8.82263,0.53391,-2.09972,-114.8781,33.4756,-26.5854,-35.14,21.38,16.06,6,S01
12660,-9.39964,0.25857,-2.51152,-106.9512,33.0488,-24.5122,-33.03,22.75,18.72,6,S01
12680,-9.88805,0.12929,-2.48279,-102.0732,32.5610,-23.1098,-33.03,22.75,18.72,6,S01
12700,-10.25197,-0.29209,-2.94966,-91.7073,27.8049,-20.1220,-33.03,22.75,18.72,6,S01
12720,-10.25676,-0.60573,-3.49793,-80.2439,25.7317,-19.8780,-33.03,22.75,18.72,6,S01
12740,-9.65342,0.10056,-3.71341,-74.4512,24.2073,-21.8293,-30.92,23.67,20.37,6,S01
12760,-8.47308,3.16753,-3.53863,-85.3659,28.8415,-18.3537,-30.92,23.67,20.37,6,S01
12780,-9.05248,3.14119,-2.90177,-75.0610,30.1829,-13.3537,-30.92,23.67,20.37,6,S01
12800,-9.57441,3.11725,-3.42371,-56.4634,25.0000,-12.0732,-29.63,24.40,21.65,6,S01
12820,-9.74679,2.96163,-4.04620,-51.0366,28.0488,-12.7439,-29.63,24.40,21.65,6,S01
12840,-9.81862,3.14119,-3.79960,-45.0610,32.0732,-12.9268,-29.63,24.40,21.65,6,S01
12860,-9.54568,3.79002,-3.34709,-40.0610,32.6829,-12.9268,-28.44,25.05,21.93,6,S01
12880,-8.71968,4.35266,-2.94966,-44.8780,27.7439,-11.1585,-28.44,25.05,21.93,6,S01
12900,-7.88650,4.55617,-2.89938,-49.4512,21.3415,-6.0976,-28.44,25.05,21.93,6,S01
12920,-7.58483,4.25689,-2.81079,-49.7561,22.3780,0.4268,-28.44,25.05,21.93,6,S01
12940,-7.61835,3.65595,-2.82995,-47.8049,27.8049,4.8780,-27.98,25.32,22.75,6,S01
12960,-7.60398,2.84671,-3.20823,-45.1220,30.3049,7.5610,-27.98,25.32,22.75,6,S01
12980,-7.45554,2.23858,-3.44526,-37.9878,31.2805,9.3293,-27.98,25.32,22.75,6,S01
13000,-7.31668,2.02071,-3.37104,-25.5488,32.1951,11.0976,-28.17,25.69,22.57,6,S01
13020,-7.31668,2.35829,-2.97599,-13.9634,31.2195,12.1951,-28.17,25.69,22.57,6,S01
13040,-7.35738,3.03585,-2.42054,-8.8415,25.1829,13.1098,-28.17,25.69,22.57,6,S01
13060,-7.45554,3.43089,-1.71185,-10.1220,15.5488,15.4878,-28.90,25.23,22.29,6,S01
13080,-7.51061,3.07416,-0.93853,-13.7805,5.3659,18.0488,-28.90,25.23,22.29,6,S01
13100,-7.33823,2.23140,-0.68474,-17.9268,-5.0000,17.0732,-28.90,25.23,22.29,6,S01
13120,-6.88333,1.34075,-0.95529,-19.5732,-11.5854,12.0732,-28.90,25.23,22.29,6,S01
13140,-6.43083,1.01275,-1.37427,-18.9024,-13.5976,4.3902,-29.17,24.31,23.49,6,S01
13160,-6.20338,1.47243,-1.44131,-21.8293,-12.0732,-3.9634,-29.17,24.31,23.49,6,S01
13180,-6.18901,2.60489,-1.35272,-30.6707,-9.8171,-10.8537,-29.17,24.31,23.49,6,S01
13200,-6.62236,3.63919,-1.22823,-43.3537,-8.1098,-14.1463,-27.89,24.31,25.32,6,S01
13220,-7.45315,4.42209,-1.57538,-56.0366,-10.1220,-16.4024,-27.89,24.31,25.32,6,S01
13240,-8.56645,4.91051,-2.30562,-62.2561,-9.3293,-19.6951,-27.89,24.31,25.32,6,S01
13260,-10.11550,4.90333,-3.18429,-56.9512,5.7927,-20.4878,-25.96,25.05,26.79,6,S01
13280,-13.05558,5.03261,-2.69587,-45.4268,29.8171,-17.9878,-25.96,25.05,26.79,6,S01
13300,-17.49204,6.31590,-2.13084,-31.4634,40.7927,-8.9024,-25.96,25.05,26.79,6,S01
13320,-22.32114,8.66222,-1.25456,-15.7317,38.2317,6.8902,-25.96,25.05,26.79,6,S01
13340,-22.38339,9.49301,0.31125,-21.3415,25.1829,15.1829,-26.42,25.96,26.06,6,S01
13360,-19.14882,8.59758,-0.22745,-47.9268,9.5122,12.9878,-26.42,25.96,26.06,6,S01
13380,-15.75385,7.47949,-1.57060,-58.7805,14.3902,8.4756,-26.42,25.96,26.06,6,S01
13400,-12.88559,6.09803,-1.16358,-57.8659,19.5732,4.7561,-24.22,28.53,26.70,6,S01
13420,-10.27591,4.72855,-1.66397,-43.5976,3.1098,4.1463,-24.22,28.53,26.70,6,S01
13440,-7.51779,2.48039,-1.98000,-35.3659,-12.3171,-0.1220,-24.22,28.53,26.70,6,S01
13460,-4.86741,-0.06704,-2.29604,-36.5854,-21.4024,-12.0732,-20.64,30.00,27.61,6,S01
13480,-2.10211,-1.53229,-1.44370,-37.4390,-21.3415,-35.9756,-20.64,30.00,27.61,6,S01
13500,1.09176,-1.42455,-0.90261,-39.3902,-29.5122,-62.7439,-20.64,30.00,27.61,6,S01
13520,3.70144,0.54348,-1.72383,-46.4634,-45.7317,-77.4390,-20.64,30.00,27.61,6,S01
13540,4.60166,1.73819,-3.08134,-44.5732,-44.3902,-64.5122,-14.77,31.38,29.17,6,S01
13560,2.95205,0.97683,-3.73735,-27.9878,-21.8902,-34.3293,-14.77,31.38,29.17,6,S01
13580,0.51236,0.21787,-2.52349,-5.2439,10.2439,-10.4878,-14.77,31.38,29.17,6,S01
13600,-1.16358,-0.67277,-1.16837,14.4512,27.9878,10.1829,-15.50,32.20,26.61,6,S01
13620,-1.50356,-1.09415,-0.30885,20.6707,26.4024,18.1098,-15.50,32.20,26.61,6,S01
13640,-0.74460,-0.93134,-0.20590,16.1585,13.1707,11.7683,-15.50,32.20,26.61,6,S01
13660,0.49081,-0.22027,-0.78769,15.7927,1.2195,3.3537,-14.86,31.47,26.15,6,S01
13680,1.18992,0.67756,-1.02232,15.8537,0.3049,0.1829,-14.86,31.47,26.15,6,S01
13700,1.25456,1.27132,-0.64883,6.6463,3.1707,2.9878,-14.86,31.47,26.15,6,S01
13720,1.28090,1.36470,-0.53630,-8.6585,2.5610,6.1585,-14.86,31.47,26.15,6,S01
13740,1.51792,1.00796,-0.81882,-24.3293,1.5244,4.7561,-11.93,30.18,25.87,6,S01
13760,2.04225,0.27294,-1.18513,-35.2439,3.5976,-0.1829,-11.93,30.18,25.87,6,S01
13780,2.50912,-1.12288,-0.65841,-35.9756,6.4634,-4.2073,-11.93,30.18,25.87,6,S01
13800,2.89220,-0.48842,-3.70383,-25.9146,2.9268,-6.0366,-6.51,28.53,23.85,6,S01
13820,-0.54588,3.40934,-8.72687,-50.5488,-3.0488,-11.0366,-6.51,28.53,23.85,6,S01
13840,-9.23444,10.84094,-12.03326,-75.3049,-18.7805,-0.1829,-6.51,28.53,23.85,6,S01
13860,-28.20370,10.77630,-9.00699,-17.7439,-64.0854,29.9390,-4.04,24.59,22.84,6,S01
13880,-28.74718,7.62314,-12.18888,10.1829,-58.1098,29.0854,-4.04,24.59,22.84,6,S01
13900,-22.03863,3.55778,-12.07396,-22.1951,4.2683,-20.0000,-4.04,24.59,22.84,6,S01
13920,-15.40190,5.03979,-10.25197,19.0244,46.0366,-37.1341,-4.04,24.59,22.84,6,S01
13940,-15.95496,6.07888,-8.84179,35.0610,89.3902,-4.0854,-2.94,26.61,18.26,6,S01
13960,-20.55422,7.50343,-9.78031,7.7439,136.5244,30.3049,-2.94,26.61,18.26,6,S01
13980,-20.73379,9.24401,-9.09557,1.7683,185.0610,15.4268,-2.94,26.61,18.26,6,S01
14000,-16.89109,7.37654,-9.28950,12.1341,170.7317,-10.8537,-1.56,28.44,11.83,6,S01
14020,-14.96616,5.58088,-10.16817,5.6098,143.9024,-13.7195,-1.56,28.44,11.83,6,S01
14040,-15.39472,4.81235,-10.93911,-4.8171,133.4756,-9.7561,-1.56,28.44,11.83,6,S01
14060,-16.62534,5.79397,-10.98460,-17.0122,110.4878,-7.1951,-1.01,28.90,8.44,6,S01
14080,-16.34761,6.35421,-9.97424,-26.0976,88.5976,-3.2317,-1.01,28.90,8.44,6,S01
14100,-14.47056,4.94163,-7.40287,-26.4024,34.0854,-3.1098,-1.01,28.90,8.44,6,S01
14120,-13.87919,4.73573,-6.31590,-32.6829,-10.7927,-8.2317,-1.01,28.90,8.44,6,S01
14140,-12.76349,4.44124,-5.08289,-32.8049,-55.7317,-16.4634,-0.64,29.45,8.44,6,S01
14160,-11.33654,4.04859,-4.28083,-31.4634,-75.7927,-27.0732,-0.64,29.45,8.44,6,S01
14180,-10.04368,3.56497,-3.56975,-37.1341,-67.3171,-31.4634,-0.64,29.45,8.44,6,S01
14200,-8.98304,2.78685,-3.55300,-48.6585,-50.7927,-27.8049,0.46,30.92,9.91,6,S01
14220,-7.98706,1.59933,-3.74453,-59.2683,-32.9878,-24.3902,0.46,30.92,9.91,6,S01
14240,-8.33661,1.83396,-2.94966,-57.9878,-15.5488,-24.2683,0.46,30.92,9.91,6,S01
14260,-7.95354,1.92973,-1.84593,-48.0488,-11.6463,-12.9878,0.83,33.03,8.62,6,S01
14280,-7.27837,1.95846,-1.31681,-38.2317,-16.7073,-1.9512,0.83,33.03,8.62,6,S01
14300,-6.16746,1.57538,-1.16358,-36.9512,-19.3293,1.8902,0.83,33.03,8.62,6,S01
14320,-5.16190,1.16358,-1.02232,-43.8415,-20.3049,-4.8780,0.83,33.03,8.62,6,S01
14340,-4.92727,1.12049,-0.79248,-50.9146,-24.8171,-17.6829,1.47,34.68,7.98,6,S01
14360,-5.08768,1.72622,-1.60890,-55.4268,-36.2195,-30.4878,1.47,34.68,7.98,6,S01
14380,-5.47793,2.42772,-2.84192,-66.9512,-46.9512,-41.0976,1.47,34.68,7.98,6,S01
14400,-6.13873,3.71341,-4.62560,-79.9390,-48.9634,-45.9146,4.50,35.87,8.26,6,S01
14420,-7.35499,4.70221,-8.52575,-84.0244,-48.5976,-49.0244,4.50,35.87,8.26,6,S01
14440,-8.38928,5.92565,-11.85369,-79.5732,-36.9512,-48.1098,4.50,35.87,8.26,6,S01
14460,-9.05248,7.50582,-12.72279,-59.0244,-23.9024,-36.0976,6.97,36.51,8.07,6,S01
14480,-9.45710,8.02297,-12.75152,-40.9146,-15.9146,-20.0000,6.97,36.51,8.07,6,S01
14500,-10.01973,8.28394,-11.43471,-28.5976,-1.5244,-10.0000,6.97,36.51,8.07,6,S01
14520,-10.10832,7.69496,-9.25120,-22.9268,12.9878,-2.5610,6.97,36.51,8.07,6,S01
14540,-9.48822,6.00466,-7.26880,-24.3902,13.7805,3.1098,6.42,37.71,7.43,6,S01
14560,-8.29591,4.13239,-5.76284,-26.4634,7.4390,5.3049,6.42,37.71,7.43,6,S01
14580,-7.18979,2.66954,-4.04620,-29.1463,9.6951,3.2927,6.42,37.71,7.43,6,S01
14600,-6.38534,2.07338,-2.76770,-32.2561,8.1098,-3.8415,6.42,38.62,7.98,6,S01
14620,-5.64792,2.31519,-2.17154,-35.3049,-1.1585,-14.6341,6.42,38.62,7.98,6,S01
14640,-5.06852,2.80361,-1.87466,-41.0976,-8.0488,-24.8171,6.42,38.62,7.98,6,S01
14660,-5.07092,2.73418,-1.76932,-51.4024,-9.4512,-32.5610,8.17,39.63,8.07,6,S01
14680,-5.30795,2.60968,-1.97761,-62.3781,-11.2195,-40.5488,8.17,39.63,8.07,6,S01
14700,-5.32949,3.01669,-2.26731,-73.4756,-14.0244,-47.5000,8.17,39.63,8.07,6,S01
14720,-5.43005,3.44765,-2.48997,-86.7683,-15.9756,-50.1829,8.17,39.63,8.07,6,S01
14740,-6.05494,4.03184,-2.20985,-93.1707,-11.8902,-52.5000,11.10,40.09,7.34,6,S01
14760,-6.71813,4.29999,-1.85311,-90.2439,-2.5000,-54.6951,11.10,40.09,7.34,6,S01
14780,-7.07247,4.37421,-1.56341,-87.6220,6.0976,-59.5122,11.10,40.09,7.34,6,S01
14800,-7.33583,4.58250,-1.44610,-91.4634,5.9756,-64.8171,14.04,40.09,5.41,6,S01
14820,-7.24246,4.58729,-1.41497,-96.2805,-7.0732,-65.9146,14.04,40.09,5.41,6,S01
14840,-6.89051,4.37899,-1.57060,-98.1707,-25.0000,-63.9634,14.04,40.09,5.41,6,S01
14860,-6.66067,3.98635,-1.60890,-97.6829,-38.9024,-62.8659,16.15,39.63,5.32,6,S01
14880,-6.51702,3.62722,-1.86987,-94.5732,-44.6951,-59.2073,16.15,39.63,5.32,6,S01
14900,-6.29196,3.92889,-3.94325,-92.0732,-43.8415,-55.9146,16.15,39.63,5.32,6,S01
14920,-7.70694,6.29196,-6.54096,-103.9024,-29.6341,-54.2073,16.15,39.63,5.32,6,S01
14940,-9.78989,6.85460,-5.85382,-128.1707,-0.4878,-30.4878,17.71,38.90,2.84,6,S01
14960,-11.21923,2.96881,-4.53222,-147.3780,14.0244,-8.0488,17.71,38.90,2.84,6,S01
14980,-11.34852,1.06303,-4.46758,-153.4756,1.0976,-17.3780,17.71,38.90,2.84,6,S01
# DONE 750 samples in 15.0s
