timestamp,ax,ay,az,gx,gy,gz,mx,my,mz,label,subject_id
0,-9.42118,0.67038,-1.63763,-3.5976,0.5488,0.9756,13.85,21.10,37.89,5,S01
20,-9.42837,0.67038,-1.64721,-3.2927,0.6098,0.9756,13.85,21.10,37.89,5,S01
40,-9.43555,0.67995,-1.65200,-3.2317,0.6098,0.9146,13.85,21.19,37.80,5,S01
60,-9.43316,0.68474,-1.68552,-3.4146,0.6098,0.7927,13.85,21.19,37.80,5,S01
80,-9.44034,0.68714,-1.67834,-3.5366,0.5488,0.6707,13.85,21.19,37.80,5,S01
100,-9.45710,0.69192,-1.66636,-3.5976,0.3049,0.6098,13.85,21.19,37.80,5,S01
120,-9.46189,0.69432,-1.70467,-3.7195,-0.1829,0.7317,13.76,21.28,37.71,5,S01
140,-9.44273,0.69911,-1.71664,-3.4756,-0.5488,0.7927,13.76,21.28,37.71,5,S01
160,-9.39964,0.71587,-1.69509,-3.1098,-0.9146,0.6098,13.76,21.28,37.71,5,S01
180,-9.37809,0.73023,-1.67115,-2.9878,-0.9146,0.4268,13.76,21.38,37.80,5,S01
200,-9.38288,0.71587,-1.67355,-3.2317,-0.5488,0.4878,13.76,21.38,37.80,5,S01
220,-9.40682,0.69192,-1.69270,-3.4756,-0.1829,0.6707,13.76,21.38,37.80,5,S01
240,-9.43555,0.71108,-1.69749,-3.7195,0.0000,0.7927,13.67,21.38,37.71,5,S01
260,-9.42358,0.82361,-1.65918,-4.2683,-0.0610,0.8537,13.67,21.38,37.71,5,S01
280,-9.36612,0.91459,-1.57299,-5.4268,-0.3049,1.0976,13.67,21.38,37.71,5,S01
300,-9.29908,0.85952,-1.55623,-6.5244,-0.5488,1.4024,13.67,21.38,37.71,5,S01
320,-9.30866,0.77333,-1.61848,-6.7073,-0.3049,1.7073,13.85,21.38,37.71,5,S01
340,-9.39006,0.73981,-1.67355,-6.1585,0.2439,2.1951,13.85,21.38,37.71,5,S01
360,-9.46428,0.73263,-1.65679,-5.6098,0.4268,2.9878,13.85,21.38,37.71,5,S01
380,-9.42358,0.80445,-1.61369,-3.9024,-1.0366,3.1098,13.76,21.56,37.71,5,S01
400,-9.44513,0.73263,-1.64482,-2.5610,-1.7073,3.1098,13.76,21.56,37.71,5,S01
420,-9.51216,0.67277,-1.69270,-1.3415,-2.7439,3.0488,13.76,21.56,37.71,5,S01
440,-9.60314,0.67756,-1.67834,-0.5488,-3.9024,2.8659,13.58,21.38,37.80,5,S01
460,-9.71567,0.73502,-1.63285,0.1220,-5.6098,2.2561,13.58,21.38,37.80,5,S01
480,-9.77074,0.89064,-1.53947,-0.0610,-7.5610,1.1585,13.58,21.38,37.80,5,S01
500,-9.69891,0.99838,-1.44610,-1.1585,-9.1463,-0.3659,13.58,21.38,37.80,5,S01
520,-9.56962,0.96247,-1.42694,-2.1951,-9.9390,-1.9512,13.49,21.10,37.98,5,S01
540,-9.49301,0.82600,-1.49877,-3.6585,-9.6951,-3.4146,13.49,21.10,37.98,5,S01
560,-9.46189,0.71347,-1.56820,-5.2439,-8.6585,-4.7561,13.49,21.10,37.98,5,S01
580,-9.41640,0.62489,-1.54665,-6.6463,-7.4390,-5.6707,13.76,20.55,38.26,5,S01
600,-9.29908,0.52672,-1.52989,-7.1951,-6.4634,-6.2805,13.76,20.55,38.26,5,S01
620,-9.24162,0.42377,-1.59214,-6.9512,-5.5488,-6.3415,13.76,20.55,38.26,5,S01
640,-9.23444,0.34237,-1.67594,-5.9756,-4.8780,-5.6707,14.04,20.37,38.17,5,S01
660,-9.28471,0.36631,-1.67594,-4.3293,-4.2073,-4.6341,14.04,20.37,38.17,5,S01
680,-9.32542,0.43335,-1.60890,-2.5000,-3.7805,-3.4756,14.04,20.37,38.17,5,S01
700,-9.30147,0.53630,-1.61369,-1.0366,-3.8415,-2.3780,14.04,20.37,38.17,5,S01
720,-9.28950,0.61052,-1.71904,0.1829,-3.7195,-1.5854,13.85,20.18,38.35,5,S01
740,-9.37330,0.68714,-1.85551,1.7683,-2.9268,-1.2195,13.85,20.18,38.35,5,S01
760,-9.48343,0.75657,-1.82199,3.4756,-2.0122,-1.0976,13.85,20.18,38.35,5,S01
780,-9.43076,0.72784,-1.75974,5.4268,-1.8293,-1.3415,13.49,20.28,38.53,5,S01
800,-9.32542,0.57940,-1.66158,7.9268,-1.3415,-2.0732,13.49,20.28,38.53,5,S01
820,-9.35415,0.37828,-1.49398,10.3659,-0.3659,-2.5610,13.49,20.28,38.53,5,S01
840,-9.54808,0.27054,-1.27132,11.0976,-0.2439,-2.3780,12.84,20.37,38.62,5,S01
860,-9.77792,0.23942,-1.05584,9.2073,-1.8902,-2.1951,12.84,20.37,38.62,5,S01
880,-9.84496,0.21548,-0.90980,7.2561,-4.6951,-2.6829,12.84,20.37,38.62,5,S01
900,-9.73961,0.14126,-0.91459,6.4024,-6.8293,-3.7195,12.84,20.37,38.62,5,S01
920,-9.59117,0.11013,-0.97923,6.3415,-7.5610,-4.5732,12.66,19.91,38.90,5,S01
940,-9.44513,0.11732,-1.10373,6.5854,-7.4390,-4.2073,12.66,19.91,38.90,5,S01
960,-9.37330,0.27533,-1.15161,6.7073,-6.3415,-2.9268,12.66,19.91,38.90,5,S01
980,-9.34457,0.48602,-1.12288,5.7927,-4.9390,-1.4634,12.20,19.82,39.17,5,S01
1000,-9.30626,0.60573,-1.13485,3.8415,-4.0854,-0.1829,12.20,19.82,39.17,5,S01
1020,-9.33260,0.53630,-1.16598,1.9512,-3.7195,0.8537,12.20,19.82,39.17,5,S01
1040,-9.40682,0.37350,-1.15640,1.0976,-3.6585,1.2805,12.11,19.63,39.27,5,S01
1060,-9.51216,0.13408,-1.12049,1.2805,-3.8415,1.0976,12.11,19.63,39.27,5,S01
1080,-9.57681,-0.06704,-1.07500,1.7683,-4.1463,0.3049,12.11,19.63,39.27,5,S01
1100,-9.57202,-0.09816,-1.11091,1.8293,-4.9390,-0.9146,12.11,19.63,39.27,5,S01
1120,-9.45949,-0.01437,-1.08457,0.7927,-6.0366,-1.7683,12.02,19.54,39.36,5,S01
1140,-9.29429,0.08380,-1.07979,-0.6707,-7.0732,-2.2561,12.02,19.54,39.36,5,S01
1160,-9.17698,0.13168,-1.11091,-2.8659,-7.8659,-2.6829,12.02,19.54,39.36,5,S01
1180,-9.10754,0.01676,-1.16598,-4.0244,-8.8415,-3.4146,12.11,18.99,39.63,5,S01
1200,-9.02614,-0.19154,-1.15879,-3.2927,-9.7561,-5.0610,12.11,18.99,39.63,5,S01
1220,-8.86573,-0.42138,-1.12049,-1.4634,-10.1829,-7.3171,12.11,18.99,39.63,5,S01
1240,-8.64546,-0.52194,-1.03190,0.6098,-10.3049,-9.2683,12.02,18.44,40.00,5,S01
1260,-8.41801,-0.48123,-0.96007,2.3171,-10.0610,-9.8780,12.02,18.44,40.00,5,S01
1280,-8.28873,-0.37350,-0.70390,3.2927,-9.2683,-9.2683,12.02,18.44,40.00,5,S01
1300,-8.47547,-0.44772,-0.52194,3.7805,-8.4756,-7.5610,12.02,18.44,40.00,5,S01
1320,-8.79630,-0.51954,-0.59616,3.4146,-7.5000,-5.1220,11.93,17.98,40.28,5,S01
1340,-8.98304,-0.56264,-0.79966,2.0732,-6.4634,-2.3171,11.93,17.98,40.28,5,S01
1360,-8.87291,-0.53391,-0.94571,1.2805,-5.9756,0.2439,11.93,17.98,40.28,5,S01
1380,-8.63828,-0.34716,-1.10852,0.3659,-6.0366,1.8902,11.74,17.80,40.46,5,S01
1400,-8.58321,-0.06943,-1.09654,-1.5244,-5.5488,3.2317,11.74,17.80,40.46,5,S01
1420,-8.67898,-0.05028,-0.91459,-3.6585,-5.0000,4.4512,11.74,17.80,40.46,5,S01
1440,-8.76278,-0.21069,-0.78051,-5.7927,-4.8780,4.8780,11.93,17.52,40.55,5,S01
1460,-8.91601,-0.39983,-0.80924,-7.8049,-4.4512,4.9390,11.93,17.52,40.55,5,S01
1480,-9.07402,-0.56982,-0.81403,-9.5732,-3.7805,6.0366,11.93,17.52,40.55,5,S01
1500,-9.11712,-0.66319,-0.77333,-11.1585,-4.4512,7.5610,11.93,17.52,40.55,5,S01
1520,-9.12909,-0.62010,-0.78290,-13.2317,-5.4268,8.5366,12.39,17.16,40.46,5,S01
1540,-9.20092,-0.53391,-0.82361,-14.2683,-6.2195,9.1463,12.39,17.16,40.46,5,S01
1560,-9.08360,-0.45969,-1.00796,-15.7317,-7.1951,9.6341,12.39,17.16,40.46,5,S01
1580,-8.81066,-0.40941,-1.13964,-16.4634,-7.1341,10.0000,12.94,16.79,40.55,5,S01
1600,-8.47308,-0.36631,-1.27611,-16.4634,-5.6707,10.1829,12.94,16.79,40.55,5,S01
1620,-8.32703,-0.37589,-1.13725,-16.4634,-3.8415,10.7317,12.94,16.79,40.55,5,S01
1640,-8.42280,-0.54827,-0.85952,-17.9268,-2.8659,11.3415,13.49,16.61,40.55,5,S01
1660,-8.69095,-0.66559,-0.74220,-22.1951,-3.7805,11.5854,13.49,16.61,40.55,5,S01
1680,-9.20092,-0.48602,-1.44849,-28.3537,-5.9146,10.6707,13.49,16.61,40.55,5,S01
1700,-11.23359,0.56264,-2.36547,-33.5976,-2.5610,7.5000,13.49,16.61,40.55,5,S01
1720,-11.78666,1.20189,-2.46603,-22.5610,-3.2317,3.4756,14.95,16.15,40.37,5,S01
1740,-12.72758,2.37984,-2.46363,-10.1829,-1.8293,-1.7683,14.95,16.15,40.37,5,S01
1760,-14.52083,3.06218,-1.76932,-7.0732,2.7439,-5.8537,14.95,16.15,40.37,5,S01
1780,-14.77462,3.10528,0.00239,-3.8415,1.0366,-8.5366,15.14,15.87,40.64,5,S01
1800,-12.52168,2.77009,0.34477,-8.5976,-12.8049,-8.3537,15.14,15.87,40.64,5,S01
1820,-10.02452,1.96085,-0.12450,-19.2683,-21.0976,-2.6220,15.14,15.87,40.64,5,S01
1840,-9.01178,0.76854,-0.51954,-24.5122,-15.1220,5.6098,16.33,15.14,41.01,5,S01
1860,-9.40203,0.30406,-0.48123,-22.3780,-2.0122,10.3659,16.33,15.14,41.01,5,S01
1880,-9.77313,0.70629,-0.35913,-16.2805,7.3780,11.1585,16.33,15.14,41.01,5,S01
1900,-9.65342,1.21386,-0.28491,-8.1707,11.4634,11.0366,16.33,15.14,41.01,5,S01
1920,-9.51216,1.12527,-0.44053,-0.3049,11.9512,11.0366,16.15,16.24,40.55,5,S01
1940,-9.58878,0.69911,-0.91459,6.7683,11.1585,10.9146,16.15,16.24,40.55,5,S01
1960,-9.72764,0.51236,-1.00556,8.5976,10.6707,10.2439,16.15,16.24,40.55,5,S01
1980,-9.56484,0.92895,-0.84036,4.5732,6.7683,9.1463,15.50,16.79,40.37,5,S01
2000,-9.27274,1.54665,-0.68953,-1.1585,1.7683,8.4146,15.50,16.79,40.37,5,S01
2020,-9.09318,1.74058,-0.57700,-4.8780,-1.0976,8.6585,15.50,16.79,40.37,5,S01
2040,-9.06205,1.40061,-0.71108,-5.1829,-2.6829,8.5976,15.41,16.79,40.64,5,S01
2060,-9.15064,0.98881,-0.89304,-3.3537,-2.8659,7.1951,15.41,16.79,40.64,5,S01
2080,-9.21289,0.81163,-0.93853,-1.5244,-2.2561,5.4268,15.41,16.79,40.64,5,S01
2100,-9.20092,0.83079,-0.91219,-0.6098,-1.8902,4.4512,15.41,16.79,40.64,5,S01
2120,-9.18655,0.92177,-0.83558,-0.2439,-1.0976,3.9024,15.32,16.70,40.83,5,S01
2140,-9.23444,0.96007,-0.73741,0.8537,0.0000,3.1707,15.32,16.70,40.83,5,S01
2160,-9.38527,0.89064,-0.79248,3.2927,1.1585,2.4390,15.32,16.70,40.83,5,S01
2180,-9.64863,0.79966,-0.77093,5.0610,1.9512,2.5000,15.05,16.97,40.73,5,S01
2200,-9.80665,0.86910,-0.72065,4.2683,1.2805,2.8049,15.05,16.97,40.73,5,S01
2220,-9.77313,1.03190,-0.69432,2.1951,-0.3049,2.9878,15.05,16.97,40.73,5,S01
2240,-9.63666,1.17555,-0.70629,-0.1220,-2.0732,3.2317,14.86,16.79,40.83,5,S01
2260,-9.46428,1.24020,-0.74939,-2.0732,-2.9268,3.5976,14.86,16.79,40.83,5,S01
2280,-9.37091,1.19471,-0.81642,-3.2317,-2.5000,4.0244,14.86,16.79,40.83,5,S01
2300,-9.32302,1.12767,-0.91459,-3.8415,-1.0366,4.2073,14.86,16.79,40.83,5,S01
2320,-9.27993,1.05345,-1.03669,-4.2073,0.7317,4.6341,15.14,17.06,40.73,5,S01
2340,-9.27274,0.96247,-1.07739,-4.5732,2.3780,5.6098,15.14,17.06,40.73,5,S01
2360,-9.29190,0.90501,-1.04387,-4.2683,3.7805,6.2805,15.14,17.06,40.73,5,S01
2380,-9.33499,0.94810,-1.03190,-2.8659,4.3902,6.2805,15.14,17.52,40.46,5,S01
2400,-9.38527,1.01514,-1.04866,-0.6098,4.5732,6.2805,15.14,17.52,40.46,5,S01
2420,-9.40442,1.04627,-1.02472,1.6463,4.2073,6.0976,15.14,17.52,40.46,5,S01
2440,-9.37809,1.09894,-1.07739,3.3537,3.2927,5.0610,14.59,17.71,40.37,5,S01
2460,-9.43316,1.28808,-1.01514,3.9024,2.9268,4.1463,14.59,17.71,40.37,5,S01
2480,-9.51216,1.30484,-0.92416,2.5000,2.5000,4.3902,14.59,17.71,40.37,5,S01
2500,-9.53371,1.23301,-1.01035,1.4634,1.4024,4.3293,14.59,17.71,40.37,5,S01
2520,-9.48583,1.25217,-1.11091,2.1341,0.4878,3.4146,14.40,17.80,40.37,5,S01
2540,-9.43555,1.25456,-1.17795,3.2317,-0.1829,2.9878,14.40,17.80,40.37,5,S01
2560,-9.42597,1.19231,-1.24977,4.3902,-0.1829,3.1098,14.40,17.80,40.37,5,S01
2580,-9.46667,1.14922,-1.24738,5.8537,0.1829,3.4146,14.13,17.89,40.46,5,S01
2600,-9.48343,1.18752,-1.23062,7.0732,-0.0610,3.7195,14.13,17.89,40.46,5,S01
2620,-9.45231,1.26653,-1.18992,7.0732,-0.5488,4.1463,14.13,17.89,40.46,5,S01
2640,-9.39485,1.35991,-1.16598,6.5854,-1.0976,4.5122,13.67,17.89,40.46,5,S01
2660,-9.29190,1.50356,-1.23062,6.0366,-1.5244,4.7561,13.67,17.89,40.46,5,S01
2680,-9.22246,1.62087,-1.33357,5.0000,-1.1585,5.6707,13.67,17.89,40.46,5,S01
2700,-9.18416,1.66876,-1.38624,4.0244,-0.2439,7.0122,13.67,17.89,40.46,5,S01
2720,-9.20331,1.75974,-1.41737,2.8049,1.0976,7.8049,13.39,17.98,40.46,5,S01
2740,-9.32302,1.84832,-1.32878,0.3049,3.1098,8.0488,13.39,17.98,40.46,5,S01
2760,-9.50498,1.88184,-1.13964,-1.8902,4.3293,8.2317,13.39,17.98,40.46,5,S01
2780,-9.61033,1.74058,-1.06781,-3.4146,3.2317,9.0244,13.12,18.35,40.37,5,S01
2800,-9.62469,1.52511,-1.07500,-3.4756,0.6098,9.9390,13.12,18.35,40.37,5,S01
2820,-9.55047,1.39103,-1.06063,-2.0122,-1.8902,9.7561,13.12,18.35,40.37,5,S01
2840,-9.48822,1.40779,-0.96247,0.1220,-3.5976,8.4146,12.75,18.44,40.28,5,S01
2860,-9.40203,1.47722,-0.79248,2.2561,-4.6951,6.7073,12.75,18.44,40.28,5,S01
2880,-9.27274,1.48680,-0.74699,2.3171,-6.2195,5.7927,12.75,18.44,40.28,5,S01
2900,-9.19134,1.47722,-0.77812,-0.2439,-6.7683,5.1220,12.75,18.44,40.28,5,S01
2920,-9.21289,1.57299,-0.73023,-2.9268,-5.9756,3.6585,12.84,18.07,40.18,5,S01
2940,-9.19852,1.66158,-0.68714,-5.1220,-5.7317,2.0732,12.84,18.07,40.18,5,S01
2960,-9.14585,1.59693,-0.75657,-6.8902,-5.9756,0.9146,12.84,18.07,40.18,5,S01
2980,-9.09557,1.42216,-0.85712,-7.9878,-5.1829,-0.0610,13.03,18.07,40.00,5,S01
3000,-9.16500,1.34554,-0.85473,-8.5366,-3.7805,-0.6707,13.03,18.07,40.00,5,S01
3020,-9.23444,1.52511,-0.74939,-9.1463,-2.9878,-0.6707,13.03,18.07,40.00,5,S01
3040,-9.20331,1.69031,-0.54827,-10.7317,-3.5366,-0.3659,13.67,17.80,39.72,5,S01
3060,-9.21049,1.52511,-0.36392,-12.6829,-6.8293,-2.7439,13.67,17.80,39.72,5,S01
3080,-9.29908,1.38624,-0.36871,-13.1707,-8.1707,-5.3659,13.67,17.80,39.72,5,S01
3100,-9.33739,1.38864,-0.25857,-15.3049,-9.7561,-7.9878,13.67,17.80,39.72,5,S01
3120,-9.10515,1.58017,-0.09337,-17.2561,-12.3780,-9.9390,14.50,17.25,39.45,5,S01
3140,-8.57364,1.74058,-0.07901,-17.6220,-15.6098,-10.1829,14.50,17.25,39.45,5,S01
3160,-8.03734,1.59933,-0.22984,-16.6463,-16.0366,-9.0244,14.50,17.25,39.45,5,S01
3180,-7.69496,1.31681,-0.39744,-14.0244,-12.7439,-8.5366,15.32,16.61,39.17,5,S01
3200,-7.69018,1.10133,-0.31843,-10.1829,-6.8293,-9.3902,15.32,16.61,39.17,5,S01
3220,-7.71891,0.90501,-0.11492,-5.4878,-1.7073,-10.7927,15.32,16.61,39.17,5,S01
3240,-7.62314,0.72784,-0.04549,-1.5244,0.3659,-12.2561,15.41,16.61,38.72,5,S01
3260,-7.46991,0.50757,0.01437,0.5488,1.1585,-13.0488,15.41,16.61,38.72,5,S01
3280,-7.28795,0.43814,-0.12689,2.2561,2.2561,-13.7805,15.41,16.61,38.72,5,S01
3300,-7.20415,0.60094,-0.46208,3.2317,4.6341,-14.8780,15.41,16.61,38.72,5,S01
3320,-7.18979,0.78290,-0.76375,4.7561,8.0488,-16.6463,15.50,16.88,37.98,5,S01
3340,-7.30710,0.98881,-0.56264,9.2683,12.5610,-18.6585,15.50,16.88,37.98,5,S01
3360,-7.51061,1.09415,-0.08859,15.4878,13.2927,-19.7561,15.50,16.88,37.98,5,S01
3380,-7.69975,1.09894,0.05028,17.7439,9.3902,-20.1829,15.23,17.16,37.43,5,S01
3400,-7.74045,0.94332,0.00479,14.9390,4.2073,-20.5488,15.23,17.16,37.43,5,S01
3420,-7.85538,0.96247,-0.62728,12.0122,-0.6098,-21.9512,15.23,17.16,37.43,5,S01
3440,-9.32063,2.33195,-2.20506,1.8293,-2.6220,-20.9756,15.60,16.88,36.88,5,S01
3460,-12.02608,3.70862,-3.52666,-15.0000,3.1098,-8.1707,15.60,16.88,36.88,5,S01
3480,-13.82173,1.73819,-4.06296,-20.8537,5.3659,9.1463,15.60,16.88,36.88,5,S01
3500,-14.23114,-0.34477,-4.28562,-15.6098,-0.3049,6.8293,15.60,16.88,36.88,5,S01
3520,-14.55675,-1.13725,-4.38618,-6.2805,1.0366,-5.7317,15.78,17.16,36.33,5,S01
3540,-14.81771,-1.27850,-3.94804,2.1341,7.8659,-9.2683,15.78,17.16,36.33,5,S01
3560,-13.90792,-1.61130,-3.09091,16.2805,10.7927,-5.9756,15.78,17.16,36.33,5,S01
3580,-12.49773,-0.90501,-2.62883,27.6829,12.5000,-7.8049,14.59,17.98,36.06,5,S01
3600,-11.42752,0.51475,-2.15478,30.1829,16.2805,-10.1829,14.59,17.98,36.06,5,S01
3620,-10.65899,1.86987,-1.42694,22.1951,20.6098,-8.1707,14.59,17.98,36.06,5,S01
3640,-10.07241,2.30562,-1.01514,10.0000,22.8659,-1.9512,14.04,19.08,35.60,5,S01
3660,-9.60314,1.54426,-1.13246,-0.3659,23.2927,4.8780,14.04,19.08,35.60,5,S01
3680,-9.34218,0.49799,-1.62566,-8.2927,21.5244,9.5122,14.04,19.08,35.60,5,S01
3700,-9.07163,-0.08859,-1.92733,-12.8049,18.7805,11.6463,14.04,19.08,35.60,5,S01
3720,-8.89207,-0.01197,-1.80762,-12.6220,16.6463,11.9512,13.94,19.82,34.95,5,S01
3740,-8.98783,0.21308,-1.38864,-8.7805,15.6098,11.2195,13.94,19.82,34.95,5,S01
3760,-9.17219,0.18675,-1.13485,-5.6707,12.5610,9.2073,13.94,19.82,34.95,5,S01
3780,-9.15782,0.10774,-1.44131,-4.0244,5.8537,5.7317,13.58,20.09,34.77,5,S01
3800,-8.98065,0.16281,-1.78368,-3.2927,1.3415,3.2927,13.58,20.09,34.77,5,S01
3820,-9.04051,0.29688,-1.88184,-3.1098,-0.3049,3.1098,13.58,20.09,34.77,5,S01
3840,-9.29908,0.22505,-1.89142,-2.5000,-1.9512,4.4512,13.30,20.28,34.59,5,S01
3860,-9.54329,0.10534,-2.01592,0.4878,-3.8415,4.8171,13.30,20.28,34.59,5,S01
3880,-9.68455,0.18196,-2.17394,4.0854,-5.3049,3.2317,13.30,20.28,34.59,5,S01
3900,-9.64145,0.37110,-2.26013,6.4024,-5.5488,1.1585,13.30,20.28,34.59,5,S01
3920,-9.47625,0.48602,-2.19788,7.0732,-5.3049,-0.6098,12.84,20.09,34.77,5,S01
3940,-9.28471,0.54588,-2.09253,6.8293,-5.4878,-1.8902,12.84,20.09,34.77,5,S01
3960,-9.16261,0.51475,-2.01113,6.5244,-5.3659,-2.5610,12.84,20.09,34.77,5,S01
3980,-9.13149,0.45969,-2.01113,6.7073,-4.8780,-2.8659,12.48,19.91,34.95,5,S01
4000,-9.11712,0.38786,-2.01113,7.0122,-4.1463,-2.8659,12.48,19.91,34.95,5,S01
4020,-9.12909,0.32082,-2.00634,7.3171,-3.4756,-2.7439,12.48,19.91,34.95,5,S01
4040,-9.17219,0.36631,-1.97043,6.9512,-3.2317,-2.8049,12.02,19.82,35.14,5,S01
4060,-9.30626,0.45729,-1.93691,6.1585,-3.6585,-2.3780,12.02,19.82,35.14,5,S01
4080,-9.51695,0.49321,-1.85790,4.8171,-3.9634,-1.4024,12.02,19.82,35.14,5,S01
4100,-9.69652,0.43574,-1.73580,3.4756,-4.8171,-0.3659,12.02,19.82,35.14,5,S01
4120,-9.75398,0.28730,-1.70228,3.0488,-6.4024,-0.3659,11.65,19.54,35.14,5,S01
4140,-9.72046,0.18196,-1.75016,3.3537,-7.6220,-1.3415,11.65,19.54,35.14,5,S01
4160,-9.62230,0.15562,-1.81002,4.0244,-8.4756,-2.3780,11.65,19.54,35.14,5,S01
4180,-9.58878,0.18675,-1.73819,4.3902,-8.3537,-2.9878,11.47,19.27,35.41,5,S01
4200,-9.51695,0.24181,-1.67115,3.9634,-8.0488,-2.9878,11.47,19.27,35.41,5,S01
4220,-9.37091,0.32561,-1.64960,2.1341,-7.6829,-2.8659,11.47,19.27,35.41,5,S01
4240,-9.19852,0.41420,-1.66876,-0.0610,-6.8293,-2.3780,11.38,19.08,35.32,5,S01
4260,-9.15303,0.34955,-1.80044,-2.0732,-5.0610,-1.6463,11.38,19.08,35.32,5,S01
4280,-9.28950,0.28970,-1.79565,-3.9024,-2.1951,-1.4634,11.38,19.08,35.32,5,S01
4300,-9.43316,0.24660,-1.70946,-5.8537,-0.2439,-1.8902,11.38,19.08,35.32,5,S01
4320,-9.49062,0.17238,-1.60412,-7.0732,0.3659,-2.9268,11.56,19.17,35.05,5,S01
4340,-9.48104,0.08380,-1.58017,-6.4634,-0.1220,-4.3902,11.56,19.17,35.05,5,S01
4360,-9.58399,0.02155,-1.61848,-5.0610,-0.6098,-5.6098,11.56,19.17,35.05,5,S01
4380,-9.68215,-0.01197,-1.61130,-4.1463,-1.2195,-6.1585,11.83,19.08,35.14,5,S01
4400,-9.62230,-0.09098,-1.44131,-3.5976,-2.3171,-6.9512,11.83,19.08,35.14,5,S01
4420,-9.35893,-0.25857,-1.56341,-1.2195,-2.7439,-8.9024,11.83,19.08,35.14,5,S01
4440,-9.31823,-0.29688,-1.71904,0.2439,-1.2195,-8.0488,11.83,19.08,35.05,5,S01
4460,-9.36612,-0.18675,-1.71425,1.0366,0.0610,-6.1585,11.83,19.08,35.05,5,S01
4480,-9.50738,0.04310,-1.51792,0.1829,0.4268,-4.4512,11.83,19.08,35.05,5,S01
4500,-9.61511,0.24181,-1.30963,-1.9512,-0.5488,-3.7195,11.83,19.08,35.05,5,S01
4520,-9.57681,0.18435,-1.22823,-3.9024,-2.4390,-3.5366,11.74,19.08,35.05,5,S01
4540,-9.43316,-0.09577,-1.29766,-4.3293,-3.9634,-3.5366,11.74,19.08,35.05,5,S01
4560,-9.29908,-0.35674,-1.40540,-3.1098,-4.1463,-3.2317,11.74,19.08,35.05,5,S01
4580,-9.30866,-0.43574,-1.40540,-1.4634,-3.2927,-1.8902,11.83,18.90,34.95,5,S01
4600,-9.45231,-0.31364,-1.36709,-0.1829,-2.2561,0.5488,11.83,18.90,34.95,5,S01
4620,-9.47386,-0.08380,-1.38145,-0.3049,-2.0732,2.9878,11.83,18.90,34.95,5,S01
4640,-9.40442,0.10295,-1.45567,-1.5854,-2.1951,4.5732,11.65,18.90,34.77,5,S01
4660,-9.36133,0.21548,-1.52032,-3.7195,-1.8902,5.3659,11.65,18.90,34.77,5,S01
4680,-9.34696,0.25379,-1.47722,-6.1585,-1.9512,5.5488,11.65,18.90,34.77,5,S01
4700,-9.39006,0.10056,-1.41497,-8.2927,-2.3171,5.0610,11.65,18.90,34.77,5,S01
4720,-9.53371,-0.15802,-1.41258,-9.8171,-2.2561,4.2073,11.56,18.90,34.77,5,S01
4740,-9.66779,-0.37110,-1.44131,-10.3049,-2.1341,3.4146,11.56,18.90,34.77,5,S01
4760,-9.60554,-0.41899,-1.43413,-9.8780,-2.9268,2.6829,11.56,18.90,34.77,5,S01
4780,-9.53850,-0.33279,-1.39582,-8.9024,-4.0244,2.1951,11.74,18.90,34.59,5,S01
4800,-9.58160,-0.23942,-1.32160,-8.9024,-4.2073,2.4390,11.74,18.90,34.59,5,S01
4820,-9.59117,-0.11971,-1.33836,-10.4878,-4.6951,2.6829,11.74,18.90,34.59,5,S01
4840,-9.50259,-0.03352,-1.36709,-12.8049,-5.2439,2.5000,12.02,18.81,34.40,5,S01
4860,-9.39724,-0.04070,-1.46046,-15.0000,-5.2439,2.2561,12.02,18.81,34.40,5,S01
4880,-9.34936,-0.05746,-1.56820,-17.1951,-4.7561,1.8293,12.02,18.81,34.40,5,S01
4900,-9.36612,-0.05267,-1.51074,-18.1707,-3.8415,1.5854,12.02,18.81,34.40,5,S01
4920,-9.38767,-0.04788,-1.38145,-18.6585,-3.4146,1.4634,12.75,18.72,34.22,5,S01
4940,-9.31823,-0.09816,-1.28329,-19.8171,-3.5976,1.4634,12.75,18.72,34.22,5,S01
4960,-9.26556,-0.23224,-1.26174,-20.3659,-3.7805,1.5854,12.75,18.72,34.22,5,S01
4980,-9.27514,-0.37589,-1.21386,-20.6098,-3.6585,1.8902,13.21,18.62,33.76,5,S01
5000,-9.26796,-0.48363,-1.22823,-21.0976,-3.9634,2.3780,13.21,18.62,33.76,5,S01
5020,-9.12191,-0.48363,-1.21147,-21.4024,-4.8780,2.7439,13.21,18.62,33.76,5,S01
5040,-8.85376,-0.48842,-1.21386,-20.4268,-5.9756,3.2317,13.85,18.44,33.39,5,S01
5060,-8.52336,-0.45729,-1.21386,-19.1463,-6.7073,3.2927,13.85,18.44,33.39,5,S01
5080,-8.25521,-0.39025,-1.15879,-18.1098,-6.8902,3.1098,13.85,18.44,33.39,5,S01
5100,-8.16183,-0.40941,-1.08457,-17.1341,-6.1585,3.4756,13.85,18.44,33.39,5,S01
5120,-8.03973,-0.55306,-1.17316,-16.0366,-5.1829,4.8171,14.31,18.35,33.21,5,S01
5140,-7.74524,-0.50518,-1.27611,-15.7927,-4.4512,6.2195,14.31,18.35,33.21,5,S01
5160,-7.44118,-0.41899,-1.20428,-15.5488,-3.2927,7.8049,14.31,18.35,33.21,5,S01
5180,-7.22570,-0.45490,-0.96965,-15.1220,-2.4390,9.4512,14.40,18.53,32.66,5,S01
5200,-7.15387,-0.53391,-0.84036,-15.6098,-2.0122,10.0000,14.40,18.53,32.66,5,S01
5220,-7.33823,-0.76375,-0.67038,-16.5244,-1.0366,9.6951,14.40,18.53,32.66,5,S01
5240,-7.70215,-1.11330,-0.52912,-15.0610,0.0000,9.1463,14.68,18.81,31.93,5,S01
5260,-8.02297,-1.28808,-0.62968,-12.2561,0.1220,8.0488,14.68,18.81,31.93,5,S01
5280,-8.28394,-1.16119,-0.85473,-9.8171,-1.4634,6.9512,14.68,18.81,31.93,5,S01
5300,-8.34619,-0.82361,-0.79009,-7.8049,-4.0244,6.6463,14.68,18.81,31.93,5,S01
5320,-8.23366,-0.57940,-0.84036,-6.2195,-7.3171,6.8902,14.59,18.72,31.38,5,S01
5340,-8.30788,-0.58419,-1.19950,-7.1341,-8.4756,8.1707,14.59,18.72,31.38,5,S01
5360,-8.82024,-0.75657,-3.01669,-14.1463,-6.0976,8.1707,14.59,18.72,31.38,5,S01
5380,-11.14501,-0.05507,-4.63039,-26.6463,4.7561,5.8537,15.23,19.45,30.09,5,S01
5400,-14.18564,1.54426,-3.37582,-22.1341,9.0244,6.5854,15.23,19.45,30.09,5,S01
5420,-14.50647,3.21302,-1.60412,-1.2805,-8.0488,7.5610,15.23,19.45,30.09,5,S01
5440,-12.77546,3.91452,-0.84994,8.6585,-29.8171,7.9878,14.50,17.98,31.01,5,S01
5460,-11.32457,3.44765,-1.44610,4.3902,-37.2561,5.8537,14.50,17.98,31.01,5,S01
5480,-12.19606,2.54264,-2.64559,-6.1585,-22.8659,-0.6098,14.50,17.98,31.01,5,S01
5500,-13.56076,1.88184,-2.01831,-4.9390,0.8537,-4.3902,14.50,17.98,31.01,5,S01
5520,-13.30458,1.84114,-0.73023,7.3171,7.0732,-2.9878,14.68,18.53,30.18,5,S01
5540,-11.51850,1.62327,-0.69432,16.3415,-1.6463,1.4634,14.68,18.53,30.18,5,S01
5560,-9.58399,1.10373,-1.06542,20.4268,-4.3293,3.9634,14.68,18.53,30.18,5,S01
5580,-8.45153,0.82361,-1.60412,19.3902,1.6463,3.9024,13.85,19.08,29.91,5,S01
5600,-8.52096,1.11809,-1.76692,16.2805,11.5854,5.1829,13.85,19.08,29.91,5,S01
5620,-9.09797,1.54905,-1.45089,15.8537,18.5976,8.8415,13.85,19.08,29.91,5,S01
5640,-9.30387,1.75734,-1.24498,18.9024,17.5610,12.3171,12.75,20.00,29.54,5,S01
5660,-9.18655,1.74298,-1.20668,22.9268,12.2561,14.2073,12.75,20.00,29.54,5,S01
5680,-9.00699,1.53947,-1.29526,24.2683,7.7439,13.7805,12.75,20.00,29.54,5,S01
5700,-8.96389,1.34794,-1.58496,23.7195,5.0610,12.5610,12.75,20.00,29.54,5,S01
5720,-9.07402,1.20189,-1.75256,22.3780,4.0244,12.8659,11.56,20.28,29.54,5,S01
5740,-9.22007,1.13006,-1.89621,21.5854,2.4390,15.0610,11.56,20.28,29.54,5,S01
5760,-9.48583,1.75016,-1.86029,21.0366,-2.6829,16.9512,11.56,20.28,29.54,5,S01
5780,-9.54808,2.19309,-1.73580,17.3171,-6.4024,16.2195,10.28,20.28,29.63,5,S01
5800,-9.62708,2.49955,-1.54905,10.4268,-9.4512,15.7317,10.28,20.28,29.63,5,S01
5820,-9.64863,2.57137,-1.36230,2.3171,-11.6463,16.0976,10.28,20.28,29.63,5,S01
5840,-9.46428,2.36547,-1.20907,-4.2683,-13.5366,16.8902,9.82,20.09,30.09,5,S01
5860,-9.14106,1.76213,-1.24738,-7.2561,-14.3293,17.3171,9.82,20.09,30.09,5,S01
5880,-8.95431,1.03430,-1.40540,-4.9390,-11.7073,15.9146,9.82,20.09,30.09,5,S01
5900,-9.08360,0.58658,-1.48201,0.7927,-6.3415,12.9268,9.82,20.09,30.09,5,S01
5920,-9.30866,0.62489,-1.22823,6.3415,-1.4024,9.2683,9.17,20.18,30.00,5,S01
5940,-9.41879,0.97205,-0.96247,10.3049,0.0610,5.6707,9.17,20.18,30.00,5,S01
5960,-9.37809,1.32160,-0.95050,12.5610,-1.1585,2.6220,9.17,20.18,30.00,5,S01
5980,-9.30866,1.61130,-1.07739,13.4146,-2.0122,0.5488,8.35,20.18,29.91,5,S01
6000,-9.21528,1.63285,-1.26174,10.5488,-2.0732,-0.1829,8.35,20.18,29.91,5,S01
6020,-9.31105,1.55863,-1.51553,5.8537,-1.0366,-0.3049,8.35,20.18,29.91,5,S01
6040,-9.62469,1.64482,-1.52032,1.0976,1.1585,-0.6707,8.07,20.18,29.91,5,S01
6060,-9.85932,1.82678,-1.35272,-4.6951,0.9146,-1.1585,8.07,20.18,29.91,5,S01
6080,-9.82580,1.88903,-1.18513,-10.9756,-2.0732,-1.0366,8.07,20.18,29.91,5,S01
6100,-9.63906,1.89381,-1.13964,-16.3415,-5.4268,-0.6707,8.07,20.18,29.91,5,S01
6120,-9.42597,1.83875,-1.05105,-21.1585,-7.0732,-0.0610,8.53,20.09,30.00,5,S01
6140,-9.17698,1.51553,-1.06063,-24.0854,-7.6829,1.3415,8.53,20.09,30.00,5,S01
6160,-8.98783,1.00796,-1.26653,-22.8049,-7.0732,2.3171,8.53,20.09,30.00,5,S01
6180,-9.04529,0.63446,-1.47004,-17.9878,-4.0244,1.9512,8.81,20.00,29.91,5,S01
6200,-9.27035,0.60334,-1.48919,-12.3171,0.2439,0.9146,8.81,20.00,29.91,5,S01
6220,-9.47864,0.91219,-1.35512,-8.4146,2.6829,0.4878,8.81,20.00,29.91,5,S01
6240,-9.56244,1.29287,-1.26653,-7.3780,2.1341,0.8537,8.81,20.28,29.45,5,S01
6260,-9.56005,1.57060,-1.23780,-8.3537,0.4268,1.2805,8.81,20.28,29.45,5,S01
6280,-9.46907,1.73819,-1.24020,-9.6341,-1.5244,1.6463,8.81,20.28,29.45,5,S01
6300,-9.31823,1.77171,-1.29287,-11.5244,-3.2317,2.1951,8.81,20.28,29.45,5,S01
6320,-9.23444,1.68073,-1.22104,-13.0488,-3.3537,2.5610,8.81,20.09,29.72,5,S01
6340,-9.30387,1.47722,-1.12527,-13.1707,-2.6220,2.6829,8.81,20.09,29.72,5,S01
6360,-9.50498,1.30963,-1.10852,-12.8049,-1.7073,2.1341,8.81,20.09,29.72,5,S01
6380,-9.62230,1.27611,-1.09176,-12.0732,-0.9756,0.7927,8.90,20.09,29.45,5,S01
6400,-9.49540,1.33596,-1.14682,-10.5488,-1.2195,-0.1220,8.90,20.09,29.45,5,S01
6420,-9.29908,1.43413,-1.23062,-8.6585,-1.0366,-0.2439,8.90,20.09,29.45,5,S01
6440,-9.15543,1.55863,-1.27372,-7.8049,0.4878,-0.1829,8.81,20.09,29.27,5,S01
6460,-9.08121,1.69270,-1.28808,-7.6220,1.7683,0.4878,8.81,20.09,29.27,5,S01
6480,-9.11233,1.73819,-1.31921,-8.3537,2.6829,1.2805,8.81,20.09,29.27,5,S01
6500,-9.24880,1.76692,-1.32878,-9.5732,4.0244,1.2805,8.81,20.09,29.27,5,S01
6520,-9.42358,1.77650,-1.20189,-10.8537,5.1220,0.6098,9.08,20.37,29.27,5,S01
6540,-9.55765,1.77410,-1.24020,-12.8049,5.3049,0.3049,9.08,20.37,29.27,5,S01
6560,-9.54568,1.71904,-1.35272,-14.5732,4.6951,1.2195,9.08,20.37,29.27,5,S01
6580,-9.39485,1.65200,-1.37427,-15.1829,3.8415,2.1341,9.27,20.64,28.90,5,S01
6600,-9.26317,1.61130,-1.31921,-15.3049,2.6829,2.3780,9.27,20.64,28.90,5,S01
6620,-9.28232,1.56102,-1.17076,-15.7927,2.1951,2.2561,9.27,20.64,28.90,5,S01
6640,-9.32781,1.55144,-1.03430,-16.6463,1.9512,1.7683,9.36,20.83,28.81,5,S01
6660,-9.28711,1.56341,-0.96726,-17.3780,1.3415,1.4634,9.36,20.83,28.81,5,S01
6680,-9.27753,1.54426,-0.94092,-17.6829,0.8537,1.0976,9.36,20.83,28.81,5,S01
6700,-9.35415,1.54905,-0.86431,-17.5610,0.7317,0.1829,9.36,20.83,28.81,5,S01
6720,-9.40682,1.54665,-0.77812,-17.1341,0.4268,-0.7927,9.82,20.92,28.81,5,S01
6740,-9.39245,1.49398,-0.76854,-16.8902,-0.4878,-1.4634,9.82,20.92,28.81,5,S01
6760,-9.26796,1.39103,-0.75896,-16.3415,-1.3415,-1.9512,9.82,20.92,28.81,5,S01
6780,-9.03811,1.30245,-0.75896,-14.7561,-1.8293,-2.2561,10.00,20.92,28.62,5,S01
6800,-8.84179,1.35272,-0.68474,-12.6829,-2.2561,-2.4390,10.00,20.92,28.62,5,S01
6820,-8.86333,1.51792,-0.56024,-11.7073,-1.9512,-2.3171,10.00,20.92,28.62,5,S01
6840,-9.04769,1.67834,-0.38547,-12.9268,-1.4024,-2.6220,10.18,20.83,28.62,5,S01
6860,-9.19373,1.73819,-0.25139,-14.6951,-1.6463,-3.6585,10.18,20.83,28.62,5,S01
6880,-9.19373,1.64721,-0.09337,-16.0976,-3.4146,-5.0000,10.18,20.83,28.62,5,S01
6900,-9.13867,1.45089,-0.02873,-17.2561,-5.7317,-6.4634,10.18,20.83,28.62,5,S01
6920,-9.06445,1.35751,0.03591,-17.7439,-7.2561,-7.9878,10.28,20.64,28.72,5,S01
6940,-8.93516,1.38385,0.07422,-18.2927,-7.8049,-9.2073,10.28,20.64,28.72,5,S01
6960,-8.77475,1.41737,0.06704,-18.3537,-7.1341,-10.1829,10.28,20.64,28.72,5,S01
6980,-8.53054,1.47483,0.13647,-17.6220,-5.3659,-11.2195,10.64,20.55,28.72,5,S01
7000,-8.18099,1.49638,0.05028,-16.2805,-4.3902,-11.7683,10.64,20.55,28.72,5,S01
7020,-7.85298,1.30245,-0.18435,-15.6098,-3.2927,-11.4634,10.64,20.55,28.72,5,S01
7040,-7.59201,0.95768,-0.34716,-14.2683,-0.9146,-10.3659,10.55,20.73,28.53,5,S01
7060,-7.46991,0.70629,-0.28252,-11.3415,1.4024,-9.1463,10.55,20.73,28.53,5,S01
7080,-7.43160,0.65601,-0.10056,-6.5244,1.8902,-8.5976,10.55,20.73,28.53,5,S01
7100,-7.33583,0.77572,-0.06704,-0.6707,1.2195,-9.0854,10.55,20.73,28.53,5,S01
7120,-7.07965,0.86431,-0.14126,4.8780,-0.1829,-9.3902,9.82,21.01,28.62,5,S01
7140,-7.12514,0.93613,0.80924,18.5976,-5.3049,-5.9756,9.82,21.01,28.62,5,S01
7160,-7.59920,0.83797,1.55384,21.5854,-10.0000,-6.5244,9.82,21.01,28.62,5,S01
7180,-8.00860,0.67995,1.84354,18.6585,-14.2683,-10.6098,8.26,20.64,29.08,5,S01
7200,-8.24563,1.11570,0.07901,17.8659,-15.2439,-16.7683,8.26,20.64,29.08,5,S01
7220,-10.40041,3.35667,-3.92889,9.1463,-2.9878,-14.6951,8.26,20.64,29.08,5,S01
7240,-13.17529,2.77967,-4.26407,6.7073,17.9878,8.4146,7.06,21.47,28.81,5,S01
7260,-14.41070,1.62566,-4.18267,13.2927,7.4390,19.6341,7.06,21.47,28.81,5,S01
7280,-14.26226,0.85473,-4.35266,4.5122,-10.9756,9.0854,7.06,21.47,28.81,5,S01
7300,-13.85764,0.34477,-2.94487,0.5488,-15.9146,-2.5610,7.06,21.47,28.81,5,S01
7320,-12.82334,0.45011,-1.96085,3.6585,-16.5244,-14.4512,6.61,20.64,29.45,5,S01
7340,-12.02847,0.59616,-2.34632,8.4756,-11.4024,-19.0854,6.61,20.64,29.45,5,S01
7360,-12.24634,0.32082,-2.96402,13.5366,1.7683,-11.0366,6.61,20.64,29.45,5,S01
7380,-12.56238,-0.20111,-3.18908,14.5122,13.9024,-1.6463,5.96,21.10,29.08,5,S01
7400,-11.82496,0.16999,-3.26569,11.5244,17.3171,-0.8537,5.96,21.10,29.08,5,S01
7420,-10.59674,0.90980,-2.92093,2.8049,18.2927,-2.2561,5.96,21.10,29.08,5,S01
7440,-9.33739,1.19471,-2.25773,-5.7317,17.8659,-1.5244,6.15,21.74,28.62,5,S01
7460,-8.37013,0.99359,-1.93212,-7.2561,14.1463,-0.6707,6.15,21.74,28.62,5,S01
7480,-7.98706,0.21069,-1.93452,-2.3780,12.6220,1.4634,6.15,21.74,28.62,5,S01
7500,-8.07325,-0.45250,-2.07577,3.4756,14.5732,2.1951,6.15,21.74,28.62,5,S01
7520,-8.29830,-0.71108,-2.12605,10.7317,17.3171,1.1585,5.41,22.11,28.35,5,S01
7540,-8.50899,-0.54827,-2.11169,17.1341,18.5366,0.5488,5.41,22.11,28.35,5,S01
7560,-8.63589,-0.05746,-1.98479,19.5122,17.7439,0.9146,5.41,22.11,28.35,5,S01
7580,-8.70292,0.37828,-1.90339,17.8049,14.9390,1.8293,4.68,22.66,27.89,5,S01
7600,-8.64786,0.70390,-2.03028,12.8659,11.9512,2.3780,4.68,22.66,27.89,5,S01
7620,-8.75320,0.88107,-2.28646,7.4390,10.1829,2.8659,4.68,22.66,27.89,5,S01
7640,-9.14106,0.85712,-2.49715,4.2073,9.9390,3.5976,4.22,23.03,27.52,5,S01
7660,-9.53132,0.57940,-2.72939,3.7805,9.6341,3.9024,4.22,23.03,27.52,5,S01
7680,-9.67736,0.32082,-2.85149,5.0610,8.8415,2.1341,4.22,23.03,27.52,5,S01
7700,-9.74919,0.31364,-2.75812,6.8293,8.1707,-0.6098,4.22,23.03,27.52,5,S01
7720,-9.84975,0.44532,-2.40857,8.1098,7.2561,-2.0122,3.76,23.30,27.34,5,S01
7740,-9.88805,0.53391,-2.16675,8.9024,5.2439,-1.6463,3.76,23.30,27.34,5,S01
7760,-9.80905,0.53151,-2.15718,9.0854,3.2317,-0.9146,3.76,23.30,27.34,5,S01
7780,-9.71328,0.62249,-2.28167,8.4756,2.1951,-0.1829,3.39,23.30,27.25,5,S01
7800,-9.57681,0.75178,-2.29365,5.9146,1.3415,1.2195,3.39,23.30,27.25,5,S01
7820,-9.31823,0.78769,-2.17154,2.7439,-0.3049,2.5000,3.39,23.30,27.25,5,S01
7840,-9.17219,0.75896,-2.07577,0.9756,-1.4024,2.4390,3.12,23.21,27.34,5,S01
7860,-9.26317,0.76375,-2.08296,-0.1220,-1.4634,2.1341,3.12,23.21,27.34,5,S01
7880,-9.41879,0.68474,-2.10690,-1.4634,-1.7683,2.9268,3.12,23.21,27.34,5,S01
7900,-9.46428,0.48602,-2.10929,-2.1951,-2.6829,3.4146,3.12,23.21,27.34,5,S01
7920,-9.45231,0.33998,-2.00634,-1.3415,-3.7805,2.5610,2.94,23.30,27.43,5,S01
7940,-9.45231,0.27054,-1.87945,0.7927,-5.4268,1.2195,2.94,23.30,27.43,5,S01
7960,-9.55287,0.20351,-1.73819,2.9878,-7.1341,0.2439,2.94,23.30,27.43,5,S01
7980,-9.72764,0.09816,-1.70467,5.0000,-8.4146,-0.0610,2.75,22.94,27.61,5,S01
8000,-9.74201,0.07901,-1.81002,6.7073,-9.3293,0.4878,2.75,22.94,27.61,5,S01
8020,-9.58638,0.28012,-1.95127,7.5610,-9.9390,1.0976,2.75,22.94,27.61,5,S01
8040,-9.39485,0.56024,-1.90578,6.7683,-9.9390,1.6463,2.29,22.66,27.89,5,S01
8060,-9.33499,0.75178,-1.78607,5.0610,-10.2439,2.0122,2.29,22.66,27.89,5,S01
8080,-9.42358,0.74220,-1.73819,2.7439,-10.8537,2.3780,2.29,22.66,27.89,5,S01
8100,-9.53371,0.55545,-1.78129,1.2805,-11.0976,2.5000,2.29,22.66,27.89,5,S01
8120,-9.58878,0.41180,-1.84354,1.3415,-10.1829,1.7683,2.02,22.20,28.26,5,S01
8140,-9.50977,0.42856,-1.82438,1.7073,-8.9024,0.9146,2.02,22.20,28.26,5,S01
8160,-9.36372,0.55306,-1.74058,1.2805,-8.2317,0.4878,2.02,22.20,28.26,5,S01
8180,-9.27035,0.65122,-1.63285,-0.2439,-8.2317,0.4878,1.93,22.11,28.44,5,S01
8200,-9.33260,0.64883,-1.57299,-2.1951,-8.4146,0.7317,1.93,22.11,28.44,5,S01
8220,-9.49780,0.53391,-1.57299,-3.2927,-8.4756,0.7927,1.93,22.11,28.44,5,S01
8240,-9.57681,0.43574,-1.61130,-2.6829,-9.0244,0.0610,1.93,21.93,28.53,5,S01
8260,-9.52413,0.43814,-1.69509,-1.4024,-10.0000,-1.4024,1.93,21.93,28.53,5,S01
8280,-9.47625,0.51475,-1.66876,-0.6098,-10.6098,-2.9268,1.93,21.93,28.53,5,S01
8300,-9.45231,0.63446,-1.63763,0.3049,-11.4024,-4.3902,1.93,21.93,28.53,5,S01
8320,-9.43555,0.75657,-1.56820,1.2805,-11.8902,-5.6098,2.11,21.47,28.90,5,S01
8340,-9.39245,0.73023,-1.57299,2.0732,-12.2561,-6.0976,2.11,21.47,28.90,5,S01
8360,-9.36612,0.59376,-1.61848,2.6220,-12.3171,-6.3415,2.11,21.47,28.90,5,S01
8380,-9.44034,0.51715,-1.56341,2.3171,-11.8902,-6.6463,1.93,21.10,29.08,5,S01
8400,-9.46428,0.47884,-1.41497,0.6098,-11.7073,-6.7073,1.93,21.10,29.08,5,S01
8420,-9.42597,0.39025,-1.25696,-0.7927,-12.1951,-6.5244,1.93,21.10,29.08,5,S01
8440,-9.42597,0.14126,-1.22823,-0.8537,-12.6220,-6.1585,2.02,20.83,29.45,5,S01
8460,-9.52174,-0.14844,-1.31921,0.9146,-12.1341,-5.6707,2.02,20.83,29.45,5,S01
8480,-9.48343,-0.36871,-1.50116,9.0854,-11.0366,-5.4878,2.02,20.83,29.45,5,S01
8500,-9.39245,-0.21548,-1.44370,13.8415,-9.6951,-5.4878,2.02,20.83,29.45,5,S01
8520,-9.42358,-0.13168,-1.30484,17.3780,-8.0488,-4.4512,1.65,20.64,29.54,5,S01
8540,-9.43555,-0.10295,-1.27372,19.6341,-6.8293,-3.0488,1.65,20.64,29.54,5,S01
8560,-9.45231,-0.04070,-1.30484,21.4634,-5.8537,-1.6463,1.65,20.64,29.54,5,S01
8580,-9.44034,0.09337,-1.37667,22.1951,-4.9390,-0.5488,0.73,20.64,29.63,5,S01
8600,-9.41640,0.20590,-1.38624,21.5854,-3.9634,0.5488,0.73,20.64,29.63,5,S01
8620,-9.40682,0.22027,-1.31442,20.2439,-3.2927,1.7073,0.73,20.64,29.63,5,S01
8640,-9.40442,0.13886,-1.24738,18.5366,-2.9878,2.5610,-0.09,20.55,29.54,5,S01
8660,-9.44752,0.09098,-1.18992,17.1951,-2.9878,3.2927,-0.09,20.55,29.54,5,S01
8680,-9.48583,0.03112,-1.15401,15.5488,-3.4756,4.5122,-0.09,20.55,29.54,5,S01
8700,-9.58160,0.11013,-1.22104,12.5610,-3.8415,5.4878,-0.09,20.55,29.54,5,S01
8720,-9.76595,0.06464,-1.22823,9.0854,-3.4146,6.1585,-0.73,20.46,29.45,5,S01
8740,-9.85214,0.11492,-1.38624,7.0122,-3.5366,4.9390,-0.73,20.46,29.45,5,S01
8760,-9.85693,0.23463,-1.48680,6.1585,-3.6585,2.3780,-0.73,20.46,29.45,5,S01
8780,-9.83299,0.35913,-1.60412,6.1585,-4.2683,-0.3659,-1.01,20.46,29.54,5,S01
8800,-9.80426,0.41420,-1.60172,5.1220,-5.5488,-2.8659,-1.01,20.46,29.54,5,S01
8820,-9.72764,0.38547,-1.39821,2.6220,-7.7439,-5.3659,-1.01,20.46,29.54,5,S01
8840,-9.59117,0.28491,-1.23301,-0.1220,-9.8171,-7.7439,-0.92,20.18,29.91,5,S01
8860,-9.40203,0.21308,-1.07021,-2.3780,-10.5488,-9.5732,-0.92,20.18,29.91,5,S01
8880,-9.22246,0.15083,-0.89304,-3.7805,-10.0610,-10.3049,-0.92,20.18,29.91,5,S01
8900,-9.12191,0.04549,-0.76375,-5.0000,-9.0854,-9.5732,-0.92,20.18,29.91,5,S01
8920,-9.14346,-0.10295,-0.66319,-6.5854,-7.0732,-7.6220,-0.28,20.09,30.09,5,S01
8940,-9.22725,-0.17957,-0.53870,-7.7439,-4.0244,-5.2439,-0.28,20.09,30.09,5,S01
8960,-9.35415,-0.15562,-0.43574,-8.1707,-0.9756,-2.7439,-0.28,20.09,30.09,5,S01
8980,-9.41640,-0.07183,-0.37110,-9.1463,1.3415,-0.6707,-0.28,20.37,29.72,5,S01
9000,-9.40442,-0.01197,-0.37589,-10.7927,2.9878,1.1585,-0.28,20.37,29.72,5,S01
9020,-9.40442,-0.00239,-0.43096,-12.1951,4.8780,2.9268,-0.28,20.37,29.72,5,S01
9040,-9.39006,0.00479,-0.49081,-12.8659,6.4024,4.5122,0.00,20.46,29.54,5,S01
9060,-9.36133,-0.09098,-0.51954,-13.7805,6.9512,5.5488,0.00,20.46,29.54,5,S01
9080,-9.35175,-0.18675,-0.51236,-15.0000,6.8902,6.2805,0.00,20.46,29.54,5,S01
9100,-9.39724,-0.26336,-0.47645,-16.1585,6.2805,6.9512,0.00,20.46,29.54,5,S01
9120,-9.57920,-0.29928,-0.40462,-16.7683,5.1220,7.7439,0.18,20.73,29.45,5,S01
9140,-9.74201,-0.38547,-0.32322,-16.0976,3.4146,9.0244,0.18,20.73,29.45,5,S01
9160,-9.78510,-0.44293,-0.36631,-14.7561,0.5488,9.3293,0.18,20.73,29.45,5,S01
9180,-9.70131,-0.38068,-0.47405,-13.5366,-2.2561,9.0854,0.18,20.92,29.45,5,S01
9200,-9.60554,-0.21069,-0.56264,-13.2927,-4.0244,8.7195,0.18,20.92,29.45,5,S01
9220,-9.56723,-0.04310,-0.58419,-14.0244,-5.1220,8.4756,0.18,20.92,29.45,5,S01
9240,-9.56244,-0.01676,-0.61052,-15.0610,-5.8537,8.2317,0.18,20.73,29.54,5,S01
9260,-9.46667,-0.08859,-0.60813,-16.0976,-6.2195,7.2561,0.18,20.73,29.54,5,S01
9280,-9.36372,-0.12210,-0.69432,-17.0122,-5.9756,5.4878,0.18,20.73,29.54,5,S01
9300,-9.34696,-0.10534,-0.65601,-18.8415,-5.4268,4.3902,0.18,20.73,29.54,5,S01
9320,-9.32063,-0.15802,-0.58897,-21.1585,-5.6098,4.5122,0.73,20.64,29.63,5,S01
9340,-9.20331,-0.22745,-0.64165,-23.4756,-6.4634,4.9390,0.73,20.64,29.63,5,S01
9360,-8.99980,-0.26097,-0.75657,-24.9390,-7.1951,5.2439,0.73,20.64,29.63,5,S01
9380,-8.83460,-0.37350,-0.79248,-25.0610,-7.7439,5.4878,1.28,20.64,29.91,5,S01
9400,-8.82024,-0.58419,-0.66319,-25.1829,-8.0488,5.6707,1.28,20.64,29.91,5,S01
9420,-8.78911,-0.76854,-0.66319,-24.9390,-9.1463,5.7317,1.28,20.64,29.91,5,S01
9440,-8.58321,-0.80206,-0.80445,-22.6829,-10.6098,5.4268,1.65,20.55,30.00,5,S01
9460,-8.08043,-0.72544,-1.03430,-20.2439,-11.5244,5.3659,1.65,20.55,30.00,5,S01
9480,-7.33823,-0.62249,-1.21625,-17.3171,-10.6098,5.3049,1.65,20.55,30.00,5,S01
9500,-6.63194,-0.48602,-1.18274,-14.3902,-7.5000,5.0610,1.65,20.55,30.00,5,S01
9520,-6.28717,-0.35913,-0.96486,-12.9268,-3.9024,5.1829,1.47,20.83,29.82,5,S01
9540,-6.32548,-0.26815,-0.56024,-14.4512,-1.1585,5.4268,1.47,20.83,29.82,5,S01
9560,-6.56490,-0.35913,-0.24900,-17.3780,-0.3049,5.3049,1.47,20.83,29.82,5,S01
9580,-6.99586,-0.67995,-0.06225,-19.6951,0.3049,4.7561,1.65,21.28,29.72,5,S01
9600,-7.52019,-1.31442,-0.00958,-20.6098,1.0976,5.1220,1.65,21.28,29.72,5,S01
9620,-7.97509,-1.85551,-0.32561,-21.4634,2.0122,5.3659,1.65,21.28,29.72,5,S01
9640,-8.17620,-1.55144,-0.93613,-23.5366,1.7073,5.1220,1.83,21.65,29.36,5,S01
9660,-8.06607,-0.23942,-1.66636,-28.8415,0.1829,6.8902,1.83,21.65,29.36,5,S01
9680,-9.01896,0.82361,-2.60010,-43.1098,2.1951,9.7561,1.83,21.65,29.36,5,S01
9700,-11.95185,0.99359,-2.63362,-54.0854,13.9024,7.8659,1.83,21.65,29.36,5,S01
9720,-14.81532,0.78530,-1.92733,-39.2073,18.2317,0.1220,2.39,22.57,28.81,5,S01
9740,-15.46415,1.03430,-2.42293,-15.1829,7.1951,-10.6098,2.39,22.57,28.81,5,S01
9760,-15.63414,2.25773,-3.13880,3.7195,-7.4390,-15.0000,2.39,22.57,28.81,5,S01
9780,-16.90067,4.20901,-2.13802,8.1707,-13.1098,-17.9878,2.11,22.20,29.17,5,S01
9800,-16.72350,4.93206,-0.33998,11.7683,-17.3171,-20.6098,2.11,22.20,29.17,5,S01
9820,-13.86003,4.47476,0.02634,9.1463,-32.9878,-19.6951,2.11,22.20,29.17,5,S01
9840,-10.15620,2.97599,-0.28491,-1.8293,-43.2927,-12.6220,2.75,20.83,30.46,5,S01
9860,-5.77960,0.04310,-0.65122,-14.6951,-20.0610,3.5366,2.75,20.83,30.46,5,S01
9880,-6.13873,0.50996,-0.59616,-10.3049,2.1341,11.9512,2.75,20.83,30.46,5,S01
9900,-7.46273,1.04387,-0.40223,-7.1951,23.2927,21.7683,2.75,20.83,30.46,5,S01
9920,-8.83939,1.07739,-0.13886,-2.3171,37.7439,25.0610,1.83,22.20,29.45,5,S01
9940,-9.86411,0.95768,-0.27773,8.9634,42.6829,20.3659,1.83,22.20,29.45,5,S01
9960,-10.37168,0.97444,-0.83079,17.1951,39.5122,12.1951,1.83,22.20,29.45,5,S01
9980,-10.43154,1.14922,-1.00317,15.9756,33.1707,5.6098,0.64,23.76,28.07,5,S01
10000,-10.26394,1.29766,-0.90740,7.6220,24.8780,2.9878,0.64,23.76,28.07,5,S01
10020,-9.95270,1.42216,-0.89783,-0.4268,14.7561,4.3293,0.64,23.76,28.07,5,S01
10040,-9.66060,1.55863,-0.93374,-4.8780,6.4024,6.7073,0.46,24.04,27.80,5,S01
10060,-9.46189,1.58257,-0.98641,-7.0122,1.8293,8.1707,0.46,24.04,27.80,5,S01
10080,-9.37091,1.43652,-1.09894,-6.4024,0.7317,8.4146,0.46,24.04,27.80,5,S01
10100,-9.34936,1.16358,-1.22104,-4.0244,1.2195,7.9878,0.46,24.04,27.80,5,S01
10120,-9.47386,1.09654,-1.27372,-2.5000,1.0366,7.6220,0.00,24.22,27.98,5,S01
10140,-9.65103,1.36709,-1.17316,-4.6341,0.0000,7.4390,0.00,24.22,27.98,5,S01
10160,-9.69412,1.56581,-0.98402,-9.6341,-2.3171,7.8049,0.00,24.22,27.98,5,S01
10180,-9.56723,1.48440,-0.95050,-12.8049,-5.1220,7.7439,-0.09,23.94,28.07,5,S01
10200,-9.36851,1.29047,-0.98402,-11.7073,-6.5244,6.9512,-0.09,23.94,28.07,5,S01
10220,-9.26796,1.08218,-1.05584,-9.2683,-6.4024,6.4634,-0.09,23.94,28.07,5,S01
10240,-9.47146,1.09176,-0.83079,-9.8171,-4.5122,5.9756,-0.28,24.04,28.07,5,S01
10260,-9.47146,1.09176,-0.83079,-9.8171,-4.5122,5.9756,-0.28,24.04,28.07,5,S01
10280,-9.50019,1.21147,-0.71587,-11.7073,-5.7317,5.0610,-0.28,24.04,28.07,5,S01
10300,-9.40921,1.21865,-0.76854,-12.1341,-7.2561,3.7195,-0.28,24.04,28.07,5,S01
10320,-9.36612,1.14682,-0.84755,-10.8537,-7.1951,2.8049,-0.18,23.85,28.44,5,S01
10340,-9.41879,0.90501,-0.91937,-9.0244,-5.7317,2.8659,-0.18,23.85,28.44,5,S01
10360,-9.47864,0.68474,-0.98881,-5.9756,-4.5122,2.9268,-0.18,23.85,28.44,5,S01
10380,-9.56484,0.70868,-0.99359,-2.6220,-4.5122,2.5000,-0.46,23.76,28.53,5,S01
10400,-9.61033,0.89783,-0.96007,-1.2195,-5.0610,2.0122,-0.46,23.76,28.53,5,S01
10420,-9.57441,1.06781,-0.90740,-1.6463,-5.7927,2.1341,-0.46,23.76,28.53,5,S01
10440,-9.52174,1.21625,-0.82600,-1.7683,-6.7073,2.2561,-0.73,23.67,28.81,5,S01
10460,-9.49540,1.33357,-0.84515,-1.0976,-7.9878,2.1341,-0.73,23.67,28.81,5,S01
10480,-9.47146,1.37906,-0.84515,-0.7317,-8.1707,2.0732,-0.73,23.67,28.81,5,S01
10500,-9.41161,1.31681,-0.85952,-0.4268,-7.9878,2.5000,-0.73,23.58,29.08,5,S01
10520,-9.34696,1.14682,-1.00078,0.0610,-7.5610,3.1707,-0.92,23.58,29.08,5,S01
10540,-9.27993,1.10612,-1.06542,0.1220,-6.1585,3.1098,-0.92,23.58,29.08,5,S01
10560,-9.26556,1.30484,-0.96007,-0.1220,-4.2073,2.6829,-0.92,23.58,29.08,5,S01
10580,-9.29429,1.52989,-0.79248,-1.9512,-2.8049,2.5610,-1.10,23.58,29.08,5,S01
10600,-9.27753,1.63045,-0.78290,-5.0610,-2.1951,2.5610,-1.10,23.58,29.08,5,S01
10620,-9.32781,1.60412,-0.80685,-7.8049,-1.4024,2.1341,-1.10,23.58,29.08,5,S01
10640,-9.40442,1.56581,-0.96726,-9.1463,-0.7927,1.1585,-0.92,23.58,29.17,5,S01
10660,-9.35175,1.64003,-1.17316,-10.4268,-1.2195,0.6707,-0.92,23.58,29.17,5,S01
10680,-9.32542,1.73580,-1.16119,-11.8902,-1.3415,1.2195,-0.92,23.58,29.17,5,S01
10700,-9.38767,1.75016,-1.05824,-13.5366,-0.5488,1.7683,-0.64,23.76,29.17,5,S01
10720,-9.41400,1.69988,-1.03669,-15.1220,0.4878,1.7073,-0.64,23.76,29.17,5,S01
10740,-9.43076,1.64960,-1.07260,-15.7927,1.5854,1.4024,-0.64,23.76,29.17,5,S01
10760,-9.45949,1.63045,-1.06063,-16.0366,2.7439,1.0976,-0.64,23.76,29.17,5,S01
10780,-9.49780,1.59693,-1.04627,-16.8902,3.4146,1.2195,-0.18,23.94,29.17,5,S01
10800,-9.51216,1.52271,-1.06303,-17.9878,3.1098,1.5244,-0.18,23.94,29.17,5,S01
10820,-9.48822,1.48680,-1.10133,-18.4756,1.8293,1.7073,-0.18,23.94,29.17,5,S01
10840,-9.46667,1.52750,-1.10133,-19.1463,0.7317,1.4024,0.28,23.85,29.17,5,S01
10860,-9.41400,1.60651,-1.02711,-20.3049,0.8537,0.8537,0.28,23.85,29.17,5,S01
10880,-9.35175,1.63045,-0.96726,-21.7683,1.4024,0.9146,0.28,23.85,29.17,5,S01
10900,-9.23922,1.55863,-0.98402,-23.0488,1.3415,1.4634,1.01,23.94,29.08,5,S01
10920,-9.17219,1.60890,-1.01993,-23.9024,1.4634,1.4634,1.01,23.94,29.08,5,S01
10940,-9.16261,1.71664,-0.97683,-25.5488,2.3171,1.4024,1.01,23.94,29.08,5,S01
10960,-9.16500,1.73580,-0.89543,-28.4146,2.8049,1.3415,1.01,23.94,29.08,5,S01
10980,-9.24401,1.64242,-0.78051,-31.9512,2.7439,1.0976,1.93,24.04,28.99,5,S01
11000,-9.32063,1.53229,-0.71347,-35.4268,2.6220,0.4268,1.93,24.04,28.99,5,S01
11020,-9.36851,1.49398,-0.65601,-38.5366,2.2561,-0.5488,1.93,24.04,28.99,5,S01
11040,-9.50977,1.32399,-0.60094,-40.9756,1.8902,-1.2805,3.39,24.04,28.99,5,S01
11060,-9.73482,1.13725,-0.50518,-42.0732,2.0122,-2.5610,3.39,24.04,28.99,5,S01
11080,-9.69412,0.99359,-0.46448,-41.5244,0.8537,-4.0244,3.39,24.04,28.99,5,S01
11100,-9.40682,0.94332,-0.49560,-40.3659,-1.6463,-4.7561,4.86,23.94,28.90,5,S01
11120,-9.14585,0.82600,-0.50039,-39.7561,-2.5000,-5.1220,4.86,23.94,28.90,5,S01
11140,-9.23683,0.83558,-0.43096,-38.6585,-0.6098,-5.9756,4.86,23.94,28.90,5,S01
11160,-9.49540,0.96007,-0.34237,-38.2317,1.6463,-7.3780,4.86,23.94,28.90,5,S01
11180,-9.61033,1.02472,-0.23463,-38.2927,1.9512,-7.8659,6.42,24.04,28.72,5,S01
11200,-9.59835,0.69671,-0.28730,-35.0000,2.1951,-7.6220,6.42,24.04,28.72,5,S01
11220,-9.63187,0.43096,-0.41420,-29.6951,2.5610,-7.0732,6.42,24.04,28.72,5,S01
11240,-9.64145,0.28491,-0.55785,-23.4756,2.3171,-6.1585,7.25,24.13,28.53,5,S01
11260,-9.61990,0.32801,-0.54109,-18.7195,2.6829,-4.5122,7.25,24.13,28.53,5,S01
11280,-9.54089,0.58658,-0.44772,-15.9146,3.0488,-2.5610,7.25,24.13,28.53,5,S01
11300,-9.45710,0.86910,-0.31125,-15.0000,3.0488,-0.9146,7.61,24.31,28.35,5,S01
11320,-9.36851,0.89304,-0.21787,-14.0244,2.6220,-0.1220,7.61,24.31,28.35,5,S01
11340,-9.26077,0.72305,-0.28012,-11.7683,1.5244,-0.4878,7.61,24.31,28.35,5,S01
11360,-9.23204,0.48123,-0.39504,-7.9878,0.6098,-1.1585,7.61,24.31,28.35,5,S01
11380,-9.30626,0.30167,-0.37350,-2.9268,1.4024,-1.6463,7.80,24.31,28.44,5,S01
11400,-9.32542,0.32561,-0.34237,1.9512,2.0122,-1.8293,7.80,24.31,28.44,5,S01
11420,-9.22725,0.50039,-0.37589,5.6707,1.7073,-1.8293,7.80,24.31,28.44,5,S01
11440,-9.14106,0.71587,-0.26097,7.9268,1.7073,-1.6463,7.43,24.40,28.53,5,S01
11460,-9.10754,0.94332,0.00000,8.9634,1.9512,-1.4634,7.43,24.40,28.53,5,S01
11480,-9.01417,1.10133,0.11253,8.6585,1.0976,-0.9146,7.43,24.40,28.53,5,S01
11500,-8.85136,1.08457,0.05507,8.1707,0.1220,-0.0610,7.06,24.50,28.44,5,S01
11520,-8.74841,1.01993,0.08859,8.8415,0.3049,0.3659,7.06,24.50,28.44,5,S01
11540,-8.67659,0.94332,0.24900,10.4878,0.8537,0.2439,7.06,24.50,28.44,5,S01
11560,-8.48026,0.76854,0.25618,12.3780,0.7317,-0.3049,7.06,24.50,28.44,5,S01
11580,-8.15226,0.52433,0.09816,13.9634,0.6098,-1.4024,6.70,24.59,28.53,5,S01
11600,-7.77158,0.43574,0.02394,15.7927,1.2195,-3.6585,6.70,24.59,28.53,5,S01
11620,-7.38132,0.66080,0.19872,19.0244,0.7927,-6.7073,6.70,24.59,28.53,5,S01
11640,-6.94079,1.05105,0.12929,21.7073,-1.8293,-10.2439,6.15,24.50,28.72,5,S01
11660,-6.56730,1.25456,-0.10774,21.9512,-3.2317,-12.9878,6.15,24.50,28.72,5,S01
11680,-6.24408,1.22104,-0.33758,22.3780,-2.3780,-14.2683,6.15,24.50,28.72,5,S01
11700,-6.21535,1.17795,0.04070,25.3049,-1.2805,-13.4146,5.69,24.59,28.90,5,S01
11720,-6.75404,1.32160,1.09894,27.4390,-2.9268,-11.6463,5.69,24.59,28.90,5,S01
11740,-7.26640,1.38864,1.35991,19.6951,-8.4146,-11.8902,5.69,24.59,28.90,5,S01
11760,-6.88333,1.19231,0.36871,10.8537,-12.1341,-14.2073,5.69,24.59,28.90,5,S01
11780,-7.04374,1.70228,-2.74136,15.0000,-6.5244,-14.7561,5.50,24.31,29.08,5,S01
11800,-10.12987,2.99754,-4.13957,12.1951,16.5244,2.3780,5.50,24.31,29.08,5,S01
11820,-13.46499,1.40779,-3.76129,11.2195,25.7927,31.4634,5.50,24.31,29.08,5,S01
11840,-14.11621,0.64404,-4.19464,2.3780,4.2683,29.6951,4.22,24.95,28.72,5,S01
11860,-16.62534,2.63841,-4.61363,-10.1220,-3.7195,9.4512,4.22,24.95,28.72,5,S01
11880,-20.22143,0.39265,-4.17549,-27.5000,-0.1829,15.1220,4.22,24.95,28.72,5,S01
11900,-18.75618,-1.94649,-4.43167,-15.4878,-25.3659,17.4390,4.86,24.31,29.36,5,S01
11920,-15.50964,-1.70228,-3.65595,4.6951,-30.7927,-8.2317,4.86,24.31,29.36,5,S01
11940,-11.64061,-0.47884,-1.83156,21.4024,-22.3780,-29.3293,4.86,24.31,29.36,5,S01
11960,-7.65905,0.34955,-1.51314,30.1829,-24.5122,-36.4634,4.86,24.31,29.36,5,S01
11980,-5.09007,1.64003,-2.25534,32.5000,-18.1098,-36.5854,4.95,23.94,29.63,5,S01
12000,-5.01346,1.37188,-2.34632,37.1341,7.1951,-23.1098,4.95,23.94,29.63,5,S01
12020,-6.27760,0.32801,-2.20506,30.7927,35.3049,-5.1829,4.95,23.94,29.63,5,S01
12040,-7.75482,-0.10056,-1.96325,14.5122,49.6341,7.6220,3.67,25.96,27.71,5,S01
12060,-9.26317,-0.18435,-1.06063,2.0122,50.7927,16.6463,3.67,25.96,27.71,5,S01
12080,-10.56561,-0.26097,-0.59616,-1.0976,41.2805,20.1220,3.67,25.96,27.71,5,S01
12100,-11.29106,-0.63207,-0.89304,0.5488,26.6463,16.4634,3.12,26.33,27.16,5,S01
12120,-11.21923,-0.70390,-1.73101,5.6098,13.3537,8.4756,3.12,26.33,27.16,5,S01
12140,-10.66377,-0.40223,-2.09014,13.0488,5.2439,3.1707,3.12,26.33,27.16,5,S01
12160,-9.93594,0.02394,-2.11408,18.5366,-0.3659,1.2195,3.12,26.33,27.16,5,S01
12180,-9.31105,0.35674,-2.01831,20.5488,-2.5610,1.5244,2.29,26.42,27.34,5,S01
12200,-9.01656,0.36152,-1.95367,22.3171,-2.2561,3.4146,2.29,26.42,27.34,5,S01
12220,-9.03093,0.36152,-2.02549,26.3415,-0.7317,3.1098,2.29,26.42,27.34,5,S01
12240,-9.30626,0.31603,-2.07577,29.5122,2.0122,0.9146,1.19,26.61,27.16,5,S01
12260,-9.54808,0.27533,-1.98719,29.8780,4.0854,-1.5244,1.19,26.61,27.16,5,S01
12280,-9.55287,0.29449,-1.88903,28.7195,3.7195,-2.9268,1.19,26.61,27.16,5,S01
12300,-9.46428,0.38786,-1.81720,27.6220,2.7439,-3.2317,0.28,26.70,27.06,5,S01
12320,-9.41400,0.50518,-1.72143,26.7073,1.8293,-2.3171,0.28,26.70,27.06,5,S01
12340,-9.43076,0.54588,-1.78129,26.0976,0.0000,-0.3659,0.28,26.70,27.06,5,S01
12360,-9.52174,0.56982,-1.82438,26.5854,-1.7683,1.0976,0.28,26.70,27.06,5,S01
12380,-9.43076,0.57940,-1.83635,27.3171,-3.5366,1.3415,-0.73,26.70,27.06,5,S01
12400,-9.28950,0.64165,-1.82678,26.9512,-5.1220,1.6463,-0.73,26.70,27.06,5,S01
12420,-9.21768,0.68714,-1.75734,25.4268,-6.4024,2.7439,-0.73,26.70,27.06,5,S01
12440,-9.25120,0.68953,-1.75974,23.2317,-6.9512,4.0854,-1.65,26.42,27.25,5,S01
12460,-9.34936,0.67277,-1.78607,20.7927,-6.6463,5.1829,-1.65,26.42,27.25,5,S01
12480,-9.45231,0.53870,-1.74298,18.7805,-6.0366,6.0366,-1.65,26.42,27.25,5,S01
12500,-9.50738,0.35674,-1.71185,17.8049,-6.0976,6.2805,-2.29,26.24,27.16,5,S01
12520,-9.53132,0.22745,-1.72861,17.2561,-6.4024,5.6098,-2.29,26.24,27.16,5,S01
12540,-9.53371,0.19154,-1.73101,16.8293,-6.3415,4.5732,-2.29,26.24,27.16,5,S01
12560,-9.38767,0.24181,-1.88424,13.7805,-5.6098,2.6220,-2.29,26.24,27.16,5,S01
12580,-9.27274,0.39744,-1.92973,11.3415,-4.3902,1.8902,-2.94,26.15,27.06,5,S01
12600,-9.26077,0.55306,-1.85311,8.4146,-2.4390,1.4634,-2.94,26.15,27.06,5,S01
12620,-9.29908,0.59137,-1.75974,5.1220,-0.6707,1.5244,-2.94,26.15,27.06,5,S01
12640,-9.36851,0.51715,-1.67834,2.3171,0.4268,1.3415,-3.21,26.15,27.06,5,S01
12660,-9.41161,0.55785,-1.66158,-0.1829,1.0976,0.4878,-3.21,26.15,27.06,5,S01
12680,-9.42358,0.72305,-1.60412,-3.2927,1.2195,-0.1220,-3.21,26.15,27.06,5,S01
12700,-9.43076,0.70150,-1.58496,-6.8293,0.2439,0.1829,-2.48,24.95,26.79,5,S01
12720,-9.57681,0.54588,-1.54905,-10.9146,-0.6707,0.3659,-2.48,24.95,26.79,5,S01
12740,-9.72285,0.30885,-1.74058,-14.2073,-0.8537,-0.5488,-2.48,24.95,26.79,5,S01
12760,-9.69652,0.16281,-1.89381,-15.8537,-1.0366,-1.9512,-2.48,24.95,26.79,5,S01
12780,-9.54329,0.04310,-2.05423,-16.7073,-2.3780,-2.4390,4.31,27.98,26.97,5,S01
12800,-9.35415,-0.11253,-2.24576,-17.1341,-4.7561,-1.0976,4.31,27.98,26.97,5,S01
12820,-9.18655,-0.23942,-2.36068,-16.0366,-6.0366,1.0366,4.31,27.98,26.97,5,S01
12840,-9.15064,-0.22984,-2.28167,-13.5366,-4.8171,2.5000,0.46,30.64,26.51,5,S01
12860,-9.25120,-0.18675,-2.20745,-10.3049,-4.1463,3.9634,0.46,30.64,26.51,5,S01
12880,-9.35893,-0.19393,-2.09014,-7.8049,-4.0854,6.0366,0.46,30.64,26.51,5,S01
12900,-9.35654,-0.20830,-1.98000,-5.2439,-3.2317,7.9878,-3.39,28.44,26.24,5,S01
12920,-9.53610,-0.31364,-1.89142,-1.8293,-0.9756,8.5976,-3.39,28.44,26.24,5,S01
12940,-9.76834,-0.43096,-1.73340,0.7927,1.7073,7.5000,-3.39,28.44,26.24,5,S01
12960,-9.60075,-0.19632,-1.60651,5.0000,2.9268,5.3049,-3.39,28.44,26.24,5,S01
12980,-9.37569,0.24421,-1.78607,14.9390,0.0000,4.3902,-3.94,28.07,25.60,5,S01
13000,-9.24880,0.41899,-1.85790,17.3171,-1.7683,6.2195,-3.94,28.07,25.60,5,S01
13020,-9.06924,0.61292,-1.72143,10.0000,-0.6707,9.2073,-3.94,28.07,25.60,5,S01
13040,-9.05727,1.04866,-1.46286,2.2561,1.1585,10.7317,-4.40,27.71,25.60,5,S01
13060,-9.44752,1.27611,-1.25456,-0.8537,2.8049,11.0976,-4.40,27.71,25.60,5,S01
13080,-9.76116,0.92177,-1.19471,-0.6707,3.7805,10.7317,-4.40,27.71,25.60,5,S01
13100,-9.69652,0.58897,-1.48201,-0.3659,4.2073,7.4390,-4.59,27.34,25.41,5,S01
13120,-9.77074,0.55785,-1.57299,2.5610,6.4634,1.4634,-4.59,27.34,25.41,5,S01
13140,-9.84496,0.47645,-1.73101,3.8415,4.8171,-2.4390,-4.59,27.34,25.41,5,S01
13160,-9.80426,0.42377,-1.62087,4.0244,2.4390,-3.8415,-4.59,27.34,25.41,5,S01
13180,-9.79707,0.35674,-1.51792,2.3780,0.5488,-4.5122,-4.40,27.52,25.41,5,S01
13200,-9.57920,0.57221,-1.44849,0.1220,-1.0976,-6.4634,-4.40,27.52,25.41,5,S01
13220,-9.38048,0.75178,-1.48440,-3.7195,-2.6829,-7.0732,-4.40,27.52,25.41,5,S01
13240,-9.18416,0.68953,-1.61130,-7.6829,-4.0854,-5.7317,-4.04,27.52,25.69,5,S01
13260,-9.06684,0.79966,-1.54665,-10.2439,-4.8171,-2.3171,-4.04,27.52,25.69,5,S01
13280,-9.03093,0.54827,-1.48440,-12.0732,-5.0000,0.1829,-4.04,27.52,25.69,5,S01
13300,-8.94953,0.24421,-1.44370,-9.3293,-3.9024,2.0732,-3.94,27.52,25.78,5,S01
13320,-9.10515,-0.20830,-1.48201,-6.8293,-1.0366,4.8780,-3.94,27.52,25.78,5,S01
13340,-9.36612,-0.13647,-1.48440,-0.1220,1.2195,7.3171,-3.94,27.52,25.78,5,S01
13360,-9.64863,0.26576,-1.40779,6.8293,2.6829,9.1463,-3.94,27.52,25.78,5,S01
13380,-9.74201,0.59376,-1.42694,9.2073,1.4024,10.1829,-4.77,27.80,25.60,5,S01
13400,-9.64624,0.75178,-1.60412,7.9268,-2.1341,9.6341,-4.77,27.80,25.60,5,S01
13420,-9.63187,0.83318,-1.72383,6.1585,-5.0610,8.8415,-4.77,27.80,25.60,5,S01
13440,-9.68933,0.95768,-1.68552,4.3902,-7.1951,8.7805,-5.14,27.34,25.78,5,S01
13460,-9.56962,1.05584,-1.58736,2.4390,-9.9390,7.6829,-5.14,27.34,25.78,5,S01
13480,-9.39964,0.95768,-1.57538,0.0000,-11.5854,5.4268,-5.14,27.34,25.78,5,S01
13500,-9.26796,0.71108,-1.64721,-1.2805,-10.6707,3.9024,-5.23,27.06,26.15,5,S01
13520,-9.27993,0.59855,-1.73819,-0.9146,-8.9634,3.1707,-5.23,27.06,26.15,5,S01
13540,-9.39485,0.69432,-1.72861,-0.1829,-7.0122,2.4390,-5.23,27.06,26.15,5,S01
13560,-9.49540,0.75417,-1.70467,-2.4390,-5.8537,0.6098,-5.23,27.06,26.15,5,S01
13580,-9.48343,0.75657,-1.76453,-5.4878,-6.4024,-1.7073,-4.95,27.06,26.42,5,S01
13600,-9.32781,0.73741,-1.98240,-8.1707,-8.1098,-2.8659,-4.95,27.06,26.42,5,S01
13620,-9.18655,0.67038,-2.01113,-9.3902,-9.3293,-2.3171,-4.95,27.06,26.42,5,S01
13640,-9.26556,0.47645,-1.77410,-9.0244,-8.6585,-1.8902,-4.59,26.97,26.51,5,S01
13660,-9.40442,0.38068,-1.51074,-8.6585,-6.5244,-3.1707,-4.59,26.97,26.51,5,S01
13680,-9.49540,0.45729,-1.43413,-9.4512,-4.7561,-5.6098,-4.59,26.97,26.51,5,S01
13700,-9.50259,0.50996,-1.31921,-12.2561,-3.5976,-7.5000,-3.76,27.25,26.79,5,S01
13720,-9.42837,0.29688,-1.14203,-15.7927,-3.9024,-7.5000,-3.76,27.25,26.79,5,S01
13740,-9.44513,0.03352,-1.07500,-17.8049,-5.0610,-6.3415,-3.76,27.25,26.79,5,S01
13760,-9.58160,0.01197,-1.04627,-15.7927,-5.0000,-5.0000,-3.76,27.25,26.79,5,S01
13780,-9.66300,0.17238,-1.06303,-10.6707,-3.9024,-4.6951,-3.39,27.25,26.97,5,S01
13800,-9.66539,0.16281,-1.13964,-6.4024,-2.3780,-4.7561,-3.39,27.25,26.97,5,S01
13820,-9.59357,-0.01197,-1.14922,-3.1098,-0.9146,-4.2683,-3.39,27.25,26.97,5,S01
13840,-9.44273,-0.15562,-1.23062,0.0610,-1.0976,-2.5000,-3.58,27.25,26.97,5,S01
13860,-9.28471,-0.12689,-1.30963,2.5610,-1.3415,0.0610,-3.58,27.25,26.97,5,S01
13880,-9.23683,-0.04310,-1.41497,5.5488,-0.1829,2.8659,-3.58,27.25,26.97,5,S01
13900,-9.27753,0.05986,-1.45089,8.5976,2.3780,5.1220,-4.31,27.52,26.51,5,S01
13920,-9.27993,0.14605,-1.45807,11.5244,4.6341,6.4024,-4.31,27.52,26.51,5,S01
13940,-9.40442,0.17957,-1.31202,10.1829,6.4634,7.2561,-4.31,27.52,26.51,5,S01
13960,-9.41400,0.14126,-1.19231,7.5000,5.7927,6.4634,-4.31,27.52,26.51,5,S01
13980,-9.34696,0.05746,-1.17076,4.6951,3.9634,5.4268,-4.86,27.61,26.33,5,S01
14000,-9.32302,-0.12450,-1.17795,2.4390,2.0122,5.3049,-4.86,27.61,26.33,5,S01
14020,-9.42358,-0.31364,-1.09654,-0.1220,0.0610,5.3659,-4.86,27.61,26.33,5,S01
14040,-9.49780,-0.34955,-1.12049,-3.0488,-0.9756,4.3293,-5.14,27.89,26.51,5,S01
14060,-9.22007,-0.09577,-1.45089,-3.4146,-0.5488,2.7439,-5.14,27.89,26.51,5,S01
14080,-8.57124,0.01915,-1.94170,-0.7927,0.2439,2.5610,-5.14,27.89,26.51,5,S01
14100,-7.70454,0.01197,-2.07817,2.3171,1.5854,2.6829,-5.50,27.98,26.42,5,S01
14120,-6.98867,0.00239,-1.77650,2.0732,3.2927,1.1585,-5.50,27.98,26.42,5,S01
14140,-6.61757,-0.30646,-1.29526,-1.8902,5.1829,-0.6707,-5.50,27.98,26.42,5,S01
14160,-6.59124,-0.56024,-0.95050,-6.8293,6.2195,-2.6220,-5.50,27.98,26.42,5,S01
14180,-6.94318,-0.60094,-0.63686,-11.9512,5.9146,-5.1829,-5.32,28.44,26.24,5,S01
14200,-7.60877,-0.56743,-0.30406,-16.5244,3.8415,-6.2195,-5.32,28.44,26.24,5,S01
14220,-8.09719,-0.67277,-0.35913,-21.8293,-0.1829,-5.6707,-5.32,28.44,26.24,5,S01
14240,-8.22648,-0.55785,-0.70868,-28.6585,-2.9268,-4.5122,-4.68,28.35,26.51,5,S01
14260,-8.31027,-0.45969,-0.89304,-36.2195,-4.6341,-2.1951,-4.68,28.35,26.51,5,S01
14280,-8.10916,-0.26336,-1.11809,-41.9512,-8.7805,-1.3415,-4.68,28.35,26.51,5,S01
14300,-7.70454,-0.04070,-1.27611,-44.0244,-11.6463,-2.2561,-3.58,28.17,27.34,5,S01
14320,-7.73806,-0.21548,-0.89064,-44.0244,-12.0122,-2.1341,-3.58,28.17,27.34,5,S01
14340,-8.23366,-0.47645,-0.70868,-46.7073,-12.7439,-1.4024,-3.58,28.17,27.34,5,S01
14360,-9.13867,-0.44053,-1.62327,-55.3049,-15.5488,-0.4878,-3.58,28.17,27.34,5,S01
14380,-10.96784,-0.27773,-3.87142,-69.5732,-14.6341,0.3049,-2.11,27.61,28.44,5,S01
14400,-12.71321,0.96965,-3.11246,-66.7073,-6.3415,-2.4390,-2.11,27.61,28.44,5,S01
14420,-12.62462,2.32956,-2.02789,-51.7073,-8.5366,-9.5732,-2.11,27.61,28.44,5,S01
14440,-12.75870,2.56658,-3.43807,-39.1463,-11.5244,-12.1951,-0.92,27.34,28.90,5,S01
14460,-16.04594,2.79164,-4.89375,-29.0244,4.5732,-12.5000,-0.92,27.34,28.90,5,S01
14480,-17.81765,2.67672,-1.43413,-10.5488,20.7317,-20.7927,-0.92,27.34,28.90,5,S01
14500,-15.43302,2.32238,-1.29766,0.0610,-4.5732,-27.1951,-0.64,27.34,28.99,5,S01
14520,-11.95425,2.31040,-1.78368,-1.3415,-21.5244,-17.9878,-0.64,27.34,28.99,5,S01
14540,-9.66539,1.95846,-1.21865,-5.9756,-17.1951,3.7195,-0.64,27.34,28.99,5,S01
14560,-8.56406,1.58257,-0.82361,-19.5122,-11.2195,18.5366,-0.64,27.34,28.99,5,S01
14580,-7.99903,1.46525,-0.93613,-33.4146,-7.1951,21.9512,-0.83,27.16,29.63,5,S01
14600,-8.05409,1.13485,-0.88346,-35.9756,0.7927,20.4878,-0.83,27.16,29.63,5,S01
14620,-8.34619,0.93853,-1.27850,-27.3171,9.9390,17.8659,-0.83,27.16,29.63,5,S01
14640,-8.54969,0.65122,-1.77650,-15.6098,17.0122,16.0976,-1.19,28.07,28.81,5,S01
14660,-8.81066,0.48602,-1.97043,-11.8902,19.4512,13.2317,-1.19,28.07,28.81,5,S01
14680,-9.00220,0.67038,-1.84354,-18.1707,17.3171,9.8171,-1.19,28.07,28.81,5,S01
14700,-9.06684,0.96007,-1.46286,-27.8049,12.2561,7.9878,-0.55,28.35,28.72,5,S01
14720,-8.94474,0.95768,-1.17076,-31.5854,5.0610,6.8293,-0.55,28.35,28.72,5,S01
14740,-9.11233,0.83318,-1.14443,-27.1341,0.4268,3.9024,-0.55,28.35,28.72,5,S01
14760,-9.61990,0.59376,-1.19710,-19.9390,0.6098,-0.6098,-0.55,28.35,28.72,5,S01
14780,-10.13944,0.61770,-1.15401,-14.6341,0.4268,-4.6951,-0.37,28.44,28.90,5,S01
14800,-10.36211,0.96486,-0.98881,-14.3293,-3.6585,-6.5854,-0.37,28.44,28.90,5,S01
14820,-10.22085,1.36230,-0.79009,-18.6585,-10.1220,-6.0976,-0.37,28.44,28.90,5,S01
14840,-9.78510,1.58736,-0.73981,-24.0854,-15.4268,-4.2683,0.37,27.80,29.63,5,S01
14860,-9.29908,1.52271,-0.89543,-27.5610,-16.9512,-2.3171,0.37,27.80,29.63,5,S01
14880,-9.05966,1.25456,-1.10133,-28.2317,-14.2683,-0.3659,0.37,27.80,29.63,5,S01
14900,-9.14346,0.91937,-1.10133,-27.8659,-9.3902,1.8902,1.01,27.80,30.00,5,S01
14920,-9.31584,0.67995,-0.95289,-27.6829,-5.9756,3.7805,1.01,27.80,30.00,5,S01
14940,-9.52653,0.76614,-0.99599,-28.1098,-4.8171,4.0854,1.01,27.80,30.00,5,S01
14960,-9.64624,0.98162,-0.92895,-28.4756,-3.1098,3.1098,1.01,27.80,30.00,5,S01
14980,-9.55765,1.13964,-0.96007,-27.9878,-1.7683,1.9512,1.65,27.80,30.18,5,S01
15000,-9.30387,1.13485,-1.14682,-26.7073,-0.6098,0.9756,1.65,27.80,30.18,5,S01
15020,-9.04529,0.99120,-1.40779,-23.7195,1.6463,0.2439,1.65,27.80,30.18,5,S01
15040,-9.02135,1.05584,-1.57778,-20.1829,5.4878,-0.4268,2.20,28.26,29.91,5,S01
15060,-9.29429,1.34075,-1.36470,-19.2073,9.6951,-0.0610,2.20,28.26,29.91,5,S01
15080,-9.58160,1.59214,-1.12049,-21.2805,10.3049,1.4024,2.20,28.26,29.91,5,S01
15100,-9.68455,1.50595,-1.13964,-23.4756,7.3171,2.9878,2.66,28.53,29.72,5,S01
15120,-9.56484,1.20668,-1.30245,-23.4146,3.7195,3.1098,2.66,28.53,29.72,5,S01
15140,-9.41161,0.92177,-1.48201,-21.0976,1.8902,2.5000,2.66,28.53,29.72,5,S01
15160,-9.40203,0.75896,-1.43652,-17.6829,2.4390,2.3171,2.66,28.53,29.72,5,S01
15180,-9.44273,0.73981,-1.34075,-14.7561,3.4756,2.9268,2.84,28.81,29.63,5,S01
15200,-9.42597,0.88107,-1.36948,-12.3171,4.2073,4.0244,2.84,28.81,29.63,5,S01
15220,-9.34936,1.08936,-1.42455,-10.6707,5.1220,5.1220,2.84,28.81,29.63,5,S01
15240,-9.30387,1.21386,-1.46286,-9.8171,6.0366,5.8537,2.84,29.08,29.54,5,S01
15260,-9.31105,1.28569,-1.50595,-9.3902,7.1951,5.3659,2.84,29.08,29.54,5,S01
15280,-9.39006,1.29287,-1.60890,-10.4268,9.9390,4.2683,2.84,29.08,29.54,5,S01
15300,-9.37091,1.15640,-1.67115,-10.1829,9.7561,4.9390,2.75,29.54,29.08,5,S01
15320,-9.39724,0.97683,-1.72383,-8.4146,9.0244,5.7317,2.75,29.54,29.08,5,S01
15340,-9.49301,0.88107,-1.73580,-5.5488,8.4146,5.7317,2.75,29.54,29.08,5,S01
15360,-9.59596,0.82121,-1.71425,-2.8049,7.8659,5.3659,2.75,29.54,29.08,5,S01
15380,-9.62469,0.80206,-1.67834,-0.6098,6.7683,5.3049,2.20,29.82,28.90,5,S01
15400,-9.54329,0.89543,-1.66158,0.9146,4.6341,5.8537,2.20,29.82,28.90,5,S01
15420,-9.37569,1.05584,-1.68073,1.5244,2.1951,6.7683,2.20,29.82,28.90,5,S01
15440,-9.23204,1.25696,-1.72143,1.7073,0.6098,7.5610,1.65,29.91,28.81,5,S01
15460,-9.20571,1.37188,-1.72383,1.7683,0.3049,8.1098,1.65,29.91,28.81,5,S01
15480,-9.19373,1.52271,-1.74058,0.7927,0.4878,8.1098,1.65,29.91,28.81,5,S01
15500,-9.17219,1.66876,-1.71664,-1.5244,0.2439,7.8659,1.28,29.82,28.81,5,S01
15520,-9.06684,1.80523,-1.74298,-4.5732,-0.2439,7.5000,1.28,29.82,28.81,5,S01
15540,-8.96389,1.85072,-1.97282,-8.1098,0.2439,6.3415,1.28,29.82,28.81,5,S01
15560,-8.88009,1.97522,-2.10211,-11.7073,2.9878,4.7561,1.28,29.82,28.81,5,S01
15580,-8.94713,2.07338,-2.00874,-14.7561,6.3415,4.3902,1.38,30.09,28.72,5,S01
15600,-9.17458,2.04944,-1.95127,-17.8049,8.1098,5.2439,1.38,30.09,28.72,5,S01
15620,-9.57202,1.90578,-1.86987,-19.9390,8.4756,6.1585,1.38,30.09,28.72,5,S01
15640,-9.87369,1.53947,-1.78368,-20.0000,7.1951,6.5244,1.74,30.46,28.44,5,S01
15660,-9.89284,1.29766,-1.62087,-16.7073,4.0854,5.9756,1.74,30.46,28.44,5,S01
15680,-9.75158,1.12767,-1.51792,-11.8902,0.1220,5.4268,1.74,30.46,28.44,5,S01
15700,-9.67736,1.11570,-1.51074,-7.6829,-2.4390,5.3659,1.74,30.37,28.44,5,S01
15720,-9.64624,1.25456,-1.47722,-4.8780,-2.8049,5.4878,1.74,30.37,28.44,5,S01
15740,-9.47146,1.39103,-1.50835,-3.2927,-3.4146,5.7927,1.74,30.37,28.44,5,S01
15760,-9.17458,1.50116,-1.51074,-2.8659,-4.2073,5.3049,1.74,30.37,28.44,5,S01
15780,-8.94474,1.59693,-1.49159,-3.5366,-4.3293,3.7195,1.47,30.28,28.62,5,S01
15800,-8.94953,1.59693,-1.43892,-5.4268,-3.7195,2.1341,1.47,30.28,28.62,5,S01
15820,-9.19613,1.46765,-1.38864,-7.4390,-3.1098,1.3415,1.47,30.28,28.62,5,S01
15840,-9.46189,1.24738,-1.39582,-8.0488,-3.1707,0.7927,1.56,30.00,28.62,5,S01
15860,-9.61751,1.11091,-1.38385,-7.1951,-3.9634,0.2439,1.56,30.00,28.62,5,S01
15880,-9.64624,1.07500,-1.31202,-5.6707,-5.9756,0.1220,1.56,30.00,28.62,5,S01
15900,-9.50738,1.09654,-1.32878,-4.5732,-9.0244,0.3049,1.65,29.82,28.99,5,S01
15920,-9.30626,1.17795,-1.31681,-2.7439,-11.3415,0.6098,1.65,29.82,28.99,5,S01
15940,-9.19134,1.34554,-1.25935,-0.4268,-12.0732,0.9756,1.65,29.82,28.99,5,S01
15960,-9.24880,1.53708,-1.10852,0.4878,-11.5244,1.0976,1.65,29.82,28.99,5,S01
15980,-9.37569,1.60172,-0.96007,0.0610,-10.6707,0.6707,1.56,29.54,29.36,5,S01
16000,-9.43555,1.50595,-0.97923,-0.1220,-10.2439,-0.3049,1.56,29.54,29.36,5,S01
16020,-9.32302,1.36948,-1.03190,0.9146,-10.3659,-1.6463,1.56,29.54,29.36,5,S01
16040,-9.19134,1.32160,-1.02951,2.0732,-10.4268,-3.1098,1.47,29.45,29.91,5,S01
16060,-9.29669,1.29287,-0.92656,2.2561,-9.6951,-3.9634,1.47,29.45,29.91,5,S01
16080,-9.46907,1.30723,-0.86431,2.3780,-9.5732,-4.6341,1.47,29.45,29.91,5,S01
16100,-9.48822,1.44610,-1.00317,3.2927,-10.4268,-5.1829,1.47,29.17,30.09,5,S01
16120,-9.39245,1.61369,-1.12767,3.4756,-10.2439,-5.3049,1.47,29.17,30.09,5,S01
16140,-9.26077,1.65439,-1.11091,2.9878,-8.2927,-4.5732,1.47,29.17,30.09,5,S01
16160,-9.20331,1.64960,-1.07021,2.8659,-6.0366,-4.0244,1.47,29.17,30.09,5,S01
16180,-9.27274,1.58017,-0.88107,2.9878,-4.6341,-3.2317,1.47,29.27,30.28,5,S01
16200,-9.38527,1.37906,-0.76136,2.9268,-4.8171,-2.3171,1.47,29.27,30.28,5,S01
16220,-9.50977,1.07260,-0.72065,3.6585,-5.3049,-2.1341,1.47,29.27,30.28,5,S01
16240,-9.47864,0.83558,-0.78051,5.4268,-5.6098,-3.1098,1.28,29.08,30.37,5,S01
16260,-9.31344,0.79009,-0.74220,8.4146,-5.1220,-4.0854,1.28,29.08,30.37,5,S01
16280,-9.07402,0.87867,-0.61292,12.0732,-4.5122,-4.0854,1.28,29.08,30.37,5,S01
16300,-8.89685,0.96965,-0.40941,16.0366,-4.2683,-2.8659,0.64,29.17,30.55,5,S01
16320,-8.84418,0.94092,-0.30646,19.5122,-4.3293,-0.6098,0.64,29.17,30.55,5,S01
16340,-8.93756,0.89543,-0.29209,21.8293,-4.6951,0.7927,0.64,29.17,30.55,5,S01
16360,-9.03093,0.87867,-0.26576,23.8415,-5.4878,1.1585,0.64,29.17,30.55,5,S01
16380,-9.00220,0.91459,-0.28252,26.4634,-7.9878,1.3415,-0.46,28.99,30.83,5,S01
16400,-8.75081,0.97205,-0.46926,29.6341,-12.2561,2.8049,-0.46,28.99,30.83,5,S01
16420,-8.21451,0.99838,-0.65841,33.2317,-16.0366,4.8780,-0.46,28.99,30.83,5,S01
16440,-7.42921,1.14682,-0.51715,36.6463,-18.7195,5.7317,-2.02,28.35,31.38,5,S01
16460,-6.46674,1.30963,-0.30406,39.4512,-20.7317,5.4878,-2.02,28.35,31.38,5,S01
16480,-5.87298,1.42455,-0.21787,40.9146,-20.3049,4.5732,-2.02,28.35,31.38,5,S01
16500,-5.74848,1.47722,-0.11253,39.0244,-16.9512,3.4756,-3.58,27.61,31.65,5,S01
16520,-6.15789,1.23062,0.28491,35.1829,-13.2317,2.4390,-3.58,27.61,31.65,5,S01
16540,-6.87854,1.19471,0.70390,30.0610,-12.4390,-1.8902,-3.58,27.61,31.65,5,S01
16560,-7.16345,1.34794,0.59137,23.5976,-13.2317,-7.8049,-3.58,27.61,31.65,5,S01
16580,-6.90248,1.47004,0.10774,18.2317,-14.5732,-12.1951,-3.58,27.06,31.83,5,S01
16600,-6.89291,1.28329,0.07661,16.4024,-14.6951,-14.8780,-3.58,27.06,31.83,5,S01
16620,-7.62793,1.52750,-0.26576,16.1585,-12.9878,-18.2927,-3.58,27.06,31.83,5,S01
16640,-14.59984,3.62482,-3.21781,-2.6829,7.1951,7.1951,-3.39,26.79,31.56,5,S01
16660,-16.21114,2.05901,-3.63440,-0.3659,-2.4390,16.8293,-3.39,26.79,31.56,5,S01
16680,-14.82250,1.22104,-3.48835,-3.8415,-18.4756,5.1829,-3.39,26.79,31.56,5,S01
16700,-14.22874,0.77093,-2.96881,-0.9756,-25.1220,-6.0366,-3.21,25.78,32.48,5,S01
16720,-15.04516,-0.42856,-3.35667,12.0122,-19.2073,-4.3902,-3.21,25.78,32.48,5,S01
16740,-15.07629,-1.76213,-3.14119,31.2805,-12.0122,1.3415,-3.21,25.78,32.48,5,S01
16760,-13.42429,-0.88825,-2.91614,42.4390,-9.3293,-1.7683,-3.21,25.78,32.48,5,S01
16780,-10.93432,0.39744,-2.16436,44.0854,-5.7927,-3.9634,-4.77,26.06,31.83,5,S01
16800,-8.54730,1.75495,-1.46046,40.3049,-2.3780,-4.6341,-4.77,26.06,31.83,5,S01
16820,-7.02938,2.46124,-0.92177,35.0610,4.5122,-2.9268,-4.77,26.06,31.83,5,S01
16840,-6.92882,1.64960,-1.06542,31.2195,15.1829,3.9634,-6.15,26.70,31.10,5,S01
16860,-7.66863,0.72305,-1.64482,25.1829,26.6463,8.4756,-6.15,26.70,31.10,5,S01
16880,-8.55209,0.37589,-2.04944,17.0122,32.6220,9.0244,-6.15,26.70,31.10,5,S01
16900,-9.17219,0.39744,-1.84114,8.4756,31.8902,9.2683,-6.88,27.80,29.91,5,S01
16920,-9.42597,0.69192,-1.39103,1.7683,26.6463,9.9390,-6.88,27.80,29.91,5,S01
16940,-9.25120,0.95289,-1.38864,-0.9756,18.1098,10.4878,-6.88,27.80,29.91,5,S01
16960,-9.20092,1.27372,-1.47722,-0.3049,11.4024,9.9390,-6.88,27.80,29.91,5,S01
16980,-9.55765,1.38385,-1.62327,0.6098,7.1341,9.1463,-7.16,27.89,29.72,5,S01
17000,-10.15860,1.15401,-1.70707,-0.0610,4.5122,8.1098,-7.16,27.89,29.72,5,S01
17020,-10.46266,0.78769,-1.78847,-0.3659,1.2195,5.7927,-7.16,27.89,29.72,5,S01
17040,-10.19690,0.53391,-1.90578,1.5854,-2.6220,2.2561,-7.43,27.89,29.54,5,S01
17060,-9.75398,0.45969,-1.83156,4.8780,-4.3293,-0.7317,-7.43,27.89,29.54,5,S01
17080,-9.42837,0.63207,-1.67115,7.9268,-4.8171,-2.6220,-7.43,27.89,29.54,5,S01
17100,-9.35893,0.82121,-1.47243,9.2683,-4.6341,-3.0488,-7.61,28.07,29.45,5,S01
17120,-9.44752,0.80206,-1.26893,8.4146,-3.5366,-2.9878,-7.61,28.07,29.45,5,S01
17140,-9.50498,0.70390,-1.15640,6.7683,-2.6829,-3.4146,-7.61,28.07,29.45,5,S01
17160,-9.52653,0.62489,-1.12527,4.9390,-2.4390,-3.5366,-7.61,28.07,29.45,5,S01
17180,-9.55287,0.61052,-1.14682,3.0488,-2.8659,-2.6220,-7.71,27.98,29.54,5,S01
17200,-9.55047,0.70150,-1.13485,1.4634,-3.5976,-1.4024,-7.71,27.98,29.54,5,S01
17220,-9.45470,0.88107,-1.15879,0.1829,-4.4512,-0.6707,-7.71,27.98,29.54,5,S01
17240,-9.35175,1.03430,-1.21147,-0.8537,-4.7561,-0.2439,-7.80,27.89,29.63,5,S01
17260,-9.31105,1.12767,-1.35272,-2.1951,-4.3902,0.3659,-7.80,27.89,29.63,5,S01
17280,-9.33020,1.09654,-1.47722,-3.4756,-3.5366,1.2195,-7.80,27.89,29.63,5,S01
17300,-9.37569,1.02951,-1.57299,-4.0854,-2.7439,1.7073,-7.80,27.89,29.72,5,S01
17320,-9.42837,0.96247,-1.58975,-3.6585,-2.1951,1.7073,-7.80,27.89,29.72,5,S01
17340,-9.43076,0.90980,-1.61130,-2.1951,-2.0122,1.0976,-7.80,27.89,29.72,5,S01
17360,-9.42118,0.90980,-1.63285,-0.4268,-1.6463,0.0610,-7.80,27.89,29.72,5,S01
17380,-9.41640,0.92177,-1.63763,0.9756,-1.1585,-0.6098,-7.89,27.98,29.54,5,S01
17400,-9.40682,0.95050,-1.54426,1.7073,-0.6707,-0.8537,-7.89,27.98,29.54,5,S01
17420,-9.41400,0.97683,-1.47243,1.4024,-0.4878,-0.8537,-7.89,27.98,29.54,5,S01
17440,-9.44034,1.03669,-1.46765,-0.0610,-0.5488,-1.0366,-7.98,28.17,29.63,5,S01
17460,-9.51456,1.02711,-1.44131,-1.7073,-0.3659,-1.5854,-7.98,28.17,29.63,5,S01
17480,-9.56723,0.98162,-1.43173,-2.9268,-0.1220,-2.8049,-7.98,28.17,29.63,5,S01
17500,-9.57681,0.96965,-1.48201,-4.2683,0.1829,-4.4512,-7.71,28.26,29.45,5,S01
17520,-9.54808,0.99838,-1.51314,-5.8537,0.5488,-5.7927,-7.71,28.26,29.45,5,S01
17540,-9.46189,0.98162,-1.55863,-7.3171,0.7927,-6.0366,-7.71,28.26,29.45,5,S01
17560,-9.36372,0.90501,-1.58736,-8.0488,1.1585,-5.6098,-7.71,28.26,29.45,5,S01
17580,-9.36372,0.80445,-1.53468,-9.0244,2.0122,-5.1220,-7.25,28.44,29.45,5,S01
17600,-9.41161,0.70629,-1.50116,-10.8537,2.8659,-4.6951,-7.25,28.44,29.45,5,S01
17620,-9.35415,0.55785,-1.53468,-12.4390,3.4146,-4.5732,-7.25,28.44,29.45,5,S01
17640,-9.22486,0.43096,-1.69988,-12.0732,4.6951,-4.5122,-6.88,28.81,29.27,5,S01
17660,-9.18655,0.30885,-1.89621,-9.8171,7.2561,-3.7805,-6.88,28.81,29.27,5,S01
17680,-9.34457,0.19393,-1.95127,-6.2805,9.8171,-2.1341,-6.88,28.81,29.27,5,S01
17700,-9.51216,0.12450,-1.92494,-2.8659,10.5488,-0.7927,-7.06,29.45,28.81,5,S01
17720,-9.52892,0.19393,-1.86987,0.1829,10.0610,-0.5488,-7.06,29.45,28.81,5,S01
17740,-9.43076,0.35195,-1.91057,3.1707,9.2073,-1.0976,-7.06,29.45,28.81,5,S01
17760,-9.35654,0.53391,-1.93212,5.7317,8.7805,-0.9756,-7.06,29.45,28.81,5,S01
17780,-9.39485,0.67277,-1.83875,6.8902,8.0488,0.0610,-7.43,29.63,28.35,5,S01
17800,-9.48104,0.71108,-1.77171,6.5244,6.5244,0.8537,-7.43,29.63,28.35,5,S01
17820,-9.49540,0.66080,-1.71904,6.5244,4.6951,0.5488,-7.43,29.63,28.35,5,S01
17840,-9.47864,0.54827,-1.70707,7.1341,3.2317,-0.7317,-7.71,29.82,28.07,5,S01
17860,-9.43794,0.44772,-1.69509,8.1098,2.0122,-2.1951,-7.71,29.82,28.07,5,S01
17880,-9.38048,0.43574,-1.70228,8.4756,1.5244,-3.2317,-7.71,29.82,28.07,5,S01
17900,-9.39964,0.42856,-1.66158,8.9024,2.2561,-3.3537,-8.07,30.00,27.71,5,S01
17920,-9.51695,0.42856,-1.65439,9.8780,3.5976,-3.4756,-8.07,30.00,27.71,5,S01
17940,-9.59357,0.40462,-1.68073,10.2439,4.4512,-3.9634,-8.07,30.00,27.71,5,S01
17960,-9.55047,0.39265,-1.76453,10.0610,4.3902,-4.6341,-8.07,30.00,27.71,5,S01
17980,-9.41161,0.41420,-1.74537,9.8780,3.2317,-4.6341,-8.35,30.18,27.34,5,S01
18000,-9.39245,0.33519,-1.59214,9.4512,0.3049,-1.4634,-8.35,30.18,27.34,5,S01
18020,-9.49062,0.26576,-1.59693,8.4756,-0.3659,0.0000,-8.35,30.18,27.34,5,S01
18040,-9.51935,0.28012,-1.57299,7.8049,-0.4878,0.6707,-9.08,30.18,27.16,5,S01
18060,-9.42597,0.40701,-1.58257,7.3171,-0.7927,0.9146,-9.08,30.18,27.16,5,S01
18080,-9.35175,0.57221,-1.61369,5.9756,-1.0366,1.7683,-9.08,30.18,27.16,5,S01
18100,-9.42118,0.64165,-1.56341,3.4756,-1.2805,3.1098,-9.36,30.28,27.06,5,S01
18120,-9.45231,0.62968,-1.56581,0.6098,-1.8902,3.8415,-9.36,30.28,27.06,5,S01
18140,-9.41640,0.57221,-1.58496,-2.2561,-2.3780,3.4146,-9.36,30.28,27.06,5,S01
18160,-9.33978,0.49081,-1.60651,-4.8780,-3.1098,2.3780,-9.36,30.28,27.06,5,S01
18180,-9.34457,0.39025,-1.57538,-6.7683,-3.9024,1.2805,-9.36,30.28,27.34,5,S01
18200,-9.48822,0.26336,-1.57778,-8.1098,-3.8415,0.3049,-9.36,30.28,27.34,5,S01
18220,-9.64145,0.16281,-1.55384,-9.0854,-3.5366,-0.7927,-9.36,30.28,27.34,5,S01
18240,-9.62708,0.11253,-1.55384,-9.9390,-3.8415,-2.0732,-8.99,30.28,27.52,5,S01
18260,-9.47386,0.17478,-1.55144,-10.6098,-4.8171,-3.2317,-8.99,30.28,27.52,5,S01
18280,-9.33260,0.26815,-1.57778,-11.2195,-5.4268,-3.5976,-8.99,30.28,27.52,5,S01
18300,-9.29908,0.25857,-1.63524,-11.2805,-5.3659,-2.8049,-8.72,30.28,27.89,5,S01
18320,-9.30866,0.14605,-1.58017,-12.0122,-4.9390,-1.4634,-8.72,30.28,27.89,5,S01
18340,-9.25598,0.08859,-1.50595,-13.0488,-5.3049,-0.6707,-8.72,30.28,27.89,5,S01
18360,-9.04051,0.13408,-1.38624,-14.4512,-6.7073,-0.6707,-8.72,30.28,27.89,5,S01
18380,-8.80587,0.11253,-1.35272,-15.9146,-7.4390,-0.5488,-8.26,30.18,28.35,5,S01
18400,-8.71968,0.05746,-1.40779,-16.8902,-6.2195,-0.2439,-8.26,30.18,28.35,5,S01
18420,-8.64307,-0.03591,-1.44610,-17.6829,-4.8780,0.4268,-8.26,30.18,28.35,5,S01
18440,-8.43238,-0.14365,-1.40061,-18.0488,-4.9390,1.2195,-7.89,30.09,28.72,5,S01
18460,-8.00142,-0.35674,-1.46525,-17.8659,-5.4268,1.3415,-7.89,30.09,28.72,5,S01
18480,-7.35259,-0.49560,-1.60890,-16.6463,-5.3659,0.6707,-7.89,30.09,28.72,5,S01
18500,-6.81390,-0.40223,-1.42934,-15.1829,-4.6951,-0.0610,-7.43,30.09,28.99,5,S01
18520,-6.62236,-0.26576,-1.08457,-15.0610,-4.0244,0.4878,-7.43,30.09,28.99,5,S01
18540,-6.92643,-0.36152,-0.69432,-17.9268,-3.2317,2.1341,-7.43,30.09,28.99,5,S01
18560,-7.37414,-0.74460,-0.41180,-23.0488,-3.5976,3.2927,-7.43,30.09,28.99,5,S01
18580,-7.55131,-1.06542,-0.48602,-26.6463,-6.6463,2.3171,-6.88,29.63,29.27,5,S01
18600,-7.71891,-1.27611,-0.71826,-27.4390,-8.2927,0.4268,-6.88,29.63,29.27,5,S01
18620,-7.87932,-1.33836,-0.78769,-26.9512,-7.8049,-0.1220,-6.88,29.63,29.27,5,S01
18640,-7.89368,-1.35991,-0.88585,-25.3049,-8.3537,1.8902,-6.06,29.27,29.72,5,S01
18660,-7.84580,-1.15879,-1.47722,-23.1707,-9.5732,5.7317,-6.06,29.27,29.72,5,S01
18680,-8.00382,-0.66559,-2.62644,-29.9390,-8.4146,9.4512,-6.06,29.27,29.72,5,S01
18700,-9.65582,-0.13647,-4.25928,-47.0122,-0.8537,10.7927,-4.68,28.90,29.91,5,S01
18720,-12.55759,0.69432,-3.11964,-53.9634,7.5610,5.6707,-4.68,28.90,29.91,5,S01
18740,-14.53041,2.08296,-2.96881,-44.6341,2.6220,-8.5976,-4.68,28.90,29.91,5,S01
18760,-14.22395,3.44047,-2.98557,-26.2805,-10.3659,-20.5488,-4.68,28.90,29.91,5,S01
18780,-13.39077,3.80918,-3.43329,-15.2439,-22.3171,-17.9878,-3.49,28.07,30.55,5,S01
18800,-14.23353,4.11084,-3.54102,-24.3902,-22.6220,-12.2561,-3.49,28.07,30.55,5,S01
18820,-15.03798,3.84988,-2.07817,-28.1707,-20.4268,-15.8537,-3.49,28.07,30.55,5,S01
18840,-13.86243,3.39977,-1.33596,-24.6951,-27.8049,-21.7073,-1.65,27.06,31.93,5,S01
18860,-11.47780,2.33674,-1.37188,-28.2317,-34.5122,-17.1341,-1.65,27.06,31.93,5,S01
18880,-8.92558,0.87388,-1.32160,-27.0122,-31.0366,-7.5610,-1.65,27.06,31.93,5,S01
18900,-6.88333,-0.18196,-1.37667,-23.0488,-21.0366,-3.1707,-1.01,26.79,32.39,5,S01
18920,-6.18422,0.04310,-1.55384,-16.8293,-9.0244,-0.7927,-1.01,26.79,32.39,5,S01
18940,-7.24485,0.74699,-1.11809,-14.3293,7.2561,5.0610,-1.01,26.79,32.39,5,S01
18960,-9.02614,1.34315,-0.71347,-16.2195,19.2073,12.3780,-1.01,26.79,32.39,5,S01
18980,-10.15381,1.31202,-0.78290,-15.4268,21.3415,15.2439,-1.10,27.71,31.56,5,S01
19000,-10.38365,0.93613,-1.24498,-9.2073,18.6585,9.8780,-1.10,27.71,31.56,5,S01
19020,-10.00297,0.58897,-1.73101,-2.6829,15.7927,1.3415,-1.10,27.71,31.56,5,S01
19040,-9.50259,0.65122,-2.04944,-1.7073,14.3902,-4.3293,-0.92,28.35,30.92,5,S01
19060,-9.37809,0.73741,-1.92494,-5.3659,15.4878,-4.0244,-0.92,28.35,30.92,5,S01
19080,-9.48104,0.89543,-1.67594,-9.3293,15.6707,0.4878,-0.92,28.35,30.92,5,S01
19100,-9.45710,1.09415,-1.63763,-12.8659,13.2927,4.8780,-0.64,28.62,30.64,5,S01
19120,-9.24162,1.26653,-1.68552,-15.1220,11.6463,7.3780,-0.64,28.62,30.64,5,S01
19140,-9.12191,1.17555,-1.64482,-16.4634,11.8293,8.1707,-0.64,28.62,30.64,5,S01
19160,-9.21289,0.93374,-1.60890,-16.8902,12.6829,7.6829,-0.64,28.62,30.64,5,S01
19180,-9.38767,0.71826,-1.56581,-16.5244,13.0488,6.7073,-0.55,28.99,30.37,5,S01
19200,-9.53850,0.67756,-1.51074,-15.3659,12.3780,6.1585,-0.55,28.99,30.37,5,S01
19220,-9.65342,0.72784,-1.44370,-14.0244,10.9146,6.5244,-0.55,28.99,30.37,5,S01
19240,-9.70849,0.82121,-1.39343,-13.1098,8.9024,7.1341,-0.55,29.27,30.09,5,S01
19260,-9.70609,0.90022,-1.37667,-12.0122,6.4024,7.6829,-0.55,29.27,30.09,5,S01
19280,-9.64863,1.00317,-1.35991,-10.4268,3.5366,7.6829,-0.55,29.27,30.09,5,S01
19300,-9.49062,1.08936,-1.43173,-9.5122,1.4634,7.2561,-0.46,29.17,30.09,5,S01
19320,-9.41400,1.15879,-1.44131,-10.3049,1.7073,6.9512,-0.46,29.17,30.09,5,S01
19340,-9.51456,1.21865,-1.46286,-11.5244,3.5366,6.9512,-0.46,29.17,30.09,5,S01
19360,-9.53850,1.50835,-1.36230,-14.5122,5.1829,6.0366,-0.46,29.17,30.09,5,S01
19380,-9.47625,1.52032,-1.46765,-16.0366,3.6585,5.8537,-0.09,29.45,29.91,5,S01
19400,-9.46428,1.40540,-1.72383,-17.0732,2.5000,5.7317,-0.09,29.45,29.91,5,S01
19420,-9.64145,1.13964,-1.74058,-16.2195,2.4390,5.7317,-0.09,29.45,29.91,5,S01
19440,-9.85693,0.85952,-1.65679,-12.0122,0.7927,5.4268,0.00,29.54,29.82,5,S01
19460,-9.89045,0.73981,-1.64721,-6.0976,-2.3171,4.8780,0.00,29.54,29.82,5,S01
19480,-9.67736,0.82839,-1.71664,-1.4024,-5.6707,5.0000,0.00,29.54,29.82,5,S01
19500,-9.35654,1.00796,-1.68552,0.6707,-8.2927,6.0366,-0.37,29.27,30.00,5,S01
19520,-9.15064,1.32399,-1.56581,0.1220,-10.0610,6.6463,-0.37,29.27,30.00,5,S01
19540,-9.19852,1.60412,-1.44370,-3.2927,-10.3049,6.2195,-0.37,29.27,30.00,5,S01
19560,-9.33020,1.57060,-1.39343,-8.1098,-9.8780,5.0610,-0.37,29.27,30.00,5,S01
19580,-9.33020,1.34315,-1.53229,-11.6463,-10.3659,3.9024,-0.28,29.08,30.37,5,S01
19600,-9.22486,1.13964,-1.63045,-13.1707,-10.1829,2.8659,-0.28,29.08,30.37,5,S01
19620,-9.25838,1.13006,-1.57538,-13.7805,-9.0854,2.2561,-0.28,29.08,30.37,5,S01
19640,-9.56723,1.21625,-1.40779,-15.0000,-7.9878,2.2561,0.09,28.81,30.55,5,S01
19660,-9.84017,1.08936,-1.34075,-15.0610,-8.4146,2.4390,0.09,28.81,30.55,5,S01
19680,-9.80186,0.88107,-1.48440,-11.2195,-10.7317,1.7073,0.09,28.81,30.55,5,S01
19700,-9.54808,0.71347,-1.64482,-5.0000,-12.1341,0.3049,0.09,28.62,30.83,5,S01
19720,-9.26556,0.71347,-1.74298,1.4024,-11.4024,-0.3049,0.09,28.62,30.83,5,S01
19740,-9.07881,0.96965,-1.62806,4.9390,-9.7561,0.4878,0.09,28.62,30.83,5,S01
19760,-9.05248,1.40061,-1.35751,4.8780,-9.0244,2.3780,0.09,28.62,30.83,5,S01
19780,-9.19134,1.71904,-1.10373,1.8902,-8.8415,3.9634,-0.28,28.35,30.92,5,S01
19800,-9.21289,1.79565,-1.08936,-2.1341,-9.3293,3.5976,-0.28,28.35,30.92,5,S01
19820,-9.05487,1.64721,-1.21386,-4.5122,-9.6951,2.1341,-0.28,28.35,30.92,5,S01
19840,-8.91840,1.49159,-1.34554,-4.8171,-8.1098,1.0366,-0.28,28.26,31.10,5,S01
19860,-8.96868,1.47962,-1.23541,-5.6707,-5.1829,0.9146,-0.28,28.26,31.10,5,S01
19880,-9.17219,1.55384,-1.06781,-7.9878,-3.3537,1.8293,-0.28,28.26,31.10,5,S01
19900,-9.33260,1.55384,-1.02472,-10.8537,-3.2317,2.6220,0.09,28.26,30.92,5,S01
19920,-9.37809,1.47962,-1.01754,-12.3780,-3.2927,2.3780,0.09,28.26,30.92,5,S01
19940,-9.41161,1.41737,-0.96965,-12.4390,-3.2927,0.9146,0.09,28.26,30.92,5,S01
19960,-9.46907,1.27132,-0.98402,-12.3171,-3.9024,-0.1220,0.09,28.26,30.92,5,S01
19980,-9.45949,1.13964,-1.10852,-11.5244,-4.3902,-0.7317,0.37,28.26,30.92,5,S01
20000,-9.45949,1.13485,-1.21147,-10.7927,-3.6585,-1.1585,0.37,28.26,30.92,5,S01
20020,-9.54089,1.24259,-1.15879,-11.7683,-1.8293,-1.9512,0.37,28.26,30.92,5,S01
20040,-9.58160,1.35512,-1.11809,-13.9024,-1.4024,-2.8659,0.73,28.26,30.83,5,S01
20060,-9.59835,1.39103,-1.23301,-14.9390,-2.0732,-2.8049,0.73,28.26,30.83,5,S01
20080,-9.57681,1.24259,-1.17555,-14.2683,-1.6463,-1.5244,0.73,28.26,30.83,5,S01
20100,-9.49062,1.05345,-1.05824,-12.2561,-2.0122,-0.4878,0.92,28.26,30.73,5,S01
20120,-9.40682,0.98402,-0.98881,-9.7561,-3.2927,-0.6098,0.92,28.26,30.73,5,S01
20140,-9.42837,0.92656,-0.87149,-6.8902,-4.1463,-0.7927,0.92,28.26,30.73,5,S01
20160,-9.40682,0.84515,-0.77812,-4.1463,-4.9390,-0.7927,0.92,28.26,30.73,5,S01
20180,-9.35415,0.79966,-0.78290,-1.7683,-5.3659,-1.0976,0.83,28.26,30.64,5,S01
20200,-9.33499,0.80924,-0.71587,0.2439,-4.9390,-1.2195,0.83,28.26,30.64,5,S01
20220,-9.39006,0.80685,-0.65601,1.9512,-4.3902,-0.7317,0.83,28.26,30.64,5,S01
20240,-9.40442,0.81163,-0.62728,3.0488,-2.6220,0.4878,0.46,28.44,30.55,5,S01
20260,-9.36133,0.85952,-0.56264,3.4756,-0.1220,2.0732,0.46,28.44,30.55,5,S01
20280,-9.27753,0.95529,-0.46448,3.9024,1.4024,3.3537,0.46,28.44,30.55,5,S01
20300,-9.20092,1.01993,-0.43814,4.2683,1.7073,3.2927,0.00,28.81,30.09,5,S01
20320,-9.18655,1.01754,-0.48363,4.6951,2.5000,1.5854,0.00,28.81,30.09,5,S01
20340,-9.27274,1.13485,-0.47166,4.8780,3.7805,-0.4268,0.00,28.81,30.09,5,S01
20360,-9.30147,1.12767,-0.41180,3.2927,4.8171,-1.5854,0.00,28.81,30.09,5,S01
20380,-9.14106,1.14922,-0.49081,1.5244,5.2439,-2.6220,-0.09,29.27,29.54,5,S01
20400,-9.00938,1.11570,-0.57700,1.1585,6.3415,-3.1707,-0.09,29.27,29.54,5,S01
20420,-8.93277,0.97205,-0.50278,3.3537,7.5000,-3.1707,-0.09,29.27,29.54,5,S01
20440,-8.89925,0.86431,-0.45969,6.2195,7.7439,-3.2927,-0.46,29.91,28.81,5,S01
20460,-8.91361,0.85952,-0.42377,7.8049,7.8049,-3.2317,-0.46,29.91,28.81,5,S01
20480,-9.02854,0.94571,-0.28730,7.8659,8.4146,-3.5976,-0.46,29.91,28.81,5,S01
20500,-9.01656,1.07739,-0.07183,7.1951,7.8049,-4.9390,-0.73,30.46,28.07,5,S01
20520,-8.68616,1.14203,-0.14365,7.2561,3.7805,-6.1585,-0.73,30.46,28.07,5,S01
20540,-8.08282,1.10133,-0.40462,7.7439,-0.7317,-6.8902,-0.73,30.46,28.07,5,S01
20560,-7.32386,1.00078,-0.52194,8.9024,-2.0122,-7.9878,-0.73,30.46,28.07,5,S01
20580,-6.58405,0.93853,-0.67038,10.7927,-0.8537,-10.1829,-1.19,30.83,27.61,5,S01
20600,-6.08367,0.95529,-0.76854,13.4756,2.5610,-12.1951,-1.19,30.83,27.61,5,S01
20620,-6.02621,1.02711,-0.64404,15.9146,8.4146,-12.9878,-1.19,30.83,27.61,5,S01
20640,-6.28717,1.20668,-0.21787,15.1220,13.6585,-12.5000,-1.56,31.65,26.24,5,S01
20660,-6.76841,1.23301,0.01197,9.5732,13.6585,-11.2805,-1.56,31.65,26.24,5,S01
20680,-7.35259,1.34315,0.05746,-0.0610,9.6951,-12.0732,-1.56,31.65,26.24,5,S01
20700,-7.04614,1.24259,-1.30245,-4.9390,-6.4024,-19.8780,-1.19,31.93,25.78,5,S01
20720,-8.41801,2.64080,-4.22577,-3.9634,-1.8293,-18.3537,-1.19,31.93,25.78,5,S01
20740,-11.96383,1.86987,-3.72059,-7.0122,12.6829,2.9268,-1.19,31.93,25.78,5,S01
20760,-13.47457,-0.55545,-3.86185,2.5610,1.2805,17.8049,-1.19,31.93,25.78,5,S01
20780,-13.30697,0.09816,-4.08930,3.0488,-20.7317,8.9634,-2.48,32.11,25.41,5,S01
20800,-15.89511,1.73340,-3.63919,-3.9634,-29.2683,2.7439,-2.48,32.11,25.41,5,S01
20820,-17.57344,-1.27372,-3.64158,-12.0122,-34.5732,11.5854,-2.48,32.11,25.41,5,S01
20840,-15.62217,-2.69827,-3.61524,4.1463,-45.0000,1.0976,-2.84,30.92,26.79,5,S01
20860,-13.64216,-1.79326,-2.94966,21.8293,-39.2683,-22.4390,-2.84,30.92,26.79,5,S01
20880,-11.72201,-0.78051,-2.37505,31.4024,-28.4756,-29.9390,-2.84,30.92,26.79,5,S01
20900,-9.82580,0.57221,-1.87945,30.4878,-18.9024,-26.3415,-2.66,30.92,27.06,5,S01
20920,-8.43956,1.78607,-1.45567,25.3049,-10.3659,-13.2927,-2.66,30.92,27.06,5,S01
20940,-8.26957,1.88903,-1.47722,17.2561,-1.0976,3.9024,-2.66,30.92,27.06,5,S01
20960,-8.72926,1.07500,-1.71664,8.0488,9.8171,17.1951,-2.66,30.92,27.06,5,S01
20980,-9.20571,0.35434,-2.05662,-2.7439,16.6463,20.4268,-4.13,31.38,26.61,5,S01
21000,-9.63906,-0.06704,-1.95127,-11.5854,20.5488,15.9146,-4.13,31.38,26.61,5,S01
21020,-9.41400,-0.33040,-1.93930,-12.8049,20.8537,10.2439,-4.13,31.38,26.61,5,S01
21040,-8.78193,-0.36871,-2.09014,-6.8902,20.0610,7.1951,-4.22,32.29,25.78,5,S01
21060,-8.36295,-0.21787,-2.48518,1.2805,19.5732,7.5610,-4.22,32.29,25.78,5,S01
21080,-8.58082,0.05746,-2.45645,6.8902,20.9756,9.5122,-4.22,32.29,25.78,5,S01
21100,-9.15543,0.35434,-2.11169,8.6585,20.0000,11.0366,-5.14,32.84,25.05,5,S01
21120,-9.57202,0.38547,-1.87705,8.3537,15.7927,10.8537,-5.14,32.84,25.05,5,S01
21140,-9.79468,0.26576,-1.87466,7.6829,11.2805,8.1707,-5.14,32.84,25.05,5,S01
21160,-9.71806,0.16999,-2.02549,7.3171,6.9512,4.3902,-5.14,32.84,25.05,5,S01
21180,-9.44991,0.18675,-2.12366,7.8659,4.1463,1.6463,-5.60,33.03,24.68,5,S01
21200,-9.26317,0.20830,-2.21464,9.5732,3.9024,0.9756,-5.60,33.03,24.68,5,S01
21220,-9.21528,0.32561,-2.20506,11.7073,5.3659,1.2805,-5.60,33.03,24.68,5,S01
21240,-9.35654,0.47884,-2.11169,13.2927,6.5854,1.8293,-6.33,33.21,24.22,5,S01
21260,-9.48343,0.67995,-2.01113,12.6220,6.0976,2.1951,-6.33,33.21,24.22,5,S01
21280,-9.50019,0.81163,-1.84354,9.6951,4.2073,2.3780,-6.33,33.21,24.22,5,S01
21300,-9.39245,0.77333,-1.75495,6.2805,1.5244,2.0122,-6.51,33.30,23.94,5,S01
21320,-9.30387,0.63446,-1.76692,3.8415,-0.4878,0.9756,-6.51,33.30,23.94,5,S01
21340,-9.32781,0.48602,-1.80762,2.5610,-1.4024,0.0610,-6.51,33.30,23.94,5,S01
21360,-9.43316,0.36631,-1.83635,2.2561,-1.5854,0.3049,-6.51,33.30,23.94,5,S01
21380,-9.47864,0.30646,-1.81959,3.0488,-2.1341,1.3415,-6.79,33.39,23.94,5,S01
21400,-9.47386,0.34237,-1.76692,5.0000,-3.2927,2.1341,-6.79,33.39,23.94,5,S01
21420,-9.46189,0.43814,-1.71425,6.8293,-5.0000,2.0732,-6.79,33.39,23.94,5,S01
21440,-9.50977,0.55545,-1.67594,7.3780,-6.7073,1.1585,-7.25,33.30,24.04,5,S01
21460,-9.57441,0.61052,-1.70228,6.2195,-8.3537,-0.0610,-7.25,33.30,24.04,5,S01
21480,-9.56484,0.62010,-1.78129,4.2683,-10.0610,-0.7317,-7.25,33.30,24.04,5,S01
21500,-9.46667,0.59855,-1.84832,2.5610,-11.4634,-1.0366,-7.52,32.94,24.40,5,S01
21520,-9.39006,0.60573,-1.84354,1.0366,-12.1341,-1.2195,-7.52,32.94,24.40,5,S01
21540,-9.38048,0.59855,-1.84832,-0.3049,-11.9512,-1.3415,-7.52,32.94,24.40,5,S01
21560,-9.40203,0.56264,-1.89621,-1.0366,-11.1585,-1.3415,-7.52,32.94,24.40,5,S01
21580,-9.42358,0.52672,-1.95846,-1.5244,-9.6951,-1.3415,-7.25,32.84,24.68,5,S01
21600,-9.45949,0.47645,-1.94409,-1.3415,-7.9268,-1.8902,-7.25,32.84,24.68,5,S01
21620,-9.48104,0.43814,-1.89860,-0.3659,-6.2805,-3.1098,-7.25,32.84,24.68,5,S01
21640,-9.47386,0.39504,-1.92973,0.1829,-4.5732,-4.8171,-7.25,32.94,24.68,5,S01
21660,-9.44273,0.38068,-1.92973,0.3659,-2.8659,-6.0366,-7.25,32.94,24.68,5,S01
21680,-9.41879,0.39983,-1.91057,0.0000,-1.7073,-6.5244,-7.25,32.94,24.68,5,S01
21700,-9.37330,0.39744,-1.87705,-0.8537,-0.9756,-6.5244,-7.06,32.94,24.59,5,S01
21720,-9.34696,0.31125,-1.78368,-2.1951,-0.1220,-6.6463,-7.06,32.94,24.59,5,S01
21740,-9.40921,0.20590,-1.69509,-3.4756,0.0610,-6.7073,-7.06,32.94,24.59,5,S01
21760,-9.58638,0.07422,-1.61609,-4.5732,-0.6707,-6.3415,-7.06,32.94,24.59,5,S01
21780,-9.66300,0.02873,-1.55863,-6.4024,-2.5610,-6.3415,-6.61,33.12,24.68,5,S01
21800,-9.47864,0.00958,-1.48919,-7.7439,-4.3902,-6.7683,-6.61,33.12,24.68,5,S01
21820,-9.24401,-0.00718,-1.56820,-7.9878,-5.1220,-6.9512,-6.61,33.12,24.68,5,S01
21840,-9.11473,-0.04788,-1.58496,-7.5000,-3.8415,-5.5488,-6.24,33.21,24.77,5,S01
21860,-9.14825,-0.12210,-1.56341,-6.6463,-2.0732,-2.8049,-6.24,33.21,24.77,5,S01
21880,-9.29908,-0.11253,-1.44849,-5.0000,-0.0610,-0.0610,-6.24,33.21,24.77,5,S01
21900,-9.34457,-0.10295,-1.42934,-3.2317,0.7317,1.5244,-6.61,33.30,24.68,5,S01
21920,-9.34218,-0.10774,-1.43173,-1.8293,0.6707,2.6220,-6.61,33.30,24.68,5,S01
21940,-9.42597,-0.09337,-1.44370,-1.4024,0.7317,3.9634,-6.61,33.30,24.68,5,S01
21960,-9.62708,-0.06704,-1.38624,-1.8293,1.1585,5.3659,-6.61,33.30,24.68,5,S01
21980,-9.71088,0.01676,-1.27850,-2.2561,1.0976,6.0366,-6.97,33.30,24.50,5,S01
22000,-9.56723,0.13408,-1.24977,-3.2317,0.1220,5.7927,-6.97,33.30,24.50,5,S01
22020,-9.43794,0.16520,-1.29766,-4.9390,-0.6098,5.3659,-6.97,33.30,24.50,5,S01
22040,-9.53371,0.03591,-1.28808,-9.3293,-0.4878,5.7927,-7.06,33.21,24.59,5,S01
22060,-9.52413,-0.03831,-1.30245,-10.4268,-0.1220,5.9146,-7.06,33.21,24.59,5,S01
22080,-9.51695,-0.00718,-1.27132,-10.8537,0.5488,5.7317,-7.06,33.21,24.59,5,S01
22100,-9.56005,0.06704,-1.30005,-11.7073,0.7927,5.6707,-7.06,33.30,24.59,5,S01
22120,-9.59835,0.06704,-1.37906,-12.9268,0.6098,5.6707,-7.06,33.30,24.59,5,S01
22140,-9.63427,-0.00718,-1.44849,-12.9878,0.2439,5.4878,-7.06,33.30,24.59,5,S01
22160,-9.60314,-0.05986,-1.52750,-12.6220,-0.1829,4.7561,-7.06,33.30,24.59,5,S01
22180,-9.67258,-0.06943,-1.66158,-12.0122,-0.6098,3.6585,-7.06,33.39,24.68,5,S01
22200,-9.82102,-0.05267,-1.67115,-11.2195,-0.7927,2.4390,-7.06,33.39,24.68,5,S01
22220,-9.83778,-0.00479,-1.58975,-11.0976,-2.1341,0.7927,-7.06,33.39,24.68,5,S01
22240,-9.67497,0.12210,-1.43413,-12.1341,-4.2073,-1.0366,-6.88,33.49,24.77,5,S01
22260,-9.39724,0.29928,-1.35751,-14.2073,-5.5488,-2.3171,-6.88,33.49,24.77,5,S01
22280,-9.07163,0.40941,-1.23301,-16.9512,-5.1220,-2.6220,-6.88,33.49,24.77,5,S01
22300,-8.77236,0.36871,-1.11570,-20.1829,-3.2927,-1.6463,-6.51,33.39,24.95,5,S01
22320,-8.68138,0.18675,-1.03430,-23.4756,-0.8537,0.2439,-6.51,33.39,24.95,5,S01
22340,-8.74841,-0.05267,-0.87867,-26.7683,1.4024,2.1951,-6.51,33.39,24.95,5,S01
22360,-8.72926,-0.26815,-0.91698,-29.8171,1.8293,3.6585,-6.51,33.39,24.95,5,S01
22380,-8.43956,-0.38068,-1.00556,-32.0732,0.3049,4.3293,-5.96,33.58,25.14,5,S01
22400,-8.11395,-0.33519,-1.10133,-32.4390,-1.5854,4.4512,-5.96,33.58,25.14,5,S01
22420,-8.20972,-0.20590,-1.03669,-31.7683,-1.7073,5.7927,-5.96,33.58,25.14,5,S01
22440,-8.58082,-0.28252,-0.86191,-31.2195,-1.6463,9.3293,-5.60,33.58,25.41,5,S01
22460,-8.58561,-0.54348,-0.95050,-31.8293,-3.9024,12.4390,-5.60,33.58,25.41,5,S01
22480,-8.07325,-0.67277,-1.25696,-31.5854,-7.7439,12.3780,-5.60,33.58,25.41,5,S01
22500,-7.36935,-0.54588,-1.20428,-28.5976,-9.6951,10.4878,-5.78,33.39,25.87,5,S01
22520,-6.67743,-0.34716,-0.77093,-25.7317,-10.1829,8.1707,-5.78,33.39,25.87,5,S01
22540,-6.39731,-0.19632,-0.13886,-23.4756,-11.5244,6.2195,-5.78,33.39,25.87,5,S01
22560,-6.65349,-0.21548,0.52433,-22.4390,-14.3902,5.0000,-5.78,33.39,25.87,5,S01
22580,-6.82587,-0.49799,0.70868,-23.5976,-19.0854,4.1463,-5.78,32.84,26.70,5,S01
22600,-6.79235,-0.87628,0.45250,-23.1707,-21.5244,3.7805,-5.78,32.84,26.70,5,S01
22620,-6.69419,-0.99359,-0.25618,-21.2805,-18.9024,4.5732,-5.78,32.84,26.70,5,S01
22640,-7.23767,-0.77812,-2.06380,-26.6463,-12.1341,5.2439,-6.06,32.48,27.43,5,S01
22660,-9.99340,0.16520,-4.44843,-44.8171,0.6707,3.2927,-6.06,32.48,27.43,5,S01
22680,-13.46978,2.47082,-3.49793,-47.9268,10.1829,-4.2683,-6.06,32.48,27.43,5,S01
22700,-14.95658,4.53941,-2.47560,-31.8902,9.0854,-14.1463,-5.14,33.21,27.34,5,S01
22720,-14.21677,4.09408,-2.38463,-25.3049,3.5366,-14.6951,-5.14,33.21,27.34,5,S01
22740,-14.08269,2.89220,-3.69904,-21.5244,-4.3902,-11.0366,-5.14,33.21,27.34,5,S01
22760,-15.49527,2.17394,-3.84269,-26.0366,-1.2805,-19.8171,-5.14,33.21,27.34,5,S01
22780,-16.04594,3.02148,-1.89381,-20.1220,-5.4878,-29.7561,-4.04,33.03,27.98,5,S01
22800,-14.58548,3.16035,-1.30245,-14.6951,-24.0854,-19.6951,-4.04,33.03,27.98,5,S01
22820,-12.17212,2.25055,-1.53947,-15.0000,-34.8780,0.6098,-4.04,33.03,27.98,5,S01
22840,-9.56723,1.11570,-1.79086,-14.6341,-31.5244,9.6341,-4.40,32.11,29.45,5,S01
22860,-7.41005,0.30646,-1.91057,-13.2927,-19.0854,7.6829,-4.40,32.11,29.45,5,S01
22880,-6.25365,0.37350,-1.72383,-6.8293,-4.1463,5.4268,-4.40,32.11,29.45,5,S01
22900,-6.14113,0.88346,-1.49877,-2.9268,9.4512,10.1220,-5.23,32.94,28.90,5,S01
22920,-6.84263,0.94810,-1.27611,-1.3415,21.7683,21.4024,-5.23,32.94,28.90,5,S01
22940,-7.74285,0.72784,-1.08457,2.8049,30.4268,30.1220,-5.23,32.94,28.90,5,S01
22960,-8.64786,0.75896,-1.13246,7.3780,31.5244,28.8415,-5.23,32.94,28.90,5,S01
22980,-9.40203,0.86670,-1.42934,9.5122,29.4512,20.4268,-7.16,33.76,27.25,5,S01
23000,-9.87608,1.13006,-1.53468,10.2439,29.4512,9.8171,-7.16,33.76,27.25,5,S01
23020,-9.85932,1.32399,-1.49398,10.9756,28.9634,3.9634,-7.16,33.76,27.25,5,S01
23040,-9.58160,1.23301,-1.74298,10.4268,26.6463,4.3902,-8.07,34.59,25.96,5,S01
23060,-9.43316,1.05345,-2.07338,12.4390,25.5488,6.3415,-8.07,34.59,25.96,5,S01
23080,-9.64384,0.96965,-2.10690,16.2805,25.9146,7.2561,-8.07,34.59,25.96,5,S01
23100,-9.99819,1.07739,-1.94409,17.6829,24.6951,7.0732,-9.54,35.23,24.77,5,S01
23120,-10.20169,1.31442,-1.69988,15.9146,20.1829,6.5244,-9.54,35.23,24.77,5,S01
23140,-10.11311,1.46525,-1.65679,12.0122,13.1707,6.6463,-9.54,35.23,24.77,5,S01
23160,-9.76834,1.46525,-1.78847,9.3293,6.7073,6.8902,-9.54,35.23,24.77,5,S01
23180,-9.42837,1.44370,-1.93930,7.8659,2.7439,7.0122,-10.37,35.50,24.68,5,S01
23200,-9.28711,1.47004,-1.90100,6.1585,1.6463,7.1341,-10.37,35.50,24.68,5,S01
23220,-9.40682,1.48201,-1.78607,4.8780,1.4024,7.5000,-10.37,35.50,24.68,5,S01
23240,-9.67258,1.48919,-1.61848,4.1463,0.6707,7.6220,-11.19,35.41,24.59,5,S01
23260,-9.65103,1.37188,-1.69031,3.4146,-1.7073,6.7073,-11.19,35.41,24.59,5,S01
23280,-9.26796,1.42216,-1.88424,3.4146,-3.4146,4.7561,-11.19,35.41,24.59,5,S01
23300,-8.93037,1.63763,-1.80523,4.5732,-2.6829,3.7805,-11.83,35.41,24.59,5,S01
23320,-8.99980,1.84354,-1.63763,5.9146,-1.4634,3.7805,-11.83,35.41,24.59,5,S01
23340,-9.37569,1.86748,-1.60890,6.2805,-1.3415,3.7805,-11.83,35.41,24.59,5,S01
23360,-9.66539,1.68552,-1.75734,5.6707,-2.8659,3.4756,-11.83,35.41,24.59,5,S01
23380,-9.67736,1.61369,-1.97043,5.1829,-4.9390,2.6829,-12.20,35.41,24.86,5,S01
23400,-9.69652,1.70228,-1.87466,4.8780,-6.4634,3.7805,-12.20,35.41,24.86,5,S01
23420,-9.75877,1.76213,-1.79565,5.4268,-8.5976,5.3659,-12.20,35.41,24.86,5,S01
23440,-9.84017,1.70707,-1.79565,5.5488,-11.5854,6.8902,-12.75,35.14,24.95,5,S01
23460,-9.67497,1.66876,-1.91057,5.7927,-14.2073,7.4390,-12.75,35.14,24.95,5,S01
23480,-9.58638,1.57060,-2.03507,5.5488,-14.8780,8.1098,-12.75,35.14,24.95,5,S01
23500,-9.54568,1.43652,-2.07577,3.9634,-13.2927,10.7927,-13.39,34.68,25.50,5,S01
23520,-9.48343,1.35272,-1.93452,0.9146,-11.4634,13.5976,-13.39,34.68,25.50,5,S01
23540,-9.37809,1.35272,-1.72143,-1.4024,-11.4634,15.3049,-13.39,34.68,25.50,5,S01
23560,-9.23444,1.36948,-1.62087,-2.1951,-12.6829,15.7317,-13.39,34.68,25.50,5,S01
23580,-9.16740,1.32160,-1.67834,-0.4878,-13.5366,15.7927,-14.04,34.04,26.06,5,S01
23600,-9.16979,1.22583,-1.75495,2.3780,-13.1707,16.0976,-14.04,34.04,26.06,5,S01
23620,-9.14825,1.20668,-1.78607,4.8171,-12.6829,16.0976,-14.04,34.04,26.06,5,S01
23640,-9.18655,1.32639,-1.69749,6.0366,-12.6829,15.7927,-14.86,33.58,26.42,5,S01
23660,-9.18895,1.56102,-1.56581,5.9146,-13.3537,14.9390,-14.86,33.58,26.42,5,S01
23680,-9.05248,1.76932,-1.54665,6.2805,-13.4756,12.9878,-14.86,33.58,26.42,5,S01
23700,-8.86094,1.86987,-1.62806,7.6220,-12.1341,10.9146,-15.60,33.03,26.79,5,S01
23720,-8.71968,1.78129,-1.68073,8.1707,-9.5122,9.2073,-15.60,33.03,26.79,5,S01
23740,-8.64786,1.60172,-1.68791,8.1707,-7.4390,7.5000,-15.60,33.03,26.79,5,S01
23760,-8.58561,1.56341,-1.57538,8.1707,-7.3780,6.1585,-15.60,33.03,26.79,5,S01
23780,-8.72208,1.66158,-1.25456,7.5000,-9.2683,5.9146,-16.24,32.84,26.88,5,S01
23800,-9.13388,1.88903,-0.89064,4.3293,-10.4878,3.8415,-16.24,32.84,26.88,5,S01
23820,-9.56244,2.16675,-0.80685,-0.2439,-10.3049,-1.0976,-16.24,32.84,26.88,5,S01
23840,-9.68933,2.19309,-0.92656,-3.6585,-9.6951,-5.4268,-16.15,32.75,27.16,5,S01
23860,-9.52892,1.87705,-1.14682,-3.9024,-9.2073,-6.7683,-16.15,32.75,27.16,5,S01
23880,-9.27753,1.60651,-1.41737,-4.5732,-8.4756,-6.4634,-16.15,32.75,27.16,5,S01
23900,-9.25598,1.51074,-1.41258,-6.2805,-7.3171,-5.7317,-15.50,32.75,27.61,5,S01
23920,-9.41400,1.55863,-1.15401,-6.8902,-6.5244,-5.3049,-15.50,32.75,27.61,5,S01
23940,-9.47146,1.68791,-1.04387,-5.6098,-7.6220,-5.2439,-15.50,32.75,27.61,5,S01
23960,-9.38767,1.64482,-1.06781,-3.9024,-9.2073,-5.1220,-15.50,32.75,27.61,5,S01
23980,-9.25120,1.49398,-1.11809,-2.1341,-10.4268,-5.4268,-15.41,32.48,28.07,5,S01
24000,-9.33978,1.40779,-0.92177,-1.4024,-10.9146,-6.3415,-15.41,32.48,28.07,5,S01
24020,-9.61751,1.44370,-0.56024,-2.5610,-10.4878,-8.8415,-15.41,32.48,28.07,5,S01
24040,-9.64863,1.58257,-0.48123,-4.1463,-11.5854,-11.7073,-14.86,32.75,28.53,5,S01
24060,-9.38527,1.54426,-0.75178,-5.0000,-12.4390,-11.9512,-14.86,32.75,28.53,5,S01
24080,-9.12430,1.27850,-0.96486,-3.9024,-9.5732,-10.6098,-14.86,32.75,28.53,5,S01
24100,-8.98783,1.02711,-0.99359,-0.1220,-5.4268,-9.9390,-14.40,32.84,28.62,5,S01
24120,-9.02614,0.85712,-0.93134,3.9024,-2.1951,-9.8780,-14.40,32.84,28.62,5,S01
24140,-9.10515,0.88107,-0.85952,7.0732,0.1829,-9.5732,-14.40,32.84,28.62,5,S01
24160,-9.11951,0.97683,-0.75417,10.2439,1.6463,-8.7195,-14.40,33.12,28.62,5,S01
24180,-9.04769,1.02711,-0.72544,13.9024,2.4390,-7.1341,-14.77,33.12,28.26,5,S01
24200,-8.94234,1.04148,-0.72065,17.3171,2.6220,-5.6707,-14.77,33.12,28.26,5,S01
24220,-8.94713,1.08697,-0.65122,19.3293,2.0732,-4.3902,-14.77,33.12,28.26,5,S01
24240,-9.04290,1.13964,-0.48842,19.3902,1.2195,-4.2683,-15.32,33.49,27.89,5,S01
24260,-9.00220,1.13006,-0.34716,18.9634,-0.3049,-5.8537,-15.32,33.49,27.89,5,S01
24280,-8.63828,1.10852,-0.51715,19.3902,-3.5366,-7.6829,-15.32,33.49,27.89,5,S01
24300,-8.10198,1.20428,-0.62249,20.4878,-6.3415,-8.0488,-15.69,33.58,27.80,5,S01
24320,-7.78834,1.28569,-0.40941,20.6707,-7.4390,-6.5244,-15.69,33.58,27.80,5,S01
24340,-7.90326,1.35751,0.09098,16.3415,-7.3171,-6.2195,-15.69,33.58,27.80,5,S01
24360,-7.93678,1.54187,0.47166,9.1463,-8.9024,-10.0000,-15.69,33.30,28.53,5,S01
24380,-7.52498,1.71425,0.26097,2.2561,-13.1098,-14.8171,-15.23,33.30,28.53,5,S01
24400,-6.67264,1.64242,-0.20351,-3.1098,-15.1829,-16.8293,-15.23,33.30,28.53,5,S01
24420,-6.04536,1.38624,-0.26336,-5.7927,-11.4024,-16.7683,-15.23,33.30,28.53,5,S01
24440,-6.29436,1.42694,0.49081,-7.1951,-5.6098,-16.6463,-14.13,33.03,28.99,5,S01
24460,-6.68701,1.61609,0.75896,-12.3171,-4.8780,-17.4390,-14.13,33.03,28.99,5,S01
24480,-6.64870,1.60651,0.08140,-20.4268,-6.3415,-17.3171,-14.13,33.03,28.99,5,S01
24500,-6.15549,1.06063,-0.41659,-23.2317,-4.8171,-15.0610,-12.57,32.48,29.82,5,S01
24520,-6.45237,1.13246,-0.90261,-16.8902,-1.2195,-15.1829,-12.57,32.48,29.82,5,S01
24540,-10.08438,3.39019,-0.63686,-20.4878,5.0610,-11.4634,-12.57,32.48,29.82,5,S01
24560,-15.06910,3.73974,-1.48680,-39.8780,0.4268,11.9512,-11.10,30.37,31.38,5,S01
24580,-16.79293,-0.18196,-3.01909,-53.4756,-18.1707,32.3780,-11.10,30.37,31.38,5,S01
24600,-15.66526,-0.82361,-4.26886,-47.1951,-34.3902,18.4146,-11.10,30.37,31.38,5,S01
24620,-13.42190,-0.19632,-2.66475,-34.6341,-31.4024,-5.1829,-11.10,30.37,31.38,5,S01
24640,-11.90397,0.32082,-1.28808,-24.2683,-25.0000,-22.1951,-8.62,30.18,31.93,5,S01
24660,-12.24634,0.17957,-1.72143,-11.6463,-16.2195,-26.5244,-8.62,30.18,31.93,5,S01
24680,-13.12262,-0.21069,-3.10767,0.3049,-1.4024,-20.7317,-8.62,30.18,31.93,5,S01
24700,-12.71082,-0.13647,-3.65834,4.2683,12.6829,-10.9756,-8.26,31.19,30.73,5,S01
24720,-10.62068,1.50595,-1.73819,-20.0610,25.8537,5.7927,-8.26,31.19,30.73,5,S01
24740,-9.21289,1.67594,-1.17316,-29.8171,21.7073,5.9146,-8.26,31.19,30.73,5,S01
24760,-8.24803,1.21625,-1.13246,-31.6463,18.6585,-0.4268,-6.79,31.93,30.55,5,S01
24780,-7.99903,0.35913,-1.64482,-29.2073,22.0122,-7.5000,-6.79,31.93,30.55,5,S01
24800,-8.37492,-0.27533,-2.11647,-23.3537,28.8415,-11.4024,-6.79,31.93,30.55,5,S01
24820,-8.82982,-0.39025,-2.18112,-20.0000,32.8659,-11.3415,-6.79,31.93,30.55,5,S01
24840,-9.08121,-0.16281,-1.79086,-23.1707,31.7683,-7.8659,-5.41,33.39,29.17,5,S01
24860,-9.04529,0.03831,-1.48680,-30.6707,25.6098,-3.7805,-5.41,33.39,29.17,5,S01
24880,-8.90643,0.17717,-1.48680,-36.4634,18.9024,-1.9512,-5.41,33.39,29.17,5,S01
24900,-9.00938,0.20590,-1.71425,-39.0244,14.5732,-1.5854,-3.85,33.76,28.72,5,S01
24920,-9.34218,0.00000,-1.96325,-39.2683,12.6829,-1.0976,-3.85,33.76,28.72,5,S01
24940,-9.65821,-0.31125,-2.42293,-37.2561,12.5000,-0.6098,-3.85,33.76,28.72,5,S01
24960,-9.83299,-0.40701,-2.65756,-33.6585,13.5976,-0.0610,-2.75,34.13,28.26,5,S01
24980,-9.93115,-0.16759,-2.31040,-29.0244,13.0488,0.5488,-2.75,34.13,28.26,5,S01
25000,-9.85932,0.17478,-1.91057,-26.0366,8.5976,0.3659,-2.75,34.13,28.26,5,S01
25020,-9.66060,0.46926,-1.66397,-24.1463,2.6220,-0.8537,-2.75,34.13,28.26,5,S01
25040,-9.47864,0.36871,-1.60651,-21.4634,-0.9756,-1.7683,-2.02,34.04,28.35,5,S01
25060,-9.42358,0.09577,-1.78607,-17.9878,-1.3415,-2.6829,-2.02,34.04,28.35,5,S01
25080,-9.50259,-0.24181,-2.00155,-13.6585,0.9146,-2.9878,-2.02,34.04,28.35,5,S01
25100,-9.64624,-0.45250,-2.26731,-8.8415,4.3293,-3.4756,-1.83,34.40,28.07,5,S01
25120,-9.67497,-0.29209,-2.41096,-5.3049,7.4390,-4.5122,-1.83,34.40,28.07,5,S01
25140,-9.46428,0.21787,-2.30801,-3.5976,8.5976,-5.1220,-1.83,34.40,28.07,5,S01
25160,-9.25598,0.77333,-1.99437,-4.0244,7.8659,-4.3293,-1.65,34.77,27.61,5,S01
25180,-9.21049,1.08218,-1.65200,-6.2805,6.2195,-2.1951,-1.65,34.77,27.61,5,S01
25200,-9.31584,0.95768,-1.50116,-9.5122,3.7805,-0.7317,-1.65,34.77,27.61,5,S01
25220,-9.38288,0.56743,-1.68791,-11.8902,1.8293,-1.2195,-1.65,34.77,27.61,5,S01
25240,-9.33739,0.24421,-1.85311,-13.1098,2.2561,-3.2927,-1.01,34.77,27.61,5,S01
25260,-9.32063,0.15323,-1.85551,-12.6829,4.0244,-4.6951,-1.01,34.77,27.61,5,S01
25280,-9.49301,0.23703,-1.77889,-12.3171,5.3049,-3.5976,-1.01,34.77,27.61,5,S01
25300,-9.67497,0.30646,-1.76932,-13.1098,4.8171,-0.7927,-0.64,35.05,27.34,5,S01
25320,-9.65103,0.42617,-1.85072,-14.8780,3.7195,1.2195,-0.64,35.05,27.34,5,S01
25340,-9.46189,0.69911,-1.95127,-16.8902,2.7439,1.5854,-0.64,35.05,27.34,5,S01
25360,-9.31344,0.78051,-2.01592,-19.0854,1.8902,1.8902,-0.18,35.14,27.25,5,S01
25380,-9.28232,0.65362,-1.99916,-21.4024,1.2805,1.8902,-0.18,35.14,27.25,5,S01
25400,-9.40682,0.42617,-2.04704,-23.6585,0.3659,1.2805,-0.18,35.14,27.25,5,S01
25420,-9.59357,0.18196,-2.01113,-24.7561,-0.0610,-0.4878,-0.18,35.14,27.25,5,S01
25440,-9.65103,0.04788,-1.95367,-23.9024,-0.5488,-2.6220,0.83,35.05,27.34,5,S01
25460,-9.64384,-0.00958,-1.92973,-22.0732,-1.4634,-4.0244,0.83,35.05,27.34,5,S01
25480,-9.51456,-0.08140,-1.94409,-20.6098,-2.5610,-4.3293,0.83,35.05,27.34,5,S01
25500,-9.33978,-0.06704,-1.97282,-19.5122,-2.8049,-4.3293,1.56,35.05,27.34,5,S01
25520,-9.20571,0.02634,-1.92494,-17.5000,-1.4634,-4.0854,1.56,35.05,27.34,5,S01
25540,-9.15543,0.04788,-1.93930,-14.6951,0.0610,-3.2317,1.56,35.05,27.34,5,S01
25560,-9.15303,0.04788,-1.99198,-12.0122,1.0366,-2.2561,1.83,35.14,27.16,5,S01
25580,-9.23683,0.11253,-1.91297,-9.3902,1.7073,-1.2805,1.83,35.14,27.16,5,S01
25600,-9.41400,0.07183,-1.86029,-7.8659,2.3171,0.1220,1.83,35.14,27.16,5,S01
25620,-9.52413,0.01437,-1.86748,-6.7683,2.1951,1.2195,1.83,35.14,27.16,5,S01
25640,-9.48343,-0.00958,-1.94888,-5.4268,1.4024,1.7683,1.83,35.23,27.06,5,S01
25660,-9.39245,0.07183,-2.06380,-4.2683,1.1585,1.8293,1.83,35.23,27.06,5,S01
25680,-9.35654,0.19154,-2.08296,-4.0244,1.5854,2.0732,1.83,35.23,27.06,5,S01
25700,-9.44513,0.31603,-2.02789,-4.5122,1.7683,2.8659,1.93,35.23,26.97,5,S01
25720,-9.54089,0.35913,-1.89381,-4.8780,0.7317,3.4146,1.93,35.23,26.97,5,S01
25740,-9.61751,0.31364,-1.79565,-5.4268,-0.7927,2.9268,1.93,35.23,26.97,5,S01
25760,-9.60793,0.19872,-1.72622,-6.4024,-2.0122,1.7683,2.02,35.14,27.16,5,S01
25780,-9.43555,0.10774,-1.70228,-7.5610,-3.2317,0.7927,2.02,35.14,27.16,5,S01
25800,-9.22007,0.05746,-1.71664,-8.1098,-3.7805,1.0366,2.02,35.14,27.16,5,S01
25820,-9.11473,0.04310,-1.67834,-8.1707,-3.3537,2.5000,2.02,35.14,27.16,5,S01
25840,-9.15543,0.08859,-1.64721,-8.1707,-2.7439,4.1463,2.11,35.23,27.34,5,S01
25860,-9.29908,0.13408,-1.61369,-8.1707,-2.5610,5.6707,2.11,35.23,27.34,5,S01
25880,-9.45710,0.10295,-1.58736,-7.8659,-3.1707,6.8293,2.11,35.23,27.34,5,S01
25900,-9.54568,-0.00479,-1.55863,-7.0122,-4.3902,7.6829,2.02,35.05,27.61,5,S01
25920,-9.54808,-0.08380,-1.62566,-5.7317,-5.4268,7.8659,2.02,35.05,27.61,5,S01
25940,-9.65342,-0.07422,-1.65439,-5.0610,-6.0976,7.5610,2.02,35.05,27.61,5,S01
25960,-9.78031,0.01676,-1.57060,-4.9390,-6.8902,6.9512,2.02,34.68,28.07,5,S01
25980,-9.67736,0.12450,-1.50116,-5.4878,-8.0488,5.6707,2.02,34.68,28.07,5,S01
26000,-9.49540,0.13408,-1.52511,-4.9390,-8.7805,4.0244,2.02,34.68,28.07,5,S01
26020,-9.40442,0.03591,-1.50595,-3.9634,-7.9268,2.3780,2.02,34.68,28.07,5,S01
26040,-9.36133,-0.04070,-1.45328,-3.5976,-7.0732,0.7927,2.29,34.50,28.53,5,S01
26060,-9.35415,-0.04788,-1.10852,-4.2683,-6.1585,0.3659,2.29,34.50,28.53,5,S01
26080,-9.22246,-0.10534,-1.11809,-4.5122,-6.4024,1.8293,2.29,34.50,28.53,5,S01
26100,-9.18176,-0.11013,-1.24977,-5.5488,-5.0610,3.4756,2.57,34.22,28.81,5,S01
26120,-9.15543,0.01676,-1.22104,-6.8293,-2.9878,5.3049,2.57,34.22,28.81,5,S01
26140,-9.09797,0.16281,-1.11091,-10.0000,-0.9146,7.3171,2.57,34.22,28.81,5,S01
26160,-9.07642,0.24421,-0.97444,-13.0488,1.0366,8.9024,3.03,34.31,28.99,5,S01
26180,-9.15782,0.11732,-0.89064,-16.4024,2.7439,9.3293,3.03,34.31,28.99,5,S01
26200,-9.21049,-0.02394,-0.89543,-19.9390,3.6585,8.5976,3.03,34.31,28.99,5,S01
26220,-9.07163,-0.17717,-0.98881,-22.6829,3.8415,7.7439,3.03,34.31,28.99,5,S01
26240,-8.66940,-0.24900,-1.24738,-24.4512,3.8415,7.1341,4.04,34.40,28.90,5,S01
26260,-7.95593,-0.30406,-1.46046,-24.9390,3.5366,6.5244,4.04,34.40,28.90,5,S01
26280,-7.03177,-0.31125,-1.34075,-23.7805,2.1341,4.5732,4.04,34.40,28.90,5,S01
26300,-6.12916,-0.54588,-0.93134,-22.8659,-0.8537,0.1220,5.41,34.31,29.08,5,S01
26320,-5.65750,-0.94810,-0.44772,-22.2561,-3.2927,-6.4024,5.41,34.31,29.08,5,S01
26340,-6.30633,-1.71185,0.12689,-21.1585,-2.0732,-11.3415,5.41,34.31,29.08,5,S01
26360,-7.64229,-2.55701,0.58658,-17.1951,0.0610,-10.9146,7.25,33.76,29.36,5,S01
26380,-8.74841,-3.25133,0.54588,-9.8171,-1.6463,-6.3415,7.25,33.76,29.36,5,S01
26400,-9.30866,-3.42850,0.42617,-2.0122,-6.7683,-0.3049,7.25,33.76,29.36,5,S01
26420,-8.93516,-3.11486,0.27773,4.7561,-20.3049,5.3659,7.25,33.76,29.36,5,S01
26440,-7.87453,-2.16675,-0.03352,8.6585,-32.6220,9.9390,7.89,32.39,30.73,5,S01
26460,-6.91206,-0.94332,-1.57538,5.0610,-34.8171,12.0732,7.89,32.39,30.73,5,S01
26480,-7.87692,-0.12929,-5.46357,-5.3659,-25.1220,9.9390,7.89,32.39,30.73,5,S01
26500,-11.37006,1.23780,-5.91128,-5.4268,-1.5854,2.1951,9.17,31.74,31.19,5,S01
26520,-14.80574,4.40533,-4.12521,17.5000,14.4512,-8.3537,9.17,31.74,31.19,5,S01
26540,-16.35479,5.95199,-3.59849,31.3415,10.3659,-8.5976,9.17,31.74,31.19,5,S01
26560,-15.59104,5.15950,-4.37899,25.0610,-5.3049,0.7927,9.36,30.92,32.02,5,S01
26580,-14.25508,3.67510,-4.34548,8.1707,-16.9512,3.3537,9.36,30.92,32.02,5,S01
26600,-13.82652,2.04704,-4.15155,0.4268,-18.5366,-3.1098,9.36,30.92,32.02,5,S01
26620,-13.70441,1.01993,-3.43568,11.9512,-12.9268,-5.6707,9.36,30.92,32.02,5,S01
26640,-13.04361,0.91219,-2.61447,33.9024,-7.8049,-3.0488,9.17,30.64,32.57,5,S01
26660,-11.72680,0.82839,-2.14760,55.9756,-5.4268,3.9634,9.17,30.64,32.57,5,S01
26680,-9.60554,0.41180,-2.44687,75.1829,-8.7195,14.2073,9.17,30.64,32.57,5,S01
26700,-7.48667,-0.39983,-2.91374,88.1098,-11.8293,21.8902,4.77,30.73,33.21,5,S01
26720,-6.07888,-0.61770,-2.78446,97.6829,-8.9634,23.5976,4.77,30.73,33.21,5,S01
26740,-5.79397,-0.22505,-2.58095,105.1829,-3.5366,24.5122,4.77,30.73,33.21,5,S01
26760,-6.30154,0.43574,-2.06620,109.6341,4.3293,27.0732,-0.28,31.10,33.21,5,S01
26780,-7.18261,0.85712,-1.69031,110.0610,9.3293,30.0610,-0.28,31.10,33.21,5,S01
26800,-8.24084,1.03908,-1.66636,108.1707,9.3902,31.8293,-0.28,31.10,33.21,5,S01
26820,-8.77714,0.99120,-2.05423,104.1463,4.3293,33.2927,-0.28,31.10,33.21,5,S01
26840,-8.70532,0.90740,-2.31280,101.5854,-1.8902,32.7439,-5.14,30.64,32.84,5,S01
26860,-8.58321,0.85473,-2.35589,101.5854,-5.7317,30.6098,-5.14,30.64,32.84,5,S01
26880,-8.81066,0.90501,-2.73178,100.9756,-6.0366,27.8049,-5.14,30.64,32.84,5,S01
26900,-9.46428,1.06781,-3.01909,98.5976,-0.8537,24.6341,-9.17,30.46,32.20,5,S01
26920,-9.98622,1.23541,-2.94008,95.8537,5.2439,21.4634,-9.17,30.46,32.20,5,S01
26940,-10.15620,1.55623,-2.48758,92.4390,6.0976,18.5976,-9.17,30.46,32.20,5,S01
26960,-10.01973,1.99676,-1.86987,86.0976,-0.4268,16.5244,-12.39,30.00,31.65,5,S01
26980,-9.73004,2.06620,-1.18034,78.5366,-10.6098,17.1951,-12.39,30.00,31.65,5,S01
27000,-9.03572,0.92895,-0.88585,74.6341,-21.2195,19.3293,-12.39,30.00,31.65,5,S01
27020,-8.33900,-0.48363,-1.57060,79.9390,-26.7683,18.2317,-12.39,30.00,31.65,5,S01
27040,-8.46350,-0.84515,-2.04944,89.0244,-19.9390,13.5976,-15.41,29.08,31.01,5,S01
27060,-9.40682,-0.50039,-1.52750,94.4512,-5.4878,11.0976,-15.41,29.08,31.01,5,S01
27080,-10.46266,-0.04070,-0.72305,99.6951,1.3415,14.0244,-15.41,29.08,31.01,5,S01
27100,-10.84094,0.32082,-0.58419,103.7805,-3.4756,19.4512,-19.17,28.44,29.17,5,S01
27120,-10.57758,0.17478,-0.61292,102.1951,-13.1098,22.0732,-19.17,28.44,29.17,5,S01
27140,-9.95270,-0.13168,-0.63207,99.2683,-22.8049,17.9878,-19.17,28.44,29.17,5,S01
27160,-9.33978,-0.37589,-1.56102,100.3659,-28.8415,10.3049,-21.93,27.52,27.80,5,S01
27180,-10.01495,0.10774,-3.41413,102.8659,-21.4634,7.6829,-21.93,27.52,27.80,5,S01
27200,-11.98777,1.02472,-5.06134,98.4146,-4.6951,19.0854,-21.93,27.52,27.80,5,S01
27220,-12.00932,0.75896,-6.06212,86.3415,1.7683,38.7195,-21.93,27.52,27.80,5,S01
27240,-10.29507,0.49081,-5.70538,87.5000,-6.1585,46.0976,-25.78,26.06,25.50,5,S01
27260,-9.05966,0.99359,-4.91051,99.7561,-13.0488,44.6951,-25.78,26.06,25.50,5,S01
27280,-8.39168,1.34794,-4.35505,104.8781,-16.5244,38.0488,-25.78,26.06,25.50,5,S01
27300,-8.40365,1.71425,-4.31435,105.1220,-17.8049,28.2927,-29.27,25.14,22.57,5,S01
27320,-8.63828,1.95127,-3.93607,105.7317,-13.9024,18.6585,-29.27,25.14,22.57,5,S01
27340,-8.67659,1.99916,-3.78523,105.0000,-9.4512,10.9146,-29.27,25.14,22.57,5,S01
27360,-8.50899,1.69031,-3.65595,98.6585,-5.4878,5.5488,-31.10,25.50,19.63,5,S01
27380,-7.96551,1.40540,-3.67749,89.6951,-3.1098,0.7317,-31.10,25.50,19.63,5,S01
27400,-7.44597,1.46286,-3.74693,80.6098,1.2195,-3.4146,-31.10,25.50,19.63,5,S01
27420,-8.40844,1.02951,-3.02627,71.1585,14.2683,2.2561,-31.10,25.50,19.63,5,S01
27440,-9.08360,0.54588,-2.97120,69.0244,12.6829,6.4634,-32.48,25.96,16.70,5,S01
27460,-9.45710,0.03352,-3.22260,67.6220,7.2561,8.1707,-32.48,25.96,16.70,5,S01
27480,-9.51695,-0.22027,-3.43568,69.3293,1.2195,8.3537,-32.48,25.96,16.70,5,S01
27500,-9.43555,-0.13168,-3.45244,74.2683,-3.3537,8.9024,-34.04,25.69,14.13,5,S01
27520,-9.28232,0.04788,-3.36385,79.0854,-5.3659,10.3659,-34.04,25.69,14.13,5,S01
27540,-9.02135,0.16520,-3.32315,82.0732,-6.5244,11.3415,-34.04,25.69,14.13,5,S01
27560,-8.88488,0.21308,-3.37343,83.5976,-6.7683,11.0366,-35.78,25.32,11.01,5,S01
27580,-8.89446,0.18196,-3.28006,82.4390,-5.2439,10.6098,-35.78,25.32,11.01,5,S01
27600,-8.88967,0.15562,-3.16753,78.4146,-4.7561,10.1829,-35.78,25.32,11.01,5,S01
27620,-8.86094,0.11971,-3.03106,73.9024,-4.5122,10.1829,-35.78,25.32,11.01,5,S01
27640,-8.87531,0.04070,-2.90656,69.3293,-4.3293,10.7927,-37.06,25.05,8.44,5,S01
27660,-8.93995,-0.07422,-2.78925,64.3902,-4.2683,11.8902,-37.06,25.05,8.44,5,S01
27680,-9.05487,-0.12450,-2.71024,60.3049,-4.6341,13.1098,-37.06,25.05,8.44,5,S01
27700,-9.22007,-0.11013,-2.55222,55.7317,-5.6707,14.5122,-38.35,24.31,6.61,5,S01
27720,-9.23204,-0.01437,-2.34392,49.5732,-8.4146,15.4878,-38.35,24.31,6.61,5,S01
27740,-9.13388,0.00000,-2.22421,43.5366,-11.2195,15.7317,-38.35,24.31,6.61,5,S01
27760,-9.05248,-0.12929,-2.13802,38.4146,-12.3780,16.0366,-39.45,23.49,6.15,5,S01
27780,-9.09318,-0.31125,-2.12126,34.3902,-12.4390,15.8537,-39.45,23.49,6.15,5,S01
27800,-9.34457,-0.41899,-2.04704,31.6463,-12.1341,15.6707,-39.45,23.49,6.15,5,S01
27820,-9.66060,-0.49560,-1.85311,29.4512,-11.9512,16.1585,-39.45,23.49,6.15,5,S01
27840,-9.72046,-0.66798,-1.79326,27.4390,-12.6220,16.8293,-40.64,22.75,5.87,5,S01
27860,-9.43076,-0.84755,-2.08056,26.2195,-13.6585,16.6463,-40.64,22.75,5.87,5,S01
27880,-9.09318,-0.79487,-2.35589,24.4512,-12.8049,15.8537,-40.64,22.75,5.87,5,S01
27900,-8.93756,-0.66319,-2.39660,21.7683,-8.8415,15.3659,-41.83,21.93,6.15,5,S01
27920,-9.02135,-0.63207,-2.20745,18.2317,-2.7439,14.2073,-41.83,21.93,6.15,5,S01
27940,-9.30626,-0.78290,-2.05662,14.7561,3.1707,11.4634,-41.83,21.93,6.15,5,S01
27960,-9.65821,-0.94092,-2.43969,10.1220,7.0732,7.4390,-42.84,21.74,6.88,5,S01
27980,-10.34774,-1.02951,-3.02627,2.0122,9.4512,3.5366,-42.84,21.74,6.88,5,S01
28000,-11.19529,-1.38145,-3.90734,-4.4512,10.3659,1.0976,-42.84,21.74,6.88,5,S01
28020,-11.65019,-1.58736,-4.88896,-2.6829,10.3659,-2.9268,-42.84,21.74,6.88,5,S01
28040,-11.46344,-1.06542,-4.66630,9.3293,6.8293,-9.0854,-44.04,22.75,8.35,5,S01
28060,-10.57280,-0.29928,-4.44603,26.9512,-1.6463,-15.1829,-44.04,22.75,8.35,5,S01
28080,-9.33499,0.50278,-4.15155,40.1829,-8.7195,-18.0488,-44.04,22.75,8.35,5,S01
28100,-8.16423,1.11330,-3.95522,43.6585,-15.2439,-15.4878,-45.69,24.31,8.53,5,S01
28120,-7.39808,1.81720,-3.61046,37.5610,-19.5122,-7.7439,-45.69,24.31,8.53,5,S01
28140,-7.28077,2.03986,-3.24893,27.0732,-21.5854,2.6220,-45.69,24.31,8.53,5,S01
28160,-7.78116,1.70707,-3.18429,21.8293,-21.3415,10.5488,-47.98,23.49,10.46,5,S01
28180,-8.51618,1.47243,-3.33273,26.2805,-17.4390,12.5610,-47.98,23.49,10.46,5,S01
28200,-9.41640,1.22104,-3.10528,36.9512,-10.7317,11.9512,-47.98,23.49,10.46,5,S01
28220,-9.91200,1.15161,-3.07176,48.7805,-8.8415,12.3171,-47.98,23.49,10.46,5,S01
28240,-9.92876,1.29047,-3.09570,56.8293,-11.1585,15.0610,-50.55,22.84,9.82,5,S01
28260,-9.77313,1.45807,-2.92811,60.8537,-13.4146,19.5732,-50.55,22.84,9.82,5,S01
28280,-9.48822,1.68073,-2.73418,62.3781,-15.6098,23.4146,-50.55,22.84,9.82,5,S01
28300,-9.09078,1.86269,-2.69348,62.8659,-17.8049,26.8902,-53.58,21.47,9.08,5,S01
28320,-8.64067,1.91057,-2.64799,63.6585,-17.7439,30.2439,-53.58,21.47,9.08,5,S01
28340,-8.47547,1.80044,-2.54264,65.0610,-15.4878,33.0488,-53.58,21.47,9.08,5,S01
28360,-8.70771,1.47722,-2.41575,66.8293,-13.4146,34.7561,-55.96,19.17,7.71,5,S01
28380,-9.09318,1.37188,-2.34632,68.5976,-12.8049,34.0854,-55.96,19.17,7.71,5,S01
28400,-9.37569,1.35272,-2.30322,69.5732,-12.9268,33.3537,-55.96,19.17,7.71,5,S01
28420,-9.50977,1.24020,-2.16196,70.6707,-13.9024,33.9024,-55.96,19.17,7.71,5,S01
28440,-9.64384,1.14443,-2.08056,73.0488,-16.4634,33.9634,-57.61,17.16,5.87,5,S01
28460,-9.77074,1.03669,-2.06859,75.9756,-19.9390,32.9268,-57.61,17.16,5.87,5,S01
28480,-9.69652,0.85473,-2.06859,79.4512,-23.8415,32.1341,-57.61,17.16,5.87,5,S01
28500,-9.50019,0.75178,-2.14520,83.2317,-27.5610,31.7073,-58.99,15.69,3.58,5,S01
28520,-9.29908,0.76136,-2.15718,88.1707,-28.9024,33.0488,-58.99,15.69,3.58,5,S01
28540,-9.20810,0.85952,-2.02310,92.3171,-28.5976,35.1829,-58.99,15.69,3.58,5,S01
28560,-9.11712,1.01035,-1.90339,95.7927,-28.2317,36.7073,-59.63,13.67,0.46,5,S01
28580,-8.93995,1.16358,-1.80762,99.1463,-27.2561,37.8049,-59.63,13.67,0.46,5,S01
28600,-8.77236,1.26414,-1.72383,102.0122,-25.2439,39.2073,-59.63,13.67,0.46,5,S01
28620,-8.71489,1.21147,-1.58257,103.0488,-22.4390,40.7927,-59.63,13.67,0.46,5,S01
28640,-8.75320,1.10133,-1.36709,104.5732,-19.2073,40.7927,-58.90,11.47,-3.03,5,S01
28660,-8.75320,0.91459,-1.28090,106.6463,-16.7683,38.4146,-58.90,11.47,-3.03,5,S01
28680,-8.60237,0.83797,-1.47243,109.4512,-15.3659,35.0610,-58.90,11.47,-3.03,5,S01
28700,-8.42520,0.87388,-1.70946,112.5610,-12.7439,31.4024,-56.51,10.28,-6.97,5,S01
28720,-8.29830,1.04387,-1.87227,116.6463,-10.1829,28.7805,-56.51,10.28,-6.97,5,S01
28740,-8.45632,1.34075,-1.76932,120.7317,-8.2927,27.0122,-56.51,10.28,-6.97,5,S01
28760,-8.77475,1.68552,-1.56102,121.6463,-6.8902,24.8780,-52.20,9.72,-11.10,5,S01
28780,-8.87291,2.25773,-1.36709,115.3659,-8.2317,19.0244,-52.20,9.72,-11.10,5,S01
28800,-8.73405,2.25294,-1.16837,112.5610,-10.1829,17.1341,-52.20,9.72,-11.10,5,S01
28820,-8.63349,2.29365,-1.07979,109.5732,-10.3049,14.5732,-52.20,9.72,-11.10,5,S01
28840,-8.66940,2.36547,-1.10133,105.7927,-7.6220,12.4390,-45.69,10.37,-15.05,5,S01
28860,-8.75560,2.44927,-1.17316,103.0488,-4.4512,11.2195,-45.69,10.37,-15.05,5,S01
28880,-8.93037,2.67432,-1.07021,100.5488,-2.7439,10.3049,-45.69,10.37,-15.05,5,S01
28900,-9.14106,2.90896,-0.76136,96.1585,-3.2927,9.8171,-37.43,11.01,-18.90,5,S01
28920,-9.03811,2.91135,-1.12767,88.8415,-4.6341,8.7195,-37.43,11.01,-18.90,5,S01
28940,-8.97586,2.90656,-3.03824,79.8171,-3.4756,6.2805,-37.43,11.01,-18.90,5,S01
28960,-10.81461,3.90734,-6.32548,71.1585,6.8902,9.6341,-29.72,11.10,-22.29,5,S01
28980,-12.81377,3.42131,-5.21457,56.1585,21.5244,23.9634,-29.72,11.10,-22.29,5,S01
29000,-12.87841,2.13084,-3.76847,30.7317,8.9024,32.1951,-29.72,11.10,-22.29,5,S01
29020,-11.77947,0.99838,-3.57215,24.5732,-12.6829,30.4268,-29.72,11.10,-22.29,5,S01
29040,-10.30943,0.69432,-2.97599,36.6463,-14.5122,20.7927,-25.32,11.47,-23.85,5,S01
29060,-9.31823,0.52433,-3.19147,51.8902,-8.5366,7.3780,-25.32,11.47,-23.85,5,S01
29080,-9.30387,0.28491,-3.60327,59.3293,-0.9146,1.3415,-25.32,11.47,-23.85,5,S01
29100,-9.54089,-0.10056,-3.80678,57.1341,3.2927,2.3171,-20.37,12.11,-26.51,5,S01
29120,-9.56484,0.17957,-3.50272,43.9024,1.1585,3.7195,-20.37,12.11,-26.51,5,S01
29140,-9.27035,0.77093,-2.82037,20.4268,-5.4878,3.4756,-20.37,12.11,-26.51,5,S01
29160,-8.46350,1.10373,-2.56658,1.7683,-12.6220,1.8293,-18.26,12.94,-26.61,5,S01
29180,-7.71891,1.38864,-2.77249,0.0000,-12.6829,-1.3415,-18.26,12.94,-26.61,5,S01
29200,-7.65905,1.35033,-2.85389,4.5122,-4.6951,-3.5976,-18.26,12.94,-26.61,5,S01
29220,-8.01100,1.02951,-3.08373,3.7805,2.1951,-4.5732,-18.26,12.94,-26.61,5,S01
29240,-8.43238,0.94571,-3.62003,-3.6585,4.6951,-5.2439,-16.24,12.75,-27.16,5,S01
29260,-8.79869,0.92656,-3.59849,-13.5366,5.9146,-5.1220,-16.24,12.75,-27.16,5,S01
29280,-8.95910,0.92656,-3.39737,-21.3415,2.8049,-5.5488,-16.24,12.75,-27.16,5,S01
29300,-8.76278,0.84515,-3.48835,-27.0122,-2.8049,-7.0122,-15.50,12.84,-26.79,5,S01
29320,-8.67419,0.59616,-3.70622,-28.7805,-4.5732,-8.9024,-15.50,12.84,-26.79,5,S01
29340,-8.89446,0.36871,-3.90015,-25.7927,-2.4390,-10.4268,-15.50,12.84,-26.79,5,S01
29360,-9.17698,0.16520,-4.16352,-22.3171,-0.4878,-12.0732,-14.77,13.12,-26.88,5,S01
29380,-9.27035,-0.02873,-4.29759,-20.1220,0.3659,-13.5976,-14.77,13.12,-26.88,5,S01
29400,-9.03811,-0.12689,-4.35266,-18.1098,0.3659,-14.3902,-14.77,13.12,-26.88,5,S01
29420,-8.71250,-0.28970,-4.37181,-15.1829,0.4268,-13.4146,-14.77,13.12,-26.88,5,S01
29440,-8.61434,-0.47645,-4.21140,-12.1951,0.8537,-10.9146,-14.22,13.21,-27.06,5,S01
29460,-8.78433,-0.29209,-4.08690,-9.7561,0.2439,-9.0854,-14.22,13.21,-27.06,5,S01
29480,-9.22007,0.06704,-3.96001,-8.6585,-0.3659,-8.5366,-14.22,13.21,-27.06,5,S01
29500,-9.59835,0.14365,-3.65355,-7.9878,-0.4878,-8.5366,-13.76,13.30,-27.16,5,S01
29520,-9.59117,0.05028,-3.38540,-4.9390,-2.0122,-9.3293,-13.76,13.30,-27.16,5,S01
29540,-9.22486,0.03831,-3.27766,-1.0976,-4.8171,-9.3902,-13.76,13.30,-27.16,5,S01
29560,-8.74123,0.06225,-3.18429,1.5244,-7.0732,-8.1098,-13.03,13.76,-27.16,5,S01
29580,-8.34619,0.26097,-3.05500,2.7439,-8.1707,-6.2195,-13.03,13.76,-27.16,5,S01
29600,-7.93199,0.40462,-2.83952,3.2927,-8.9634,-4.0854,-13.03,13.76,-27.16,5,S01
29620,-7.53934,0.57221,-2.65038,3.1098,-9.0854,-2.3780,-13.03,13.76,-27.16,5,S01
29640,-7.44357,0.71347,-2.46603,0.9756,-7.4390,-1.6463,-12.75,14.04,-27.16,5,S01
29660,-8.03015,0.76854,-2.39420,-3.6585,-5.1829,-1.5244,-12.75,14.04,-27.16,5,S01
29680,-8.73165,0.64404,-2.36787,-9.2683,-3.9024,-0.4268,-12.75,14.04,-27.16,5,S01
29700,-8.94713,0.33998,-2.28167,-12.6829,-4.7561,-1.1585,-12.84,13.94,-26.79,5,S01
29720,-8.56167,0.03352,-2.21464,-11.0976,-7.1951,-3.8415,-12.84,13.94,-26.79,5,S01
29740,-7.97509,0.15562,-1.87705,-9.6341,-8.3537,-7.1341,-12.84,13.94,-26.79,5,S01
29760,-7.73806,0.28491,-1.30005,-10.6707,-8.7195,-7.9878,-12.57,14.40,-26.33,5,S01
29780,-8.05649,-0.06464,-0.86910,-11.7073,-8.3537,-5.3659,-12.57,14.40,-26.33,5,S01
29800,-8.57364,-0.51954,-0.83558,-12.7439,-9.2683,-2.8049,-12.57,14.40,-26.33,5,S01
29820,-8.68856,-0.78769,-1.32639,-12.8049,-12.6829,-3.1098,-12.57,14.40,-26.33,5,S01
29840,-8.38450,-0.89064,-1.66158,-10.0000,-14.0244,-4.6951,-12.39,14.77,-25.60,5,S01
29860,-7.99663,-0.64404,-1.71664,-8.4146,-14.5122,-4.2683,-12.39,14.77,-25.60,5,S01
29880,-7.84580,-0.47166,-1.67355,-11.0366,-15.9146,-1.1585,-12.39,14.77,-25.60,5,S01
29900,-7.64229,-0.27294,-1.41258,-16.1585,-18.1098,1.2195,-12.57,15.14,-24.77,5,S01
29920,-7.02938,0.14126,-1.75734,-19.1463,-20.3659,2.1951,-12.57,15.14,-24.77,5,S01
29940,-6.44280,0.44053,-2.16436,-17.0122,-18.5976,6.0366,-12.57,15.14,-24.77,5,S01
29960,-6.39252,0.45969,-2.42533,-13.4146,-13.0488,13.2927,-13.03,14.59,-23.94,5,S01
29980,-7.26401,0.48123,-2.24816,-19.5122,-3.9634,19.5122,-13.03,14.59,-23.94,5,S01
30000,-8.87291,0.86431,-3.66792,-34.4512,3.1707,22.7439,-13.03,14.59,-23.94,5,S01
30020,-11.80102,1.35033,-4.30477,-48.4756,10.0610,24.8171,-13.03,14.59,-23.94,5,S01
30040,-14.28381,1.39103,-3.24414,-39.0244,5.7927,26.0366,-14.22,13.67,-23.03,5,S01
30060,-14.69800,1.44131,-2.76770,-14.2073,-10.3049,19.8171,-14.22,13.67,-23.03,5,S01
30080,-13.79060,2.25773,-2.82755,7.5610,-23.9634,11.6463,-14.22,13.67,-23.03,5,S01
30100,-13.01488,2.76770,-3.46202,15.0610,-31.7073,6.7073,-13.12,14.68,-22.57,5,S01
30120,-13.34049,3.20344,-3.05021,11.7683,-28.4756,4.3293,-13.12,14.68,-22.57,5,S01
30140,-12.50252,3.94086,-1.52271,5.9756,-26.7683,-2.1341,-13.12,14.68,-22.57,5,S01
30160,-10.97023,3.27527,-1.83635,1.4634,-27.0122,-2.8049,-12.48,15.32,-22.11,5,S01
30180,-9.36851,2.17394,-2.20267,-2.6829,-20.7317,-5.4878,-12.48,15.32,-22.11,5,S01
30200,-8.14029,1.27611,-2.55461,-6.3415,-9.5732,-9.6341,-12.48,15.32,-22.11,5,S01
