timestamp,ax,ay,az,gx,gy,gz,mx,my,mz,label,subject_id
0,-8.68616,1.98240,1.03430,-1.6463,16.0366,4.0854,7.71,22.29,-23.85,1,S01
20,-8.84179,1.81720,1.19231,-1.0976,15.0610,5.1829,7.71,21.83,-24.31,1,S01
40,-8.94474,1.42934,1.16358,-0.1220,12.1341,4.6951,7.71,21.83,-24.31,1,S01
60,-9.07163,1.12049,1.05584,1.7073,9.0854,2.1951,7.71,21.83,-24.31,1,S01
80,-9.17219,1.08457,1.20189,3.4756,7.3171,-1.4634,8.07,21.56,-24.50,1,S01
100,-9.12670,1.26893,1.26893,5.0000,5.0000,-4.6951,8.07,21.56,-24.50,1,S01
120,-9.01896,1.43413,1.31681,5.6098,2.3780,-6.2195,8.07,21.56,-24.50,1,S01
140,-8.87531,1.54187,1.35751,5.9756,-0.0610,-6.0976,8.81,21.74,-24.50,1,S01
160,-8.69813,1.62087,1.41976,5.5488,-2.3780,-5.4268,8.81,21.74,-24.50,1,S01
180,-8.48505,1.72622,1.35751,4.7561,-4.5732,-4.4512,8.81,21.74,-24.50,1,S01
200,-8.31027,1.74058,1.46765,3.3537,-5.4268,-3.9024,8.81,21.74,-24.50,1,S01
220,-8.19296,1.65200,1.47722,2.7439,-6.1585,-3.4146,9.17,21.74,-24.31,1,S01
240,-8.12113,1.51792,1.42455,3.1098,-6.6463,-2.8049,9.17,21.74,-24.31,1,S01
260,-7.95593,1.49638,1.19710,3.2317,-7.4390,-3.1098,9.17,21.74,-24.31,1,S01
280,-7.80989,1.57778,1.35272,3.3537,-6.8902,-4.6951,9.72,22.02,-24.13,1,S01
300,-7.45315,1.75734,1.48919,4.2073,-7.5000,-6.4024,9.72,22.02,-24.13,1,S01
320,-7.22570,1.72383,1.36470,3.6585,-7.5610,-7.0732,9.72,22.02,-24.13,1,S01
340,-7.25922,1.60890,0.93134,3.1098,-4.0854,-8.1707,10.28,22.11,-24.22,1,S01
360,-7.34541,1.71664,0.80445,3.7805,-0.3659,-9.5732,10.28,22.11,-24.22,1,S01
380,-7.20894,1.89142,0.76854,4.2073,-0.1220,-9.9390,10.28,22.11,-24.22,1,S01
400,-7.00304,1.90339,0.93134,4.0244,-0.9756,-9.4512,10.28,22.11,-24.22,1,S01
420,-6.99346,1.97282,1.07979,0.1829,-1.5244,-9.5732,10.92,22.29,-24.04,1,S01
440,-6.91445,1.81002,0.97205,-3.9634,-4.8171,-10.5488,10.92,22.29,-24.04,1,S01
460,-6.85221,1.43892,0.81882,-4.5732,-10.0610,-12.7439,10.92,22.29,-24.04,1,S01
480,-7.85777,2.01113,-0.52672,-6.9512,-15.3049,-14.6341,11.10,22.84,-23.76,1,S01
500,-9.95030,3.41174,-1.10373,-16.3415,-11.6463,-9.0244,11.10,22.84,-23.76,1,S01
520,-13.56315,0.45250,0.24900,-23.0488,-15.5488,11.7683,11.10,22.84,-23.76,1,S01
540,-15.57189,-1.21865,-0.01197,-23.1707,-22.1951,10.0610,10.09,23.58,-23.03,1,S01
560,-17.58062,-0.80445,-0.93853,-18.7195,-17.1951,7.1951,10.09,23.58,-23.03,1,S01
580,-16.99644,-0.93374,0.39744,-4.3902,-6.8293,6.2195,10.09,23.58,-23.03,1,S01
600,-15.19360,-0.66798,1.45089,4.8780,-9.0854,-10.6098,10.09,23.58,-23.03,1,S01
620,-12.94066,0.61052,1.01754,9.2683,-18.5366,-32.8049,11.38,24.04,-23.12,1,S01
640,-10.58955,1.63285,0.36631,10.7927,-19.0854,-40.2439,11.38,24.04,-23.12,1,S01
660,-8.83939,1.91057,-0.11253,7.1341,-9.3902,-34.7561,11.38,24.04,-23.12,1,S01
680,-8.19535,1.51314,-0.48602,1.1585,5.1829,-25.1829,12.66,23.67,-23.12,1,S01
700,-8.51618,0.87867,-0.15083,-6.0976,23.4146,-16.0976,12.66,23.67,-23.12,1,S01
720,-8.91122,0.67277,0.16041,-15.4268,33.9024,-9.3902,12.66,23.67,-23.12,1,S01
740,-8.88967,0.79727,0.19393,-23.9634,34.8171,-3.7195,11.83,22.29,-24.22,1,S01
760,-8.89685,0.93134,0.84515,-27.6220,32.3780,0.8537,11.83,22.29,-24.22,1,S01
780,-8.91361,0.64643,1.30963,-25.8537,23.4756,3.1098,11.83,22.29,-24.22,1,S01
800,-8.86094,0.13647,1.06542,-20.5488,11.1585,3.1098,11.83,22.29,-24.22,1,S01
820,-8.62631,-0.24660,0.60094,-15.3049,3.4756,3.5976,11.38,22.11,-24.59,1,S01
840,-8.39647,-0.16759,0.26336,-14.3293,2.2561,6.0976,11.38,22.11,-24.59,1,S01
860,-8.28394,-0.07661,0.28252,-14.9390,5.3049,9.8780,11.38,22.11,-24.59,1,S01
880,-8.72926,0.04788,1.04387,-14.4512,8.4146,12.7439,10.73,21.93,-24.68,1,S01
900,-9.26317,0.08859,1.78368,-12.7439,5.3049,12.9268,10.73,21.93,-24.68,1,S01
920,-9.61272,0.14605,1.78368,-11.8902,-3.2317,10.2439,10.73,21.93,-24.68,1,S01
940,-9.46667,0.01676,1.66158,-14.1463,-12.0122,8.1098,10.28,22.20,-24.31,1,S01
960,-8.85615,-0.17717,1.33836,-15.7317,-19.3902,7.0122,10.28,22.20,-24.31,1,S01
980,-8.53772,-0.38068,1.27372,-12.9878,-21.6463,5.1829,10.28,22.20,-24.31,1,S01
1000,-8.39168,-0.82839,1.38385,-7.3171,-21.4634,3.7805,10.28,22.20,-24.31,1,S01
1020,-8.07804,-1.03190,1.20189,-1.5244,-22.9878,2.9268,10.46,22.94,-23.39,1,S01
1040,-7.63272,-0.97205,0.95768,2.2561,-22.4390,2.8049,10.46,22.94,-23.39,1,S01
1060,-7.80031,-0.75657,1.09415,5.4878,-16.9512,2.3780,10.46,22.94,-23.39,1,S01
1080,-8.09240,-0.49081,0.96965,10.0610,-13.8415,1.4634,11.10,23.21,-22.94,1,S01
1100,-7.97987,-0.04788,0.60334,15.0610,-14.1463,0.0610,11.10,23.21,-22.94,1,S01
1120,-7.76918,0.15323,0.79248,16.8293,-12.5610,-1.2805,11.10,23.21,-22.94,1,S01
1140,-7.79552,0.09577,1.33836,17.0732,-11.0976,-2.1951,12.20,23.49,-22.57,1,S01
1160,-7.91523,0.01915,1.44370,16.0366,-11.7683,-1.7683,12.20,23.49,-22.57,1,S01
1180,-8.17859,0.03112,1.60412,13.1707,-10.7317,-0.2439,12.20,23.49,-22.57,1,S01
1200,-8.16423,0.06464,1.66876,10.0000,-9.3293,0.6707,12.20,23.49,-22.57,1,S01
1220,-7.82425,0.16041,1.49159,6.9512,-9.2683,0.9146,12.94,23.85,-22.29,1,S01
1240,-8.06607,0.16520,1.01993,1.9512,-10.1829,1.5854,12.94,23.85,-22.29,1,S01
1260,-9.43555,0.04310,-0.45250,-3.9024,-9.8780,3.0488,12.94,23.85,-22.29,1,S01
1280,-11.44907,0.53151,-0.14365,-11.0976,-2.9878,4.3293,12.84,23.94,-22.11,1,S01
1300,-12.91193,1.61369,0.18196,-7.1951,-1.7073,3.1707,12.84,23.94,-22.11,1,S01
1320,-13.26148,2.30801,0.08380,8.5366,-10.3659,0.0000,12.84,23.94,-22.11,1,S01
1340,-12.72518,2.38223,0.32322,22.6829,-14.1463,-0.4268,14.31,24.59,-21.56,1,S01
1360,-12.74434,2.57137,0.27054,25.9146,-10.6707,2.5000,14.31,24.59,-21.56,1,S01
1380,-13.65174,3.97677,1.21386,21.7683,-1.2805,3.1707,14.31,24.59,-21.56,1,S01
1400,-13.20402,5.02782,1.71425,12.8049,0.7927,5.2439,14.31,24.59,-21.56,1,S01
1420,-11.21923,4.63757,1.24498,6.8293,-4.0244,14.2683,14.31,24.50,-21.74,1,S01
1440,-9.63187,3.23217,0.79487,3.5366,-2.7439,22.2561,14.31,24.50,-21.74,1,S01
1460,-9.07642,1.79326,0.73502,1.8293,6.2195,22.3780,14.31,24.50,-21.74,1,S01
1480,-9.21528,1.78607,1.09654,0.4268,16.6463,16.1585,13.85,23.85,-22.29,1,S01
1500,-9.24162,2.52349,1.15401,-4.0854,21.2805,12.5610,13.85,23.85,-22.29,1,S01
1520,-8.89207,2.75333,0.70150,-9.5732,21.2195,13.9024,13.85,23.85,-22.29,1,S01
1540,-8.63828,2.25055,0.36871,-8.2927,23.2317,15.9146,13.21,23.03,-23.12,1,S01
1560,-8.72687,1.69031,0.50278,-3.2317,27.0122,15.0610,13.21,23.03,-23.12,1,S01
1580,-9.01656,1.59214,0.73502,0.0000,28.4146,12.3780,13.21,23.03,-23.12,1,S01
1600,-9.27035,1.70707,1.12288,0.6707,26.7683,10.2439,13.21,23.03,-23.12,1,S01
1620,-9.50019,1.59933,1.52750,1.7073,22.7439,9.5122,13.21,22.39,-24.04,1,S01
1640,-9.62708,1.37667,1.95127,4.3293,16.6463,9.1463,13.21,22.39,-24.04,1,S01
1660,-9.44991,1.32399,2.01113,9.3293,8.5976,8.4756,13.21,22.39,-24.04,1,S01
1680,-9.10515,1.33596,1.90818,15.0000,2.3171,7.1341,13.76,22.29,-24.04,1,S01
1700,-8.84897,1.40779,1.72383,21.8293,-0.4878,4.2073,13.76,22.29,-24.04,1,S01
1720,-8.62152,1.59454,1.44849,28.6585,-1.2195,0.3049,13.76,22.29,-24.04,1,S01
1740,-8.40604,1.87227,0.95529,32.8659,-1.0976,-3.4756,15.23,21.93,-23.67,1,S01
1760,-8.26718,2.39420,0.01915,33.4756,0.1829,-6.8293,15.23,21.93,-23.67,1,S01
1780,-8.49942,2.83713,-0.41180,31.2195,5.9146,-8.9024,15.23,21.93,-23.67,1,S01
1800,-8.98304,3.05500,-0.38786,28.6585,12.0732,-8.7195,15.23,21.93,-23.67,1,S01
1820,-9.28232,2.96642,-1.18992,25.8537,12.3780,-4.7561,16.06,21.56,-24.04,1,S01
1840,-9.55287,2.60010,-2.37744,23.2317,12.5000,2.2561,16.06,21.56,-24.04,1,S01
1860,-9.78271,2.03268,-2.31759,21.5244,19.2073,11.1585,16.06,21.56,-24.04,1,S01
1880,-9.71567,1.55623,-1.24977,14.0244,25.9756,18.1707,15.60,20.92,-24.95,1,S01
1900,-9.41640,1.19231,-1.02232,5.1220,24.8780,19.6951,15.60,20.92,-24.95,1,S01
1920,-9.45470,0.88825,-0.68474,0.1829,25.4268,16.7683,15.60,20.92,-24.95,1,S01
1940,-9.78510,0.77333,-0.05986,-0.2439,28.7805,11.1585,15.50,20.09,-25.69,1,S01
1960,-10.03889,0.44053,0.62968,3.3537,28.5976,5.0610,15.50,20.09,-25.69,1,S01
1980,-9.95509,-0.82361,0.24660,15.1829,22.1341,-4.8780,15.50,20.09,-25.69,1,S01
2000,-9.43076,-0.78769,-0.44293,19.5732,22.8659,-7.1951,15.50,20.09,-25.69,1,S01
2020,-8.86094,0.16281,-0.89304,22.5610,28.1707,-8.0488,16.70,19.17,-26.24,1,S01
2040,-8.67419,1.35512,-0.68953,23.3537,36.0976,-7.1951,16.70,19.17,-26.24,1,S01
2060,-8.87052,1.99916,-0.18675,21.3415,40.4268,-4.7561,16.70,19.17,-26.24,1,S01
2080,-9.24162,2.10690,-0.16759,17.3780,38.1707,-1.8293,17.80,17.61,-27.16,1,S01
2100,-9.55526,1.85551,-0.50039,11.9512,33.4756,1.7683,17.80,17.61,-27.16,1,S01
2120,-9.60075,1.34075,-1.13246,7.3171,30.3659,4.4512,17.80,17.61,-27.16,1,S01
2140,-9.32302,0.77812,-1.49877,5.5488,30.8537,4.0244,17.98,16.42,-27.80,1,S01
2160,-8.81784,0.82361,-1.73819,7.4390,34.0854,0.0610,17.98,16.42,-27.80,1,S01
2180,-8.22887,1.19950,-1.48680,8.2927,37.7439,-4.5732,17.98,16.42,-27.80,1,S01
2200,-7.52976,1.10612,-0.49081,8.4146,39.0854,-7.3780,17.98,16.42,-27.80,1,S01
2220,-6.87375,0.31125,0.17717,11.3415,36.5244,-9.2683,18.99,14.86,-28.62,1,S01
2240,-6.63912,-0.73981,0.18196,17.8659,32.7439,-12.0732,18.99,14.86,-28.62,1,S01
2260,-6.96473,-1.11570,-0.32801,27.4390,28.9634,-14.6951,18.99,14.86,-28.62,1,S01
2280,-7.58244,-0.67995,-0.32082,36.0366,24.9390,-13.6585,20.92,13.94,-28.81,1,S01
2300,-8.08761,0.50278,0.17717,42.3780,18.1098,-9.5122,20.92,13.94,-28.81,1,S01
2320,-8.69335,2.08056,0.55545,40.4878,7.8659,-5.4268,20.92,13.94,-28.81,1,S01
2340,-9.13388,3.06218,0.58179,33.6585,-3.6585,-1.2805,22.48,14.31,-28.35,1,S01
2360,-9.33260,2.94966,0.39265,30.8537,-14.4512,1.0366,22.48,14.31,-28.35,1,S01
2380,-9.53850,2.21703,0.44293,27.5000,-22.8659,1.0366,22.48,14.31,-28.35,1,S01
2400,-9.82580,1.90818,0.54588,18.2317,-27.9268,-1.0366,22.48,14.31,-28.35,1,S01
2420,-9.98861,2.64320,0.09098,5.8537,-27.9268,-3.9024,23.21,15.32,-27.52,1,S01
2440,-10.18972,3.04064,-0.31603,-2.6220,-22.2561,-3.9634,23.21,15.32,-27.52,1,S01
2460,-10.77630,2.31040,-1.12767,-2.6220,-14.1463,-0.1220,23.21,15.32,-27.52,1,S01
2480,-11.60709,1.64960,-1.01754,-6.0366,-3.2927,2.7439,22.94,15.05,-27.34,1,S01
2500,-12.37084,2.04225,-0.43814,-9.7561,5.4878,1.8902,22.94,15.05,-27.34,1,S01
2520,-13.88876,3.23217,0.15562,-6.8902,13.9634,1.0366,22.94,15.05,-27.34,1,S01
2540,-15.89511,4.78840,1.01035,-1.3415,21.7683,6.8902,22.39,13.58,-27.89,1,S01
2560,-17.46810,6.04296,1.98000,0.9756,28.0488,21.7683,22.39,13.58,-27.89,1,S01
2580,-17.05390,6.43561,1.75974,0.3659,33.9634,37.8659,22.39,13.58,-27.89,1,S01
2600,-18.31804,6.60800,0.55545,9.1463,52.1341,49.5122,22.39,13.58,-27.89,1,S01
2620,-19.08897,6.61997,4.71658,6.4024,53.9024,50.5488,20.83,11.38,-28.44,1,S01
2640,-16.62294,4.85784,3.66313,-8.5366,-0.8537,42.5610,20.83,11.38,-28.44,1,S01
2660,-12.92630,2.66714,0.00000,-29.9390,-55.1220,27.1951,20.83,11.38,-28.44,1,S01
2680,-8.79869,-0.26097,-1.51553,-50.1829,-66.7073,11.2195,17.52,13.58,-26.70,1,S01
2700,-4.49870,-2.58334,-1.18274,-52.0732,-60.6707,-10.4268,17.52,13.58,-26.70,1,S01
2720,0.23703,-2.43490,-1.97761,-27.8049,-74.0244,-32.2561,17.52,13.58,-26.70,1,S01
2740,2.86825,-0.38068,-6.13873,5.9146,-99.6951,-40.2439,18.35,15.60,-23.76,1,S01
2760,2.90177,0.40701,-9.29669,14.8780,-82.6829,-31.1585,18.35,15.60,-23.76,1,S01
2780,1.45567,0.55785,-6.47871,13.1098,-13.0488,-18.9024,18.35,15.60,-23.76,1,S01
2800,-0.18435,0.19872,-1.48680,15.1220,40.6707,-8.1098,18.35,15.60,-23.76,1,S01
2820,-0.43335,-1.05824,0.16281,18.7195,43.4146,-0.4268,19.08,13.39,-24.50,1,S01
2840,0.27533,-1.86508,-0.30167,27.1951,27.7439,0.7317,19.08,13.39,-24.50,1,S01
2860,0.22505,-1.36470,0.37110,34.3902,18.8415,-1.4024,19.08,13.39,-24.50,1,S01
2880,-0.98402,0.13647,2.12845,31.4024,4.6341,-1.4634,20.46,13.58,-23.39,1,S01
2900,-1.94170,1.65679,3.73256,15.2439,-24.5732,3.4756,20.46,13.58,-23.39,1,S01
2920,-1.31921,2.36068,3.27527,-6.0366,-52.3781,10.3049,20.46,13.58,-23.39,1,S01
2940,-0.16041,1.96803,2.22900,-22.0732,-62.8049,15.7927,19.27,16.15,-21.38,1,S01
2960,1.47962,1.03190,1.34315,-36.0366,-63.8415,18.2927,19.27,16.15,-21.38,1,S01
2980,2.11408,0.15802,1.08457,-48.2927,-58.1707,15.4878,19.27,16.15,-21.38,1,S01
3000,0.28970,-0.33279,1.25217,-53.1707,-55.5488,11.0366,19.27,16.15,-21.38,1,S01
3020,-3.33512,-2.48039,-2.39660,-42.7439,-81.6463,3.8415,18.81,18.07,-19.36,1,S01
3040,-8.54969,-1.30245,-3.26330,-29.3902,-74.6341,2.4390,18.81,18.07,-19.36,1,S01
3060,-14.27184,3.16513,-8.59997,-10.1829,-66.6463,2.1951,18.81,18.07,-19.36,1,S01
3080,-26.32425,14.34845,-15.10741,-37.6220,-143.2927,16.6463,18.62,21.38,-15.32,1,S01
3100,-32.84845,4.77404,-0.50039,-12.6829,-202.3780,87.0122,18.62,21.38,-15.32,1,S01
3120,-25.78076,-3.55539,-3.74693,-36.5854,-208.7805,102.0122,18.62,21.38,-15.32,1,S01
3140,-11.40598,-8.76278,-4.65672,-89.5122,-182.0732,-2.0732,20.28,24.04,-12.20,1,S01
3160,-9.11712,4.34308,4.98473,-106.5854,-135.6098,-99.5122,20.28,24.04,-12.20,1,S01
3180,-12.34690,3.84509,5.75087,-127.1951,-178.4146,-50.4878,20.28,24.04,-12.20,1,S01
3200,-12.13621,2.62165,5.10923,-137.0122,-243.1098,-14.0244,20.28,24.04,-12.20,1,S01
3220,-9.93833,-1.84593,6.44280,-135.9146,-242.3780,-6.5244,16.97,28.07,-5.60,1,S01
3240,-6.22971,-4.27604,3.82833,-135.8537,-213.9634,-8.5976,16.97,28.07,-5.60,1,S01
3260,-3.39498,-1.71904,2.48758,-130.4878,-152.6220,-10.0000,16.97,28.07,-5.60,1,S01
3280,-4.93445,2.92571,11.94228,-114.4512,-84.4512,6.7683,13.76,29.36,-5.69,1,S01
3300,-5.67905,0.12689,15.32050,-149.0244,-138.5366,3.2927,13.76,29.36,-5.69,1,S01
3320,-8.62870,2.71981,3.94564,-130.3049,-240.6098,-3.8415,13.76,29.36,-5.69,1,S01
3340,-10.30225,0.02634,7.77397,-96.5854,-235.4268,17.0122,13.30,31.01,3.21,1,S01
3360,-10.93911,-1.10852,11.04685,-79.5732,-202.9268,18.0488,13.30,31.01,3.21,1,S01
3380,-10.92953,-1.24977,13.57752,-65.6098,-184.2683,15.3659,13.30,31.01,3.21,1,S01
3400,-10.44111,0.30885,13.22796,-58.2927,-177.3780,22.9878,13.30,31.01,3.21,1,S01
3420,-9.54329,0.85234,14.64054,-47.3171,-138.2927,43.0488,11.74,30.92,7.71,1,S01
3440,-9.28232,-0.12450,16.59182,-30.7317,-58.5976,90.5488,11.74,30.92,7.71,1,S01
3460,-9.24162,1.01275,16.11298,-31.7683,-21.6463,109.0244,11.74,30.92,7.71,1,S01
3480,-9.09318,0.38307,15.37556,-31.9512,22.6829,131.4634,6.33,31.65,6.88,1,S01
3500,-8.98544,-0.00239,14.21677,-34.4512,65.6707,140.6707,6.33,31.65,6.88,1,S01
3520,-9.08600,0.39265,13.07234,-39.5122,105.6098,139.6342,6.33,31.65,6.88,1,S01
3540,-9.30147,0.71826,12.49534,-44.2073,143.7195,138.6585,0.83,31.56,2.02,1,S01
3560,-9.45470,1.31681,11.61906,-48.4756,172.6829,139.1464,0.83,31.56,2.02,1,S01
3580,-9.47864,1.52511,11.06361,-50.5488,189.8171,143.0488,0.83,31.56,2.02,1,S01
3600,-9.11233,1.59693,9.53850,-49.5732,193.7195,140.4268,0.83,31.56,2.02,1,S01
3620,-8.82024,0.87149,8.52336,-45.9756,199.8171,133.1098,-3.94,28.81,-3.85,1,S01
3640,-8.69813,0.93374,7.48427,-41.7683,210.1829,117.9878,-3.94,28.81,-3.85,1,S01
3660,-8.75799,1.32878,7.28795,-34.8171,222.8659,103.7805,-3.94,28.81,-3.85,1,S01
3680,-8.64786,1.48919,6.84263,-32.7439,228.4146,92.8659,-6.42,24.50,-10.00,1,S01
3700,-8.60237,1.51314,7.38132,-36.3415,223.9024,83.2317,-6.42,24.50,-10.00,1,S01
3720,-8.97586,2.15957,6.74207,-40.3659,204.8780,70.6707,-6.42,24.50,-10.00,1,S01
3740,-9.09797,2.27928,5.97832,-51.2195,183.9024,62.2561,-8.17,19.72,-13.03,1,S01
3760,-8.63828,1.91057,5.36301,-64.0854,168.4146,56.7073,-8.17,19.72,-13.03,1,S01
3780,-8.24803,1.77410,5.58328,-74.1463,153.6585,46.6463,-8.17,19.72,-13.03,1,S01
3800,-7.54174,2.04704,4.54898,-81.0366,131.0976,35.5488,-8.17,19.72,-13.03,1,S01
3820,-7.10360,2.33195,3.50272,-86.5854,111.8902,28.2927,-10.73,16.06,-12.84,1,S01
3840,-7.09163,2.50194,2.76291,-90.4878,97.4390,26.7073,-10.73,16.06,-12.84,1,S01
3860,-6.79235,3.21781,2.61447,-95.3659,84.0854,24.8780,-10.73,16.06,-12.84,1,S01
3880,-6.53138,3.76129,1.44610,-99.2073,71.9512,20.5488,-12.57,14.59,-11.01,1,S01
3900,-6.76601,3.49553,0.35913,-107.0732,69.5122,14.7561,-12.57,14.59,-11.01,1,S01
3920,-7.40287,3.12443,0.40701,-119.8171,74.5732,6.5854,-12.57,14.59,-11.01,1,S01
3940,-7.90087,3.51469,0.64165,-131.8293,76.6463,-3.0488,-13.76,13.49,-8.90,1,S01
3960,-8.36534,4.46279,1.47004,-143.4146,74.1463,-11.4634,-13.76,13.49,-8.90,1,S01
3980,-8.37252,5.30555,2.41336,-151.8902,64.9390,-15.9756,-13.76,13.49,-8.90,1,S01
4000,-7.87214,5.32949,2.75094,-155.7927,44.8780,-11.8902,-13.76,13.49,-8.90,1,S01
4020,-6.85939,3.09570,2.57377,-154.7561,22.0122,1.5244,-14.50,13.58,-4.77,1,S01
4040,-5.92086,0.68714,0.91219,-145.6098,6.4634,4.2683,-14.50,13.58,-4.77,1,S01
4060,-5.95917,1.33596,-0.74699,-135.9146,2.3171,-9.8780,-14.50,13.58,-4.77,1,S01
4080,-6.86896,3.63440,0.73981,-136.8902,10.6707,-21.4634,-14.13,14.86,-1.65,1,S01
4100,-7.63750,4.18506,0.82361,-145.4268,7.0732,-17.0732,-14.13,14.86,-1.65,1,S01
4120,-7.94396,3.20823,-1.40779,-156.7683,-10.1829,-3.0488,-14.13,14.86,-1.65,1,S01
4140,-7.65666,1.74777,-3.37343,-167.9268,-21.0976,5.2439,-14.04,14.68,3.21,1,S01
4160,-7.92720,1.59454,-2.76770,-174.4512,-12.0122,1.4024,-14.04,14.68,3.21,1,S01
4180,-8.34379,1.84354,-2.04225,-177.5610,-3.2927,-0.7317,-14.04,14.68,3.21,1,S01
4200,-8.43956,1.06063,-1.90100,-173.4756,-3.5366,7.0732,-14.04,14.68,3.21,1,S01
4220,-8.49702,-0.04788,-1.54426,-162.4390,-2.6220,15.3049,-13.12,14.50,7.34,1,S01
4240,-8.62152,-0.72065,-1.34554,-150.0610,-0.3659,17.2561,-13.12,14.50,7.34,1,S01
4260,-8.77475,-0.88825,-1.05824,-134.4512,3.7195,11.7683,-13.12,14.50,7.34,1,S01
4280,-8.96868,-0.38307,-0.57221,-120.5488,8.5366,3.2317,-11.93,14.59,9.91,1,S01
4300,-9.04529,-0.12450,-0.19393,-113.7805,7.8049,-3.7195,-11.93,14.59,9.91,1,S01
4320,-9.01417,0.26097,-0.38307,-105.7927,0.6098,-9.1463,-11.93,14.59,9.91,1,S01
4340,-8.96389,0.45969,-0.62489,-99.6951,-4.8780,-10.4268,-10.37,15.14,12.20,1,S01
4360,-9.05727,0.41180,-0.59855,-96.8293,-5.3049,-8.2927,-10.37,15.14,12.20,1,S01
4380,-9.24401,0.15802,0.03352,-94.5732,-1.7683,-5.6098,-10.37,15.14,12.20,1,S01
4400,-9.31823,-0.17957,0.65122,-89.0244,-2.3171,-2.8659,-10.37,15.14,12.20,1,S01
4420,-9.21049,-0.81882,0.92895,-80.9146,-6.5244,0.2439,-9.08,15.23,13.94,1,S01
4440,-8.84658,-1.11091,0.97683,-72.5000,-11.5244,1.2805,-9.08,15.23,13.94,1,S01
4460,-8.04691,-0.91937,0.66559,-63.8415,-16.7073,-0.2439,-9.08,15.23,13.94,1,S01
4480,-7.35020,-0.54588,0.34716,-56.6463,-15.6707,-1.7683,-7.98,15.60,15.14,1,S01
4500,-6.98149,-0.45250,0.55545,-51.0976,-7.9878,0.1220,-7.98,15.60,15.14,1,S01
4520,-6.71574,-0.35195,1.01514,-46.4024,-1.5854,3.2317,-7.98,15.60,15.14,1,S01
4540,-6.71813,-0.11013,1.37427,-44.3902,1.6463,6.3415,-7.43,16.15,15.69,1,S01
4560,-7.23288,0.11971,1.95846,-44.7561,6.3415,9.1463,-7.43,16.15,15.69,1,S01
4580,-7.89129,0.00239,2.63841,-45.7927,9.0854,10.1829,-7.43,16.15,15.69,1,S01
4600,-8.55209,-0.67995,2.68629,-45.1220,5.4878,7.9268,-7.43,16.15,15.69,1,S01
4620,-9.08121,-0.84036,2.07338,-45.5488,-1.8902,3.8415,-6.79,16.42,16.33,1,S01
4640,-9.56005,-0.77812,2.02789,-47.9878,-3.5366,2.1341,-6.79,16.42,16.33,1,S01
4660,-10.16578,-0.52194,2.53307,-46.5244,-0.5488,3.5976,-6.79,16.42,16.33,1,S01
4680,-11.06839,0.42138,1.85072,-44.4512,-0.1829,8.8415,-6.15,16.42,16.97,1,S01
4700,-13.10825,0.98162,0.36392,-46.6463,0.8537,14.2073,-6.15,16.42,16.97,1,S01
4720,-14.89193,0.94810,1.05584,-39.6951,5.9756,8.1707,-6.15,16.42,16.97,1,S01
4740,-14.23114,1.43173,0.56024,-32.0122,-9.6951,-8.6585,-5.50,16.51,18.07,1,S01
4760,-11.48259,3.50511,-0.75657,-38.6585,-38.4146,-14.7561,-5.50,16.51,18.07,1,S01
4780,-9.76834,5.40132,-2.52349,-51.0366,-49.0244,-7.0732,-5.50,16.51,18.07,1,S01
4800,-9.35654,4.49631,-2.94008,-54.2073,-32.8659,12.1341,-5.50,16.51,18.07,1,S01
4820,-9.50977,2.42533,-1.47004,-54.2683,-4.3902,33.8415,-5.60,16.06,19.08,1,S01
4840,-9.58638,0.77333,0.13168,-46.5244,16.4634,47.6220,-5.60,16.06,19.08,1,S01
4860,-9.02375,1.13964,0.27533,-32.7439,21.6463,49.3902,-5.60,16.06,19.08,1,S01
4880,-8.16423,1.91057,-0.35195,-24.3902,21.6463,46.4634,-6.79,16.06,18.81,1,S01
4900,-7.69496,2.09253,-0.44293,-23.1707,28.6585,42.6220,-6.79,16.06,18.81,1,S01
4920,-7.91523,2.47082,0.81163,-30.8537,44.4512,36.5854,-6.79,16.06,18.81,1,S01
4940,-8.20253,2.88980,0.66319,-36.8293,41.7683,36.0976,-7.25,16.33,18.35,1,S01
4960,-8.82263,2.99515,1.03669,-41.4634,42.1951,37.2561,-7.25,16.33,18.35,1,S01
4980,-9.45710,2.80122,1.13725,-42.8659,42.5000,37.9268,-7.25,16.33,18.35,1,S01
5000,-10.10593,2.80122,2.31040,-44.6951,42.6220,39.3293,-7.25,16.33,18.35,1,S01
5020,-10.08917,2.56898,2.95923,-45.1829,32.8049,43.3537,-7.80,16.61,18.53,1,S01
5040,-9.44273,2.08535,2.99036,-44.5732,17.6220,45.9146,-7.80,16.61,18.53,1,S01
5060,-8.59758,1.49159,2.68629,-39.8780,3.6585,44.3293,-7.80,16.61,18.53,1,S01
5080,-7.90087,0.96726,2.19548,-32.3780,-6.8902,39.3902,-8.44,15.60,19.45,1,S01
5100,-7.51779,1.04627,1.76213,-26.1585,-12.6829,31.2805,-8.44,15.60,19.45,1,S01
5120,-7.23049,1.41018,1.28090,-24.0244,-12.2561,21.4634,-8.44,15.60,19.45,1,S01
5140,-7.04374,1.84593,1.56581,-21.3415,-7.0732,12.0122,-8.62,15.50,20.09,1,S01
5160,-7.79073,2.24816,2.43490,-15.0000,-1.6463,2.6220,-8.62,15.50,20.09,1,S01
5180,-9.45231,2.96402,3.07655,-3.1707,-0.0610,-6.6463,-8.62,15.50,20.09,1,S01
5200,-10.90080,4.13000,3.81636,9.5122,-1.3415,-13.3537,-8.62,15.50,20.09,1,S01
5220,-11.67173,5.03022,4.32153,14.3293,-4.9390,-17.9878,-8.90,16.42,20.00,1,S01
5240,-12.09790,5.53061,3.13640,13.7805,-9.2073,-20.8537,-8.90,16.42,20.00,1,S01
5260,-12.73715,6.30872,0.44532,3.0488,-12.8049,-18.9024,-8.90,16.42,20.00,1,S01
5280,-14.07551,8.23127,0.48363,-10.7317,-13.4756,-14.0244,-8.62,16.88,20.83,1,S01
5300,-14.46577,7.18739,-0.63925,-18.8415,-6.4634,-1.9512,-8.62,16.88,20.83,1,S01
5320,-12.98136,3.92649,-1.11570,-35.9756,0.1829,4.8171,-8.62,16.88,20.83,1,S01
5340,-11.19768,1.14922,-2.71981,-47.5000,-11.4024,-1.4024,-7.43,16.70,22.39,1,S01
5360,-10.64701,0.80206,-4.89375,-55.7927,-18.4756,-20.4268,-7.43,16.70,22.39,1,S01
5380,-10.86968,0.82600,-3.79960,-63.9024,-2.3780,-32.3171,-7.43,16.70,22.39,1,S01
5400,-10.85531,0.48842,-2.98078,-63.6585,11.6463,-31.9512,-7.43,16.70,22.39,1,S01
5420,-10.27591,0.61292,-2.36787,-57.4390,23.2927,-30.4268,-4.95,18.26,23.58,1,S01
5440,-9.76355,1.14203,-1.25456,-57.6829,33.6585,-32.4390,-4.95,18.26,23.58,1,S01
5460,-9.27514,1.64003,-0.74699,-63.1098,33.4756,-35.9146,-4.95,18.26,23.58,1,S01
5480,-8.89446,1.55144,-0.40941,-64.3293,27.6220,-36.9512,-1.74,19.82,24.40,1,S01
5500,-8.59758,0.88107,-0.16041,-62.1951,21.7073,-35.6098,-1.74,19.82,24.40,1,S01
5520,-8.16423,-0.03591,0.06943,-61.2805,17.0122,-35.0000,-1.74,19.82,24.40,1,S01
5540,-7.99903,-0.31125,0.58419,-59.5732,12.0122,-37.1341,1.10,21.19,25.05,1,S01
5560,-8.13310,-0.06225,1.01035,-56.7073,4.4512,-39.2073,1.10,21.19,25.05,1,S01
5580,-8.41323,-0.22745,0.95050,-51.4634,-4.3902,-40.7927,1.10,21.19,25.05,1,S01
5600,-8.54491,-0.83797,0.71826,-42.0122,-9.1463,-43.5366,1.10,21.19,25.05,1,S01
5620,-8.66701,-0.79966,1.00317,-32.9878,-10.0610,-48.3537,3.21,22.20,25.60,1,S01
5640,-8.49942,-0.14844,1.11570,-33.3537,-15.0610,-52.3171,3.21,22.20,25.60,1,S01
5660,-8.04452,0.50278,0.69671,-39.2683,-24.5122,-51.4024,3.21,22.20,25.60,1,S01
5680,-7.21134,0.48602,0.11732,-40.9146,-34.4512,-46.1585,6.15,21.83,27.16,1,S01
5700,-6.46674,0.33758,-0.61292,-41.3415,-42.0732,-42.8659,6.15,21.83,27.16,1,S01
5720,-5.85382,0.06704,-0.94571,-42.3171,-45.6098,-39.6951,6.15,21.83,27.16,1,S01
5740,-5.81552,-0.43096,-0.53870,-45.4878,-45.4878,-36.2805,8.90,21.10,28.99,1,S01
5760,-5.97353,-0.85234,-0.32082,-50.9146,-47.9878,-33.8415,8.90,21.10,28.99,1,S01
5780,-6.10043,-1.24498,-0.03831,-55.1829,-52.3781,-33.7805,8.90,21.10,28.99,1,S01
5800,-6.26084,-0.99359,-0.22745,-55.7317,-56.0976,-37.0732,8.90,21.10,28.99,1,S01
5820,-6.92164,-1.14203,-0.41899,-53.4146,-54.2073,-38.2317,11.56,19.27,30.37,1,S01
5840,-8.32703,-1.77650,0.00479,-51.7073,-44.6341,-34.8171,11.56,19.27,30.37,1,S01
5860,-9.62948,-2.75094,1.10612,-50.8537,-32.1951,-25.0610,11.56,19.27,30.37,1,S01
5880,-11.15219,-3.31597,2.13084,-51.2195,-11.0976,-10.7317,13.30,19.27,30.28,1,S01
5900,-13.85285,-3.28963,3.28484,-53.1098,23.0488,6.6463,13.30,19.27,30.28,1,S01
5920,-17.26938,-2.98078,4.87938,-52.9878,59.1463,25.6098,13.30,19.27,30.28,1,S01
5940,-19.16798,-3.39019,6.29196,-49.5732,75.6098,42.5000,13.30,21.83,28.62,1,S01
5960,-18.72984,-5.44681,3.85945,-38.4756,56.7683,53.7195,13.30,21.83,28.62,1,S01
5980,-18.49281,-6.12197,2.13563,-34.8171,39.3902,45.5488,13.30,21.83,28.62,1,S01
6000,-17.30050,-2.87783,1.48919,-31.4024,38.5366,32.3171,13.30,21.83,28.62,1,S01
6020,-15.03080,1.38624,1.00317,-34.6341,43.9024,31.5244,13.94,23.03,28.35,1,S01
6040,-11.85848,3.18189,0.14365,-44.6341,29.6951,47.0732,13.94,23.03,28.35,1,S01
6060,-9.31105,2.69827,-1.76932,-49.3902,7.5000,62.5610,13.94,23.03,28.35,1,S01
6080,-8.34858,0.74220,-2.65756,-52.5610,1.0976,67.6220,13.39,21.83,28.35,1,S01
6100,-8.24803,-0.79727,-1.89381,-53.1098,8.0488,60.1829,13.39,21.83,28.35,1,S01
6120,-8.32943,-0.38068,-1.44610,-49.9390,11.0976,42.3171,13.39,21.83,28.35,1,S01
6140,-8.03255,0.79009,-1.83635,-43.0488,8.4756,29.9390,13.85,21.56,28.07,1,S01
6160,-7.52498,1.39343,-1.67834,-36.8902,10.9756,30.3049,13.85,21.56,28.07,1,S01
6180,-7.27119,1.68552,-1.42934,-32.7439,17.5610,35.6707,13.85,21.56,28.07,1,S01
6200,-7.25922,2.72700,-1.17795,-31.3415,25.6707,39.8171,13.85,21.56,28.07,1,S01
6220,-7.31907,3.06458,-0.28252,-35.7927,26.2195,47.5610,13.39,22.39,27.34,1,S01
6240,-7.57525,2.10929,-0.79248,-44.5122,18.4756,57.1341,13.39,22.39,27.34,1,S01
6260,-7.82425,1.69988,-0.15323,-52.5000,25.0610,55.5488,13.39,22.39,27.34,1,S01
6280,-7.71172,1.69270,0.79487,-59.5122,26.8293,52.7439,13.94,23.03,26.61,1,S01
6300,-7.16824,1.95606,1.22344,-65.7317,18.9634,54.6341,13.94,23.03,26.61,1,S01
6320,-6.74925,1.86748,1.26414,-67.0122,8.7195,59.5122,13.94,23.03,26.61,1,S01
6340,-6.58884,1.11330,1.22583,-60.0610,0.5488,62.8049,13.67,22.84,26.79,1,S01
6360,-6.81150,0.87867,2.15478,-50.1220,-2.6829,56.8902,13.67,22.84,26.79,1,S01
6380,-7.08923,1.33357,2.10450,-42.7439,-14.3902,44.0244,13.67,22.84,26.79,1,S01
6400,-6.79235,2.12366,0.21069,-35.4268,-47.1951,26.5244,13.67,22.84,26.79,1,S01
6420,-6.33745,2.87783,0.18675,-28.9634,-47.8049,25.6707,14.22,21.01,28.44,1,S01
6440,-5.88974,3.19147,0.53870,-27.4390,-43.5976,28.8415,14.22,21.01,28.44,1,S01
6460,-5.73890,2.48997,0.82121,-33.5976,-42.5610,30.6098,14.22,21.01,28.44,1,S01
6480,-6.20338,1.25217,2.36547,-35.3049,-41.2195,26.5854,14.59,19.63,29.72,1,S01
6500,-7.62074,0.68953,4.32632,-24.2683,-39.8780,16.8902,14.59,19.63,29.72,1,S01
6520,-10.30704,1.75016,4.38378,-11.0976,-40.4878,5.6707,14.59,19.63,29.72,1,S01
6540,-13.20881,3.82593,4.11084,6.0976,-30.4268,3.4756,14.22,18.44,30.83,1,S01
6560,-14.85602,5.02064,4.16831,24.9390,-10.7317,3.7195,14.22,18.44,30.83,1,S01
6580,-14.15931,5.92804,3.27048,32.4390,12.6220,-9.6951,14.22,18.44,30.83,1,S01
6600,-12.85686,5.66229,2.12126,36.8902,32.3171,-24.5732,14.22,18.44,30.83,1,S01
6620,-12.32056,3.03585,1.70467,35.0610,26.8902,-29.2683,13.49,19.72,29.91,1,S01
6640,-12.27507,7.15387,-0.52672,28.7805,-1.3415,-40.9756,13.49,19.72,29.91,1,S01
6660,-12.10987,7.28316,-3.09810,-5.4268,10.6707,-49.6951,13.49,19.72,29.91,1,S01
6680,-12.91672,4.58729,-0.72544,-32.9878,26.3415,-48.2317,16.24,19.82,29.54,1,S01
6700,-11.18092,3.28724,-2.86107,-37.1951,-5.9146,-51.2195,16.24,19.82,29.54,1,S01
6720,-10.48182,1.75256,-4.22577,-54.2683,-11.8293,-52.8659,16.24,19.82,29.54,1,S01
6740,-9.91200,1.57778,-3.61524,-53.1098,15.3659,-52.8049,19.91,19.27,28.81,1,S01
6760,-9.19613,2.46603,-2.76051,-48.7805,39.3293,-50.3049,19.91,19.27,28.81,1,S01
6780,-8.51139,2.42054,-1.78129,-59.8781,46.3415,-44.1463,19.91,19.27,28.81,1,S01
6800,-7.78355,2.30083,-1.28569,-64.4512,38.1098,-35.8537,19.91,19.27,28.81,1,S01
6820,-7.32865,1.93691,-1.62806,-64.0244,24.9390,-25.5488,23.21,19.82,26.88,1,S01
6840,-7.44597,1.22823,-1.53947,-68.1707,24.0244,-18.5366,23.21,19.82,26.88,1,S01
6860,-7.45315,0.20111,-1.18513,-76.2805,30.3049,-17.5610,23.21,19.82,26.88,1,S01
6880,-7.09881,-0.35913,-0.63925,-81.4634,31.8902,-22.8049,26.42,20.37,24.68,1,S01
6900,-6.75404,-0.29688,-0.33519,-81.9512,25.4268,-29.5122,26.42,20.37,24.68,1,S01
6920,-6.55054,-0.15083,-0.58179,-81.0976,15.1220,-31.7073,26.42,20.37,24.68,1,S01
6940,-6.62715,0.02155,-1.10373,-81.5244,7.3780,-29.8780,29.63,19.63,23.12,1,S01
6960,-6.85699,0.25857,-1.32399,-83.7195,3.8415,-26.5854,29.63,19.63,23.12,1,S01
6980,-7.13233,0.37589,-1.65200,-88.2927,0.6707,-23.0488,29.63,19.63,23.12,1,S01
7000,-7.50103,0.00479,-1.69270,-92.6220,-1.0366,-19.2683,29.63,19.63,23.12,1,S01
7020,-7.97509,-0.49081,-1.16837,-97.8659,-0.0610,-17.1951,32.57,19.36,20.55,1,S01
7040,-8.39886,-0.54348,-0.97205,-103.4756,-1.2195,-16.8293,32.57,19.36,20.55,1,S01
7060,-8.71968,-0.11971,-1.07739,-109.0854,-3.6585,-17.3171,32.57,19.36,20.55,1,S01
7080,-9.00938,0.30406,-1.28090,-113.6585,-4.8780,-17.9268,35.69,18.90,17.61,1,S01
7100,-9.19852,0.49321,-1.38385,-117.2561,-5.6707,-17.5000,35.69,18.90,17.61,1,S01
7120,-9.16022,0.39265,-1.34794,-122.6829,-7.1341,-14.6951,35.69,18.90,17.61,1,S01
7140,-8.93277,0.12450,-1.24498,-126.1585,-7.7439,-10.1829,38.53,18.35,14.22,1,S01
7160,-8.76757,0.02634,-1.06303,-127.7439,-6.5244,-6.5854,38.53,18.35,14.22,1,S01
7180,-8.76278,0.10295,-0.79009,-129.8780,-4.6341,-4.1463,38.53,18.35,14.22,1,S01
7200,-8.95671,0.48842,-0.25618,-133.5366,-2.9878,-1.5244,38.53,18.35,14.22,1,S01
7220,-9.27514,0.77093,0.60334,-140.7927,-2.6829,2.3171,40.37,18.17,10.09,1,S01
7240,-9.71806,0.61770,1.55623,-147.2561,-4.6341,5.0000,40.37,18.17,10.09,1,S01
7260,-10.26155,0.54109,1.79805,-153.2927,-9.6951,3.7195,40.37,18.17,10.09,1,S01
7280,-11.05882,0.92656,0.18196,-163.7195,-16.1585,1.3415,41.65,17.80,5.32,1,S01
7300,-10.88165,0.96726,-3.03824,-170.7927,-25.7317,3.4146,41.65,17.80,5.32,1,S01
7320,-9.86411,-0.03591,-3.78763,-176.3415,-19.6951,10.2439,41.65,17.80,5.32,1,S01
7340,-10.01255,-0.97205,-1.38624,-179.5732,5.1829,6.0976,42.11,17.52,-1.01,1,S01
7360,-10.18972,0.72305,1.37188,-175.1220,22.5610,-9.6341,42.11,17.52,-1.01,1,S01
7380,-9.46189,3.57454,0.60573,-172.3171,7.1951,-17.9878,42.11,17.52,-1.01,1,S01
7400,-7.68060,4.21619,-1.64960,-174.5732,-19.5732,-6.2195,42.11,17.52,-1.01,1,S01
7420,-6.32548,2.81558,-2.81798,-170.2439,-28.5366,15.6707,41.01,17.89,-5.32,1,S01
7440,-6.39252,1.24977,-2.32956,-166.4024,-12.0122,24.8171,41.01,17.89,-5.32,1,S01
7460,-7.19936,1.01993,-0.38307,-162.8659,11.6463,15.6707,41.01,17.89,-5.32,1,S01
7480,-7.31907,1.20428,0.43096,-157.9268,14.1463,2.9268,39.27,17.89,-10.73,1,S01
7500,-6.91685,1.46286,-0.08380,-148.7195,2.8659,-5.2439,39.27,17.89,-10.73,1,S01
7520,-6.91924,1.72861,-0.45250,-145.9146,-3.2927,-9.8780,39.27,17.89,-10.73,1,S01
7540,-8.19296,1.72861,-0.96486,-148.9634,-4.1463,-11.8293,37.25,17.61,-14.95,1,S01
7560,-11.09952,2.24337,-1.80523,-152.7439,0.1829,-6.5244,37.25,17.61,-14.95,1,S01
7580,-13.32852,2.85149,-1.22823,-167.3780,11.0976,17.8049,37.25,17.61,-14.95,1,S01
7600,-13.32852,1.01275,0.33040,-177.0122,14.9390,50.0610,37.25,17.61,-14.95,1,S01
7620,-12.37323,-1.03908,0.65841,-164.2683,3.0488,58.2927,31.93,19.36,-18.99,1,S01
7640,-11.19529,-1.88663,0.50518,-144.0244,-6.8902,39.6951,31.93,19.36,-18.99,1,S01
7660,-9.75637,-1.10373,0.33279,-128.5366,-12.4390,14.2073,31.93,19.36,-18.99,1,S01
7680,-8.83700,0.25379,0.44293,-115.7927,-12.7439,-2.8049,29.72,19.63,-20.92,1,S01
7700,-8.83700,0.39025,0.66559,-104.1463,-8.5976,-7.0732,29.72,19.63,-20.92,1,S01
7720,-9.44034,-0.52672,0.66319,-95.5488,-9.3293,-4.6951,29.72,19.63,-20.92,1,S01
7740,-9.65103,-1.52032,0.23942,-91.0366,-16.0976,0.4268,27.61,20.18,-21.93,1,S01
7760,-9.42358,-1.82438,-0.64165,-84.5122,-17.4390,4.6951,27.61,20.18,-21.93,1,S01
7780,-9.03093,-1.30484,-0.79727,-74.2073,-9.0854,3.9024,27.61,20.18,-21.93,1,S01
7800,-8.96389,-0.65122,-0.19154,-62.6829,-0.4878,-1.1585,27.61,19.82,-21.93,1,S01
7820,-9.32542,-0.55785,0.98881,-50.1220,2.4390,-6.4024,26.79,19.82,-22.57,1,S01
7840,-9.64145,-1.06063,1.45328,-37.6220,-5.2439,-9.9390,26.79,19.82,-22.57,1,S01
7860,-8.64067,-0.94571,0.89543,-20.0000,-18.4756,-8.0488,26.79,19.82,-22.57,1,S01
7880,-8.18578,-0.67516,0.43096,-15.6098,-15.1829,-3.9634,26.88,20.37,-22.20,1,S01
7900,-7.91044,-0.28252,-0.21069,-14.6951,-10.1829,-0.1220,26.88,20.37,-22.20,1,S01
7920,-7.68060,0.37350,-0.21787,-20.0610,-3.1098,3.4756,26.88,20.37,-22.20,1,S01
7940,-7.56328,0.95289,0.87149,-30.1220,4.1463,7.5000,25.96,20.46,-22.66,1,S01
7960,-7.44118,0.76614,1.95367,-40.6707,5.7317,11.8902,25.96,20.46,-22.66,1,S01
7980,-7.30471,0.45969,1.98479,-47.3781,2.3780,14.9390,25.96,20.46,-22.66,1,S01
8000,-6.94318,0.27054,1.62566,-51.7073,0.0000,17.4390,23.94,20.55,-23.30,1,S01
8020,-6.49068,0.07901,1.54905,-52.3171,0.1220,21.2195,23.94,20.55,-23.30,1,S01
8040,-6.62236,-0.61531,1.35512,-49.8171,-0.1829,29.5732,23.94,20.55,-23.30,1,S01
8060,-7.59680,-1.19710,1.52750,-50.6707,5.9146,35.0610,23.94,20.55,-23.30,1,S01
8080,-8.80109,-1.22104,1.42694,-50.9756,12.9268,34.3293,21.56,20.73,-24.04,1,S01
8100,-9.41400,-0.75657,0.92416,-50.0000,12.3780,34.6341,21.56,20.73,-24.04,1,S01
8120,-9.16979,-0.44772,0.11253,-50.7927,6.5854,35.8537,21.56,20.73,-24.04,1,S01
8140,-8.10198,-0.11492,-0.64883,-53.6585,-1.8902,32.3780,19.36,21.28,-24.22,1,S01
8160,-6.46434,0.91219,-2.02310,-58.7195,-11.7683,25.5488,19.36,21.28,-24.22,1,S01
8180,-5.23612,2.04704,-4.57771,-67.4390,-20.3049,23.1098,19.36,21.28,-24.22,1,S01
8200,-6.14592,0.60573,-4.29280,-66.8902,-2.1951,22.6829,17.34,21.56,-24.68,1,S01
8220,-9.59596,-0.43814,-2.87065,-36.2195,35.3049,11.8293,17.34,21.56,-24.68,1,S01
8240,-15.30613,-1.68791,-5.43484,4.7561,49.3902,-3.4756,17.34,21.56,-24.68,1,S01
8260,-18.93335,1.44610,-0.67038,29.8780,74.6951,-19.5732,17.34,21.56,-24.68,1,S01
8280,-20.65717,6.65588,2.67193,39.2683,79.6341,-26.6463,20.55,18.35,-26.61,1,S01
8300,-17.64287,8.17141,1.78607,33.2317,38.1707,-4.7561,20.55,18.35,-26.61,1,S01
8320,-13.70920,6.25365,-0.13408,12.6829,9.0244,15.0610,20.55,18.35,-26.61,1,S01
8340,-11.90876,3.67749,-1.34075,-6.5244,6.7683,15.9756,19.36,18.72,-26.24,1,S01
8360,-11.44428,1.49159,-0.14605,-12.3171,22.6829,8.5366,19.36,18.72,-26.24,1,S01
8380,-11.27430,0.28012,1.41976,-0.1829,32.8659,4.8171,19.36,18.72,-26.24,1,S01
8400,-10.44830,0.15323,1.77650,20.1829,23.0488,6.4024,20.55,17.98,-26.33,1,S01
8420,-8.12353,-0.43335,0.61292,42.3171,4.3293,11.8293,20.55,17.98,-26.33,1,S01
8440,-5.61680,-1.30723,-0.64643,66.0976,-2.3171,12.0732,20.55,17.98,-26.33,1,S01
8460,-3.46441,-2.21943,-2.26252,87.5610,-1.4634,2.6829,20.55,17.98,-26.33,1,S01
8480,-1.74058,-2.06620,-4.35505,101.0366,-2.3780,-16.4634,24.59,17.98,-24.86,1,S01
8500,-1.78607,0.70150,-6.35661,112.1341,0.6707,-37.6829,24.59,17.98,-24.86,1,S01
8520,-3.89776,5.05655,-6.85699,106.6463,25.1829,-44.8171,24.59,17.98,-24.86,1,S01
8540,-6.93121,4.64236,-4.94642,69.7561,63.2317,-25.1829,27.71,15.41,-25.32,1,S01
8560,-9.12670,1.75495,-2.32956,27.1951,80.0610,-3.2927,27.71,15.41,-25.32,1,S01
8580,-9.91200,-0.62968,0.27294,4.8780,72.5610,1.4024,27.71,15.41,-25.32,1,S01
8600,-9.78510,-1.60172,0.87628,5.3049,53.6585,-4.4512,27.61,13.94,-26.79,1,S01
8620,-9.16740,-1.72861,0.76375,11.3415,41.4024,-11.0976,27.61,13.94,-26.79,1,S01
8640,-8.95910,-1.08218,-0.03112,13.7805,31.4024,-14.5732,27.61,13.94,-26.79,1,S01
8660,-9.70131,0.19393,-1.07260,13.1707,21.7683,-14.2683,27.61,13.94,-26.79,1,S01
8680,-11.29106,1.56341,-0.17238,9.8171,15.0610,-9.5732,28.81,13.67,-26.33,1,S01
8700,-12.91672,1.72383,2.80840,6.0366,6.8293,-1.8902,28.81,13.67,-26.33,1,S01
8720,-13.70202,0.53391,3.05740,6.7683,-14.5732,1.4024,28.81,13.67,-26.33,1,S01
8740,-13.19445,-0.54348,0.74220,6.8902,-30.3659,-3.8415,29.45,14.77,-25.23,1,S01
8760,-12.46182,-0.06225,-0.51236,6.0366,-24.3293,-11.4024,29.45,14.77,-25.23,1,S01
8780,-11.90397,0.95529,0.06464,1.6463,-13.1098,-14.9390,29.45,14.77,-25.23,1,S01
8800,-11.53766,1.64242,0.51715,-0.9146,-10.4878,-13.7805,30.09,14.22,-24.95,1,S01
8820,-11.20965,1.43173,0.66798,-3.4146,-7.4390,-11.5244,30.09,14.22,-24.95,1,S01
8840,-11.45865,1.51074,0.85712,-5.4878,-0.6098,-10.4268,30.09,14.22,-24.95,1,S01
8860,-11.65976,1.95846,0.91698,-8.2317,4.9390,-7.8049,30.09,14.22,-24.95,1,S01
8880,-12.27986,2.43490,0.61770,-6.8293,8.7805,-5.7927,30.37,13.21,-24.95,1,S01
8900,-13.68526,3.37822,-0.15083,-0.5488,15.0610,-2.8659,30.37,13.21,-24.95,1,S01
8920,-15.66287,4.92248,1.05824,0.7927,33.5976,9.1463,30.37,13.21,-24.95,1,S01
8940,-18.45451,7.10838,3.79002,-3.1707,58.8415,29.6951,29.54,11.19,-26.15,1,S01
8960,-19.97482,9.32542,3.70144,-3.0488,64.2683,48.4146,29.54,11.19,-26.15,1,S01
8980,-18.44972,8.20014,2.10690,-18.4756,48.1707,66.2195,29.54,11.19,-26.15,1,S01
9000,-15.32528,4.41730,2.61686,-43.4756,21.7073,71.0366,25.32,12.48,-26.61,1,S01
9020,-11.41077,1.31202,0.84755,-53.4756,-26.4634,56.5244,25.32,12.48,-26.61,1,S01
9040,-7.34062,-1.02472,-0.15562,-55.2439,-64.3902,31.5854,25.32,12.48,-26.61,1,S01
9060,-2.70784,-2.04944,-0.52433,-47.5000,-86.0366,5.0610,25.32,12.48,-26.61,1,S01
9080,1.18513,-1.88663,-2.99754,-26.5854,-109.0244,-10.9146,24.68,15.23,-23.94,1,S01
9100,2.79643,-1.11330,-5.83706,-7.6220,-117.8049,-15.8537,24.68,15.23,-23.94,1,S01
9120,2.97599,0.30406,-7.26401,-4.9390,-94.0854,-15.1829,24.68,15.23,-23.94,1,S01
9140,1.90818,1.29287,-4.67827,-14.0244,-37.6829,-10.7317,24.13,15.14,-23.21,1,S01
9160,0.67516,0.91937,-1.08697,-21.5244,5.0610,-3.7195,24.13,15.14,-23.21,1,S01
9180,0.19393,0.03352,0.16999,-21.8293,9.5732,1.7073,24.13,15.14,-23.21,1,S01
9200,0.38786,-0.65122,-0.16759,-18.3537,-0.3659,3.9024,23.49,14.95,-22.48,1,S01
9220,0.64165,-0.71108,-0.56264,-15.8537,-4.5732,5.1829,23.49,14.95,-22.48,1,S01
9240,0.39983,-0.03591,0.02873,-21.3415,-4.5732,7.0732,23.49,14.95,-22.48,1,S01
9260,-0.45250,0.42617,0.72784,-30.1220,-7.9268,9.0854,23.49,14.95,-22.48,1,S01
9280,-1.01275,0.22266,0.87149,-35.4878,-18.8415,10.8537,22.29,15.87,-21.47,1,S01
9300,-1.07260,-0.39265,0.49081,-39.3293,-32.8049,12.3171,22.29,15.87,-21.47,1,S01
9320,-0.58419,-1.44131,-0.41899,-43.0488,-44.1463,13.1707,22.29,15.87,-21.47,1,S01
9340,0.26097,-2.22182,-2.95444,-37.5610,-57.6220,6.4634,21.65,17.34,-19.17,1,S01
9360,-1.04148,-1.47243,-1.94649,-32.4390,-80.8537,4.8171,21.65,17.34,-19.17,1,S01
9380,-3.70383,-0.59616,-2.81079,-24.0854,-117.6220,-0.8537,21.65,17.34,-19.17,1,S01
9400,-14.63336,2.25534,-6.15549,-17.1951,-79.0854,3.1098,22.20,19.17,-16.70,1,S01
9420,-32.33370,12.05002,-14.85363,-25.7927,-47.3781,26.3415,22.20,19.17,-16.70,1,S01
9440,-46.96466,13.76666,-8.09480,-49.0244,-45.3049,108.7805,22.20,19.17,-16.70,1,S01
9460,-39.09492,-0.44053,2.06859,-50.4268,10.6098,119.4512,22.20,19.17,-16.70,1,S01
9480,-23.40093,-5.87058,-2.18830,-131.0976,-92.1341,23.1707,15.14,24.77,-22.29,1,S01
9500,-7.98227,-7.69018,-6.56011,-124.6951,-140.4878,-61.0976,15.14,24.77,-22.29,1,S01
9520,-4.36463,6.10282,-6.52420,-126.7683,-81.8293,-124.6341,15.14,24.77,-22.29,1,S01
9540,-10.79306,7.84580,0.67277,-133.8415,-2.6220,-69.5732,18.62,21.56,-16.24,1,S01
9560,-15.18882,-0.51236,6.08127,-161.4634,-11.1585,14.4512,18.62,21.56,-16.24,1,S01
9580,-11.67413,-3.93607,0.94810,-176.6464,-63.6585,19.8171,18.62,21.56,-16.24,1,S01
9600,-7.09402,-4.34069,0.79009,-169.1464,-33.4146,-11.7683,14.22,21.19,-16.33,1,S01
9620,-4.70939,-2.71024,2.97839,-157.6220,16.6463,-36.1585,14.22,21.19,-16.33,1,S01
9640,-4.44364,-1.95606,4.14436,-140.3049,16.2805,-32.3171,14.22,21.19,-16.33,1,S01
9660,-6.10282,-1.91536,5.11880,-122.9878,-18.5976,-21.6463,14.22,21.19,-16.33,1,S01
9680,-8.86573,-1.24738,6.76362,-113.9634,-56.5244,-24.5122,12.29,21.56,-16.61,1,S01
9700,-12.02608,1.73819,5.41808,-104.2683,-109.8781,-29.2073,12.29,21.56,-16.61,1,S01
9720,-13.49133,1.85790,4.78362,-93.8415,-158.2927,-12.5610,12.29,21.56,-16.61,1,S01
9740,-14.30296,0.65841,3.07894,-78.7805,-179.0854,1.0976,10.64,25.14,-11.19,1,S01
9760,-15.64132,0.46687,2.40617,-60.1220,-168.2317,3.1707,10.64,25.14,-11.19,1,S01
9780,-15.71554,0.79727,4.17070,-51.0976,-141.0976,-5.9146,10.64,25.14,-11.19,1,S01
9800,-15.54795,1.26414,5.53539,-45.3049,-113.4756,-6.9512,9.82,26.61,-8.35,1,S01
9820,-16.11298,1.57299,6.75644,-46.4024,-91.6463,0.0000,9.82,26.61,-8.35,1,S01
9840,-16.72589,1.59214,8.18338,-50.6707,-71.6463,12.4390,9.82,26.61,-8.35,1,S01
9860,-15.91426,0.72305,7.70933,-50.9146,-52.6829,28.3537,9.82,26.61,-8.35,1,S01
9880,-14.73871,0.71826,6.91924,-49.2683,-18.4756,39.0244,7.61,27.06,-8.07,1,S01
9900,-14.46337,1.08218,7.64469,-46.8293,29.2073,48.2927,7.61,27.06,-8.07,1,S01
9920,-14.40352,1.28090,8.16902,-41.9512,64.9390,59.2073,7.61,27.06,-8.07,1,S01
9940,-14.06115,1.26174,8.21451,-39.5122,84.6951,69.6951,3.76,25.14,-11.56,1,S01
9960,-13.41232,1.15401,7.68299,-40.5488,95.2439,77.6829,3.76,25.14,-11.56,1,S01
9980,-12.78983,1.14922,6.91445,-42.5000,103.0488,81.6463,3.76,25.14,-11.56,1,S01
10000,-12.33972,1.03190,6.13634,-47.3171,107.9268,81.8902,0.00,22.48,-14.22,1,S01
10020,-11.92552,0.88107,5.59525,-53.2927,108.5976,78.0488,0.00,22.48,-14.22,1,S01
10040,-11.57836,1.17795,5.17387,-60.6707,104.3293,72.6220,0.00,22.48,-14.22,1,S01
10060,-11.34612,1.46046,5.13077,-69.0854,96.2195,69.9390,0.00,22.48,-14.22,1,S01
10080,-10.93911,1.84354,4.52983,-78.7805,84.4512,69.6341,-4.04,20.18,-15.32,1,S01
10100,-10.37168,1.73101,3.19626,-88.5366,75.6098,71.1585,-4.04,20.18,-15.32,1,S01
10120,-9.89524,1.62087,1.88424,-100.0610,77.6220,71.5854,-4.04,20.18,-15.32,1,S01
10140,-9.70131,1.88184,1.89381,-113.8415,87.8049,69.5122,-7.61,17.89,-14.68,1,S01
10160,-9.41879,2.67193,2.41336,-129.1464,91.6463,65.2439,-7.61,17.89,-14.68,1,S01
10180,-9.07402,3.37104,1.57778,-145.0610,82.0732,62.9878,-7.61,17.89,-14.68,1,S01
10200,-8.56645,3.23696,0.20111,-159.3902,70.6098,66.2195,-11.47,15.78,-11.47,1,S01
10220,-7.87692,2.84431,-0.15083,-168.9634,66.0976,70.5488,-11.47,15.78,-11.47,1,S01
10240,-7.31907,2.14999,0.71108,-174.2073,64.2683,76.2805,-11.47,15.78,-11.47,1,S01
10260,-6.80193,2.28886,1.04148,-176.9512,58.4756,78.0488,-11.47,15.78,-11.47,1,S01
10280,-6.45716,2.02310,1.01275,-168.4756,54.3293,73.2927,-15.05,12.84,-7.61,1,S01
10300,-6.27760,1.28808,0.99120,-152.4390,53.9024,58.9634,-15.05,12.84,-7.61,1,S01
10320,-6.28478,1.98479,1.03430,-136.9512,60.3659,37.6220,-15.05,12.84,-7.61,1,S01
10340,-6.07888,3.15795,1.66876,-132.4390,66.5854,19.4512,-16.15,12.11,-4.77,1,S01
10360,-5.34625,3.30879,1.42216,-133.2317,56.6463,12.0732,-16.15,12.11,-4.77,1,S01
10380,-4.59208,3.03824,0.43814,-132.8049,40.6098,11.1585,-16.15,12.11,-4.77,1,S01
10400,-3.91213,2.09014,0.11971,-129.1464,33.5366,15.0610,-16.70,11.38,-1.47,1,S01
10420,-3.56497,1.94409,0.25857,-127.0732,32.5610,13.3537,-16.70,11.38,-1.47,1,S01
10440,-3.51708,2.70545,0.35195,-125.0610,32.0122,7.1951,-16.70,11.38,-1.47,1,S01
10460,-3.71341,3.59370,-0.02634,-119.4512,31.5244,2.4390,-16.70,11.38,-1.47,1,S01
10480,-4.26886,4.15633,-0.59376,-110.0000,35.6707,-0.5488,-16.61,11.47,0.83,1,S01
10500,-5.19542,4.29041,-0.91937,-105.1220,46.0976,-1.0366,-16.61,11.47,0.83,1,S01
10520,-6.66785,4.31196,-0.45969,-109.0244,59.1463,1.5854,-16.61,11.47,0.83,1,S01
10540,-8.48505,4.31196,0.31843,-111.9512,69.0854,6.5854,-16.61,11.01,2.48,1,S01
10560,-9.70609,4.88178,0.87149,-112.0122,67.3781,11.2805,-16.61,11.01,2.48,1,S01
10580,-9.62948,4.39097,0.61292,-112.9268,51.5854,14.4512,-16.61,11.01,2.48,1,S01
10600,-9.61990,3.28006,-0.73023,-113.4146,34.6951,13.8415,-16.61,10.64,5.14,1,S01
10620,-10.07959,2.12126,-0.94571,-119.3902,29.0244,10.5488,-16.61,10.64,5.14,1,S01
10640,-10.80743,1.84354,-0.79009,-129.6342,28.1707,8.5976,-16.61,10.64,5.14,1,S01
10660,-11.02051,2.03986,-0.39025,-139.5122,21.4634,6.8293,-16.61,10.64,5.14,1,S01
10680,-10.69250,2.11408,-0.73741,-144.6342,9.0854,3.5976,-15.50,10.46,9.27,1,S01
10700,-10.25676,1.75495,-1.34315,-146.8293,1.8902,-0.9756,-15.50,10.46,9.27,1,S01
10720,-9.79229,0.89064,-1.70228,-148.4146,2.6220,-3.5976,-15.50,10.46,9.27,1,S01
10740,-9.51935,-0.28252,-1.33596,-147.6220,8.2317,-6.5244,-13.67,10.83,12.75,1,S01
10760,-9.42837,-0.70390,-0.85712,-141.9512,11.2805,-11.4024,-13.67,10.83,12.75,1,S01
10780,-9.38048,-0.09098,-0.76854,-134.0244,9.5122,-14.5732,-13.67,10.83,12.75,1,S01
10800,-9.10275,1.19471,-0.80685,-126.8293,0.1220,-16.1585,-11.28,11.10,15.78,1,S01
10820,-9.18895,1.18274,-0.78530,-123.3537,-1.4634,-16.6463,-11.28,11.10,15.78,1,S01
10840,-9.21528,0.78051,-0.65841,-119.8781,-0.9756,-16.3415,-11.28,11.10,15.78,1,S01
10860,-9.16022,0.09337,-0.60334,-114.3293,0.1220,-15.0000,-11.28,11.10,15.78,1,S01
10880,-9.19852,-0.26336,-0.53870,-104.5732,2.5000,-15.4878,-8.90,11.56,18.17,1,S01
10900,-9.31823,-0.03112,-0.30885,-93.9634,6.2195,-17.8049,-8.90,11.56,18.17,1,S01
10920,-9.27514,0.33519,-0.01437,-85.9756,8.2927,-20.0000,-8.90,11.56,18.17,1,S01
10940,-9.05248,0.34955,-0.14126,-78.5976,7.1951,-21.8293,-6.97,12.20,19.54,1,S01
10960,-8.97586,-0.01915,0.00958,-71.5854,7.8049,-23.6585,-6.97,12.20,19.54,1,S01
10980,-9.20092,-0.06704,0.40701,-65.9146,10.6098,-25.0610,-6.97,12.20,19.54,1,S01
11000,-9.60314,-0.26097,1.40061,-63.0488,13.2927,-26.0366,-5.14,13.39,20.28,1,S01
11020,-9.71806,-0.08859,1.68073,-60.4878,9.0854,-27.8659,-5.14,13.39,20.28,1,S01
11040,-9.50498,0.09577,1.48201,-58.1098,1.0366,-29.3293,-5.14,13.39,20.28,1,S01
11060,-9.31823,0.01197,1.53708,-55.8537,-1.4024,-28.5976,-5.14,13.39,20.28,1,S01
11080,-9.29669,-0.30406,1.74298,-53.5976,-1.0366,-27.3780,-3.49,14.22,21.19,1,S01
11100,-9.30147,-0.37350,1.99676,-51.0366,-0.7927,-27.1341,-3.49,14.22,21.19,1,S01
11120,-9.21528,-0.34955,2.03028,-52.0732,-3.5366,-27.6220,-3.49,14.22,21.19,1,S01
11140,-9.13867,-0.40701,2.14760,-56.5244,-6.5244,-27.5610,-1.28,14.86,22.11,1,S01
11160,-9.11712,-0.35195,1.95846,-59.0854,-10.1220,-27.9878,-1.28,14.86,22.11,1,S01
11180,-9.13627,-0.27294,1.61130,-60.7317,-14.6951,-27.5000,-1.28,14.86,22.11,1,S01
11200,-9.09557,-0.60094,1.62806,-63.9634,-16.4634,-24.8171,0.92,15.14,23.30,1,S01
11220,-8.89685,-0.93374,1.17795,-62.8659,-19.6951,-20.4878,0.92,15.14,23.30,1,S01
11240,-8.57842,-0.83079,0.96247,-64.1463,-22.9878,-17.5000,0.92,15.14,23.30,1,S01
11260,-8.13071,-1.02472,0.80206,-65.1220,-25.4268,-11.7073,0.92,15.14,23.30,1,S01
11280,-7.91044,-1.53708,1.04387,-65.4878,-24.1463,-6.8293,2.57,14.68,24.59,1,S01
11300,-7.97269,-2.07817,1.62566,-62.3781,-22.5610,-5.1829,2.57,14.68,24.59,1,S01
11320,-8.19296,-2.48997,2.42054,-55.7317,-22.9878,-6.1585,2.57,14.68,24.59,1,S01
11340,-8.21929,-2.97839,3.14359,-45.0610,-21.7073,-6.6463,3.49,14.77,25.05,1,S01
11360,-8.34619,-3.34231,3.81396,-34.3293,-14.3293,-8.4756,3.49,14.77,25.05,1,S01
11380,-9.16261,-3.50990,4.43885,-22.7439,-4.0854,-11.4634,3.49,14.77,25.05,1,S01
11400,-10.42675,-3.11007,4.81713,-9.2073,3.4146,-12.8659,3.58,16.06,24.77,1,S01
11420,-11.68370,-2.31280,4.63039,-0.7317,8.9024,-10.7317,3.58,16.06,24.77,1,S01
11440,-12.62462,-1.55144,4.53222,-0.2439,18.4146,-6.5854,3.58,16.06,24.77,1,S01
11460,-13.20402,-0.83797,4.98712,-5.9756,31.8293,-2.6829,3.58,16.06,24.77,1,S01
11480,-13.25670,0.02873,5.67186,-16.7683,41.2805,1.3415,3.94,18.07,24.31,1,S01
11500,-13.10107,1.01275,3.86664,-27.9268,38.7195,7.3171,3.94,18.07,24.31,1,S01
11520,-12.80419,-0.85952,-0.13168,-22.3171,22.0732,18.7805,3.94,18.07,24.31,1,S01
11540,-12.76349,-1.66397,1.88184,-17.4390,19.2683,26.0366,3.21,18.72,24.13,1,S01
11560,-12.78504,-0.05507,-0.32561,-12.6829,4.7561,20.1220,3.21,18.72,24.13,1,S01
11580,-12.46421,1.21625,-3.99832,-2.8659,-7.0732,19.1463,3.21,18.72,24.13,1,S01
11600,-12.44267,1.98000,-4.27126,-12.6220,2.3171,25.3049,2.94,18.72,24.59,1,S01
11620,-12.33493,2.34392,-4.35505,-23.5366,12.5000,34.1463,2.94,18.72,24.59,1,S01
11640,-12.05959,2.40617,-3.65355,-25.6098,25.3049,38.4146,2.94,18.72,24.59,1,S01
11660,-10.95347,1.52750,-2.33195,-29.0244,30.6707,40.9146,2.94,18.72,24.59,1,S01
11680,-9.83538,0.60094,-2.19309,-27.1341,26.5854,43.7805,2.29,18.99,24.13,1,S01
11700,-8.93037,-0.42138,-1.74777,-19.3293,27.3780,45.8537,2.29,18.99,24.13,1,S01
11720,-8.21690,-0.70390,-1.43173,-13.1098,26.7073,42.6220,2.29,18.99,24.13,1,S01
11740,-7.54174,0.13408,-1.35991,-13.6585,21.6463,36.3415,1.74,19.17,24.13,1,S01
11760,-7.13472,1.13725,-0.94810,-20.1220,18.2317,32.5000,1.74,19.17,24.13,1,S01
11780,-7.04614,1.70707,-0.67756,-25.9146,15.8537,31.6463,1.74,19.17,24.13,1,S01
11800,-7.23767,1.80523,-0.34955,-29.2073,12.5000,32.6829,1.65,18.90,24.31,1,S01
11820,-7.61356,1.81480,-0.06704,-31.2805,6.7683,33.8415,1.65,18.90,24.31,1,S01
11840,-8.33422,2.35589,-0.22745,-33.5366,-0.4268,37.4390,1.65,18.90,24.31,1,S01
11860,-8.01579,2.48997,-0.36871,-41.2195,-10.9756,48.4146,1.65,18.90,24.31,1,S01
11880,-7.83143,1.77171,-0.56264,-45.2439,-18.5366,57.9268,1.28,17.61,25.41,1,S01
11900,-7.87692,1.29526,-0.51954,-45.4268,-19.8171,57.6220,1.28,17.61,25.41,1,S01
11920,-7.77397,1.32399,-0.19393,-48.2317,-15.7927,46.5854,1.28,17.61,25.41,1,S01
11940,-7.77637,1.27611,0.39265,-47.7439,-15.1220,37.9878,1.65,16.70,26.61,1,S01
11960,-7.81707,1.06781,0.55067,-42.5000,-18.5976,33.7805,1.65,16.70,26.61,1,S01
11980,-7.67102,1.13725,0.78530,-36.9512,-18.6585,28.7805,1.65,16.70,26.61,1,S01
12000,-7.64947,1.15161,1.00556,-30.9146,-15.1220,22.0122,1.93,16.15,27.16,1,S01
12020,-7.95114,1.10133,1.76213,-23.7805,-13.5366,12.5610,1.93,16.15,27.16,1,S01
12040,-8.77714,1.29526,2.50194,-12.0732,-17.9268,0.6098,1.93,16.15,27.16,1,S01
12060,-9.77313,1.97761,2.79643,2.1341,-27.0122,-8.0488,1.93,16.15,27.16,1,S01
12080,-10.55364,2.91374,2.42293,10.7317,-34.8780,-10.2439,1.74,15.32,28.07,1,S01
12100,-10.96784,3.50990,1.55144,15.0000,-35.8537,-8.5976,1.74,15.32,28.07,1,S01
12120,-11.39640,4.08451,-2.28646,11.7683,-34.6951,-8.4146,1.74,15.32,28.07,1,S01
12140,-12.75152,6.64870,-6.50026,4.9390,-28.2317,-10.4878,1.38,15.41,28.44,1,S01
12160,-15.35641,5.82988,-0.99599,7.9878,9.3902,-2.9878,1.38,15.41,28.44,1,S01
12180,-16.08904,0.99120,1.43652,8.4756,12.2561,9.5122,1.38,15.41,28.44,1,S01
12200,-13.58470,-1.69270,-2.04944,0.6707,-26.4634,2.4390,1.74,14.22,28.62,1,S01
12220,-10.66856,-1.27132,-4.22816,-4.8780,-31.8902,-13.0488,1.74,14.22,28.62,1,S01
12240,-9.73961,0.68474,-2.98078,-4.3293,0.3659,-26.2195,1.74,14.22,28.62,1,S01
12260,-9.69891,1.20668,-0.71347,-0.3659,19.6951,-31.1585,1.74,14.22,28.62,1,S01
12280,-7.56328,0.26815,-0.09098,-12.5610,9.9390,-34.6341,2.66,15.60,28.53,1,S01
12300,-6.58884,-0.05267,0.53151,-20.0000,12.6829,-39.2073,2.66,15.60,28.53,1,S01
12320,-6.00226,-0.42856,1.25935,-17.3780,11.8902,-40.9756,2.66,15.60,28.53,1,S01
12340,-5.50666,-0.81403,0.78290,-7.3171,2.3780,-37.4390,4.22,16.42,28.81,1,S01
12360,-5.24091,-1.09894,-0.47645,3.2927,-3.1707,-31.2805,4.22,16.42,28.81,1,S01
12380,-5.54976,-0.87867,-1.15879,8.9634,2.2561,-26.8902,4.22,16.42,28.81,1,S01
12400,-6.50983,-0.19154,-1.06303,12.9878,12.4390,-24.6951,4.13,17.25,28.35,1,S01
12420,-7.87453,0.11253,-0.40462,17.2561,20.4268,-22.7439,4.13,17.25,28.35,1,S01
12440,-9.07402,-0.44053,0.50039,23.3537,22.0732,-21.7073,4.13,17.25,28.35,1,S01
12460,-9.84975,-0.97923,0.48602,28.8415,15.1220,-23.3537,4.13,17.25,28.35,1,S01
12480,-10.23042,-0.80924,0.37589,27.3780,7.7439,-25.3659,3.30,18.53,27.52,1,S01
12500,-10.28310,-0.23942,0.60094,18.3537,4.1463,-25.7927,3.30,18.53,27.52,1,S01
12520,-9.91918,0.09098,0.89064,9.5732,1.2195,-25.2439,3.30,18.53,27.52,1,S01
12540,-9.29908,0.10056,0.60573,6.4024,-2.3780,-23.7195,3.39,19.27,27.34,1,S01
12560,-8.71729,-0.13408,0.30885,4.7561,-0.6098,-19.9390,3.39,19.27,27.34,1,S01
12580,-8.47787,-0.42856,0.41420,3.3537,5.8537,-15.5488,3.39,19.27,27.34,1,S01
12600,-8.46829,-0.58897,0.61292,2.7439,10.6098,-11.8902,3.21,20.00,26.97,1,S01
12620,-8.55209,-0.55785,0.82839,3.3537,12.2561,-8.2317,3.21,20.00,26.97,1,S01
12640,-8.61913,-0.58897,1.15640,3.9634,11.4024,-4.7561,3.21,20.00,26.97,1,S01
12660,-8.78672,-0.79727,1.60172,6.4634,9.8171,-1.4634,3.21,20.00,26.97,1,S01
12680,-9.30387,-1.03430,1.78129,10.7927,7.9268,1.8293,2.84,20.64,26.61,1,S01
12700,-10.10353,-1.25456,1.84354,14.8171,7.0732,7.1951,2.84,20.64,26.61,1,S01
12720,-10.82419,-1.30723,2.19309,16.8902,6.4024,13.3537,2.84,20.64,26.61,1,S01
12740,-11.04685,-1.23062,2.41336,18.5366,1.6463,17.5610,1.83,20.55,26.61,1,S01
12760,-11.00136,-0.94810,2.18830,19.0244,-3.9634,19.7561,1.83,20.55,26.61,1,S01
12780,-11.15937,-0.66080,1.28090,16.4634,-6.5244,21.3415,1.83,20.55,26.61,1,S01
12800,-12.09072,-1.87227,-1.19950,20.8537,-7.1951,21.4024,0.37,20.00,26.61,1,S01
12820,-13.62780,-3.98156,-1.85551,31.1585,4.2073,19.1463,0.37,20.00,26.61,1,S01
12840,-15.44021,-2.79643,0.94810,29.2683,20.5488,8.7805,0.37,20.00,26.61,1,S01
12860,-15.44021,0.04310,1.45807,24.0244,8.9024,-2.8659,0.37,20.00,26.61,1,S01
12880,-13.70202,3.17471,-0.60573,18.0488,-17.6220,-5.0610,0.46,20.00,26.51,1,S01
12900,-10.94868,3.88818,-2.76530,3.3537,-32.3780,6.1585,0.46,20.00,26.51,1,S01
12920,-9.06205,3.11007,-2.82276,-7.6220,-21.1585,19.8780,0.46,20.00,26.51,1,S01
12940,-8.55927,1.79565,-1.40061,-13.8415,-1.0366,28.5366,0.37,19.08,27.43,1,S01
12960,-8.75081,1.10852,-0.47166,-8.5976,6.8293,33.1707,0.37,19.08,27.43,1,S01
12980,-9.13388,1.09176,0.08140,1.3415,6.2195,35.4878,0.37,19.08,27.43,1,S01
13000,-9.34696,1.03669,0.55545,9.1463,1.7073,38.2317,-1.19,18.26,27.16,1,S01
13020,-8.88728,0.82600,0.63207,15.1829,-5.6098,40.9756,-1.19,18.26,27.16,1,S01
13040,-7.85777,1.07500,0.49081,20.3659,-11.7683,40.3049,-1.19,18.26,27.16,1,S01
13060,-6.72052,1.85072,-0.15562,24.9390,-15.4268,36.2195,-1.19,18.26,27.16,1,S01
13080,-6.21774,2.37505,-1.00317,25.0610,-12.9878,32.5000,-2.94,17.06,27.25,1,S01
13100,-6.66785,2.43490,-0.87149,19.3293,-2.4390,31.5244,-2.94,17.06,27.25,1,S01
13120,-7.38132,2.14520,-0.20830,8.7195,5.1829,33.9634,-2.94,17.06,27.25,1,S01
13140,-7.75721,2.04465,0.15323,0.6098,3.2927,37.6829,-3.94,16.70,27.16,1,S01
13160,-8.09001,2.21224,0.13168,-4.0244,-2.0732,39.9390,-3.94,16.70,27.16,1,S01
13180,-8.45393,2.37265,0.29449,-7.9878,-4.0244,41.0366,-3.94,16.70,27.16,1,S01
13200,-8.91840,2.32238,0.72784,-10.3049,-3.9024,40.3049,-4.40,15.60,27.61,1,S01
13220,-9.20092,2.78206,1.15640,-11.8293,-5.9756,37.0732,-4.40,15.60,27.61,1,S01
13240,-9.08839,3.12683,0.98641,-14.5122,-13.2317,35.1220,-4.40,15.60,27.61,1,S01
13260,-8.75799,3.11246,0.64165,-17.4390,-22.6829,35.2439,-4.40,15.60,27.61,1,S01
13280,-8.66222,3.01909,0.53870,-17.9878,-30.1829,35.4878,-4.86,13.85,28.62,1,S01
13300,-8.78193,3.13880,0.31364,-17.0732,-33.6585,33.4756,-4.86,13.85,28.62,1,S01
13320,-8.85615,2.82755,0.37110,-18.8415,-34.6951,32.3171,-4.86,13.85,28.62,1,S01
13340,-8.68856,2.50673,0.36871,-20.6707,-35.2439,28.9634,-4.68,12.29,29.72,1,S01
13360,-8.14029,2.17154,0.33519,-17.6829,-33.9024,22.8659,-4.68,12.29,29.72,1,S01
13380,-7.36696,2.02071,0.23703,-12.4390,-30.3049,14.0244,-4.68,12.29,29.72,1,S01
13400,-6.68940,2.14042,0.52672,-6.0976,-23.9634,4.6951,-4.68,11.83,30.18,1,S01
13420,-6.36139,2.18830,0.87628,-0.4268,-16.3415,-4.4512,-4.68,11.83,30.18,1,S01
13440,-6.56490,2.17394,1.41018,4.1463,-8.4756,-11.5854,-4.68,11.83,30.18,1,S01
13460,-7.27119,2.19069,2.41096,9.7561,-0.7317,-16.3415,-4.68,11.83,30.18,1,S01
13480,-8.29112,2.53307,3.61046,16.7683,6.2195,-20.8537,-4.77,12.66,29.63,1,S01
13500,-10.37168,3.05021,4.01986,22.3171,13.6585,-26.6463,-4.77,12.66,29.63,1,S01
13520,-13.30697,3.28963,4.06535,23.6585,16.9512,-32.3171,-4.77,12.66,29.63,1,S01
13540,-16.46971,5.42526,4.03662,20.0610,11.7683,-36.5244,-4.40,13.76,29.27,1,S01
13560,-18.10974,9.04051,2.49236,8.2317,-2.3171,-32.8659,-4.40,13.76,29.27,1,S01
13580,-16.57266,8.11395,0.95768,-13.5976,-0.5488,-21.1585,-4.40,13.76,29.27,1,S01
13600,-12.30380,4.23055,0.21787,-34.9390,14.8780,-13.7805,-2.57,14.40,29.54,1,S01
13620,-10.45548,1.09415,-0.83797,-45.7927,20.6098,-21.5244,-2.57,14.40,29.54,1,S01
13640,-10.13226,0.62010,-3.21302,-57.9268,17.5610,-35.4268,-2.57,14.40,29.54,1,S01
13660,-10.42196,1.14203,-2.88501,-67.1341,31.1585,-44.7561,-2.57,14.40,29.54,1,S01
13680,-10.60153,1.67115,-1.84593,-58.8415,46.5854,-44.2073,0.83,16.51,29.36,1,S01
13700,-10.26873,1.54187,-1.99676,-52.3171,46.8902,-38.7805,0.83,16.51,29.36,1,S01
13720,-9.66539,1.41976,-2.21703,-58.4756,41.2805,-37.8049,0.83,16.51,29.36,1,S01
13740,-9.11233,1.84114,-1.82917,-69.2683,36.3415,-38.3537,4.59,17.89,29.27,1,S01
13760,-8.26478,1.91536,-1.44849,-92.7439,26.2805,-30.1220,4.59,17.89,29.27,1,S01
13780,-7.91284,1.36470,-1.52271,-102.2561,30.8537,-27.1341,4.59,17.89,29.27,1,S01
13800,-7.75961,0.74460,-1.25217,-104.8171,34.6341,-26.1585,9.08,18.90,28.90,1,S01
13820,-7.68060,0.63925,-0.91698,-103.6585,32.0122,-26.6463,9.08,18.90,28.90,1,S01
13840,-7.38372,0.52672,-0.61531,-102.6829,24.6341,-25.1829,9.08,18.90,28.90,1,S01
13860,-6.97670,0.54109,-0.75178,-104.7561,15.2439,-22.4390,9.08,18.90,28.90,1,S01
13880,-6.74686,0.81163,-0.90022,-107.2561,9.1463,-19.8780,13.30,19.17,28.35,1,S01
13900,-6.72531,1.06063,-0.95768,-107.7439,5.8537,-17.7439,13.30,19.17,28.35,1,S01
13920,-6.99107,0.99359,-0.90980,-108.7195,2.1341,-15.3049,13.30,19.17,28.35,1,S01
13940,-7.31189,0.59376,-1.12288,-111.2805,-2.9268,-11.7683,17.25,18.99,27.89,1,S01
13960,-7.65187,0.18675,-0.89304,-114.5122,-2.5000,-7.3171,17.25,18.99,27.89,1,S01
13980,-8.17141,-0.05986,-0.44053,-115.1220,2.8049,-3.4756,17.25,18.99,27.89,1,S01
14000,-8.60955,0.39744,-0.21787,-110.9146,5.9756,-2.6220,21.01,19.27,26.70,1,S01
14020,-8.75560,1.11570,-0.21069,-107.8659,3.5976,-1.9512,21.01,19.27,26.70,1,S01
14040,-8.86573,1.49159,-0.42856,-112.1951,-1.9512,0.7317,21.01,19.27,26.70,1,S01
14060,-8.94474,1.43173,-0.69192,-120.7317,-5.5488,4.3902,21.01,19.27,26.70,1,S01
14080,-8.89685,1.43413,-1.20907,-130.2439,-7.8049,6.5854,24.68,18.90,25.23,1,S01
14100,-9.16261,1.94409,-2.11169,-142.5000,-7.6220,7.8659,24.68,18.90,25.23,1,S01
14120,-9.47864,1.80523,-2.00395,-156.0976,-2.0122,12.0732,24.68,18.90,25.23,1,S01
14140,-9.92636,1.14203,-1.51792,-164.8171,1.9512,15.3659,29.17,19.17,22.20,1,S01
14160,-10.53449,0.26576,-0.89064,-169.2683,2.1341,15.6707,29.17,19.17,22.20,1,S01
14180,-10.91038,-0.11732,-0.68953,-170.4268,-2.0122,14.3902,29.17,19.17,22.20,1,S01
14200,-10.63744,0.52672,-0.94092,-172.3171,-7.3171,12.8049,32.94,19.08,18.90,1,S01
14220,-9.88566,1.65918,-1.35033,-176.2195,-10.3659,13.3537,32.94,19.08,18.90,1,S01
14240,-8.97826,2.39660,-1.65679,-180.7927,-9.8780,16.2195,32.94,19.08,18.90,1,S01
14260,-8.31506,2.37984,-1.98240,-186.7683,-6.5244,19.0244,32.94,19.08,18.90,1,S01
14280,-7.80989,1.98719,-1.98958,-193.1707,-1.5244,18.7195,36.06,19.36,14.22,1,S01
14300,-7.42203,1.72383,-1.91776,-199.4512,2.6220,16.1585,36.06,19.36,14.22,1,S01
14320,-7.20655,1.50835,-1.59933,-207.9268,4.4512,14.2073,36.06,19.36,14.22,1,S01
14340,-7.30710,1.52750,-1.51074,-216.2195,4.2683,14.4512,38.35,19.91,7.89,1,S01
14360,-7.52498,1.68312,-1.43173,-226.2805,5.4268,18.2927,38.35,19.91,7.89,1,S01
14380,-7.92241,2.11887,-1.41258,-239.0854,8.6585,26.1585,38.35,19.91,7.89,1,S01
14400,-8.42998,2.70066,-1.47962,-254.3902,13.2927,37.8049,38.07,21.47,-0.28,1,S01
14420,-8.79151,2.57856,-2.01831,-265.9146,16.5244,51.2805,38.07,21.47,-0.28,1,S01
14440,-8.86094,1.36230,-3.27287,-266.2195,18.0488,60.9756,38.07,21.47,-0.28,1,S01
14460,-9.44513,-0.92895,-4.19943,-259.0244,27.5000,62.0732,38.07,21.47,-0.28,1,S01
14480,-11.00375,-1.90818,-3.42371,-253.1098,49.4512,47.3171,34.59,22.84,-8.62,1,S01
14500,-12.86405,-2.53785,-2.67672,-238.7195,63.5366,33.6585,34.59,22.84,-8.62,1,S01
14520,-14.27423,-3.38061,-1.81720,-208.9024,64.8171,32.3780,34.59,22.84,-8.62,1,S01
14540,-14.21198,-3.31597,1.07260,-170.9756,61.5854,29.3293,31.47,22.66,-14.22,1,S01
14560,-12.50970,-1.81720,2.06380,-140.2439,39.8780,15.0000,31.47,22.66,-14.22,1,S01
14580,-9.87848,0.17957,1.78129,-124.7561,15.1829,4.0854,31.47,22.66,-14.22,1,S01
14600,-7.35499,1.46525,0.70150,-111.2195,-0.4878,3.7805,29.91,22.66,-15.69,1,S01
14620,-6.48110,1.48680,-0.76614,-93.6585,0.1220,4.8780,29.91,22.66,-15.69,1,S01
14640,-7.49625,1.73340,-0.31125,-79.3293,19.4512,-0.8537,29.91,22.66,-15.69,1,S01
14660,-8.57842,2.30801,0.49799,-71.8293,31.8293,-5.8537,29.91,22.66,-15.69,1,S01
14680,-9.05727,2.55940,0.54109,-70.5488,30.7317,-5.0610,28.72,21.65,-18.35,1,S01
14700,-9.34936,2.41096,0.28730,-69.4512,25.3659,-0.8537,28.72,21.65,-18.35,1,S01
14720,-9.67976,2.26970,-0.04070,-61.4634,20.6707,4.2683,28.72,21.65,-18.35,1,S01
14740,-9.65582,2.12366,-0.22984,-51.9512,18.7805,8.6585,27.34,21.74,-19.63,1,S01
14760,-9.38288,2.18351,-0.06704,-47.3781,18.7195,9.5732,27.34,21.74,-19.63,1,S01
14780,-9.01178,2.51391,0.19393,-46.2195,17.8049,7.2561,27.34,21.74,-19.63,1,S01
14800,-8.76038,2.78685,0.29449,-45.0000,16.8293,4.2683,26.24,21.19,-20.83,1,S01
14820,-8.86573,2.65278,0.31843,-42.5610,18.4146,2.3780,26.24,21.19,-20.83,1,S01
14840,-9.18176,2.37744,0.38307,-40.9756,21.4024,1.8293,26.24,21.19,-20.83,1,S01
14860,-9.47146,2.17872,0.47166,-41.0366,22.2561,2.1341,26.24,21.19,-20.83,1,S01
14880,-9.59357,2.04704,0.58419,-40.3049,20.6707,1.5854,25.14,20.73,-22.11,1,S01
14900,-9.57920,2.03986,0.62010,-38.1098,18.0488,-0.3659,25.14,20.73,-22.11,1,S01
14920,-9.47386,2.06859,0.53870,-36.8902,15.0000,-2.2561,25.14,20.73,-22.11,1,S01
14940,-9.36133,2.07098,0.42617,-37.6220,12.5610,-2.9268,24.40,20.28,-22.94,1,S01
14960,-9.34457,1.98958,0.44293,-40.1220,11.6463,-2.6220,24.40,20.28,-22.94,1,S01
14980,-9.41161,1.95846,0.60334,-42.4390,11.0366,-2.3780,24.40,20.28,-22.94,1,S01
15000,-9.51456,2.03747,0.79248,-42.9878,9.2073,-2.8659,23.39,20.09,-23.76,1,S01
15020,-9.56723,2.12126,0.96965,-42.2561,5.9756,-3.6585,23.39,20.09,-23.76,1,S01
15040,-9.58399,2.23618,0.85952,-39.5732,1.7073,-4.2073,23.39,20.09,-23.76,1,S01
15060,-9.52653,2.34632,0.52433,-36.4634,-2.9878,-4.0854,23.39,20.09,-23.76,1,S01
15080,-9.39485,2.14520,0.31603,-33.2317,-6.4024,-3.4756,22.66,20.18,-23.85,1,S01
15100,-9.17698,1.83156,0.00718,-28.2927,-9.7561,-2.8659,22.66,20.18,-23.85,1,S01
15120,-8.77475,1.60890,-0.47405,-24.2683,-13.4146,-1.4634,22.66,20.18,-23.85,1,S01
15140,-8.25760,1.32878,-0.85712,-23.7195,-14.7561,1.7073,22.11,20.73,-23.76,1,S01
15160,-8.24324,1.17076,-1.01754,-25.0000,-10.3049,5.9146,22.11,20.73,-23.76,1,S01
15180,-9.01656,1.08457,-1.26414,-25.4878,-2.1341,8.7195,22.11,20.73,-23.76,1,S01
15200,-10.31183,0.98162,-0.92177,-25.5488,6.5854,8.0488,21.19,20.73,-24.22,1,S01
15220,-10.84813,0.55306,0.48842,-26.4024,0.9146,-3.3537,21.19,20.73,-24.22,1,S01
15240,-10.29267,0.32322,0.59855,-24.8171,-8.6585,-10.7317,21.19,20.73,-24.22,1,S01
15260,-9.78031,0.14844,0.45250,-22.8659,-12.9878,-16.1585,21.19,20.73,-24.22,1,S01
15280,-9.26556,0.17957,0.40462,-21.4634,-13.4756,-19.3293,21.28,20.83,-24.04,1,S01
15300,-8.65265,0.34716,0.15802,-21.4024,-11.7683,-20.1829,21.28,20.83,-24.04,1,S01
15320,-8.23845,0.63446,0.00239,-22.6220,-6.8293,-19.0244,21.28,20.83,-24.04,1,S01
15340,-7.97748,0.75178,0.14365,-23.4146,-1.8293,-15.6098,21.47,20.73,-24.13,1,S01
15360,-7.75721,0.78530,0.37110,-23.2927,0.0000,-11.4024,21.47,20.73,-24.13,1,S01
15380,-7.57525,0.65122,0.59137,-25.2439,0.4878,-7.5000,21.47,20.73,-24.13,1,S01
15400,-7.53934,0.65362,0.72065,-28.1707,0.7927,-5.5488,21.01,20.64,-24.31,1,S01
15420,-7.63750,0.85712,0.80206,-31.1585,-0.2439,-4.3293,21.01,20.64,-24.31,1,S01
15440,-7.94396,1.16358,1.00078,-33.2927,-1.2195,-1.9512,21.01,20.64,-24.31,1,S01
15460,-8.29830,1.24977,1.37427,-34.6341,-0.8537,2.3171,21.01,20.64,-24.31,1,S01
15480,-8.52575,0.93613,1.70707,-33.4756,-0.3049,6.7073,20.00,20.73,-24.40,1,S01
15500,-8.59997,0.59376,1.44131,-26.2195,-0.4878,9.0854,20.00,20.73,-24.40,1,S01
15520,-8.38210,0.21308,0.94092,-21.3415,-2.3780,10.0000,20.00,20.73,-24.40,1,S01
15540,-8.02776,-0.33758,0.24181,-20.7927,-3.8415,10.3049,19.27,20.83,-24.59,1,S01
15560,-7.71172,-0.64165,-0.11013,-19.9390,-0.2439,8.2927,19.27,20.83,-24.59,1,S01
15580,-7.64229,-0.36392,-0.10056,-17.4390,7.7439,4.4512,19.27,20.83,-24.59,1,S01
15600,-8.01339,0.22027,0.14365,-16.6463,14.4512,1.7073,18.99,20.55,-24.95,1,S01
15620,-8.54012,0.62010,0.40701,-18.5976,17.0122,3.2927,18.99,20.55,-24.95,1,S01
15640,-9.13388,0.56982,0.15562,-19.8780,18.4146,8.5976,18.99,20.55,-24.95,1,S01
15660,-9.42358,0.18435,-0.34477,-20.3659,19.8780,13.4756,18.99,20.55,-24.95,1,S01
15680,-9.35893,-0.11732,-0.50039,-21.8293,19.3293,14.5732,18.07,19.91,-25.60,1,S01
15700,-9.48822,-0.34237,-0.78290,-23.5366,16.0976,12.7439,18.07,19.91,-25.60,1,S01
15720,-10.16339,-0.54588,-1.30723,-22.0122,11.5244,9.6341,18.07,19.91,-25.60,1,S01
15740,-11.18810,-1.08936,-1.68312,-13.9634,10.4878,4.9390,17.71,19.91,-25.69,1,S01
15760,-11.67173,-1.08936,-2.55461,6.2805,11.1585,-3.2317,17.71,19.91,-25.69,1,S01
15780,-11.66934,0.22745,-1.78847,27.8659,14.4512,-12.3780,17.71,19.91,-25.69,1,S01
15800,-11.48499,2.30562,0.27054,40.3049,16.0366,-16.4634,20.46,19.17,-25.32,1,S01
15820,-11.54005,4.26168,0.64643,40.5488,9.8171,-13.1707,20.46,19.17,-25.32,1,S01
15840,-10.78348,5.19542,-0.19632,28.9024,3.6585,-2.7439,20.46,19.17,-25.32,1,S01
15860,-9.52174,4.69264,-0.91937,16.2195,6.5854,7.3171,20.46,19.17,-25.32,1,S01
15880,-8.64307,3.32794,-1.65679,10.3659,15.8537,10.9756,20.73,19.08,-25.50,1,S01
15900,-8.31027,1.13246,-1.41737,10.3659,29.8780,9.5122,20.73,19.08,-25.50,1,S01
15920,-8.40604,-0.30646,-0.90980,19.2073,39.8171,1.7683,20.73,19.08,-25.50,1,S01
15940,-8.57603,-0.28491,-0.62728,30.3049,39.8171,-7.0732,22.11,17.52,-26.15,1,S01
15960,-8.63349,0.61531,-0.69911,37.0122,33.2927,-10.4268,22.11,17.52,-26.15,1,S01
15980,-8.55927,1.12527,-0.54109,38.5366,27.1341,-8.5976,22.11,17.52,-26.15,1,S01
16000,-8.54491,1.56341,-0.37589,39.5122,21.7683,-7.9878,24.31,16.97,-25.69,1,S01
16020,-8.39886,2.39181,-0.27054,37.7439,15.5488,-8.4146,24.31,16.97,-25.69,1,S01
16040,-8.17859,3.05979,-0.31364,31.3415,9.3293,-6.0366,24.31,16.97,-25.69,1,S01
16060,-8.16183,3.20344,-0.33758,23.2927,5.8537,-1.5854,24.31,16.97,-25.69,1,S01
16080,-8.45632,2.87544,-0.48602,14.6341,4.9390,1.8902,25.23,16.97,-25.23,1,S01
16100,-8.92080,2.41814,-1.01514,7.9268,5.5488,3.5976,25.23,16.97,-25.23,1,S01
16120,-9.34696,2.51391,-0.55785,2.8049,8.5366,3.5976,25.23,16.97,-25.23,1,S01
16140,-9.73722,2.09972,1.03908,0.4878,8.8415,2.3780,25.50,16.88,-25.14,1,S01
16160,-10.45069,1.19231,1.02951,7.9878,2.5610,-2.3171,25.50,16.88,-25.14,1,S01
16180,-11.26232,0.76614,-0.43335,14.0854,-3.2317,-7.0732,25.50,16.88,-25.14,1,S01
16200,-11.60709,1.27850,-1.83875,11.0366,-1.8293,-7.0122,26.70,16.79,-24.86,1,S01
16220,-11.96861,1.98479,-1.18034,9.6951,7.6220,-3.7805,26.70,16.79,-24.86,1,S01
16240,-12.68209,2.85628,0.38307,9.3293,16.3415,-3.9024,26.70,16.79,-24.86,1,S01
16260,-13.17290,3.20105,1.02472,8.1098,16.4634,-6.4634,26.70,16.79,-24.86,1,S01
16280,-13.44344,3.43329,1.09415,7.1951,15.4878,-6.5244,27.25,15.60,-25.23,1,S01
16300,-14.21198,4.24731,2.55222,3.6585,24.2073,-0.1829,27.25,15.60,-25.23,1,S01
16320,-15.43302,5.08528,5.23851,-0.5488,33.4756,12.9268,27.25,15.60,-25.23,1,S01
16340,-16.12016,6.82826,6.23929,1.4634,27.6829,26.5244,26.88,14.22,-26.15,1,S01
16360,-16.46732,8.26239,4.39815,1.0366,27.3780,40.1220,26.88,14.22,-26.15,1,S01
16380,-18.00679,9.75398,3.86185,-24.9390,46.9512,44.1463,26.88,14.22,-26.15,1,S01
16400,-16.49126,7.02938,6.68461,-67.6220,38.3537,42.5610,22.02,13.67,-27.61,1,S01
16420,-14.06354,4.46758,4.72137,-82.5610,-24.1463,32.7439,22.02,13.67,-27.61,1,S01
16440,-10.75236,3.31836,1.26893,-88.0488,-92.9878,20.8537,22.02,13.67,-27.61,1,S01
16460,-6.50505,1.55384,-0.57700,-94.9390,-134.2683,7.3780,22.02,13.67,-27.61,1,S01
16480,-1.20189,0.47166,-2.71263,-89.6951,-166.5244,-5.9756,18.26,18.81,-23.49,1,S01
16500,1.40300,-0.80206,-7.07487,-74.6341,-192.8049,-7.0122,18.26,18.81,-23.49,1,S01
16520,2.67672,-2.30562,-11.61667,-61.2195,-176.0366,-6.4634,18.26,18.81,-23.49,1,S01
16540,2.65038,-0.90261,-11.33894,-47.7439,-86.8293,-18.7805,14.59,19.45,-23.39,1,S01
16560,0.74220,0.47884,-4.34069,-36.0976,29.3293,-20.0000,14.59,19.45,-23.39,1,S01
16580,-0.97205,0.45011,1.41497,-37.9268,79.6951,-11.2195,14.59,19.45,-23.39,1,S01
16600,-1.03669,0.19872,2.73897,-42.3780,57.0122,-5.2439,14.77,17.71,-23.39,1,S01
16620,-0.08619,0.18196,1.49159,-45.0610,18.9024,-4.5122,14.77,17.71,-23.39,1,S01
16640,0.46926,0.41659,0.34716,-49.8171,2.3171,-7.1951,14.77,17.71,-23.39,1,S01
16660,0.25379,0.66559,0.19632,-59.9390,-1.2805,-10.9146,14.77,17.71,-23.39,1,S01
16680,-0.07183,0.66559,0.04549,-72.8049,-7.1951,-12.2561,13.58,17.89,-22.94,1,S01
16700,0.66559,-0.47645,-1.91057,-88.1098,-24.2683,-13.9024,13.58,17.89,-22.94,1,S01
16720,1.28569,-1.06063,-3.54342,-83.4756,-36.7683,-22.1951,13.58,17.89,-22.94,1,S01
16740,1.89142,-0.68235,-6.57927,-74.3902,-59.8171,-27.5610,11.65,18.99,-21.38,1,S01
16760,2.14760,-0.38068,-7.80031,-73.6585,-64.4512,-18.5976,11.65,18.99,-21.38,1,S01
16780,-1.57299,-1.06781,-5.52821,-81.4634,-44.0244,-10.8537,11.65,18.99,-21.38,1,S01
16800,-10.21606,0.07661,-1.45089,-100.9756,-21.0976,-3.0488,7.43,19.63,-19.63,1,S01
16820,-27.76077,-0.92416,-3.38780,-128.2927,1.5244,28.3537,7.43,19.63,-19.63,1,S01
16840,-39.12125,-5.13796,-13.95101,-87.3781,-3.9634,52.0732,7.43,19.63,-19.63,1,S01
16860,-36.40863,0.51236,1.94409,-71.5244,-2.8049,12.1341,7.43,19.63,-19.63,1,S01
16880,-28.86450,4.86023,3.48356,-73.7195,-43.9634,-62.0732,9.36,21.10,-19.08,1,S01
16900,-14.88954,8.59997,-7.31907,-51.7073,-161.9512,-51.2195,9.36,21.10,-19.08,1,S01
16920,-3.17950,1.56581,-8.40844,-58.2317,-122.5000,3.1098,9.36,21.10,-19.08,1,S01
16940,-7.89847,0.65601,1.28329,-74.8781,-22.6829,4.3902,4.40,22.29,-16.15,1,S01
16960,-10.45787,0.08619,6.15549,-97.9878,-1.2805,5.1829,4.40,22.29,-16.15,1,S01
16980,-9.34457,-0.47884,4.19704,-92.8659,-4.5122,13.4146,4.40,22.29,-16.15,1,S01
17000,-6.24647,-0.53630,5.56412,-81.4024,11.3415,11.7683,6.42,22.39,-19.36,1,S01
17020,-10.29507,0.39265,10.80743,-70.4268,-8.5976,13.6585,6.42,22.39,-19.36,1,S01
17040,-8.28873,4.16112,7.53216,-71.5244,-114.6951,29.4512,6.42,22.39,-19.36,1,S01
17060,-6.50265,2.07338,0.84755,-88.2927,-220.7927,53.8415,6.42,22.39,-19.36,1,S01
17080,-6.13873,-2.48997,-2.32716,-85.4268,-227.9878,45.0000,1.83,26.61,-11.28,1,S01
17100,-8.99502,-0.51475,0.53151,-55.0610,-163.8415,21.1585,1.83,26.61,-11.28,1,S01
17120,-9.56962,4.20182,3.83551,-49.2073,-120.0610,19.2073,1.83,26.61,-11.28,1,S01
17140,-7.59201,3.18908,10.02931,-56.0366,-117.5000,38.7195,2.48,27.71,-7.71,1,S01
17160,-7.19936,2.05662,7.75243,-69.4512,-158.0488,40.6707,2.48,27.71,-7.71,1,S01
17180,-7.60398,-1.62327,8.42041,-48.9634,-166.7683,51.3415,2.48,27.71,-7.71,1,S01
17200,-7.42203,-2.98557,9.63187,-52.5000,-155.8537,33.1098,0.00,28.26,-1.28,1,S01
17220,-9.42118,2.34392,10.40520,-67.5000,-155.9146,11.4024,0.00,28.26,-1.28,1,S01
17240,-11.20247,3.26569,9.89524,-61.7683,-157.8049,14.3902,0.00,28.26,-1.28,1,S01
17260,-12.47379,2.03028,10.47463,-37.1341,-122.0732,20.1829,0.00,28.07,-1.28,1,S01
17280,-13.66371,4.03423,12.01650,-13.5366,-61.7073,20.2439,-1.38,28.07,1.38,1,S01
17300,-15.21755,5.24809,12.44985,-3.1707,-20.1220,34.0244,-1.38,28.07,1.38,1,S01
17320,-16.54872,4.49870,12.10030,-2.6829,5.5488,48.8415,-1.38,28.07,1.38,1,S01
17340,-17.00601,3.40455,10.92235,5.1829,36.7073,55.4878,-4.04,27.16,-0.55,1,S01
17360,-17.01799,3.39258,10.31662,8.7195,80.8537,57.0732,-4.04,27.16,-0.55,1,S01
17380,-16.35240,3.66313,10.12508,1.2195,122.5610,59.3293,-4.04,27.16,-0.55,1,S01
17400,-14.85363,3.54821,9.83538,-6.7683,147.5610,62.1951,-6.33,25.60,-5.50,1,S01
17420,-13.45781,2.78925,8.74602,-10.1220,157.9268,63.7195,-6.33,25.60,-5.50,1,S01
17440,-12.53604,2.25294,8.10677,-14.5122,166.3415,60.8537,-6.33,25.60,-5.50,1,S01
17460,-11.84651,1.87227,8.39886,-20.9756,173.2317,55.0610,-8.17,22.84,-9.82,1,S01
17480,-11.14740,1.92973,8.39168,-29.2073,170.2439,49.0854,-8.17,22.84,-9.82,1,S01
17500,-10.34535,2.10450,7.25443,-40.3659,159.6342,46.2195,-8.17,22.84,-9.82,1,S01
17520,-9.59835,2.17154,6.07170,-52.2561,152.5610,45.1829,-8.17,22.84,-9.82,1,S01
17540,-9.11951,2.18830,5.35583,-61.0976,148.7195,44.6341,-10.46,19.91,-11.74,1,S01
17560,-8.59040,2.23379,4.94403,-67.0122,142.5000,41.8902,-10.46,19.91,-11.74,1,S01
17580,-7.62553,2.27449,3.92410,-72.5610,133.4146,37.5610,-10.46,19.91,-11.74,1,S01
17600,-6.28957,2.07817,3.88340,-76.0976,127.9878,32.0122,-12.20,17.43,-12.57,1,S01
17620,-4.80756,1.79565,4.32393,-71.1585,121.4634,24.3902,-12.20,17.43,-12.57,1,S01
17640,-3.79960,1.87945,3.88340,-64.0854,109.2073,12.5000,-12.20,17.43,-12.57,1,S01
17660,-3.74693,2.09972,3.06937,-56.6463,100.6098,0.1829,-12.66,16.06,-13.30,1,S01
17680,-4.91051,2.53546,2.91374,-50.2439,97.4390,-10.3659,-12.66,16.06,-13.30,1,S01
17700,-6.38055,3.23457,3.21781,-44.8171,89.0854,-16.9512,-12.66,16.06,-13.30,1,S01
17720,-7.47230,3.87861,2.96881,-40.7927,69.0854,-16.2805,-12.66,16.06,-13.30,1,S01
17740,-7.71891,3.68707,1.75734,-34.5732,45.7317,-8.2927,-12.66,15.69,-13.21,1,S01
17760,-7.86735,2.80122,0.77093,-25.3049,30.9756,-1.9512,-12.66,15.69,-13.21,1,S01
17780,-7.94875,2.47560,0.18435,-14.9390,20.9756,-3.7195,-12.66,15.69,-13.21,1,S01
17800,-7.86735,2.54504,-0.14844,-10.9756,12.5000,-7.9878,-12.48,15.78,-13.39,1,S01
17820,-7.80510,3.21781,-0.87628,-14.0854,4.6951,-11.6463,-12.48,15.78,-13.39,1,S01
17840,-7.95354,3.20105,-1.45089,-22.1951,1.0366,-10.6707,-12.48,15.78,-13.39,1,S01
17860,-8.12832,2.93050,-1.29526,-31.5244,3.5976,-6.5244,-12.75,15.69,-12.48,1,S01
17880,-8.31267,1.69270,-0.11971,-40.0610,7.0732,-0.7317,-12.75,15.69,-12.48,1,S01
17900,-8.41562,0.42377,-0.13886,-47.1951,-0.1829,3.0488,-12.75,15.69,-12.48,1,S01
17920,-7.67102,-0.24900,-0.00239,-54.0244,-6.2195,5.3659,-12.75,15.69,-12.48,1,S01
17940,-7.08205,-0.49799,0.05507,-54.9390,-5.3659,2.7439,-13.30,15.69,-11.01,1,S01
17960,-7.41484,-0.59616,0.62010,-49.0244,2.1951,-3.1707,-13.30,15.69,-11.01,1,S01
17980,-8.08522,-0.61292,0.62489,-40.4268,4.6951,-8.7805,-13.30,15.69,-11.01,1,S01
18000,-8.13071,-0.14365,0.50278,-43.1098,3.7195,-10.2439,-13.39,15.96,-10.00,1,S01
18020,-7.79791,-0.00958,0.69192,-52.6220,4.0244,-7.0732,-13.39,15.96,-10.00,1,S01
18040,-7.76679,-0.19632,1.04387,-57.8659,5.4878,-3.5976,-13.39,15.96,-10.00,1,S01
18060,-8.23127,-0.09337,1.21625,-56.5244,5.9146,-3.5366,-13.67,15.87,-8.90,1,S01
18080,-8.46829,0.04788,0.81642,-52.8659,3.9634,-4.0854,-13.67,15.87,-8.90,1,S01
18100,-8.60476,0.32801,0.56503,-51.3415,2.6220,-4.3293,-13.67,15.87,-8.90,1,S01
18120,-8.63828,0.01915,0.51715,-53.2317,2.6829,-2.9878,-13.67,15.87,-8.90,1,S01
18140,-8.54491,-0.49799,0.62968,-54.6341,3.7805,-2.4390,-13.94,15.87,-7.61,1,S01
18160,-8.46111,-0.50996,0.44293,-50.7317,4.8780,-2.9878,-13.94,15.87,-7.61,1,S01
18180,-8.68377,-0.27294,0.29449,-45.7317,9.5732,-2.0732,-13.94,15.87,-7.61,1,S01
18200,-9.29429,-0.23703,1.10852,-46.8902,14.8171,1.2195,-14.22,15.60,-6.97,1,S01
18220,-9.19373,-0.28252,1.16358,-45.6707,11.0976,2.3171,-14.22,15.60,-6.97,1,S01
18240,-8.96389,-0.15083,1.00556,-45.2439,7.8659,3.7195,-14.22,15.60,-6.97,1,S01
18260,-8.82263,0.03591,0.80445,-45.7317,6.2195,5.1220,-14.68,15.32,-5.96,1,S01
18280,-8.82503,0.22505,0.70868,-46.0976,6.5854,5.3659,-14.68,15.32,-5.96,1,S01
18300,-8.87052,0.20111,0.77093,-46.2195,8.1098,5.6707,-14.68,15.32,-5.96,1,S01
18320,-8.94953,0.00239,1.08697,-44.8780,9.0244,6.0976,-14.68,15.32,-5.96,1,S01
18340,-9.31105,-0.42138,1.11809,-43.1707,7.9878,5.7927,-15.05,15.05,-5.23,1,S01
18360,-9.63666,-0.47645,1.42455,-42.8659,8.4756,4.6951,-15.05,15.05,-5.23,1,S01
18380,-9.87608,-0.38547,1.33357,-43.1098,5.2439,4.5122,-15.05,15.05,-5.23,1,S01
18400,-9.83538,-0.16281,1.06063,-46.0976,-0.6098,6.1585,-15.41,15.05,-4.13,1,S01
18420,-9.64145,0.17717,0.98881,-52.3781,-5.0000,9.8171,-15.41,15.05,-4.13,1,S01
18440,-9.34696,0.29928,1.13725,-58.4146,-6.9512,14.2073,-15.41,15.05,-4.13,1,S01
18460,-9.26077,0.03591,1.34554,-60.7317,-7.6220,17.6220,-15.96,14.68,-2.29,1,S01
18480,-9.29429,-0.49321,1.19231,-56.9512,-8.2927,19.0244,-15.96,14.68,-2.29,1,S01
18500,-9.57202,-0.80445,0.70868,-51.5854,-7.5000,17.9268,-15.96,14.68,-2.29,1,S01
18520,-10.01495,-0.34237,0.73023,-48.7805,-2.8049,14.6341,-15.96,14.68,-2.29,1,S01
18540,-10.20648,0.53391,1.09654,-47.3781,1.7073,10.9146,-16.33,14.31,-1.10,1,S01
18560,-9.95509,1.19471,1.13246,-48.5976,0.9146,8.3537,-16.33,14.31,-1.10,1,S01
18580,-9.28950,1.31442,0.69192,-52.2561,-2.8659,8.8415,-16.33,14.31,-1.10,1,S01
18600,-9.17219,1.25456,0.46448,-57.1951,-3.1707,12.6220,-16.70,14.04,0.46,1,S01
18620,-8.96868,1.01993,0.80685,-61.8293,-0.4268,17.8659,-16.70,14.04,0.46,1,S01
18640,-8.86573,0.71587,1.11809,-62.7439,1.5854,18.5366,-16.70,14.04,0.46,1,S01
18660,-9.09557,0.69192,1.12049,-61.2195,1.7683,14.2073,-16.88,13.67,2.02,1,S01
18680,-9.25838,0.85952,1.09415,-60.4268,2.2561,9.7561,-16.88,13.67,2.02,1,S01
18700,-9.35893,1.06063,1.04387,-59.2073,4.2073,8.1098,-16.88,13.67,2.02,1,S01
18720,-9.44273,1.23780,0.97205,-57.0122,6.0976,8.7195,-16.88,13.67,2.02,1,S01
18740,-9.53132,1.46765,1.09176,-55.6098,8.5366,10.7317,-16.79,13.39,3.21,1,S01
18760,-9.49301,1.59693,1.15161,-56.2805,9.2683,13.4146,-16.79,13.39,3.21,1,S01
18780,-9.32302,1.60412,1.10612,-57.3171,8.9634,15.0610,-16.79,13.39,3.21,1,S01
18800,-9.13867,1.56820,0.90261,-57.0122,9.3293,15.0000,-16.79,13.21,4.59,1,S01
18820,-9.12191,1.57299,0.75657,-56.5854,10.9756,14.0244,-16.79,13.21,4.59,1,S01
18840,-9.15782,1.51074,0.73502,-56.9512,12.4390,12.9878,-16.79,13.21,4.59,1,S01
18860,-9.14585,1.37188,0.74699,-57.8659,11.8902,12.0122,-16.70,12.75,5.78,1,S01
18880,-9.17937,1.25456,0.77572,-57.5610,10.3659,11.1585,-16.70,12.75,5.78,1,S01
18900,-9.26556,1.28808,0.81163,-55.9756,9.5122,10.7927,-16.70,12.75,5.78,1,S01
18920,-9.35175,1.41737,0.88585,-54.3902,9.2073,11.4024,-16.70,12.75,5.78,1,S01
18940,-9.34457,1.58975,0.80206,-52.0122,8.1707,13.1707,-16.51,12.57,6.88,1,S01
18960,-9.40682,1.64003,0.73023,-49.6951,8.4146,14.7561,-16.51,12.57,6.88,1,S01
18980,-9.34457,1.64003,0.74220,-50.4268,9.8171,14.7561,-16.51,12.57,6.88,1,S01
19000,-9.33739,1.60651,0.76375,-50.6707,10.4268,14.1463,-16.33,12.29,7.89,1,S01
19020,-9.30147,1.58496,0.57940,-47.6220,11.3415,14.5122,-16.33,12.29,7.89,1,S01
19040,-9.53850,1.65439,0.67995,-46.0976,13.7805,14.2073,-16.33,12.29,7.89,1,S01
19060,-9.67976,1.46525,0.69192,-46.0366,13.9634,13.2317,-16.15,12.11,8.99,1,S01
19080,-9.67976,1.48680,0.73263,-45.3049,11.9512,12.3780,-16.15,12.11,8.99,1,S01
19100,-9.56962,1.35033,0.69671,-42.6829,11.1585,12.3780,-16.15,12.11,8.99,1,S01
19120,-9.56244,1.20907,0.62249,-38.7195,12.0732,11.5854,-16.15,12.11,8.99,1,S01
19140,-9.59117,1.07979,0.87149,-35.0000,12.3171,9.5122,-15.96,12.11,9.36,1,S01
19160,-9.64863,1.13246,1.01993,-29.5122,10.5488,7.8049,-15.96,12.11,9.36,1,S01
19180,-9.73004,1.28808,1.01514,-25.2439,8.3537,7.4390,-15.96,12.11,9.36,1,S01
19200,-9.66539,1.49877,0.82600,-24.6341,5.6707,7.8049,-15.69,11.93,9.63,1,S01
19220,-9.52892,1.77650,0.50039,-25.0000,3.7195,8.5366,-15.69,11.93,9.63,1,S01
19240,-9.37330,1.92733,0.23942,-24.5122,3.5366,9.2073,-15.69,11.93,9.63,1,S01
19260,-9.10754,1.89860,0.10774,-23.1098,4.2683,9.6341,-15.78,11.74,10.00,1,S01
19280,-8.94713,1.89381,-0.13408,-22.3171,5.0000,9.5122,-15.78,11.74,10.00,1,S01
19300,-9.26077,1.94170,-0.47645,-23.0488,8.9024,9.0244,-15.78,11.74,10.00,1,S01
19320,-8.96629,1.93930,-0.17957,-24.8171,16.0976,7.8049,-15.78,11.74,10.00,1,S01
19340,-9.01656,1.89381,0.12210,-24.6341,18.9024,7.0732,-15.69,11.83,10.28,1,S01
19360,-9.02375,1.66158,0.07661,-21.5854,16.0366,6.3415,-15.69,11.83,10.28,1,S01
19380,-9.00459,1.53229,-0.11013,-15.4268,10.2439,4.2073,-15.69,11.83,10.28,1,S01
19400,-8.99980,1.59454,-0.27533,-8.4756,6.1585,1.8293,-15.69,12.02,10.00,1,S01
19420,-9.16500,1.74777,-0.27533,-2.9878,6.8902,-0.0610,-15.69,12.02,10.00,1,S01
19440,-9.36612,1.92494,-0.09337,0.9146,7.7439,-0.6098,-15.69,12.02,10.00,1,S01
19460,-9.36372,1.98958,-0.10295,2.8659,5.2439,0.5488,-15.78,12.02,9.54,1,S01
19480,-9.31344,1.96085,-0.40941,3.2317,2.3171,1.7073,-15.78,12.02,9.54,1,S01
19500,-9.33499,1.92733,-0.58419,2.9878,1.9512,2.3780,-15.78,12.02,9.54,1,S01
19520,-9.47386,1.88903,-0.48842,2.9878,3.7805,2.6220,-15.78,12.02,9.54,1,S01
19540,-9.56244,1.94888,-0.35674,2.6829,5.1220,2.7439,-15.78,12.11,9.27,1,S01
19560,-9.51695,2.02071,-0.36631,2.3780,5.0610,3.2927,-15.78,12.11,9.27,1,S01
19580,-9.28950,2.00395,-0.47884,2.0122,4.0244,4.2683,-15.78,12.11,9.27,1,S01
19600,-9.08600,1.98240,-0.47884,0.7317,3.7805,4.8780,-15.87,12.02,9.08,1,S01
19620,-9.05727,1.93691,-0.23463,-0.6707,4.9390,4.9390,-15.87,12.02,9.08,1,S01
19640,-9.10515,1.84593,-0.09098,-0.7927,5.7927,4.7561,-15.87,12.02,9.08,1,S01
19660,-9.11712,1.75734,0.08380,-0.3049,6.5854,4.4512,-16.06,12.20,8.72,1,S01
19680,-9.30387,1.78847,-0.08859,4.8780,7.3171,2.6829,-16.06,12.20,8.72,1,S01
19700,-9.40442,1.86269,-0.27054,6.6463,7.1341,2.5610,-16.06,12.20,8.72,1,S01
19720,-9.49062,2.05423,-0.49799,8.5366,6.5854,2.9268,-16.06,12.20,8.72,1,S01
19740,-9.50977,2.30562,-0.72065,9.0854,5.5488,3.7805,-16.33,12.02,8.17,1,S01
19760,-9.39485,2.50912,-0.70629,7.3780,4.4512,5.4878,-16.33,12.02,8.17,1,S01
19780,-9.30866,2.60010,-0.68714,4.6951,2.1341,7.3780,-16.33,12.02,8.17,1,S01
19800,-9.37809,2.73418,-0.80445,2.3171,-0.8537,9.2073,-16.61,11.83,7.89,1,S01
19820,-9.54089,2.96881,-0.75178,0.3049,-2.8049,11.4024,-16.61,11.83,7.89,1,S01
19840,-9.66060,2.96402,-0.42138,-1.3415,-4.3293,13.9634,-16.61,11.83,7.89,1,S01
19860,-9.74919,2.74854,0.08859,-2.1341,-6.4024,15.2439,-16.79,11.47,8.07,1,S01
19880,-9.60554,2.66475,0.65122,-1.8902,-10.1220,14.9390,-16.79,11.47,8.07,1,S01
19900,-9.29429,2.60489,0.87388,-0.9146,-15.0000,14.5732,-16.79,11.47,8.07,1,S01
19920,-8.95431,2.54025,0.93853,0.0610,-16.7073,14.2073,-16.79,11.47,8.07,1,S01
19940,-8.78193,2.57616,0.93374,1.2195,-13.7805,13.0488,-17.06,10.64,8.26,1,S01
19960,-8.82982,2.68869,1.06781,2.6220,-8.1098,11.2805,-17.06,10.64,8.26,1,S01
19980,-9.01896,2.93769,1.06303,3.6585,-2.3780,9.6951,-17.06,10.64,8.26,1,S01
20000,-9.17219,3.15316,1.15401,1.4024,1.4024,8.3537,-17.43,10.46,7.89,1,S01
20020,-9.07881,3.26090,1.18034,-3.2317,0.6707,7.5000,-17.43,10.46,7.89,1,S01
20040,-8.75799,3.24175,0.88107,-7.3171,-3.1098,6.7683,-17.43,10.46,7.89,1,S01
20060,-8.53294,3.32315,0.68953,-11.8902,-4.0244,6.0976,-17.34,10.28,8.26,1,S01
20080,-8.38210,3.37343,0.66080,-17.9268,-2.0732,5.3659,-17.34,10.28,8.26,1,S01
20100,-8.29591,3.36625,0.65362,-22.8659,0.9146,4.1463,-17.34,10.28,8.26,1,S01
20120,-8.19056,3.32076,0.65601,-25.1220,4.5732,2.1341,-17.34,10.28,8.26,1,S01
20140,-8.13310,3.28245,0.65122,-25.7317,8.4756,-0.1829,-17.25,10.55,8.53,1,S01
20160,-8.20014,3.24414,0.51475,-26.2805,13.0488,-2.6829,-17.25,10.55,8.53,1,S01
20180,-8.25521,3.20584,0.56982,-27.1951,17.1951,-5.5488,-17.25,10.55,8.53,1,S01
20200,-8.19535,3.25372,0.67277,-26.5854,19.4512,-7.5610,-16.97,11.01,8.81,1,S01
20220,-8.27197,3.37343,0.69671,-24.4512,20.5488,-8.9024,-16.97,11.01,8.81,1,S01
20240,-8.52575,3.70622,0.84276,-21.8293,20.6707,-10.1829,-16.97,11.01,8.81,1,S01
20260,-8.82024,4.05817,1.04627,-19.8780,19.0244,-11.0366,-16.70,11.74,8.53,1,S01
20280,-9.10994,4.33111,1.27372,-19.2683,15.7317,-10.8537,-16.70,11.74,8.53,1,S01
20300,-9.34936,4.41730,1.60412,-19.9390,11.6463,-9.3902,-16.70,11.74,8.53,1,S01
20320,-9.28711,4.24013,1.93930,-20.6098,6.8293,-7.1341,-16.70,11.74,8.53,1,S01
20340,-9.21289,4.06775,1.84114,-20.6707,3.1707,-4.8780,-16.51,11.83,8.90,1,S01
20360,-9.84975,4.08930,0.97683,-22.4390,0.9756,-4.2073,-16.51,11.83,8.90,1,S01
20380,-11.32936,4.74770,-0.41180,-26.4024,3.5366,-1.5244,-16.51,11.83,8.90,1,S01
20400,-12.58153,5.47554,-0.52912,-33.5976,11.7683,9.2683,-17.06,11.65,8.99,1,S01
20420,-11.99974,4.32632,0.22505,-42.2561,11.0976,21.0976,-17.06,11.65,8.99,1,S01
20440,-10.57758,2.64799,-0.19154,-50.3049,-4.9390,20.3659,-17.06,11.65,8.99,1,S01
20460,-9.43555,0.73502,-0.09577,-50.7317,-19.6341,10.6098,-16.70,11.19,11.28,1,S01
20480,-8.36534,-0.53151,-0.89543,-39.8171,-34.3902,-1.7073,-16.70,11.19,11.28,1,S01
20500,-7.72369,-0.78290,-2.27449,-31.0366,-42.9268,-13.6585,-16.70,11.19,11.28,1,S01
20520,-7.78834,0.59376,-2.83952,-29.1463,-36.3415,-22.1951,-16.70,11.19,11.28,1,S01
20540,-8.48026,2.02549,-2.11408,-33.4146,-17.1951,-22.8659,-16.70,11.83,11.56,1,S01
20560,-9.28471,2.34871,-0.87388,-39.1463,-2.1341,-18.3537,-16.70,11.83,11.56,1,S01
20580,-9.70131,1.60890,-0.40941,-43.5366,-1.1585,-15.0610,-16.70,11.83,11.56,1,S01
20600,-9.88566,0.92177,-0.44293,-44.8171,-3.9634,-16.7073,-15.05,12.57,13.49,1,S01
20620,-9.87608,0.92177,-0.66798,-44.9390,-4.5122,-20.4878,-15.05,12.57,13.49,1,S01
20640,-9.58399,1.25456,-0.87628,-47.2561,-2.1341,-23.4756,-15.05,12.57,13.49,1,S01
20660,-9.30387,1.35991,-0.85234,-51.5854,2.0122,-26.0366,-14.04,13.76,14.50,1,S01
20680,-9.19373,0.97683,-0.71826,-55.7317,5.5488,-27.9878,-14.04,13.76,14.50,1,S01
20700,-9.30387,0.54827,-0.43096,-57.9878,8.1707,-28.0488,-14.04,13.76,14.50,1,S01
20720,-9.32302,0.23703,-0.20351,-57.0732,8.7805,-26.2805,-14.04,13.76,14.50,1,S01
20740,-9.50019,0.18675,-0.04310,-54.2073,9.3293,-24.8171,-12.39,14.86,15.69,1,S01
20760,-9.83059,0.38786,0.59137,-52.8049,11.9512,-24.3902,-12.39,14.86,15.69,1,S01
20780,-10.04846,0.43574,0.97444,-53.2927,10.8537,-25.0610,-12.39,14.86,15.69,1,S01
20800,-10.03649,0.51715,0.94810,-55.1220,5.3049,-26.8293,-10.64,16.33,17.06,1,S01
20820,-9.93833,0.54588,0.78051,-55.3659,0.9756,-28.1707,-10.64,16.33,17.06,1,S01
20840,-9.87129,0.39983,0.58897,-51.2805,-0.1220,-27.9268,-10.64,16.33,17.06,1,S01
20860,-9.93115,0.51475,0.85712,-49.0244,0.5488,-27.0122,-8.99,17.52,18.35,1,S01
20880,-9.95270,0.92895,0.94332,-50.7317,-0.9146,-24.4512,-8.99,17.52,18.35,1,S01
20900,-9.88805,1.24738,1.26174,-54.2073,-3.1707,-20.2439,-8.99,17.52,18.35,1,S01
20920,-9.41161,1.21625,1.13006,-57.1951,-7.6829,-15.3049,-8.99,17.52,18.35,1,S01
20940,-8.60716,0.91937,0.99359,-58.2927,-9.3293,-12.1341,-7.25,18.07,19.82,1,S01
20960,-7.80749,0.60094,0.82121,-57.9268,-6.2195,-11.7073,-7.25,18.07,19.82,1,S01
20980,-7.33105,0.51715,0.60334,-57.8659,-0.6098,-12.6220,-7.25,18.07,19.82,1,S01
21000,-7.24485,0.61531,0.57461,-59.4512,4.8171,-12.3171,-5.78,18.72,21.01,1,S01
21020,-7.44597,0.57700,0.54588,-62.0732,8.7805,-9.7561,-5.78,18.72,21.01,1,S01
21040,-7.92481,0.44053,0.46208,-65.1829,12.1951,-6.8293,-5.78,18.72,21.01,1,S01
21060,-8.69335,0.41420,0.49560,-67.2561,16.4634,-3.7195,-4.13,19.63,21.65,1,S01
21080,-9.73243,0.34716,1.28569,-69.9390,22.4390,-0.4268,-4.13,19.63,21.65,1,S01
21100,-11.04924,0.09098,1.52989,-73.2317,22.9268,0.5488,-4.13,19.63,21.65,1,S01
21120,-12.27986,-0.28252,1.58017,-76.0366,17.3780,-0.1220,-4.13,19.63,21.65,1,S01
21140,-13.20163,-0.75896,1.56581,-74.2073,11.5244,-2.8049,-2.84,20.46,22.48,1,S01
21160,-14.99249,-1.19471,2.06859,-44.2683,15.2439,-6.1585,-2.84,20.46,22.48,1,S01
21180,-14.63815,-0.94571,1.25456,-34.5122,11.3415,-7.6220,-2.84,20.46,22.48,1,S01
21200,-13.44344,-0.46208,-0.46926,-29.2073,6.0366,-13.4146,-2.39,20.92,22.11,1,S01
21220,-11.78666,0.23463,-1.74777,-28.8415,6.4634,-19.2683,-2.39,20.92,22.11,1,S01
21240,-10.38844,0.99120,-2.30083,-27.8049,9.6341,-17.6829,-2.39,20.92,22.11,1,S01
21260,-9.36372,1.10373,-2.40378,-23.3537,11.5854,-7.9268,-1.93,20.83,21.65,1,S01
21280,-8.91122,0.38068,-2.47560,-18.7805,12.5000,4.0854,-1.93,20.83,21.65,1,S01
21300,-9.04290,-0.29688,-2.33914,-10.9756,15.1829,13.1098,-1.93,20.83,21.65,1,S01
21320,-9.63906,-0.47884,-1.63285,-2.4390,19.6951,16.2805,-1.93,20.83,21.65,1,S01
21340,-10.02213,-0.27533,-1.07260,4.3293,19.8780,15.2439,-2.20,21.01,21.56,1,S01
21360,-10.05804,0.14605,-1.01754,8.2927,14.6951,13.1098,-2.20,21.01,21.56,1,S01
21380,-9.88326,0.53870,-1.04627,7.0122,9.2073,13.9634,-2.20,21.01,21.56,1,S01
21400,-9.51695,0.57940,-0.66798,3.1707,5.6707,17.5610,-2.94,20.64,21.38,1,S01
21420,-8.88488,0.36631,-0.62968,1.1585,-2.6220,20.9756,-2.94,20.64,21.38,1,S01
21440,-8.13310,0.20351,-0.77572,1.0366,-12.0732,22.2561,-2.94,20.64,21.38,1,S01
21460,-7.58722,0.09816,-0.93613,2.6220,-16.0366,21.8902,-3.76,19.82,21.83,1,S01
21480,-7.29753,0.13886,-1.04627,4.2683,-15.9146,20.6098,-3.76,19.82,21.83,1,S01
21500,-7.23767,0.25857,-1.12527,5.9146,-14.1463,19.8780,-3.76,19.82,21.83,1,S01
21520,-7.47470,0.73502,-1.08697,6.2805,-10.7927,18.9634,-3.76,19.82,21.83,1,S01
21540,-7.76200,0.99120,-0.84755,4.7561,-7.9268,19.2073,-4.50,19.36,22.11,1,S01
21560,-8.10677,1.19710,-0.72784,3.6585,-7.9878,17.9878,-4.50,19.36,22.11,1,S01
21580,-8.28154,1.18034,-0.89304,3.4146,-9.2683,17.9878,-4.50,19.36,22.11,1,S01
21600,-8.30549,1.07500,-1.08218,2.1341,-9.0854,19.3293,-5.32,18.90,22.11,1,S01
21620,-8.32943,1.26653,-1.10612,0.1220,-5.7927,19.6951,-5.32,18.90,22.11,1,S01
21640,-8.57364,1.57538,-0.81403,-1.9512,-0.7317,19.2683,-5.32,18.90,22.11,1,S01
21660,-8.74123,1.63524,-0.43096,-4.8171,1.4634,18.7195,-5.69,18.62,22.39,1,S01
21680,-8.69574,1.42694,-0.39265,-6.8293,0.1829,17.3780,-5.69,18.62,22.39,1,S01
21700,-8.59518,1.21625,-0.16520,-7.3780,-1.4024,15.1829,-5.69,18.62,22.39,1,S01
21720,-8.34140,1.23062,-0.29209,-6.9512,-3.4756,13.1707,-5.69,18.62,22.39,1,S01
21740,-8.29351,1.25935,-0.08140,-6.7683,-1.5854,13.0488,-6.06,18.44,22.57,1,S01
21760,-8.39886,1.06542,0.00239,-6.8293,1.0366,14.5122,-6.06,18.44,22.57,1,S01
21780,-8.53533,1.12527,0.45250,-6.6463,5.1829,13.4146,-6.06,18.44,22.57,1,S01
21800,-8.97826,1.36948,0.84755,-7.3171,8.3537,10.7927,-6.15,18.81,22.66,1,S01
21820,-9.70609,1.71664,1.47722,-8.2927,9.0244,9.5122,-6.15,18.81,22.66,1,S01
21840,-10.46506,2.00874,1.92733,-6.3415,6.5244,12.9878,-6.15,18.81,22.66,1,S01
21860,-11.15459,2.25294,2.12605,-5.1829,5.3659,18.5366,-6.33,18.62,22.75,1,S01
21880,-11.64779,2.37026,1.07260,-11.0366,2.3780,21.7683,-6.33,18.62,22.75,1,S01
21900,-12.15536,2.96642,-1.45807,-22.2561,-1.8293,19.3902,-6.33,18.62,22.75,1,S01
21920,-13.60625,5.46357,-2.44209,-33.5366,4.0244,12.6829,-6.33,18.62,22.75,1,S01
21940,-15.73469,6.79714,0.47405,-35.9756,19.3902,13.2317,-7.43,18.53,21.83,1,S01
21960,-15.64611,3.76608,1.76453,-37.9878,12.0732,26.2195,-7.43,18.53,21.83,1,S01
21980,-13.11783,0.16041,-1.40540,-45.1220,-24.6951,31.8902,-7.43,18.53,21.83,1,S01
22000,-11.19529,-1.37188,-4.67588,-42.1951,-34.8171,12.3171,-6.97,17.52,25.14,1,S01
22020,-11.05642,-0.05028,-3.67510,-33.5366,-3.9634,-14.3293,-6.97,17.52,25.14,1,S01
22040,-11.02051,1.14682,-1.00317,-28.9024,20.1829,-26.2805,-6.97,17.52,25.14,1,S01
22060,-10.26634,1.47722,-1.89860,-29.4512,10.6707,-27.5000,-4.77,18.44,24.31,1,S01
22080,-9.58638,1.35751,-2.14760,-33.9634,6.5854,-28.0488,-4.77,18.44,24.31,1,S01
22100,-8.93277,1.30723,-1.39343,-39.5732,7.5610,-31.6463,-4.77,18.44,24.31,1,S01
22120,-7.96072,1.47722,-0.58897,-42.7439,2.1341,-37.9268,-4.77,18.44,24.31,1,S01
22140,-6.86178,1.70228,-0.25857,-43.5976,-8.1707,-42.5610,-1.56,18.72,25.32,1,S01
22160,-5.66229,1.28808,-0.71587,-44.1463,-17.1951,-43.2927,-1.56,18.72,25.32,1,S01
22180,-4.80037,0.52912,-1.21147,-47.8659,-17.4390,-42.8049,-1.56,18.72,25.32,1,S01
22200,-4.82432,0.22984,-1.28808,-50.1829,-10.0610,-41.5244,0.83,18.81,25.96,1,S01
22220,-5.36780,-0.05986,-0.90022,-45.7927,-2.0122,-36.4634,0.83,18.81,25.96,1,S01
22240,-6.25365,-0.18675,-0.55306,-37.3171,2.1951,-29.7561,0.83,18.81,25.96,1,S01
22260,-7.03656,0.02634,-0.55545,-31.2195,1.6463,-22.1341,2.29,19.36,25.96,1,S01
22280,-7.59920,0.32322,-0.52672,-27.9268,0.4268,-13.2317,2.29,19.36,25.96,1,S01
22300,-8.18578,0.53151,-0.35195,-24.7561,1.2805,-4.5122,2.29,19.36,25.96,1,S01
22320,-9.05248,0.29449,0.12210,-20.3659,4.5122,2.1341,2.29,19.36,25.96,1,S01
22340,-9.67736,0.20351,0.67277,-16.8902,5.6098,4.2683,2.84,20.00,26.24,1,S01
22360,-10.06044,-0.14365,0.39265,-14.0854,1.5854,4.6951,2.84,20.00,26.24,1,S01
22380,-10.37408,-0.54588,0.63207,-12.9268,-0.4268,1.2805,2.84,20.00,26.24,1,S01
22400,-10.38126,-0.65601,1.13006,-10.9756,-3.9024,-4.8171,3.49,20.18,26.70,1,S01
22420,-9.91918,-0.64404,0.85952,-8.5366,-11.3415,-9.5732,3.49,20.18,26.70,1,S01
22440,-9.39006,-0.47166,0.43335,-6.4024,-15.4268,-10.5488,3.49,20.18,26.70,1,S01
22460,-9.16022,-0.39265,0.32801,-5.1220,-14.1463,-8.1707,3.85,20.00,27.16,1,S01
22480,-9.32781,-0.36871,0.65841,-4.8780,-11.4024,-5.5488,3.85,20.00,27.16,1,S01
22500,-9.81383,-0.15083,1.16837,-5.6098,-10.9756,-4.3293,3.85,20.00,27.16,1,S01
22520,-10.23761,0.46926,1.70228,-6.8902,-12.5610,-3.4756,3.85,20.00,27.16,1,S01
22540,-10.25676,1.01754,2.23858,-7.5000,-14.9390,-0.9146,4.59,19.36,27.98,1,S01
22560,-10.27112,1.42216,2.44209,-6.1585,-15.1220,2.9878,4.59,19.36,27.98,1,S01
22580,-10.60871,1.88424,1.80762,-4.3902,-10.7317,7.9268,4.59,19.36,27.98,1,S01
22600,-11.59272,1.41258,0.50996,-2.8659,-2.1341,16.0976,2.84,19.08,27.52,1,S01
22620,-13.49133,-0.67038,-1.56102,5.8537,8.1098,25.0610,2.84,19.08,27.52,1,S01
22640,-15.16008,-2.35589,-0.26576,14.6951,21.7683,27.1341,2.84,19.08,27.52,1,S01
22660,-14.35324,2.37744,0.46687,14.0854,-5.2439,2.3171,2.84,18.90,27.43,1,S01
22680,-11.31500,2.61207,-1.88663,11.3415,-28.4756,-2.1951,2.84,18.90,27.43,1,S01
22700,-9.16979,2.12605,-2.93529,-1.1585,-30.1220,-0.2439,2.84,18.90,27.43,1,S01
22720,-8.55448,1.83875,-2.68151,-16.1585,-15.7317,10.0610,2.84,18.90,27.43,1,S01
22740,-9.13149,0.31125,-1.33357,-20.6707,2.8659,25.3049,0.73,17.71,27.52,1,S01
22760,-9.49301,-1.51314,0.22027,-14.8780,13.9634,32.9268,0.73,17.71,27.52,1,S01
22780,-10.96305,-2.24337,0.26097,-5.6098,7.7439,30.4268,0.73,17.71,27.52,1,S01
22800,-8.98783,-0.92416,-0.04310,3.8415,-5.1220,28.2927,1.74,17.71,28.53,1,S01
22820,-7.75003,0.36392,-0.54109,11.5854,-10.1220,29.8171,1.74,17.71,28.53,1,S01
22840,-7.03656,1.17076,-0.33519,18.5366,-6.2195,30.7317,1.74,17.71,28.53,1,S01
22860,-6.53138,1.69509,-1.07979,25.6707,-4.8780,30.3659,-0.46,16.97,27.71,1,S01
22880,-6.50505,1.45328,-1.18034,29.0244,0.3659,31.2195,-0.46,16.97,27.71,1,S01
22900,-6.66306,1.29766,-1.07739,29.6341,5.1220,32.1341,-0.46,16.97,27.71,1,S01
22920,-7.01501,1.27850,-0.81642,28.5366,7.3780,32.0122,-0.46,16.97,27.71,1,S01
22940,-7.40766,1.26653,-0.84515,27.0122,6.7073,30.8537,-2.20,16.97,27.25,1,S01
22960,-7.70454,1.43652,-0.86910,25.9146,7.0732,27.3780,-2.20,16.97,27.25,1,S01
22980,-8.09001,1.88184,-0.81163,26.4634,10.3659,22.6220,-2.20,16.97,27.25,1,S01
23000,-8.51139,2.63602,-0.56982,25.6098,14.0244,19.7561,-3.58,17.34,26.51,1,S01
23020,-8.84658,3.20344,-0.19393,20.3049,15.0610,20.6098,-3.58,17.34,26.51,1,S01
23040,-9.04290,3.37582,0.15802,12.4390,13.3537,22.7439,-3.58,17.34,26.51,1,S01
23060,-9.02614,3.36625,0.17717,4.5122,10.0000,23.4146,-4.22,17.34,26.33,1,S01
23080,-8.94234,3.25611,0.38786,-3.7805,8.4756,22.9878,-4.22,17.34,26.33,1,S01
23100,-8.77475,2.70066,0.41180,-9.0854,6.6463,23.2927,-4.22,17.34,26.33,1,S01
23120,-8.60476,2.11408,0.38307,-10.4878,5.7317,21.4634,-4.22,17.34,26.33,1,S01
23140,-8.57603,1.82678,0.47884,-8.8415,7.8659,16.4024,-4.50,17.16,26.24,1,S01
23160,-8.57603,1.87945,0.70868,-6.2805,9.7561,11.1585,-4.50,17.16,26.24,1,S01
23180,-8.61673,1.96085,0.74220,-4.6951,9.7561,8.2927,-4.50,17.16,26.24,1,S01
23200,-8.85376,2.09732,1.08697,-3.7195,9.7561,5.7927,-4.59,17.71,25.96,1,S01
23220,-9.33260,2.13084,1.76932,-1.5244,8.1098,3.4146,-4.59,17.71,25.96,1,S01
23240,-9.97185,2.23140,2.54982,2.4390,3.1707,1.7073,-4.59,17.71,25.96,1,S01
23260,-10.48421,2.40378,2.61447,6.4634,-5.7317,1.7073,-4.59,17.43,26.51,1,S01
23280,-10.35732,2.97360,0.07422,4.7561,-14.5122,2.6829,-4.59,17.43,26.51,1,S01
23300,-9.92397,4.75249,-1.72143,-6.1585,-12.2561,1.7073,-4.59,17.43,26.51,1,S01
23320,-11.01812,6.65109,-1.28329,-12.7439,0.4268,0.0000,-4.59,17.43,26.51,1,S01
23340,-13.59188,6.44759,-0.02155,-12.4390,9.6341,3.4146,-6.15,17.06,24.86,1,S01
23360,-14.93264,3.88818,0.97683,-11.3415,9.1463,11.7073,-6.15,17.06,24.86,1,S01
23380,-14.29578,2.37744,-0.86670,-13.5976,-5.2439,9.3293,-6.15,17.06,24.86,1,S01
23400,-12.54562,1.45567,-1.34794,-5.9756,-14.2683,-2.0732,-4.31,16.97,26.61,1,S01
23420,-10.83616,1.41258,-1.91776,7.0732,-18.5366,-10.9146,-4.31,16.97,26.61,1,S01
23440,-9.72285,0.64643,-2.24337,15.2439,-20.7927,-14.6951,-4.31,16.97,26.61,1,S01
23460,-9.19134,-0.13408,-2.53307,16.5854,-18.7805,-19.7561,-5.32,16.51,26.06,1,S01
23480,-9.29908,0.34955,-2.03747,12.1951,-10.8537,-28.4756,-5.32,16.51,26.06,1,S01
23500,-9.27274,1.22823,-1.36948,6.0976,-6.7683,-34.1463,-5.32,16.51,26.06,1,S01
23520,-9.02614,1.77650,-0.71826,-0.6707,-7.9878,-35.6707,-5.32,16.51,26.06,1,S01
23540,-8.57124,1.66158,-0.40462,-6.4024,-13.0488,-34.8171,-3.12,16.88,26.51,1,S01
23560,-7.93438,1.21865,-0.49321,-10.3049,-18.6585,-34.0854,-3.12,16.88,26.51,1,S01
23580,-7.15148,0.73741,-0.58897,-12.6220,-21.3415,-33.4756,-3.12,16.88,26.51,1,S01
23600,-6.31830,0.48602,-0.98881,-14.5732,-21.5854,-32.3780,-1.93,16.61,27.34,1,S01
23620,-5.96874,0.46208,-1.34315,-16.6463,-16.8293,-31.0366,-1.93,16.61,27.34,1,S01
23640,-6.38294,0.55306,-1.18752,-17.1951,-7.0122,-29.5122,-1.93,16.61,27.34,1,S01
23660,-7.29753,0.51236,-0.71108,-16.4024,1.8293,-26.5854,-0.64,17.25,27.34,1,S01
23680,-8.20732,0.29449,-0.00958,-13.6585,6.4024,-22.3780,-0.64,17.25,27.34,1,S01
23700,-8.74123,0.00718,0.38547,-8.6585,4.4512,-18.6585,-0.64,17.25,27.34,1,S01
23720,-8.92319,-0.18435,0.49081,-2.0732,-0.5488,-16.3415,-0.64,17.25,27.34,1,S01
23740,-8.99262,-0.11971,0.53870,4.8171,-3.9634,-15.8537,-0.55,17.71,27.34,1,S01
23760,-9.05966,0.00958,0.62968,11.2805,-4.6951,-16.0976,-0.55,17.71,27.34,1,S01
23780,-9.20810,-0.05267,0.77572,17.7439,-4.8171,-15.1829,-0.55,17.71,27.34,1,S01
23800,-9.31584,-0.14605,0.90980,23.1098,-5.1220,-13.7195,-1.01,18.17,27.16,1,S01
23820,-9.33499,-0.02155,0.83318,26.8293,-5.6707,-12.1951,-1.01,18.17,27.16,1,S01
23840,-9.32781,0.21787,0.75178,27.6220,-6.2195,-10.7927,-1.01,18.17,27.16,1,S01
23860,-9.16500,0.43814,0.58897,26.4024,-7.1951,-9.8171,-1.47,18.26,27.06,1,S01
23880,-9.06684,0.56743,0.52194,24.3293,-6.6463,-8.7195,-1.47,18.26,27.06,1,S01
23900,-9.09078,0.61531,0.53151,22.0732,-4.6951,-7.1341,-1.47,18.26,27.06,1,S01
23920,-9.33739,0.59855,0.60094,19.0854,-2.0122,-4.7561,-1.47,18.26,27.06,1,S01
23940,-9.80426,0.71587,0.86910,14.2073,0.3049,-1.8293,-1.83,18.53,26.97,1,S01
23960,-10.46266,0.48363,1.53468,8.4146,2.1341,2.0732,-1.83,18.53,26.97,1,S01
23980,-11.15219,0.10534,1.74777,5.0610,1.1585,4.7561,-1.83,18.53,26.97,1,S01
24000,-11.50893,0.26336,1.86748,3.0488,-1.4634,5.8537,-2.02,17.98,27.16,1,S01
24020,-11.58075,0.46926,-0.28970,6.0366,-6.4024,7.4390,-2.02,17.98,27.16,1,S01
24040,-11.70525,-0.96007,-1.18513,17.0732,-3.3537,10.0610,-2.02,17.98,27.16,1,S01
24060,-13.30218,-1.94649,-0.74939,27.5000,11.9512,7.1951,-3.21,18.53,26.15,1,S01
24080,-14.34127,-0.02873,0.43574,27.4390,16.0366,-6.4634,-3.21,18.53,26.15,1,S01
24100,-13.58231,1.85311,-0.56024,23.4146,1.8293,-16.2195,-3.21,18.53,26.15,1,S01
24120,-11.28387,3.40216,-2.64080,17.9878,-12.3171,-12.8049,-3.21,18.53,26.15,1,S01
24140,-8.42759,1.28090,-2.44209,0.4878,7.0122,9.1463,-5.14,17.71,26.06,1,S01
24160,-8.31267,0.24181,-1.62566,5.2439,17.6220,16.8902,-5.14,17.71,26.06,1,S01
24180,-8.59997,-0.22027,-0.84276,15.1220,22.8659,22.7439,-5.14,17.71,26.06,1,S01
24200,-8.99023,-0.26815,-0.08380,24.3293,23.3537,23.9634,-4.86,18.44,25.50,1,S01
24220,-8.98783,-0.07901,0.07901,32.0122,16.2805,20.8537,-4.86,18.44,25.50,1,S01
24240,-8.49463,0.35913,-0.28970,39.0244,6.2195,17.6220,-4.86,18.44,25.50,1,S01
24260,-7.89129,1.24259,-0.79248,46.2805,-0.2439,15.9146,-6.88,17.98,24.59,1,S01
24280,-7.56089,1.94409,-1.10373,50.6098,-1.1585,15.9756,-6.88,17.98,24.59,1,S01
24300,-7.53455,2.11408,-1.13006,48.4756,-0.4268,16.8902,-6.88,17.98,24.59,1,S01
24320,-7.81467,1.89621,-0.83318,42.4390,-0.6098,17.3171,-6.88,17.98,24.59,1,S01
24340,-8.28873,1.60412,-0.47645,38.2927,-2.5610,16.6463,-8.81,17.43,23.76,1,S01
24360,-8.69574,1.31442,-0.34716,37.2561,-6.4634,15.1220,-8.81,17.43,23.76,1,S01
24380,-8.91361,1.13485,-0.34716,37.0122,-10.8537,13.5976,-8.81,17.43,23.76,1,S01
24400,-8.91601,1.17555,-0.50039,37.8659,-14.2683,11.9512,-10.18,16.79,23.21,1,S01
24420,-8.80348,1.26174,-0.76136,38.6585,-16.1585,11.0366,-10.18,16.79,23.21,1,S01
24440,-8.79390,1.44610,-0.96965,38.8415,-15.8537,10.0610,-10.18,16.79,23.21,1,S01
24460,-8.88728,1.65200,-1.07500,38.5976,-14.2683,9.0244,-11.65,16.42,22.57,1,S01
24480,-9.00938,1.74537,-1.01275,38.0488,-12.7439,8.4756,-11.65,16.42,22.57,1,S01
24500,-9.10754,1.78129,-0.83797,37.8049,-12.0122,8.2927,-11.65,16.42,22.57,1,S01
24520,-9.08600,1.74777,-0.75657,37.9878,-13.1098,8.4146,-11.65,16.42,22.57,1,S01
24540,-8.95192,1.56820,-0.87388,38.4756,-15.0000,8.5976,-12.84,15.69,22.11,1,S01
24560,-8.80109,1.43652,-0.99838,39.9390,-14.8171,8.2317,-12.84,15.69,22.11,1,S01
24580,-8.76278,1.45807,-1.06781,41.8293,-12.3171,7.0732,-12.84,15.69,22.11,1,S01
24600,-8.84179,1.68791,-1.00796,42.9268,-9.2683,5.7927,-14.31,15.32,21.01,1,S01
24620,-9.00459,1.91057,-0.88107,42.9878,-7.6220,5.0610,-14.31,15.32,21.01,1,S01
24640,-9.14825,1.98479,-0.80924,43.8415,-7.7439,4.7561,-14.31,15.32,21.01,1,S01
24660,-9.27993,1.83875,-0.71826,45.9756,-8.4146,5.0000,-15.69,15.05,19.91,1,S01
24680,-9.37569,1.44370,-0.45250,49.5122,-9.6951,5.5488,-15.69,15.05,19.91,1,S01
24700,-9.41161,0.96965,-0.06225,54.8781,-12.8049,5.7317,-15.69,15.05,19.91,1,S01
24720,-9.39964,0.82121,0.18914,61.4634,-17.6829,4.5732,-15.69,15.05,19.91,1,S01
24740,-9.41640,1.03669,0.12929,68.2927,-23.4756,1.4634,-17.25,14.50,18.35,1,S01
24760,-9.37091,1.47243,-0.43574,74.4512,-28.3537,-2.3171,-17.25,14.50,18.35,1,S01
24780,-9.20571,2.15957,-1.18034,78.3537,-29.2073,-4.8780,-17.25,14.50,18.35,1,S01
24800,-9.07163,3.09810,-1.74537,76.7073,-25.0610,-5.5488,-19.36,14.22,16.15,1,S01
24820,-9.28471,4.00550,-1.91057,69.1463,-16.8293,-3.2317,-19.36,14.22,16.15,1,S01
24840,-9.56005,4.22816,-1.47722,59.8781,-8.9024,2.6220,-19.36,14.22,16.15,1,S01
24860,-9.36133,3.55300,-0.68953,49.9390,-7.3780,7.1341,-20.00,14.04,14.95,1,S01
24880,-9.01417,2.50434,-0.24181,41.4634,-10.7927,6.8902,-20.00,14.04,14.95,1,S01
24900,-8.88488,1.34075,0.04310,38.6585,-12.9878,4.4512,-20.00,14.04,14.95,1,S01
24920,-8.76517,0.29928,-0.23463,41.4024,-14.7561,0.7927,-20.00,14.04,14.95,1,S01
24940,-8.84897,0.37350,-0.75657,48.2317,-13.9634,-4.4512,-20.92,13.94,13.67,1,S01
24960,-9.22725,0.78290,-0.55306,56.2195,-8.2317,-6.8902,-20.92,13.94,13.67,1,S01
24980,-9.74201,1.07739,-0.36152,62.7439,-3.5366,-6.1585,-20.92,13.94,13.67,1,S01
25000,-10.45787,0.61770,0.13168,64.5732,-2.8659,-5.0000,-21.83,14.22,11.28,1,S01
25020,-9.70131,0.96726,-0.39983,64.2683,-10.9756,-1.8293,-21.83,14.22,11.28,1,S01
25040,-9.18176,0.97444,-0.39025,56.4024,-12.9268,2.8049,-21.83,14.22,11.28,1,S01
25060,-9.21768,1.03908,-0.15083,51.3415,-7.9268,2.1341,-22.57,14.13,9.54,1,S01
25080,-9.43076,1.03430,0.29928,49.7561,-3.5366,-0.9756,-22.57,14.13,9.54,1,S01
25100,-9.76116,1.05345,0.71587,48.0488,-1.3415,-2.8049,-22.57,14.13,9.54,1,S01
25120,-9.91678,0.87149,0.73263,44.8780,-2.9268,-2.4390,-22.57,14.13,9.54,1,S01
25140,-9.76355,0.62968,0.49799,42.3171,-5.6098,-1.7073,-22.94,14.31,8.07,1,S01
25160,-9.39724,0.59376,0.12450,39.5732,-6.8902,-1.6463,-22.94,14.31,8.07,1,S01
25180,-9.17698,0.77812,-0.10295,35.6098,-5.7317,-1.5854,-22.94,14.31,8.07,1,S01
25200,-9.19373,0.82121,-0.01437,31.9512,-3.5366,-0.6707,-23.21,14.31,6.88,1,S01
25220,-9.35893,0.78530,0.09816,29.4512,-1.9512,0.6098,-23.21,14.31,6.88,1,S01
25240,-9.55526,0.80445,0.14365,27.8049,-1.4024,1.1585,-23.21,14.31,6.88,1,S01
25260,-9.81144,0.73741,0.12210,26.8902,-1.5244,1.0976,-23.30,14.22,5.96,1,S01
25280,-9.93833,0.76854,-0.10295,26.7683,-2.9268,0.7317,-23.30,14.22,5.96,1,S01
25300,-9.95749,0.79009,-0.32082,27.4390,-5.4268,0.1829,-23.30,14.22,5.96,1,S01
25320,-9.92397,0.99359,-0.97923,28.9634,-8.7805,-0.5488,-23.30,14.22,5.96,1,S01
25340,-9.86411,1.21147,-1.24498,31.1585,-9.5732,0.2439,-23.76,14.04,4.59,1,S01
25360,-9.92876,1.19950,-0.42617,34.4512,-6.1585,-1.2805,-23.76,14.04,4.59,1,S01
25380,-9.73722,1.49398,-0.14365,38.7195,-5.2439,-7.7439,-23.76,14.04,4.59,1,S01
25400,-9.13627,1.81959,-0.33519,38.4756,-8.7805,-10.2439,-23.58,14.59,3.39,1,S01
25420,-8.48505,1.82199,-0.83318,32.6220,-11.4634,-6.9512,-23.58,14.59,3.39,1,S01
25440,-8.40844,1.44610,-0.91698,28.2927,-9.0854,-1.7073,-23.58,14.59,3.39,1,S01
25460,-9.09078,1.13246,-0.45729,27.0732,-3.9024,0.7317,-23.49,14.59,2.39,1,S01
25480,-9.90002,1.36948,0.08140,26.2805,-1.5854,-0.6098,-23.49,14.59,2.39,1,S01
25500,-10.23282,1.87466,0.34955,23.9634,-4.8171,-2.1341,-23.49,14.59,2.39,1,S01
25520,-9.88805,2.14520,0.26576,19.8171,-11.5244,-1.2195,-23.49,14.59,2.39,1,S01
25540,-9.36851,2.05901,0.12450,16.4024,-15.9756,0.4268,-23.85,14.40,1.83,1,S01
25560,-9.02135,1.68791,-0.31364,15.4878,-17.0122,1.3415,-23.85,14.40,1.83,1,S01
25580,-9.02375,1.40300,-0.48842,15.3659,-14.2073,0.9146,-23.85,14.40,1.83,1,S01
25600,-9.30866,1.44610,-0.29688,15.1220,-10.3659,-0.3659,-23.76,14.59,1.38,1,S01
25620,-9.56723,1.53947,-0.15802,14.9390,-9.1463,-0.6707,-23.76,14.59,1.38,1,S01
25640,-9.51216,1.66636,-0.19872,13.4756,-9.2683,-1.2195,-23.76,14.59,1.38,1,S01
25660,-9.38527,1.79086,-0.29688,10.8537,-9.8780,-1.5244,-23.85,14.59,1.01,1,S01
25680,-9.28471,1.86269,-0.41180,7.7439,-10.3659,-1.2805,-23.85,14.59,1.01,1,S01
25700,-9.29669,1.87945,-0.35674,4.2073,-9.5122,-0.6707,-23.85,14.59,1.01,1,S01
25720,-9.38288,1.77171,-0.28012,0.6707,-8.7805,0.2439,-23.85,14.59,1.01,1,S01
25740,-9.42358,1.60890,-0.30885,-2.3171,-8.5976,0.7927,-23.76,14.59,1.10,1,S01
25760,-9.36612,1.43413,-0.38307,-4.2683,-8.2927,0.6098,-23.76,14.59,1.10,1,S01
25780,-9.27514,1.34315,-0.45729,-4.7561,-7.5000,-0.1829,-23.76,14.59,1.10,1,S01
25800,-9.22965,1.33836,-0.48842,-4.2683,-6.0976,-0.7927,-23.76,14.59,1.28,1,S01
25820,-9.26077,1.35512,-0.50278,-3.8415,-4.6341,-0.8537,-23.76,14.59,1.28,1,S01
25840,-9.31105,1.43892,-0.43335,-4.4512,-3.1098,-0.5488,-23.76,14.59,1.28,1,S01
25860,-9.37330,1.52511,-0.27773,-5.9146,-1.7073,0.0000,-23.76,14.68,1.28,1,S01
25880,-9.38527,1.51314,-0.19393,-6.8293,-1.2805,0.4878,-23.76,14.68,1.28,1,S01
25900,-9.39964,1.47243,-0.17478,-7.0122,-1.2805,0.7927,-23.76,14.68,1.28,1,S01
25920,-9.43076,1.44131,-0.16999,-7.4390,-1.0976,0.7927,-23.76,14.68,1.28,1,S01
25940,-9.39964,1.44370,-0.21069,-8.0488,-1.0366,0.6707,-23.76,14.68,1.65,1,S01
25960,-9.39485,1.43413,-0.23703,-8.6585,-0.6707,0.6098,-23.76,14.68,1.65,1,S01
25980,-9.46428,1.44610,-0.11492,-9.6341,0.3659,0.3659,-23.76,14.68,1.65,1,S01
26000,-9.55765,1.38145,-0.05507,-10.6098,0.6707,0.3049,-23.67,14.68,1.65,1,S01
26020,-9.60793,1.35033,-0.08859,-11.1585,-0.3659,0.3049,-23.67,14.68,1.65,1,S01
26040,-9.54089,1.39103,-0.06704,-11.8902,-1.5854,0.4268,-23.67,14.68,1.65,1,S01
26060,-9.42118,1.41497,-0.03112,-13.0488,-2.5000,0.7317,-23.76,14.59,2.02,1,S01
26080,-9.37569,1.38864,-0.07183,-13.7805,-2.7439,0.9756,-23.76,14.59,2.02,1,S01
26100,-9.40442,1.32399,-0.04310,-14.0854,-2.1341,1.0976,-23.76,14.59,2.02,1,S01
26120,-9.45949,1.26174,0.03591,-14.2073,-1.5244,0.9756,-23.76,14.59,2.02,1,S01
26140,-9.50259,1.21625,0.07183,-14.0854,-1.3415,0.7317,-23.67,14.77,2.48,1,S01
26160,-9.50498,1.24020,0.05267,-13.6585,-1.5854,0.7317,-23.67,14.77,2.48,1,S01
26180,-9.49780,1.26414,0.03591,-13.5366,-1.9512,0.6707,-23.67,14.77,2.48,1,S01
26200,-9.43555,1.29766,-0.01197,-13.7805,-2.4390,0.4268,-23.58,14.68,2.84,1,S01
26220,-9.45470,1.33357,0.00479,-13.8415,-2.5000,0.1220,-23.58,14.68,2.84,1,S01
26240,-9.50019,1.37427,-0.00958,-13.9634,-2.5610,0.3659,-23.58,14.68,2.84,1,S01
26260,-9.50498,1.35512,0.04310,-14.3902,-2.7439,1.3415,-23.58,14.59,3.03,1,S01
26280,-9.48583,1.35272,0.03831,-14.5732,-3.0488,2.1341,-23.58,14.59,3.03,1,S01
26300,-9.44752,1.39103,0.03352,-14.9390,-3.2317,2.3780,-23.58,14.59,3.03,1,S01
26320,-9.41161,1.46765,0.00958,-15.7927,-3.1707,2.0122,-23.58,14.59,3.03,1,S01
26340,-9.40442,1.35751,0.03112,-17.1341,-2.5000,1.7073,-23.58,14.50,3.76,1,S01
26360,-9.36612,1.30723,0.09816,-17.5000,-1.7073,1.2195,-23.58,14.50,3.76,1,S01
26380,-9.38767,1.29287,0.09098,-17.1951,-1.1585,0.3049,-23.58,14.50,3.76,1,S01
26400,-9.38048,1.33596,0.06464,-17.1951,-0.9146,-0.3659,-23.49,14.50,4.04,1,S01
26420,-9.31823,1.39103,0.05267,-17.5610,-1.3415,0.2439,-23.49,14.50,4.04,1,S01
26440,-9.26317,1.39103,0.00718,-17.8049,-1.8293,1.4024,-23.49,14.50,4.04,1,S01
26460,-9.29190,1.46525,0.06225,-17.6829,-1.0976,2.6220,-23.49,14.40,4.59,1,S01
26480,-9.35654,1.48680,0.05746,-18.0488,-0.3659,3.2927,-23.49,14.40,4.59,1,S01
26500,-9.47146,1.54905,0.10056,-18.7195,0.2439,3.2317,-23.49,14.40,4.59,1,S01
26520,-9.54329,1.71185,0.15323,-19.0854,0.0610,2.7439,-23.49,14.40,4.59,1,S01
26540,-9.48104,1.88903,0.20111,-19.5732,-0.8537,2.1951,-23.39,14.40,5.23,1,S01
26560,-9.30866,1.74058,0.09337,-20.5488,-2.2561,2.2561,-23.39,14.40,5.23,1,S01
26580,-9.27993,1.44370,0.03352,-20.5488,-2.3171,2.9878,-23.39,14.40,5.23,1,S01
26600,-9.29190,1.30963,0.12929,-19.6951,-2.1341,4.0244,-23.39,14.22,5.78,1,S01
26620,-9.30387,1.29766,0.21787,-19.0854,-2.6829,4.7561,-23.39,14.22,5.78,1,S01
26640,-9.36133,1.41976,0.24421,-19.0854,-3.4146,5.1829,-23.39,14.22,5.78,1,S01
26660,-9.41879,1.64482,0.22505,-19.3293,-4.2073,5.9146,-23.49,13.94,6.42,1,S01
26680,-9.45949,1.78847,0.16759,-20.6098,-5.1220,7.3171,-23.49,13.94,6.42,1,S01
26700,-9.45949,1.74298,0.17957,-22.2561,-5.2439,9.1463,-23.49,13.94,6.42,1,S01
26720,-9.41879,1.63285,0.28012,-22.9878,-4.5732,10.3049,-23.49,13.94,6.42,1,S01
26740,-9.35415,1.54665,0.42138,-22.7439,-3.9024,9.9390,-23.49,13.49,7.25,1,S01
26760,-9.27274,1.46765,0.33519,-21.7683,-4.0244,8.5976,-23.49,13.49,7.25,1,S01
26780,-9.22965,1.43652,0.26336,-20.6098,-3.5366,7.0122,-23.49,13.49,7.25,1,S01
26800,-9.20571,1.47483,0.26576,-19.2073,-1.8293,5.7927,-23.58,13.30,7.80,1,S01
26820,-9.20331,1.47243,0.29928,-17.6829,0.5488,5.4268,-23.58,13.30,7.80,1,S01
26840,-9.19373,1.38385,0.23224,-15.8537,2.4390,5.6707,-23.58,13.30,7.80,1,S01
26860,-9.19134,1.36948,0.11971,-14.0244,3.6585,5.9146,-23.49,13.12,7.89,1,S01
26880,-9.27993,1.48680,-0.00718,-12.8049,4.8171,6.1585,-23.49,13.12,7.89,1,S01
26900,-9.39964,1.58017,0.04788,-12.2561,6.1585,6.2195,-23.49,13.12,7.89,1,S01
26920,-9.46428,1.61130,0.11971,-11.7073,6.0366,5.9146,-23.49,13.12,7.89,1,S01
26940,-9.48343,1.60172,0.03831,-10.7317,4.4512,5.3049,-23.67,13.03,7.98,1,S01
26960,-9.50019,1.50116,-0.10774,-9.8780,3.4146,4.4512,-23.67,13.03,7.98,1,S01
26980,-9.51216,1.37906,-0.22984,-8.5366,3.3537,3.5366,-23.67,13.03,7.98,1,S01
27000,-9.49780,1.30963,-0.27533,-6.6463,3.4756,2.1951,-23.67,13.30,7.98,1,S01
27020,-9.50259,1.27372,-0.11971,-5.0000,3.2317,0.5488,-23.67,13.30,7.98,1,S01
27040,-9.53132,1.27372,0.07183,-3.3537,2.3171,-1.0366,-23.67,13.30,7.98,1,S01
27060,-9.52892,1.29287,0.27294,-1.5854,1.2805,-1.9512,-23.49,13.39,7.89,1,S01
27080,-9.56962,1.34554,0.39744,0.2439,0.4268,-2.3171,-23.49,13.39,7.89,1,S01
27100,-9.68933,1.64721,0.54109,-1.6463,0.4268,-0.9756,-23.49,13.39,7.89,1,S01
27120,-9.79229,1.74537,0.65841,-6.6463,1.1585,-0.1829,-23.49,13.39,7.89,1,S01
27140,-9.81623,1.71425,0.75896,-10.8537,1.0366,0.0610,-23.39,13.39,7.98,1,S01
27160,-9.69652,1.63045,0.71587,-13.8415,-0.1829,-0.0610,-23.39,13.39,7.98,1,S01
27180,-9.50498,1.65439,0.65601,-16.4634,-1.0976,-0.4268,-23.39,13.39,7.98,1,S01
27200,-9.37809,1.71425,0.59616,-19.6341,-1.0366,-0.4878,-23.21,13.39,8.62,1,S01
27220,-9.33020,1.76932,0.70868,-23.1098,-0.1220,0.0610,-23.21,13.39,8.62,1,S01
27240,-9.29908,1.83396,0.75417,-25.4268,-0.2439,0.9756,-23.21,13.39,8.62,1,S01
27260,-9.33260,1.92015,0.59137,-27.1951,-0.7317,2.6220,-22.94,13.30,9.45,1,S01
27280,-9.51695,1.85790,-0.13886,-27.9878,-0.3049,5.1829,-22.94,13.30,9.45,1,S01
27300,-9.74679,1.50356,-0.62968,-24.6951,3.7805,7.5610,-22.94,13.30,9.45,1,S01
27320,-9.89284,1.46286,-0.32561,-22.1341,9.7561,5.7927,-22.94,13.30,9.45,1,S01
27340,-9.85214,1.78607,0.24421,-25.6098,11.7683,-1.2195,-22.75,13.03,9.82,1,S01
27360,-9.44273,2.40617,0.04070,-27.8049,4.8780,-5.6707,-22.75,13.03,9.82,1,S01
27380,-8.82982,1.83875,-0.34716,-30.9756,-4.3293,-5.1220,-22.75,13.03,9.82,1,S01
27400,-8.60237,1.57299,-0.48123,-32.1951,-5.1220,-3.2317,-22.75,13.30,10.73,1,S01
27420,-8.74841,1.50835,-0.23942,-33.0488,0.1829,-1.0366,-22.75,13.30,10.73,1,S01
27440,-9.02614,1.34794,0.13168,-33.9024,4.1463,0.7317,-22.75,13.30,10.73,1,S01
27460,-9.23683,1.25935,0.14365,-32.8659,3.6585,2.0732,-22.02,13.39,11.83,1,S01
27480,-9.44273,1.43173,-0.00239,-31.4024,2.1341,2.0122,-22.02,13.39,11.83,1,S01
27500,-9.59117,1.49398,0.00479,-30.7927,2.6220,1.7073,-22.02,13.39,11.83,1,S01
27520,-9.59835,1.56102,-0.00479,-29.6951,3.7805,1.7683,-22.02,13.39,11.83,1,S01
27540,-9.52653,1.69749,-0.04549,-27.8049,4.3293,2.3171,-21.65,13.39,12.57,1,S01
27560,-9.39485,1.86748,-0.10774,-26.6463,3.6585,3.0488,-21.65,13.39,12.57,1,S01
27580,-9.31823,2.02549,-0.20351,-26.7683,2.3780,3.7195,-21.65,13.39,12.57,1,S01
27600,-9.40442,2.21224,-0.12210,-27.9268,1.7683,3.9634,-21.38,13.30,13.21,1,S01
27620,-9.40682,2.22182,-0.03831,-29.3902,0.3049,4.0854,-21.38,13.30,13.21,1,S01
27640,-9.30147,2.15957,-0.05986,-30.9146,-2.3780,4.5122,-21.38,13.30,13.21,1,S01
27660,-9.13627,2.14042,-0.11971,-31.7683,-4.5122,5.3659,-21.10,12.94,14.13,1,S01
27680,-8.99262,1.98240,-0.06704,-32.4390,-5.1829,6.8293,-21.10,12.94,14.13,1,S01
27700,-8.93756,1.66636,0.04070,-31.8902,-4.6341,8.5366,-21.10,12.94,14.13,1,S01
27720,-8.99980,1.19950,0.22266,-29.0244,-2.8659,9.5122,-21.10,12.94,14.13,1,S01
27740,-9.18895,0.84515,0.37110,-23.9024,-0.9756,9.0244,-20.83,12.57,14.95,1,S01
27760,-9.24880,0.77572,0.33040,-18.0488,-0.2439,7.8049,-20.83,12.57,14.95,1,S01
27780,-9.32542,0.93613,0.34716,-12.7439,0.7317,6.6463,-20.83,12.57,14.95,1,S01
27800,-9.44991,1.09415,0.41180,-7.6220,1.7073,6.0366,-20.92,12.48,14.86,1,S01
27820,-9.64384,1.18274,0.44293,-2.5610,1.7073,5.4878,-20.92,12.48,14.86,1,S01
27840,-9.76834,1.24738,0.38307,1.7073,0.3049,4.7561,-20.92,12.48,14.86,1,S01
27860,-9.70609,1.24020,0.38786,4.5732,-1.6463,3.6585,-21.19,12.48,14.40,1,S01
27880,-9.56962,1.31202,0.38068,7.0122,-3.4146,2.2561,-21.19,12.48,14.40,1,S01
27900,-9.48104,1.49638,0.38547,9.4512,-4.2683,0.6707,-21.19,12.48,14.40,1,S01
27920,-9.49301,1.69749,0.39744,11.2195,-4.6341,-0.5488,-21.19,12.48,14.40,1,S01
27940,-9.46907,1.79326,0.37110,11.0366,-5.3049,-1.2195,-21.38,12.57,14.13,1,S01
27960,-9.47386,1.90578,0.32801,9.6341,-5.7927,-1.7683,-21.38,12.57,14.13,1,S01
27980,-9.48343,1.98000,0.29449,7.2561,-5.8537,-1.8902,-21.38,12.57,14.13,1,S01
28000,-9.44034,1.89621,0.23703,4.5732,-6.0976,-1.5854,-21.47,12.48,13.85,1,S01
28020,-9.33260,1.71185,0.22027,2.5610,-5.8537,-1.2195,-21.47,12.48,13.85,1,S01
28040,-9.23444,1.51792,0.34477,2.2561,-4.6951,-1.2195,-21.47,12.48,13.85,1,S01
28060,-9.24641,1.41258,0.42617,3.2317,-3.5366,-1.7073,-21.47,12.66,13.67,1,S01
28080,-9.36133,1.47004,0.33519,4.2683,-2.9268,-2.2561,-21.47,12.66,13.67,1,S01
28100,-9.47625,1.69031,0.27294,3.8415,-2.2561,-2.1951,-21.47,12.66,13.67,1,S01
28120,-9.49780,1.84832,0.30167,1.9512,-1.9512,-1.6463,-21.47,12.66,13.67,1,S01
28140,-9.46907,1.92733,0.32082,0.3049,-2.6220,-1.4634,-21.56,12.66,13.49,1,S01
28160,-9.41161,1.93930,0.27294,-0.1220,-3.4146,-1.7073,-21.56,12.66,13.49,1,S01
28180,-9.40203,1.93452,0.23224,-0.6707,-3.3537,-1.9512,-21.56,12.66,13.49,1,S01
28200,-9.37569,1.88424,0.22984,-2.1951,-2.9268,-2.0122,-21.56,12.75,13.58,1,S01
28220,-9.33260,1.83396,0.28012,-4.0244,-2.7439,-2.0732,-21.56,12.75,13.58,1,S01
28240,-9.30147,1.75256,0.32561,-5.3049,-2.8049,-2.1341,-21.56,12.75,13.58,1,S01
28260,-9.29190,1.66397,0.30885,-6.0976,-2.8659,-2.0732,-21.38,12.75,13.67,1,S01
28280,-9.28471,1.62327,0.31364,-6.0366,-2.5610,-1.7073,-21.38,12.75,13.67,1,S01
28300,-9.31823,1.64960,0.33279,-5.1220,-1.9512,-1.0976,-21.38,12.75,13.67,1,S01
28320,-9.38048,1.68552,0.35195,-4.0244,-1.7073,-0.6098,-21.38,12.75,13.67,1,S01
28340,-9.42118,1.71425,0.39744,-2.9878,-2.1341,-0.6098,-21.47,12.75,13.58,1,S01
28360,-9.41879,1.71425,0.41899,-1.8293,-3.1707,-1.0366,-21.47,12.75,13.58,1,S01
28380,-9.39964,1.69509,0.43574,-0.6098,-4.1463,-1.4024,-21.47,12.75,13.58,1,S01
28400,-9.36612,1.68312,0.45969,0.6707,-4.6951,-1.7683,-21.47,12.94,13.39,1,S01
28420,-9.36851,1.64482,0.43574,1.8293,-5.1220,-2.0122,-21.47,12.94,13.39,1,S01
28440,-9.39724,1.67594,0.42856,2.9878,-5.3659,-1.8902,-21.47,12.94,13.39,1,S01
28460,-9.39724,1.72861,0.45011,3.7195,-5.9146,-1.5244,-21.56,12.84,13.30,1,S01
28480,-9.37330,1.74298,0.48123,3.9024,-6.4634,-0.9756,-21.56,12.84,13.30,1,S01
28500,-9.35175,1.70946,0.50996,3.9634,-6.6463,-0.4878,-21.56,12.84,13.30,1,S01
28520,-9.33260,1.67355,0.47884,4.3293,-6.8293,-0.1829,-21.56,12.84,13.30,1,S01
28540,-9.34457,1.68552,0.46687,4.5122,-6.5854,-0.0610,-21.65,12.75,13.03,1,S01
28560,-9.35175,1.69988,0.50757,4.3902,-6.2805,0.0610,-21.65,12.75,13.03,1,S01
28580,-9.34936,1.73101,0.48602,3.9634,-6.1585,0.1220,-21.65,12.75,13.03,1,S01
28600,-9.33260,1.79326,0.53151,2.2561,-5.6098,0.1829,-21.83,12.84,12.84,1,S01
28620,-9.27753,1.71904,0.59855,1.8293,-5.3049,0.0610,-21.83,12.84,12.84,1,S01
28640,-9.25359,1.60651,0.65122,2.3171,-4.4512,-0.3049,-21.83,12.84,12.84,1,S01
28660,-9.28471,1.55384,0.70629,2.9878,-3.4146,-0.6098,-21.93,12.84,12.57,1,S01
28680,-9.33499,1.53468,0.72544,3.6585,-2.8049,-0.9146,-21.93,12.84,12.57,1,S01
28700,-9.37569,1.57538,0.67995,4.3902,-2.6220,-1.0366,-21.93,12.84,12.57,1,S01
28720,-9.38527,1.66397,0.62489,4.6341,-2.5610,-0.9146,-21.93,12.84,12.57,1,S01
28740,-9.38527,1.73819,0.58179,4.2073,-2.5610,-0.6707,-21.93,12.66,12.39,1,S01
28760,-9.39724,1.75734,0.57940,3.5366,-2.6220,-0.6098,-21.93,12.66,12.39,1,S01
28780,-9.39964,1.73340,0.58419,3.1707,-2.8049,-0.6707,-21.93,12.66,12.39,1,S01
28800,-9.39006,1.69749,0.59616,2.9878,-3.0488,-0.7927,-22.02,12.94,12.02,1,S01
28820,-9.35654,1.66397,0.57940,2.7439,-3.3537,-0.8537,-22.02,12.94,12.02,1,S01
28840,-9.32542,1.63763,0.56024,2.2561,-3.3537,-0.7317,-22.02,12.94,12.02,1,S01
28860,-9.30866,1.66397,0.56982,1.5854,-2.8659,-0.6098,-22.02,12.94,11.83,1,S01
28880,-9.34218,1.66158,0.56982,1.0366,-2.3780,-0.3659,-22.02,12.94,11.83,1,S01
28900,-9.36851,1.64721,0.56264,0.6707,-2.1341,-0.1829,-22.02,12.94,11.83,1,S01
28920,-9.35415,1.67834,0.53870,0.4878,-2.1951,-0.1220,-22.02,12.94,11.83,1,S01
28940,-9.33978,1.71185,0.53630,0.1829,-2.1951,-0.1829,-22.20,13.03,11.74,1,S01
28960,-9.35893,1.68552,0.56264,-0.1829,-2.0122,-0.1829,-22.20,13.03,11.74,1,S01
28980,-9.37569,1.64960,0.56264,-0.1220,-1.9512,-0.1220,-22.20,13.03,11.74,1,S01
29000,-9.38288,1.63763,0.55067,-0.0610,-1.9512,-0.1220,-22.20,12.94,11.74,1,S01
29020,-9.35893,1.64482,0.55067,-0.3049,-1.7683,-0.1220,-22.20,12.94,11.74,1,S01
29040,-9.33739,1.64003,0.54109,-0.6707,-1.7073,-0.0610,-22.20,12.94,11.74,1,S01
29060,-9.32302,1.64721,0.54348,-1.0976,-1.4634,0.0610,-22.20,13.03,11.56,1,S01
29080,-9.35654,1.64960,0.55306,-1.5244,-1.1585,0.1220,-22.20,13.03,11.56,1,S01
29100,-9.39006,1.64960,0.53391,-1.9512,-1.1585,0.2439,-22.20,13.03,11.56,1,S01
29120,-9.39964,1.66636,0.53870,-2.5000,-1.4024,0.4268,-22.20,13.03,11.56,1,S01
29140,-9.38048,1.67594,0.53870,-3.1098,-1.8293,0.4878,-22.29,12.94,11.47,1,S01
29160,-9.36851,1.65200,0.53391,-3.5976,-2.0122,0.5488,-22.29,12.94,11.47,1,S01
29180,-9.37330,1.62327,0.54348,-3.9024,-1.9512,0.4878,-22.29,12.94,11.47,1,S01
29200,-9.38288,1.59693,0.56024,-4.0854,-1.8902,0.4268,-22.29,12.94,11.47,1,S01
29220,-9.37091,1.58975,0.55067,-4.0244,-1.9512,0.4878,-22.29,12.94,11.47,1,S01
29240,-9.35175,1.58496,0.54109,-3.9024,-2.0122,0.4878,-22.29,12.94,11.47,1,S01
29260,-9.32781,1.60172,0.55306,-3.9024,-2.0122,0.5488,-22.29,12.94,11.47,1,S01
29280,-9.31823,1.60412,0.57461,-4.0244,-1.9512,0.6707,-22.29,12.94,11.47,1,S01
29300,-9.33020,1.58017,0.56024,-3.9634,-1.8293,0.7317,-22.29,12.94,11.47,1,S01
29320,-9.33978,1.55144,0.53870,-3.3537,-1.1585,0.6098,-22.29,12.94,11.47,1,S01
29340,-9.33978,1.58257,0.58179,-1.3415,-0.1220,0.3049,-22.29,12.94,11.38,1,S01
29360,-9.29429,1.57778,0.57700,1.4024,0.3049,-0.1220,-22.29,12.94,11.38,1,S01
29380,-9.35415,1.55384,0.56743,3.4756,0.9146,-0.6707,-22.29,12.94,11.38,1,S01
29400,-9.40442,1.47004,0.58897,3.7195,1.0976,-1.2805,-22.39,13.12,11.01,1,S01
29420,-9.47386,1.43652,0.62489,3.7805,0.6098,-2.0122,-22.39,13.12,11.01,1,S01
29440,-9.51216,1.44131,0.61052,4.5732,-0.9146,-2.5000,-22.39,13.12,11.01,1,S01
29460,-9.48822,1.44610,0.61770,5.2439,-2.3780,-2.5610,-22.48,13.21,10.73,1,S01
29480,-9.48583,1.46525,0.57221,6.2805,-3.2317,-2.6829,-22.48,13.21,10.73,1,S01
29500,-9.53371,1.48680,0.59855,7.9878,-3.7195,-2.9268,-22.48,13.21,10.73,1,S01
29520,-9.59357,1.54905,0.60094,9.5122,-5.1829,-3.1098,-22.48,13.21,10.73,1,S01
29540,-9.55047,1.59693,0.53151,9.0854,-7.7439,-3.1707,-22.66,13.21,10.46,1,S01
29560,-9.49780,1.58496,0.43814,6.7683,-9.6341,-3.0488,-22.66,13.21,10.46,1,S01
29580,-9.46189,1.54665,0.40223,3.4756,-10.4878,-2.6829,-22.66,13.21,10.46,1,S01
29600,-9.50019,1.43173,0.42138,0.9146,-10.9756,-2.5000,-22.57,13.21,10.46,1,S01
29620,-9.44273,1.37906,0.45729,0.1829,-11.8293,-2.4390,-22.57,13.21,10.46,1,S01
29640,-9.37330,1.36470,0.46448,0.0610,-12.6829,-2.0732,-22.57,13.21,10.46,1,S01
29660,-9.34218,1.35751,0.48363,-0.1220,-12.7439,-1.7683,-22.48,13.12,10.55,1,S01
29680,-9.33020,1.35033,0.54588,0.0000,-12.3780,-1.7683,-22.48,13.12,10.55,1,S01
29700,-9.28471,1.33118,0.59376,0.3049,-11.4634,-1.9512,-22.48,13.12,10.55,1,S01
29720,-9.25838,1.33118,0.66080,1.0976,-9.8171,-2.3171,-22.48,13.12,10.55,1,S01
29740,-9.28711,1.35033,0.77812,1.9512,-7.8659,-2.6220,-22.66,13.21,10.64,1,S01
29760,-9.30387,1.36230,0.86670,2.8049,-6.5854,-2.5610,-22.66,13.21,10.64,1,S01
29780,-9.23683,1.38624,0.83079,3.7195,-5.9756,-2.5610,-22.66,13.21,10.64,1,S01
29800,-9.10994,1.41018,0.73741,4.6341,-4.9390,-2.5000,-22.66,13.30,10.00,1,S01
29820,-9.05727,1.41258,0.75417,5.6707,-2.9268,-2.2561,-22.66,13.30,10.00,1,S01
29840,-9.16979,1.41737,0.80924,6.9512,-0.9146,-1.7683,-22.66,13.30,10.00,1,S01
