timestamp,ax,ay,az,gx,gy,gz,mx,my,mz,label,subject_id
0,-9.10754,1.01993,-1.22104,9.8780,-6.4634,-2.3171,29.91,21.38,11.28,4,S01
20,-9.27274,0.80924,-1.28090,6.0976,-6.6463,0.0000,29.91,21.38,11.28,4,S01
40,-9.54089,0.84276,-1.30005,5.6098,-6.2805,0.9146,29.91,21.38,11.28,4,S01
60,-9.68694,0.81163,-1.34315,4.4512,-6.1585,0.8537,29.63,21.38,11.74,4,S01
80,-9.74679,0.66798,-1.43173,3.3537,-5.8537,0.0610,29.63,21.38,11.74,4,S01
100,-9.68455,0.62010,-1.44131,4.3293,-5.6098,-1.4024,29.63,21.38,11.74,4,S01
120,-9.54089,0.66559,-1.36230,5.6707,-6.0976,-2.3780,29.72,21.19,12.11,4,S01
140,-9.41640,0.72544,-1.25456,6.5244,-6.5854,-2.3171,29.72,21.19,12.11,4,S01
160,-9.38288,0.72544,-1.22104,6.7073,-6.2195,-1.8902,29.72,21.19,12.11,4,S01
180,-9.41161,0.70390,-1.18034,6.7073,-5.1220,-1.7073,29.63,21.10,12.57,4,S01
200,-9.37330,0.69192,-1.15640,6.5244,-4.3293,-1.6463,29.63,21.10,12.57,4,S01
220,-9.34696,0.63446,-1.10612,6.5854,-3.4146,-1.2195,29.63,21.10,12.57,4,S01
240,-9.39006,0.63686,-1.05105,7.0732,-2.5000,-0.7927,29.63,21.10,12.57,4,S01
260,-9.47625,0.70868,-1.01754,7.2561,-1.8902,-0.5488,29.54,21.01,13.03,4,S01
280,-9.58399,0.79009,-0.95768,6.6463,-1.5244,-0.5488,29.54,21.01,13.03,4,S01
300,-9.61511,0.83558,-0.91698,5.8537,-1.3415,-0.7317,29.54,21.01,13.03,4,S01
320,-9.54329,0.85952,-0.94332,4.9390,-1.3415,-1.0366,29.36,20.92,13.12,4,S01
340,-9.46189,0.84755,-0.98881,4.2683,-1.4024,-1.2195,29.36,20.92,13.12,4,S01
360,-9.42597,0.78051,-0.99120,3.7805,-1.4634,-0.9756,29.36,20.92,13.12,4,S01
380,-9.40203,0.69192,-0.97205,3.4146,-1.4634,-0.8537,29.45,20.92,13.49,4,S01
400,-9.38767,0.66559,-0.97444,3.4756,-1.0976,-0.9146,29.45,20.92,13.49,4,S01
420,-9.47146,0.70629,-0.96965,3.5366,-0.2439,-0.9146,29.45,20.92,13.49,4,S01
440,-9.57681,0.79487,-0.98641,2.8049,0.4878,-0.5488,29.45,20.92,13.49,4,S01
460,-9.60075,0.87867,-0.91459,1.4024,0.2439,0.0000,29.27,20.83,13.58,4,S01
480,-9.58638,0.83079,-0.85712,0.0000,-0.8537,0.0610,29.27,20.83,13.58,4,S01
500,-9.59357,0.65841,-0.80445,-1.0976,-2.0732,-0.0610,29.27,20.83,13.58,4,S01
520,-9.62708,0.57461,-0.90501,-1.8902,-3.5366,-0.3049,29.27,20.92,13.67,4,S01
540,-9.63666,0.61770,-1.01514,-2.6220,-4.3902,-0.5488,29.27,20.92,13.67,4,S01
560,-9.54568,0.55785,-0.95289,-2.3171,-4.0244,-0.9756,29.27,20.92,13.67,4,S01
580,-9.36851,0.46926,-0.95529,-1.0366,-3.8415,-1.6463,29.27,20.73,13.85,4,S01
600,-9.21049,0.50518,-1.01514,-0.3659,-3.2317,-2.0732,29.27,20.73,13.85,4,S01
620,-9.09078,0.52912,-1.17076,0.3049,-1.7073,-1.0976,29.27,20.73,13.85,4,S01
640,-9.02135,0.40223,-1.41737,2.0122,0.9146,1.4024,29.27,20.73,13.85,4,S01
660,-9.09797,0.26815,-1.56102,3.3537,4.3902,4.1463,28.99,21.01,14.04,4,S01
680,-9.35175,0.15562,-1.60890,3.9634,7.5000,5.8537,28.99,21.01,14.04,4,S01
700,-9.54329,-0.06704,-1.65200,5.4268,9.8780,6.5244,28.99,21.01,14.04,4,S01
720,-9.70131,-0.42138,-1.70707,9.8780,11.0976,6.2805,28.62,21.38,13.94,4,S01
740,-9.95270,-0.52672,-1.78129,16.5244,11.3415,4.5122,28.62,21.38,13.94,4,S01
760,-10.12029,-0.39504,-1.68791,22.1341,11.6463,1.7073,28.62,21.38,13.94,4,S01
780,-10.02213,-0.05267,-1.41258,26.5854,10.2439,-1.3415,28.26,21.38,14.68,4,S01
800,-9.74919,0.36631,-1.18752,28.2317,8.0488,-4.0854,28.26,21.38,14.68,4,S01
820,-9.43555,0.58658,-0.96965,26.6463,7.5000,-5.0000,28.26,21.38,14.68,4,S01
840,-9.20571,0.51475,-1.03908,19.2073,8.1098,-2.5610,28.26,21.38,14.68,4,S01
860,-9.23683,0.46687,-1.07739,15.9756,10.3659,-1.2195,27.98,21.65,14.86,4,S01
880,-9.38048,0.40223,-1.04387,13.9024,12.2561,0.4268,27.98,21.65,14.86,4,S01
900,-9.56484,0.24181,-0.99359,12.6220,13.5976,1.8293,27.98,21.65,14.86,4,S01
920,-9.66779,0.03591,-1.01993,12.1341,14.3293,2.0732,27.71,22.02,14.50,4,S01
940,-9.62948,-0.09816,-1.02711,12.5000,15.5488,0.7927,27.71,22.02,14.50,4,S01
960,-9.47625,-0.15323,-1.05584,13.9634,16.3415,-0.5488,27.71,22.02,14.50,4,S01
980,-9.31823,-0.23463,-1.04387,15.4878,16.4634,0.0000,27.52,22.48,14.04,4,S01
1000,-9.36372,-0.23942,-1.14443,16.0366,17.1341,1.0976,27.52,22.48,14.04,4,S01
1020,-9.39964,-0.16041,-1.19710,17.0122,17.9268,2.3171,27.52,22.48,14.04,4,S01
1040,-9.36851,-0.24900,-1.16358,19.2073,18.1707,4.0854,27.52,22.48,14.04,4,S01
1060,-9.35415,-0.21787,-1.19950,21.0366,18.1707,4.5732,27.16,22.75,13.85,4,S01
1080,-9.40921,-0.15802,-1.19950,21.5854,17.8049,4.8171,27.16,22.75,13.85,4,S01
1100,-9.41400,-0.13647,-1.24020,21.7683,15.6098,5.3659,27.16,22.75,13.85,4,S01
1120,-9.32781,-0.19393,-1.17076,21.5244,12.8049,6.0366,26.79,22.75,13.30,4,S01
1140,-9.32542,-0.32561,-1.17076,20.7927,10.1220,6.8293,26.79,22.75,13.30,4,S01
1160,-9.45231,-0.47405,-1.18274,20.9146,7.4390,7.8659,26.79,22.75,13.30,4,S01
1180,-9.59835,-0.52672,-1.17555,21.2805,3.5366,8.9634,26.33,22.48,13.49,4,S01
1200,-9.71567,-0.62489,-1.06303,22.1341,-1.2195,10.0000,26.33,22.48,13.49,4,S01
1220,-9.76595,-0.81403,-0.99359,23.1707,-5.6098,11.0366,26.33,22.48,13.49,4,S01
1240,-9.68694,-0.90980,-0.99359,23.9024,-7.9878,11.8902,26.33,22.48,13.49,4,S01
1260,-9.63666,-0.87388,-1.24498,23.7195,-8.5976,12.5610,25.50,22.29,14.22,4,S01
1280,-9.66060,-0.68235,-1.68791,21.4024,-6.3415,14.4512,25.50,22.29,14.22,4,S01
1300,-10.01016,-0.82121,-2.47560,17.3780,-0.0610,18.4146,25.50,22.29,14.22,4,S01
1320,-11.00136,-0.95050,-3.51708,16.2805,7.1951,21.2805,24.40,22.48,14.04,4,S01
1340,-12.50252,-0.82121,-4.36942,18.1707,12.0732,23.2317,24.40,22.48,14.04,4,S01
1360,-14.23114,-0.48602,-4.29520,18.6585,15.3659,22.2561,24.40,22.48,14.04,4,S01
1380,-14.85842,0.73741,-4.58011,21.7683,13.9024,12.2561,23.76,22.57,13.30,4,S01
1400,-13.92947,1.99198,-4.91290,23.1098,11.8293,3.8415,23.76,22.57,13.30,4,S01
1420,-12.10748,2.90417,-4.78122,16.0976,6.9512,5.0610,23.76,22.57,13.30,4,S01
1440,-10.01495,3.01909,-3.84030,7.6220,1.4634,10.6707,23.76,22.57,13.30,4,S01
1460,-8.47308,2.65996,-3.57694,8.1707,-3.7195,16.2195,23.39,22.48,12.94,4,S01
1480,-8.03255,2.22900,-4.27126,14.5122,-1.7073,22.1341,23.39,22.48,12.94,4,S01
1500,-8.57603,1.90578,-4.64475,20.7927,9.3902,29.4512,23.39,22.48,12.94,4,S01
1520,-9.43316,1.74537,-4.19704,24.4512,17.0122,35.1829,22.39,23.39,12.02,4,S01
1540,-9.73722,1.89621,-3.41413,26.5854,13.2317,38.1098,22.39,23.39,12.02,4,S01
1560,-9.42118,2.18830,-2.88262,27.0122,1.6463,39.5732,22.39,23.39,12.02,4,S01
1580,-8.54251,2.33674,-2.43969,26.5854,-8.7195,40.5488,21.28,24.04,12.39,4,S01
1600,-7.43400,2.29843,-2.04704,25.3049,-15.0610,39.2073,21.28,24.04,12.39,4,S01
1620,-6.48589,2.26491,-2.09732,24.0244,-16.9512,36.3415,21.28,24.04,12.39,4,S01
1640,-5.95677,2.24576,-2.31998,21.5244,-13.9634,34.0244,21.28,24.04,12.39,4,S01
1660,-5.93044,2.17154,-2.60968,19.8171,-8.7805,33.2927,20.46,24.68,12.48,4,S01
1680,-6.39252,2.34871,-2.47082,18.4756,-3.3537,32.9268,20.46,24.68,12.48,4,S01
1700,-7.08444,2.62165,-2.18112,15.5488,-2.1341,31.8902,20.46,24.68,12.48,4,S01
1720,-7.63032,2.74854,-2.11169,12.2561,-5.3049,30.1220,19.72,25.23,12.66,4,S01
1740,-7.96072,2.64080,-2.27210,9.8171,-10.4268,27.3780,19.72,25.23,12.66,4,S01
1760,-8.12113,2.55940,-2.37984,7.8659,-15.3659,23.5366,19.72,25.23,12.66,4,S01
1780,-8.24324,2.51391,-2.31280,5.9146,-20.0610,20.5488,19.54,25.14,13.03,4,S01
1800,-8.45393,2.48758,-2.35111,4.0854,-24.5122,18.3537,19.54,25.14,13.03,4,S01
1820,-8.45871,2.62165,-2.58813,3.4756,-26.4634,17.1951,19.54,25.14,13.03,4,S01
1840,-8.42998,2.55222,-2.56180,2.8049,-23.6585,18.7805,19.54,25.14,13.03,4,S01
1860,-8.41562,2.49715,-2.39660,3.4756,-21.0976,20.1220,19.27,24.77,13.21,4,S01
1880,-8.41083,2.38223,-2.41336,5.3049,-19.2683,20.7317,19.27,24.77,13.21,4,S01
1900,-8.34619,2.27689,-2.33435,6.5854,-14.5732,19.7561,19.27,24.77,13.21,4,S01
1920,-8.34858,2.18591,-2.20506,8.6585,-9.5732,17.5610,18.90,24.31,12.66,4,S01
1940,-8.31985,2.18112,-2.04944,10.1829,-6.3415,14.9390,18.90,24.31,12.66,4,S01
1960,-8.16183,2.18830,-1.92015,11.4634,-4.7561,12.4390,18.90,24.31,12.66,4,S01
1980,-7.88411,2.29125,-1.68791,13.4756,-3.7195,10.5488,18.53,23.85,12.48,4,S01
2000,-8.04212,2.25055,-1.53229,16.3415,-3.4146,10.9146,18.53,23.85,12.48,4,S01
2020,-8.57842,2.11169,-0.93613,19.0854,-2.8049,11.2195,18.53,23.85,12.48,4,S01
2040,-9.22725,1.97043,-0.15083,24.8780,-4.5122,8.4756,18.53,23.85,12.48,4,S01
2060,-9.64145,1.85072,-0.16520,31.2195,-10.1829,4.3902,18.35,23.49,12.84,4,S01
2080,-9.60793,2.88980,-1.66636,27.8049,-16.2805,0.1829,18.35,23.49,12.84,4,S01
2100,-9.44752,3.93607,-1.82438,15.7317,-22.2561,-0.1829,18.35,23.49,12.84,4,S01
2120,-10.60871,4.51068,-1.58975,11.0976,-24.6951,2.9878,18.99,22.94,12.57,4,S01
2140,-11.00375,3.73256,-2.26731,-0.4268,-16.2195,6.4024,18.99,22.94,12.57,4,S01
2160,-10.83855,2.71263,-1.83875,-2.2561,-4.8780,4.8171,18.99,22.94,12.57,4,S01
2180,-10.67574,3.03824,-2.14999,10.6707,-4.8780,-1.2805,20.00,22.94,11.56,4,S01
2200,-12.28465,3.67510,-3.82833,15.1220,4.5732,-2.4390,20.00,22.94,11.56,4,S01
2220,-12.15057,3.16035,-4.62081,17.1951,9.4512,-4.0854,20.00,22.94,11.56,4,S01
2240,-11.25754,2.76051,-5.63834,21.8902,13.5976,-5.9146,20.00,22.94,11.56,4,S01
2260,-10.13466,2.46124,-5.87058,29.1463,20.0610,-6.1585,21.10,23.49,10.28,4,S01
2280,-9.27993,2.27928,-5.65750,30.3049,24.6341,-9.1463,21.10,23.49,10.28,4,S01
2300,-9.04051,2.32477,-4.98952,26.7683,26.9512,-14.5732,21.10,23.49,10.28,4,S01
2320,-9.00459,2.46363,-3.92170,19.9390,26.5244,-19.4512,22.75,23.85,8.81,4,S01
2340,-8.76278,2.19548,-3.22499,10.6098,21.7073,-22.6829,22.75,23.85,8.81,4,S01
2360,-8.45153,1.68552,-3.11246,4.8171,17.3780,-25.8537,22.75,23.85,8.81,4,S01
2380,-8.18578,1.22344,-2.94966,4.1463,16.8902,-29.2073,24.86,23.58,7.52,4,S01
2400,-7.79552,1.08457,-2.77967,3.6585,15.5488,-32.1951,24.86,23.58,7.52,4,S01
2420,-7.31189,1.07021,-2.68390,0.6707,11.7073,-32.8659,24.86,23.58,7.52,4,S01
2440,-7.04374,0.87149,-2.70545,-2.3171,8.1707,-30.0610,24.86,23.58,7.52,4,S01
2460,-7.22810,0.76614,-2.81319,-1.5854,5.6098,-26.3415,27.25,23.03,7.06,4,S01
2480,-7.62314,0.58658,-2.95684,1.7073,2.7439,-22.3171,27.25,23.03,7.06,4,S01
2500,-7.98945,0.42617,-3.18668,5.5488,-1.0366,-18.8415,27.25,23.03,7.06,4,S01
2520,-8.09958,0.53630,-3.37822,8.7805,-5.7317,-16.8902,28.90,23.21,7.61,4,S01
2540,-8.00860,0.84994,-3.39977,10.1220,-9.5122,-15.9756,28.90,23.21,7.61,4,S01
2560,-7.85059,1.04866,-3.39258,10.8537,-12.3780,-15.0610,28.90,23.21,7.61,4,S01
2580,-7.69257,0.97444,-3.57933,12.9878,-14.4512,-14.3902,30.09,23.39,8.53,4,S01
2600,-7.77876,0.84515,-3.71101,15.2439,-13.9634,-14.3293,30.09,23.39,8.53,4,S01
2620,-8.12592,0.81882,-3.58412,15.8537,-13.2927,-13.7805,30.09,23.39,8.53,4,S01
2640,-8.50660,0.80924,-3.47159,15.1220,-14.2683,-11.7683,30.09,23.39,8.53,4,S01
2660,-8.71011,0.80206,-3.53863,13.7805,-15.7317,-9.3293,31.01,23.49,9.36,4,S01
2680,-8.74362,0.82839,-3.55778,12.5610,-16.8293,-8.3537,31.01,23.49,9.36,4,S01
2700,-8.62870,0.84276,-3.47878,11.5244,-17.1341,-8.4756,31.01,23.49,9.36,4,S01
2720,-8.57603,0.73263,-3.45483,11.0976,-16.2805,-8.8415,31.93,23.76,10.37,4,S01
2740,-8.71250,0.56024,-3.40216,11.6463,-14.3902,-9.4512,31.93,23.76,10.37,4,S01
2760,-8.85376,0.50039,-3.38780,12.5610,-13.6585,-9.3293,31.93,23.76,10.37,4,S01
2780,-8.80109,0.46448,-3.26569,12.1951,-14.0244,-8.5366,32.29,23.94,11.19,4,S01
2800,-8.68616,0.29688,-3.27287,12.1341,-14.2683,-7.9268,32.29,23.94,11.19,4,S01
2820,-8.76996,0.22984,-3.08613,13.1098,-11.4024,-9.0854,32.29,23.94,11.19,4,S01
2840,-8.81545,0.17957,-2.91853,14.2073,-8.4756,-10.3049,32.29,23.94,11.19,4,S01
2860,-9.00699,0.28252,-2.90896,14.8171,-6.7683,-10.7927,32.48,23.76,12.11,4,S01
2880,-9.26077,0.43096,-2.70784,14.0244,-4.9390,-10.0610,32.48,23.76,12.11,4,S01
2900,-9.36612,0.48363,-2.45645,12.1341,-4.3293,-8.4146,32.48,23.76,12.11,4,S01
2920,-9.17937,0.35195,-2.45885,8.3537,-5.4268,-7.2561,32.75,23.76,12.57,4,S01
2940,-8.99741,0.16520,-2.47321,4.6341,-4.5122,-7.0122,32.75,23.76,12.57,4,S01
2960,-9.03811,0.03352,-2.47321,1.9512,-1.7073,-6.6463,32.75,23.76,12.57,4,S01
2980,-9.13149,-0.03352,-2.51391,0.0610,0.4268,-5.7927,33.03,23.85,12.75,4,S01
3000,-9.22486,0.01915,-2.46842,-0.9756,1.5244,-4.8171,33.03,23.85,12.75,4,S01
3020,-9.24641,0.15323,-2.45166,-2.0122,1.4024,-3.9634,33.03,23.85,12.75,4,S01
3040,-9.17698,0.21787,-2.47082,-4.0244,0.5488,-3.4756,33.03,23.85,12.75,4,S01
3060,-9.13867,0.05507,-2.39899,-6.3415,0.5488,-2.9268,33.49,23.76,12.94,4,S01
3080,-9.11712,-0.15802,-2.37505,-8.4756,0.5488,-2.6220,33.49,23.76,12.94,4,S01
3100,-9.06684,-0.37589,-2.41336,-9.5122,0.5488,-2.1341,33.49,23.76,12.94,4,S01
3120,-8.99502,-0.39504,-2.40857,-8.7195,1.5854,-1.6463,33.85,23.85,13.03,4,S01
3140,-9.01417,-0.38068,-2.36068,-7.0122,2.9878,-0.3659,33.85,23.85,13.03,4,S01
3160,-9.20810,-0.46687,-2.28407,-5.9756,3.9024,1.9512,33.85,23.85,13.03,4,S01
3180,-9.44513,-0.65841,-2.08056,-5.9146,4.3293,4.5122,33.76,24.31,13.49,4,S01
3200,-9.50738,-0.72544,-1.90578,-5.2439,2.8659,5.6098,33.76,24.31,13.49,4,S01
3220,-9.37809,-0.64643,-1.78129,-3.2927,0.7927,5.4878,33.76,24.31,13.49,4,S01
3240,-9.24162,-0.41420,-1.76213,-2.4390,-0.1220,6.1585,33.76,24.31,13.49,4,S01
3260,-9.26796,-0.43335,-1.93452,-3.3537,0.6098,9.0854,33.85,24.86,14.59,4,S01
3280,-9.41161,-0.79487,-2.20267,-3.0488,3.5366,12.9878,33.85,24.86,14.59,4,S01
3300,-9.71088,-1.09654,-2.57856,0.4878,7.9878,15.2439,33.85,24.86,14.59,4,S01
3320,-10.31662,-1.16837,-3.26809,6.1585,13.2927,15.9146,32.94,26.15,15.60,4,S01
3340,-10.81940,-0.47405,-3.85227,9.5732,17.2561,13.6585,32.94,26.15,15.60,4,S01
3360,-11.38922,0.25139,-3.91931,6.5244,19.6951,13.0488,32.94,26.15,15.60,4,S01
3380,-11.95664,0.41659,-3.92649,4.0854,19.6951,12.9878,31.93,27.52,16.33,4,S01
3400,-12.62941,0.07901,-4.28562,3.5976,18.6585,12.0732,31.93,27.52,16.33,4,S01
3420,-13.00291,-0.04070,-4.74770,1.9512,18.5366,11.8293,31.93,27.52,16.33,4,S01
3440,-12.62941,0.19872,-4.51786,-0.4878,16.4634,13.8415,31.93,27.52,16.33,4,S01
3460,-11.67892,0.58658,-4.16831,-0.9146,8.8415,17.4390,30.55,29.36,16.97,4,S01
3480,-10.46984,0.93374,-3.84748,-1.4024,0.4878,20.3049,30.55,29.36,16.97,4,S01
3500,-9.19134,1.19950,-3.76369,-3.5976,-5.7927,20.9756,30.55,29.36,16.97,4,S01
3520,-8.42998,1.69509,-3.92170,-5.0000,-8.1098,19.6341,29.08,30.83,17.98,4,S01
3540,-8.34619,2.17154,-3.54102,-5.6707,-4.7561,21.1585,29.08,30.83,17.98,4,S01
3560,-8.62152,1.78847,-3.40695,-7.1341,-2.1951,28.7195,29.08,30.83,17.98,4,S01
3580,-8.45632,1.47962,-3.24175,-6.4634,-4.6951,29.5732,27.25,32.57,18.62,4,S01
3600,-8.08522,1.27372,-3.02627,-4.2073,-8.9024,28.7195,27.25,32.57,18.62,4,S01
3620,-7.75243,1.34554,-2.97120,0.0610,-12.3171,27.4390,27.25,32.57,18.62,4,S01
3640,-7.52976,1.62806,-3.00233,4.2683,-12.9878,27.1341,27.25,32.57,18.62,4,S01
3660,-7.37414,1.98240,-2.85868,6.5854,-12.0732,27.5000,25.23,33.67,19.91,4,S01
3680,-7.20655,2.34153,-2.78446,7.5000,-13.1707,27.7439,25.23,33.67,19.91,4,S01
3700,-7.11557,2.56419,-2.82995,5.5488,-15.0000,27.0732,25.23,33.67,19.91,4,S01
3720,-7.17542,2.51152,-2.92332,1.5244,-15.6098,25.2439,23.39,34.59,21.28,4,S01
3740,-7.35978,2.45166,-3.27527,-2.9878,-14.0244,22.6829,23.39,34.59,21.28,4,S01
3760,-7.60159,2.33435,-3.10049,-7.8659,-9.6951,21.1585,23.39,34.59,21.28,4,S01
3780,-7.92481,2.31998,-2.85868,-10.6098,-9.3293,20.3659,22.57,35.14,21.83,4,S01
3800,-8.18099,2.22900,-2.54025,-11.3415,-11.7073,19.5732,22.57,35.14,21.83,4,S01
3820,-8.42280,2.20027,-2.33914,-8.8415,-16.1585,17.8049,22.57,35.14,21.83,4,S01
3840,-8.58082,2.12126,-2.39899,-5.7927,-20.6707,16.6463,22.57,35.14,21.83,4,S01
3860,-8.65983,2.06380,-2.55461,-2.5000,-22.7439,16.4024,21.83,35.14,23.12,4,S01
3880,-8.73405,1.97522,-2.49476,0.9146,-21.9512,17.3171,21.83,35.14,23.12,4,S01
3900,-8.74841,2.02789,-2.29604,3.9634,-19.7561,18.6585,21.83,35.14,23.12,4,S01
3920,-8.59758,2.15718,-2.04704,4.8171,-16.8902,19.2073,20.64,35.32,24.40,4,S01
3940,-8.42998,2.35111,-1.92494,4.2683,-13.8415,18.7195,20.64,35.32,24.40,4,S01
3960,-8.25521,2.36787,-1.77889,4.1463,-10.3049,17.8659,20.64,35.32,24.40,4,S01
3980,-8.15705,2.20506,-1.65918,5.5488,-6.2195,16.1585,19.72,35.23,25.32,4,S01
4000,-8.08761,2.02310,-1.33836,7.4390,-1.1585,13.7195,19.72,35.23,25.32,4,S01
4020,-8.33661,1.85311,-0.98641,8.3537,2.0122,11.7073,19.72,35.23,25.32,4,S01
4040,-8.99502,1.38624,-0.37828,10.1220,1.3415,10.3049,19.72,35.23,25.32,4,S01
4060,-9.71328,1.12288,-0.12929,17.0122,-4.8171,6.7073,18.81,35.05,26.15,4,S01
4080,-9.98382,1.61130,-1.38864,25.6098,-12.8049,2.1341,18.81,35.05,26.15,4,S01
4100,-9.95270,2.83234,-2.61926,23.9634,-15.9756,-0.3659,18.81,35.05,26.15,4,S01
4120,-10.48182,4.43167,-2.26731,19.3293,-13.7195,2.6220,17.71,34.59,27.89,4,S01
4140,-11.63821,4.75728,-2.23379,12.6220,-12.5610,10.8537,17.71,34.59,27.89,4,S01
4160,-12.05959,3.82115,-2.30562,6.9512,-8.4756,17.1951,17.71,34.59,27.89,4,S01
4180,-12.15297,3.26809,-2.94008,10.2439,-6.2805,14.7561,16.24,34.59,28.81,4,S01
4200,-12.29901,2.84431,-4.36463,18.6585,-6.2195,8.4756,16.24,34.59,28.81,4,S01
4220,-12.44506,1.97522,-5.06613,34.5732,0.7927,2.4390,16.24,34.59,28.81,4,S01
4240,-11.65737,1.61609,-5.23373,46.9512,7.2561,-4.3293,16.24,34.59,28.81,4,S01
4260,-10.13705,1.82199,-5.18584,50.9146,9.6951,-6.8902,14.22,35.60,28.99,4,S01
4280,-8.83939,2.44209,-4.70700,50.1220,13.2317,-4.7561,14.22,35.60,28.99,4,S01
4300,-8.36055,2.84671,-4.12042,44.2683,17.0732,-3.4756,14.22,35.60,28.99,4,S01
4320,-8.46111,2.69827,-3.70144,36.8293,17.0122,-6.0976,12.94,36.70,28.44,4,S01
4340,-8.62870,2.10929,-3.37104,29.0854,13.2927,-10.9146,12.94,36.70,28.44,4,S01
4360,-8.61913,1.24738,-3.24175,23.2317,9.2683,-15.5488,12.94,36.70,28.44,4,S01
4380,-8.50420,0.56503,-3.15316,21.2195,7.6220,-19.3902,13.03,37.06,28.26,4,S01
4400,-8.24803,0.36392,-2.93769,22.0122,5.8537,-22.3780,13.03,37.06,28.26,4,S01
4420,-7.80749,0.51475,-2.78685,22.8049,1.1585,-23.9024,13.03,37.06,28.26,4,S01
4440,-7.30950,0.79966,-2.83952,21.4634,-4.5732,-23.0488,13.03,37.06,28.26,4,S01
4460,-7.12993,1.07739,-2.87783,17.8049,-7.3171,-20.2439,12.84,36.79,29.17,4,S01
4480,-7.10838,1.31442,-2.76530,14.4512,-8.6585,-17.2561,12.84,36.79,29.17,4,S01
4500,-7.01501,1.50835,-2.82755,11.4634,-12.5000,-14.6341,12.84,36.79,29.17,4,S01
4520,-6.90248,1.44610,-3.09810,9.2683,-15.8537,-11.7683,12.66,36.61,30.64,4,S01
4540,-6.87136,1.20428,-3.32315,8.0488,-16.3415,-9.3902,12.66,36.61,30.64,4,S01
4560,-7.12993,0.95768,-3.45723,7.7439,-15.4878,-6.9512,12.66,36.61,30.64,4,S01
4580,-7.61117,0.79487,-3.43089,6.9512,-13.7195,-4.2683,12.11,36.51,31.74,4,S01
4600,-8.06367,0.70868,-3.37582,5.1220,-12.0122,-2.1951,12.11,36.51,31.74,4,S01
4620,-8.36774,0.82600,-3.46920,3.0488,-11.3415,-1.7683,12.11,36.51,31.74,4,S01
4640,-8.71250,1.00078,-3.52187,1.4024,-10.6098,-2.4390,12.11,36.51,31.74,4,S01
4660,-8.86812,1.13725,-3.40216,0.7317,-10.2439,-3.9024,11.65,36.42,32.48,4,S01
4680,-8.81784,1.17076,-3.28963,1.5244,-9.3293,-7.6220,11.65,36.42,32.48,4,S01
4700,-8.82742,1.07979,-3.19865,3.4756,-7.0732,-13.7805,11.65,36.42,32.48,4,S01
4720,-8.99023,0.78051,-3.13401,3.1707,-5.0610,-17.5000,11.65,36.15,32.66,4,S01
4740,-9.16261,0.40462,-3.05261,1.2195,-5.0000,-17.9268,11.65,36.15,32.66,4,S01
4760,-9.22007,0.22266,-3.08134,-0.4878,-6.7073,-17.1341,11.65,36.15,32.66,4,S01
4780,-9.05966,0.35913,-2.98557,-1.7073,-7.6220,-16.5854,11.74,35.69,33.12,4,S01
4800,-8.91122,0.59616,-2.80122,-2.1951,-6.7073,-16.1585,11.74,35.69,33.12,4,S01
4820,-8.93516,0.67277,-2.65278,-2.3780,-4.8171,-15.6098,11.74,35.69,33.12,4,S01
4840,-9.08600,0.52433,-2.61686,-3.3537,-3.9024,-14.8171,11.74,35.69,33.12,4,S01
4860,-9.24401,0.20590,-2.80600,-4.8171,-4.1463,-13.7805,11.65,35.41,33.12,4,S01
4880,-9.24401,-0.09577,-2.80600,-5.4268,-4.0244,-12.5610,11.65,35.41,33.12,4,S01
4900,-9.02854,-0.09816,-2.79882,-4.1463,-4.3293,-12.0732,11.65,35.41,33.12,4,S01
4920,-8.83460,0.00958,-2.52828,0.0610,-3.3537,-9.4512,11.19,35.05,33.03,4,S01
4940,-8.97586,0.04310,-2.39420,1.6463,-2.5610,-8.4146,11.19,35.05,33.03,4,S01
4960,-9.14346,0.16759,-2.41814,2.0732,-2.7439,-7.4390,11.19,35.05,33.03,4,S01
4980,-9.36372,0.30646,-2.45406,0.9756,-3.0488,-5.3659,10.55,34.86,33.21,4,S01
5000,-9.57202,0.15562,-2.33435,-1.7073,-3.5976,-1.7073,10.55,34.86,33.21,4,S01
5020,-9.53610,-0.17957,-2.32956,-3.7195,-4.8780,1.4024,10.55,34.86,33.21,4,S01
5040,-9.33020,-0.34955,-2.39899,-2.8049,-5.4878,2.6220,10.55,34.86,33.21,4,S01
5060,-9.13867,-0.30885,-2.44927,-0.4268,-4.5732,3.2317,9.63,34.59,33.49,4,S01
5080,-9.01178,-0.18196,-2.44927,1.4024,-2.6829,4.3902,9.63,34.59,33.49,4,S01
5100,-8.91601,-0.10295,-2.44927,2.1341,-0.6098,5.8537,9.63,34.59,33.49,4,S01
5120,-8.90164,-0.07901,-2.50434,2.2561,1.5244,7.5000,8.17,34.40,33.12,4,S01
5140,-8.97107,-0.06704,-2.54025,1.8293,3.7195,9.4512,8.17,34.40,33.12,4,S01
5160,-9.08121,-0.17238,-2.44209,1.0366,5.1220,11.6463,8.17,34.40,33.12,4,S01
5180,-9.18655,-0.36631,-2.30562,0.5488,5.6707,13.1098,6.61,34.59,32.66,4,S01
5200,-9.31344,-0.44293,-2.19069,0.6707,5.1829,13.5976,6.61,34.59,32.66,4,S01
5220,-9.42837,-0.42617,-2.16675,0.6098,4.2073,13.9634,6.61,34.59,32.66,4,S01
5240,-9.59357,-0.37350,-2.11887,0.0610,3.7805,14.7561,6.61,34.59,32.66,4,S01
5260,-9.78510,-0.48123,-2.25534,-0.6707,3.1098,16.4024,4.86,34.31,32.39,4,S01
5280,-9.83059,-0.74939,-2.77727,-0.6707,3.4756,18.1707,4.86,34.31,32.39,4,S01
5300,-9.96467,-0.87867,-3.38301,2.0732,7.0122,18.7805,4.86,34.31,32.39,4,S01
5320,-10.45308,-0.70868,-3.85227,7.1951,12.1951,18.5366,2.84,34.50,31.38,4,S01
5340,-11.45147,-0.43096,-3.79960,10.4268,17.8049,16.7683,2.84,34.50,31.38,4,S01
5360,-12.80180,0.09337,-3.58891,14.2073,18.7195,11.8902,2.84,34.50,31.38,4,S01
5380,-13.58470,0.73263,-3.98395,16.1585,16.1585,5.3049,1.19,34.59,30.28,4,S01
5400,-12.98615,1.28808,-4.64236,12.3780,11.6463,3.1707,1.19,34.59,30.28,4,S01
5420,-11.70286,1.74537,-4.72376,5.3659,8.1098,7.2561,1.19,34.59,30.28,4,S01
5440,-10.50576,2.30322,-4.38139,-1.4024,5.4878,13.2317,1.19,34.59,30.28,4,S01
5460,-9.54568,2.62165,-3.94325,-6.2805,1.8293,19.0854,-0.28,34.13,29.63,4,S01
5480,-9.16500,2.27928,-3.80199,-6.5244,-0.8537,24.6951,-0.28,34.13,29.63,4,S01
5500,-9.26077,1.78129,-3.88340,-2.4390,-0.3049,28.2927,-0.28,34.13,29.63,4,S01
5520,-9.50977,1.54905,-3.71580,3.9634,0.3659,30.0000,-2.29,33.67,29.54,4,S01
5540,-9.48343,1.50595,-3.46202,10.4268,-4.0244,31.4024,-2.29,33.67,29.54,4,S01
5560,-9.07163,1.65200,-3.39977,15.1829,-12.2561,32.6220,-2.29,33.67,29.54,4,S01
5580,-8.34858,1.86748,-3.15316,16.1585,-18.7195,32.4390,-4.86,32.39,29.82,4,S01
5600,-7.93199,2.20506,-2.88741,14.5732,-24.2073,30.0610,-4.86,32.39,29.82,4,S01
5620,-7.56807,2.21224,-2.71981,14.1463,-27.1341,28.0488,-4.86,32.39,29.82,4,S01
5640,-7.36217,2.09014,-2.76530,15.5488,-26.5244,24.9390,-4.86,32.39,29.82,4,S01
5660,-7.26640,1.89142,-3.02627,17.3171,-24.3902,22.3780,-6.79,31.10,30.46,4,S01
5680,-7.23288,1.78368,-3.20584,17.5000,-21.5244,20.7927,-6.79,31.10,30.46,4,S01
5700,-7.25683,1.84593,-3.03345,16.4634,-20.3659,19.0244,-6.79,31.10,30.46,4,S01
5720,-7.24725,1.88903,-2.82995,15.1220,-22.0732,16.6463,-8.35,29.91,30.83,4,S01
5740,-7.30232,1.83875,-2.78446,13.9024,-24.9390,14.3293,-8.35,29.91,30.83,4,S01
5760,-7.43160,1.85551,-2.90656,13.0488,-26.0366,12.8049,-8.35,29.91,30.83,4,S01
5780,-7.65905,1.78368,-2.71742,13.7805,-24.4512,12.3171,-9.45,28.81,31.38,4,S01
5800,-8.08043,1.76213,-2.66714,16.7683,-24.6341,11.8293,-9.45,28.81,31.38,4,S01
5820,-8.40844,1.77410,-2.56180,21.4634,-24.2683,10.4268,-9.45,28.81,31.38,4,S01
5840,-8.55448,1.89621,-2.60010,25.4268,-24.9390,8.1707,-9.45,28.81,31.38,4,S01
5860,-8.55448,1.97761,-2.55701,27.8659,-24.9390,6.0976,-10.92,27.71,31.47,4,S01
5880,-8.44914,2.10690,-2.59531,28.8415,-24.3902,4.8780,-10.92,27.71,31.47,4,S01
5900,-8.39168,2.28167,-2.56419,28.5366,-22.7439,4.5732,-10.92,27.71,31.47,4,S01
5920,-8.41562,2.35111,-2.36068,28.5366,-21.1585,4.8171,-12.20,26.88,31.47,4,S01
5940,-8.58082,2.31519,-2.14042,28.3537,-20.1829,4.9390,-12.20,26.88,31.47,4,S01
5960,-8.76517,2.16915,-1.95127,27.0732,-19.1463,4.5732,-12.20,26.88,31.47,4,S01
5980,-8.80587,2.15239,-1.81002,25.0610,-17.5610,3.5976,-13.39,26.15,31.47,4,S01
6000,-8.79151,2.07817,-1.58736,22.5000,-15.7927,2.2561,-13.39,26.15,31.47,4,S01
6020,-8.79869,2.04465,-1.48919,22.6829,-15.7317,0.4268,-13.39,26.15,31.47,4,S01
6040,-8.82503,2.14281,-1.65679,23.8415,-15.1829,-1.5244,-13.39,26.15,31.47,4,S01
6060,-8.91601,2.15957,-1.69988,21.8902,-12.0122,-3.0488,-14.40,25.69,31.01,4,S01
6080,-8.96868,1.97522,-1.67834,17.8049,-10.0610,-3.4756,-14.40,25.69,31.01,4,S01
6100,-8.92319,1.73819,-1.84114,14.4512,-9.1463,-2.6220,-14.40,25.69,31.01,4,S01
6120,-8.97107,1.65200,-1.94409,12.3780,-5.7927,-1.0366,-14.86,25.78,30.64,4,S01
6140,-9.08121,1.70228,-1.86029,11.3415,-1.7683,1.0366,-14.86,25.78,30.64,4,S01
6160,-9.11712,1.79326,-1.71904,9.8780,-0.4268,2.9878,-14.86,25.78,30.64,4,S01
6180,-9.11951,1.76453,-1.54665,8.7195,-2.0732,3.8415,-15.60,25.50,30.37,4,S01
6200,-9.15543,1.60412,-1.37667,9.6951,-5.4878,2.9878,-15.60,25.50,30.37,4,S01
6220,-9.20331,1.29766,-1.40300,12.3780,-8.8415,0.7927,-15.60,25.50,30.37,4,S01
6240,-9.12191,1.06542,-1.56820,15.0000,-9.1463,-1.5854,-15.60,25.50,30.37,4,S01
6260,-8.98783,1.04387,-1.65200,17.1341,-6.0366,-2.3780,-16.42,25.41,29.82,4,S01
6280,-9.09078,1.18274,-1.71904,23.1707,1.1585,1.5244,-16.42,25.41,29.82,4,S01
6300,-9.27993,1.61130,-1.76932,24.5122,3.4146,2.2561,-16.42,25.41,29.82,4,S01
6320,-9.42118,2.22182,-1.94170,22.9268,3.4146,1.6463,-17.43,25.50,28.90,4,S01
6340,-9.59596,2.79882,-2.22182,20.2439,3.7805,2.3171,-17.43,25.50,28.90,4,S01
6360,-9.99340,2.79403,-2.34871,15.7317,5.7317,5.9146,-17.43,25.50,28.90,4,S01
6380,-10.29267,2.27689,-2.31519,12.0122,6.5244,10.0000,-18.26,25.50,28.17,4,S01
6400,-10.40041,2.05662,-2.27928,10.1829,6.3415,11.4634,-18.26,25.50,28.17,4,S01
6420,-10.48421,2.27210,-2.26970,6.5244,7.5610,11.6463,-18.26,25.50,28.17,4,S01
6440,-10.56561,2.49955,-2.31280,1.0366,8.9024,13.0488,-18.26,25.50,28.17,4,S01
6460,-10.81700,2.51152,-2.35350,-3.7195,9.0244,14.0244,-18.81,25.05,27.61,4,S01
6480,-11.27190,2.29604,-2.37265,-7.7439,7.1951,12.6220,-18.81,25.05,27.61,4,S01
6500,-11.42274,2.26252,-2.87544,-9.2683,6.5244,9.0854,-18.81,25.05,27.61,4,S01
6520,-11.24317,2.71263,-3.16035,-9.5732,10.6707,4.2073,-18.99,25.23,27.43,4,S01
6540,-11.00136,2.98557,-3.09331,-12.5000,13.5366,0.6098,-18.99,25.23,27.43,4,S01
6560,-10.56561,2.80122,-3.17471,-17.1341,12.3780,-0.3049,-18.99,25.23,27.43,4,S01
6580,-9.88087,2.24097,-3.47878,-22.6829,10.5488,-0.3659,-18.26,25.50,27.43,4,S01
6600,-9.27993,1.76932,-3.67031,-25.1220,10.7927,-2.7439,-18.26,25.50,27.43,4,S01
6620,-9.13388,1.39103,-3.77087,-23.3537,13.9634,-8.3537,-18.26,25.50,27.43,4,S01
6640,-9.24641,1.28090,-3.73495,-21.8293,19.0244,-14.8171,-18.26,25.50,27.43,4,S01
6660,-9.33020,1.52750,-3.40695,-24.2073,22.6829,-20.1829,-17.06,26.51,27.06,4,S01
6680,-9.25838,1.77889,-2.98318,-28.9634,22.1341,-22.8659,-17.06,26.51,27.06,4,S01
6700,-8.92798,1.87945,-2.61207,-34.8780,18.6585,-24.5122,-17.06,26.51,27.06,4,S01
6720,-8.55209,1.90818,-2.43490,-41.2805,14.3902,-27.9878,-14.86,27.52,27.43,4,S01
6740,-8.26239,1.81480,-2.23140,-46.7683,11.0366,-31.8902,-14.86,27.52,27.43,4,S01
6760,-7.97509,1.64242,-2.30083,-51.8293,6.7683,-34.4512,-14.86,27.52,27.43,4,S01
6780,-7.66145,1.44849,-2.52828,-55.1829,3.0488,-35.6098,-11.83,28.35,28.44,4,S01
6800,-7.49385,1.21386,-2.73178,-57.1951,0.8537,-35.4268,-11.83,28.35,28.44,4,S01
6820,-7.56089,1.03669,-2.90896,-58.3537,-0.6098,-34.8780,-11.83,28.35,28.44,4,S01
6840,-7.70454,1.07979,-3.05740,-57.8659,-1.9512,-34.3293,-11.83,28.35,28.44,4,S01
6860,-7.83143,1.22823,-3.09810,-55.6707,-3.6585,-33.2317,-8.90,28.81,29.27,4,S01
6880,-7.93438,1.21147,-3.08373,-52.9268,-5.7927,-32.0732,-8.90,28.81,29.27,4,S01
6900,-8.18578,1.06303,-3.20584,-50.4268,-7.3780,-31.8293,-8.90,28.81,29.27,4,S01
6920,-8.41323,0.97444,-3.24654,-49.6951,-7.6220,-32.2561,-6.24,29.17,30.00,4,S01
6940,-8.44196,0.99838,-3.34231,-50.0610,-8.2927,-32.3171,-6.24,29.17,30.00,4,S01
6960,-8.37492,0.97683,-3.29921,-50.3049,-8.4756,-31.5854,-6.24,29.17,30.00,4,S01
6980,-8.40365,0.75178,-3.09331,-47.5610,-7.0122,-30.6707,-3.67,29.08,30.55,4,S01
7000,-8.51857,0.33998,-3.11964,-42.8659,-5.5488,-30.3659,-3.67,29.08,30.55,4,S01
7020,-8.68138,0.08140,-3.28963,-39.4512,-4.5122,-30.7317,-3.67,29.08,30.55,4,S01
7040,-8.66701,0.17478,-3.24175,-39.0244,-2.9878,-30.2439,-3.67,29.08,30.55,4,S01
7060,-8.58561,0.44053,-3.00472,-39.4512,-2.7439,-27.9268,-1.47,29.17,30.55,4,S01
7080,-8.63828,0.67277,-2.75333,-38.7805,-3.1098,-24.7561,-1.47,29.17,30.55,4,S01
7100,-8.83221,0.51715,-2.66714,-37.1951,-2.8049,-21.5854,-1.47,29.17,30.55,4,S01
7120,-9.16261,0.10774,-2.56658,-36.3415,-3.5976,-20.0610,0.37,29.27,30.55,4,S01
7140,-9.39964,-0.23463,-2.53785,-36.5854,-6.2195,-20.3659,0.37,29.27,30.55,4,S01
7160,-9.43555,-0.56743,-2.44448,-33.9634,-9.2073,-19.8171,0.37,29.27,30.55,4,S01
7180,-9.29669,-0.81163,-2.41096,-29.2683,-12.5000,-18.0488,1.83,28.72,31.01,4,S01
7200,-9.18895,-0.79248,-2.39899,-24.6341,-15.4878,-16.4634,1.83,28.72,31.01,4,S01
7220,-9.01178,-0.66559,-2.48758,-20.7317,-16.7683,-14.0244,1.83,28.72,31.01,4,S01
7240,-8.91601,-0.33040,-2.28167,-15.7317,-14.6951,-11.5244,1.83,28.72,31.01,4,S01
7260,-8.83221,-0.02394,-1.99198,-11.3415,-11.4634,-9.7561,2.48,28.26,31.28,4,S01
7280,-8.87770,0.18435,-1.81241,-9.8780,-7.9268,-8.5366,2.48,28.26,31.28,4,S01
7300,-9.08121,0.27054,-1.75495,-11.8902,-4.2073,-7.6829,2.48,28.26,31.28,4,S01
7320,-9.31584,0.17957,-1.73580,-15.4268,-1.2805,-6.1585,3.12,28.35,31.01,4,S01
7340,-9.50498,0.10056,-1.67594,-18.1098,-0.2439,-5.3659,3.12,28.35,31.01,4,S01
7360,-9.45231,-0.11971,-1.62566,-18.8415,-1.1585,-5.2439,3.12,28.35,31.01,4,S01
7380,-9.33020,-0.24900,-1.60890,-20.3049,-1.0366,-5.6707,3.85,28.53,30.92,4,S01
7400,-9.22965,-0.33279,-1.61848,-23.4146,0.9756,-5.0000,3.85,28.53,30.92,4,S01
7420,-9.37809,-0.40223,-1.45328,-25.7927,4.2683,-3.1098,3.85,28.53,30.92,4,S01
7440,-9.49780,-0.46687,-1.27611,-27.8659,4.9390,-1.7073,3.85,28.53,30.92,4,S01
7460,-9.54089,-0.61292,-1.08697,-29.4512,4.2073,-0.8537,4.77,28.72,30.55,4,S01
7480,-9.50738,-0.79487,-1.00556,-30.6098,3.1707,-0.3049,4.77,28.72,30.55,4,S01
7500,-9.45231,-0.98881,-1.15640,-32.1341,2.5610,0.9756,4.77,28.72,30.55,4,S01
7520,-9.34936,-1.22823,-1.24498,-33.9634,3.4756,3.7195,5.60,28.90,30.18,4,S01
7540,-9.25359,-1.42455,-1.48440,-34.2073,5.4878,6.7683,5.60,28.90,30.18,4,S01
7560,-9.11712,-1.35512,-2.16436,-33.2317,7.8049,10.3659,5.60,28.90,30.18,4,S01
7580,-9.37330,-1.50835,-2.50912,-32.2561,13.5366,16.3415,5.69,29.54,29.45,4,S01
7600,-9.79707,-1.58257,-2.43251,-25.8537,17.2561,18.1098,5.69,29.54,29.45,4,S01
7620,-10.41957,-1.53708,-2.47560,-18.7195,19.2683,15.9146,5.69,29.54,29.45,4,S01
7640,-11.03488,-0.60094,-2.75573,0.1829,20.1829,7.3780,5.69,29.54,29.45,4,S01
7660,-11.00136,-0.22984,-2.79643,3.2317,16.8293,6.8293,5.23,30.09,28.53,4,S01
7680,-10.84813,-0.09098,-2.66475,0.5488,14.0854,7.4390,5.23,30.09,28.53,4,S01
7700,-10.96784,-0.26336,-2.43490,-5.0000,12.0122,8.4146,5.23,30.09,28.53,4,S01
7720,-11.26232,-0.32801,-2.55461,-8.2317,9.8171,7.3780,4.95,30.46,28.17,4,S01
7740,-11.18332,0.28012,-3.74453,-10.0000,8.1098,3.5366,4.95,30.46,28.17,4,S01
7760,-10.57280,0.88825,-4.87938,-13.7805,10.4268,1.6463,4.95,30.46,28.17,4,S01
7780,-10.06044,0.99120,-4.48913,-13.6585,14.0244,3.1707,5.14,30.92,27.61,4,S01
7800,-9.92636,1.41737,-3.43568,-7.3171,11.2805,3.8415,5.14,30.92,27.61,4,S01
7820,-9.97424,2.37265,-2.93050,-7.6829,1.9512,2.3780,5.14,30.92,27.61,4,S01
7840,-9.95030,3.21781,-3.95522,-18.2927,-8.5366,2.8659,5.14,30.92,27.61,4,S01
7860,-9.88087,3.11007,-4.25210,-28.9024,-7.0732,10.6098,5.50,30.37,27.89,4,S01
7880,-10.12268,2.77488,-3.18908,-34.1463,-5.3659,17.1951,5.50,30.37,27.89,4,S01
7900,-9.96706,2.41096,-2.52349,-35.5488,-11.3415,18.6585,5.50,30.37,27.89,4,S01
7920,-9.14585,1.87945,-2.62644,-31.9512,-15.6098,17.3171,5.69,30.00,28.35,4,S01
7940,-8.34379,1.18513,-3.02627,-24.7561,-13.8415,15.6098,5.69,30.00,28.35,4,S01
7960,-7.90805,0.82839,-3.15077,-16.2805,-10.4878,14.4512,5.69,30.00,28.35,4,S01
7980,-7.71891,0.94332,-2.93290,-9.6341,-6.4024,14.3902,5.32,30.00,28.62,4,S01
8000,-7.71891,1.41737,-2.66235,-6.7073,-3.2927,14.3902,5.32,30.00,28.62,4,S01
8020,-7.69018,1.93930,-2.54264,-6.6463,-2.5000,13.0488,5.32,30.00,28.62,4,S01
8040,-7.73327,2.14760,-2.35350,-7.9268,-3.5976,11.4634,5.32,30.00,28.62,4,S01
8060,-7.82425,2.08056,-2.31280,-10.3659,-6.9512,9.6341,5.05,29.91,28.81,4,S01
8080,-8.05649,1.90100,-2.28646,-14.8171,-10.1829,8.1098,5.05,29.91,28.81,4,S01
8100,-8.25042,1.83396,-2.46124,-19.5732,-12.5610,7.1951,5.05,29.91,28.81,4,S01
8120,-8.53772,1.92254,-2.37026,-22.9878,-13.3537,6.8902,5.32,29.27,29.27,4,S01
8140,-8.65504,2.04225,-2.22421,-25.0610,-16.5244,7.0732,5.32,29.27,29.27,4,S01
8160,-8.59758,1.93452,-2.13084,-26.2805,-20.4268,7.0122,5.32,29.27,29.27,4,S01
8180,-8.42520,1.82438,-2.16915,-25.2439,-23.3537,5.4878,5.96,28.44,30.18,4,S01
8200,-8.30788,1.76213,-2.16675,-22.9878,-23.0488,3.9634,5.96,28.44,30.18,4,S01
8220,-8.40604,1.77889,-2.13323,-21.2195,-21.1585,3.2927,5.96,28.44,30.18,4,S01
8240,-8.64546,1.87945,-1.93930,-20.0000,-19.3293,3.1098,5.96,28.44,30.18,4,S01
8260,-8.87531,1.90818,-1.75974,-18.7805,-18.8415,3.5976,6.33,27.80,30.83,4,S01
8280,-8.96629,1.84593,-1.64482,-17.9878,-18.9024,3.9634,6.33,27.80,30.83,4,S01
8300,-8.95910,1.78607,-1.65679,-17.6220,-18.7195,3.9024,6.33,27.80,30.83,4,S01
8320,-8.88728,1.75734,-1.74058,-18.3537,-17.8659,4.1463,6.61,27.06,31.19,4,S01
8340,-8.76517,1.75495,-1.73101,-19.2073,-16.3415,4.8780,6.61,27.06,31.19,4,S01
8360,-8.70292,1.73340,-1.64003,-19.0854,-13.9634,5.6098,6.61,27.06,31.19,4,S01
8380,-8.71968,1.64003,-1.45328,-18.0488,-10.9756,5.7317,6.79,26.70,31.47,4,S01
8400,-8.73165,1.52271,-1.37906,-16.2195,-7.8659,4.6341,6.79,26.70,31.47,4,S01
8420,-8.67180,1.38624,-1.37188,-13.4756,-4.2073,2.9268,6.79,26.70,31.47,4,S01
8440,-8.64546,1.31442,-1.36948,-10.1829,-0.7927,1.8902,6.79,26.70,31.47,4,S01
8460,-8.77714,1.36470,-1.21625,-6.7683,1.8293,2.0732,6.79,26.79,31.10,4,S01
8480,-8.98065,1.47483,-1.10852,-4.2073,4.0854,2.5610,6.79,26.79,31.10,4,S01
8500,-9.14825,1.64960,-1.03190,-2.8659,6.5854,2.1951,6.79,26.79,31.10,4,S01
8520,-9.23444,1.78607,-1.01993,-3.0488,8.5976,1.4024,6.42,27.25,30.73,4,S01
8540,-9.19613,2.22182,-1.64003,-5.6707,9.8780,0.3049,6.42,27.25,30.73,4,S01
8560,-9.23444,2.21703,-1.22823,-10.8537,10.3659,0.6098,6.42,27.25,30.73,4,S01
8580,-9.49062,2.13563,-0.93853,-8.4756,9.8780,0.9756,6.70,27.71,30.28,4,S01
8600,-9.86411,2.29604,-1.11330,-12.0122,9.4512,1.9512,6.70,27.71,30.28,4,S01
8620,-9.67258,1.87466,-1.44849,-17.3780,8.1707,6.4634,6.70,27.71,30.28,4,S01
8640,-9.11473,1.35751,-1.27132,-17.2561,8.6585,8.2317,6.70,27.71,30.28,4,S01
8660,-9.03811,1.48440,-0.93134,-11.5854,12.5610,5.9756,6.70,28.35,29.72,4,S01
8680,-9.30626,1.92494,-0.91219,-7.7439,15.2439,4.1463,6.70,28.35,29.72,4,S01
8700,-9.61511,2.41336,-1.10133,-10.2439,14.9390,5.1829,6.70,28.35,29.72,4,S01
8720,-9.84975,2.63123,-1.09894,-15.9146,13.9634,7.8659,6.70,28.90,28.99,4,S01
8740,-10.21127,2.65996,-0.86191,-20.3659,12.0732,8.7805,6.70,28.90,28.99,4,S01
8760,-10.79067,2.69827,-0.90022,-21.7683,7.2561,7.9268,6.70,28.90,28.99,4,S01
8780,-11.47302,2.94966,-1.29766,-23.2317,0.8537,7.0122,6.97,28.81,29.08,4,S01
8800,-11.81778,3.08613,-1.86508,-23.5976,-4.0244,7.7439,6.97,28.81,29.08,4,S01
8820,-12.26071,3.13162,-2.17154,-18.6585,-2.1341,9.6951,6.97,28.81,29.08,4,S01
8840,-12.88320,2.66954,-2.33914,-9.7561,1.8293,11.0976,6.97,28.81,29.08,4,S01
8860,-12.90714,2.15718,-2.88262,0.8537,2.9268,7.8659,6.51,29.08,29.08,4,S01
8880,-11.95664,1.65439,-3.45962,11.9512,3.5366,1.4024,6.51,29.08,29.08,4,S01
8900,-10.29028,1.27611,-3.74932,21.7073,5.2439,-4.2683,6.51,29.08,29.08,4,S01
8920,-8.89446,1.15640,-3.75411,26.8902,6.0366,-7.3171,5.78,29.45,28.81,4,S01
8940,-8.53054,1.12527,-3.70622,26.6463,7.2561,-7.8659,5.78,29.45,28.81,4,S01
8960,-8.87291,1.10133,-3.54581,22.1951,11.1585,-8.8415,5.78,29.45,28.81,4,S01
8980,-9.19373,1.15401,-3.36385,17.0732,12.9878,-11.8293,5.78,29.72,28.53,4,S01
9000,-8.77475,1.11570,-2.98796,13.8415,10.4878,-22.0732,5.78,29.72,28.53,4,S01
9020,-8.57124,1.12288,-2.70784,13.7195,9.3902,-26.8902,5.78,29.72,28.53,4,S01
9040,-8.33661,1.11809,-2.48997,10.8537,6.5244,-29.5122,5.78,29.72,28.53,4,S01
9060,-7.83383,0.94571,-2.39181,5.6098,0.4878,-29.5732,6.51,29.82,28.44,4,S01
9080,-7.43160,0.76854,-2.48758,1.0366,-5.1220,-28.9634,6.51,29.82,28.44,4,S01
9100,-7.32865,0.80206,-2.54504,-2.4390,-7.0732,-28.3537,6.51,29.82,28.44,4,S01
9120,-7.38132,1.00556,-2.47321,-6.3415,-8.0488,-26.6463,7.71,29.45,28.72,4,S01
9140,-7.39569,1.22583,-2.50912,-10.6707,-10.4878,-23.4146,7.71,29.45,28.72,4,S01
9160,-7.34781,1.34315,-2.68390,-14.8171,-13.0488,-18.7805,7.71,29.45,28.72,4,S01
9180,-7.45315,1.25696,-2.87065,-17.7439,-14.1463,-13.9024,8.81,29.08,29.27,4,S01
9200,-7.73327,1.01993,-2.94487,-18.5366,-14.2073,-10.0000,8.81,29.08,29.27,4,S01
9220,-8.05649,0.72784,-2.95923,-18.2927,-14.3902,-8.4146,8.81,29.08,29.27,4,S01
9240,-8.31267,0.52912,-3.10289,-18.4146,-14.8780,-9.1463,8.81,29.08,29.27,4,S01
9260,-8.51139,0.46926,-3.12443,-17.9878,-14.6341,-9.8171,9.54,28.62,29.63,4,S01
9280,-8.72208,0.47645,-3.03585,-15.5488,-13.9634,-9.6341,9.54,28.62,29.63,4,S01
9300,-9.00459,0.55306,-2.87304,-12.0732,-13.4146,-9.5732,9.54,28.62,29.63,4,S01
9320,-9.09797,0.47645,-2.69108,-10.9146,-13.9634,-10.1220,10.09,27.98,29.91,4,S01
9340,-9.03572,0.24660,-2.46603,-9.5122,-14.2073,-11.7683,10.09,27.98,29.91,4,S01
9360,-8.97826,0.05986,-2.29125,-7.8659,-13.7195,-12.9268,10.09,27.98,29.91,4,S01
9380,-9.10515,-0.31843,-2.24097,-6.3415,-12.4390,-11.4024,10.55,27.52,30.00,4,S01
9400,-9.22725,-0.72305,-2.13802,-3.3537,-10.0000,-9.1463,10.55,27.52,30.00,4,S01
9420,-9.18176,-0.78051,-2.19788,1.5244,-7.9878,-7.4390,10.55,27.52,30.00,4,S01
9440,-9.16500,-0.50039,-2.08056,7.3780,-4.6341,-5.8537,10.55,27.52,30.00,4,S01
9460,-9.14106,-0.15083,-1.93691,11.6463,-1.4634,-4.0854,10.28,27.52,30.37,4,S01
9480,-9.17937,0.25139,-1.87466,13.4146,0.2439,-3.2317,10.28,27.52,30.37,4,S01
9500,-9.11712,0.29688,-1.92015,12.3780,1.4024,-2.4390,10.28,27.52,30.37,4,S01
9520,-9.12430,0.19393,-2.03268,11.0366,2.8049,-1.7683,9.82,27.52,30.09,4,S01
9540,-9.16979,0.13408,-2.10929,9.5122,3.4756,-1.3415,9.82,27.52,30.09,4,S01
9560,-9.27274,0.08140,-2.03747,7.1341,4.2683,-0.9146,9.82,27.52,30.09,4,S01
9580,-9.40921,-0.02873,-1.90578,5.8537,3.9024,-0.9146,9.54,27.61,29.82,4,S01
9600,-9.42118,-0.16999,-1.87945,6.2805,2.3780,-1.5854,9.54,27.61,29.82,4,S01
9620,-9.38288,-0.42138,-1.86508,6.3415,1.1585,-1.8902,9.54,27.61,29.82,4,S01
9640,-9.31344,-0.51475,-1.88184,6.7683,-0.1829,-2.0732,9.54,27.61,29.82,4,S01
9660,-9.17458,-0.48602,-1.78607,7.1951,-0.9146,-1.1585,9.08,27.71,29.72,4,S01
9680,-9.02614,-0.34237,-1.56341,7.1341,-1.0366,0.7317,9.08,27.71,29.72,4,S01
9700,-9.07163,-0.24181,-1.31442,6.5854,-0.3659,3.2927,9.08,27.71,29.72,4,S01
9720,-9.35654,-0.29928,-1.16358,5.6707,1.3415,5.9756,8.53,27.89,29.54,4,S01
9740,-9.73961,-0.33519,-1.03430,4.0244,2.1341,7.4390,8.53,27.89,29.54,4,S01
9760,-9.96706,-0.34716,-0.73502,2.7439,0.1220,7.5610,8.53,27.89,29.54,4,S01
9780,-10.05804,-0.28491,-0.41420,1.8902,-4.2073,6.3415,8.07,27.80,29.63,4,S01
9800,-9.89045,-0.14365,-0.47405,-0.5488,-8.9634,4.3902,8.07,27.80,29.63,4,S01
9820,-9.54089,-0.45011,-1.64960,-3.1707,-8.9024,4.0854,8.07,27.80,29.63,4,S01
9840,-9.49780,-0.75178,-2.64799,-3.3537,-0.1829,6.0976,8.07,27.80,29.63,4,S01
9860,-10.28070,-0.94571,-3.08134,-1.9512,10.3659,8.7805,7.80,28.26,29.36,4,S01
9880,-11.76990,-0.22745,-2.66235,0.7317,16.5244,8.2927,7.80,28.26,29.36,4,S01
9900,-13.04361,-0.04070,-2.68629,2.3171,17.1951,4.5732,7.80,28.26,29.36,4,S01
9920,-13.83370,0.10774,-3.30639,5.5488,18.5366,-0.5488,7.43,28.99,28.35,4,S01
9940,-13.67089,0.33279,-4.18028,11.7683,15.3659,-0.9146,7.43,28.99,28.35,4,S01
9960,-12.78025,0.74699,-4.19225,9.8171,12.0732,3.5976,7.43,28.99,28.35,4,S01
9980,-11.46583,1.59454,-3.82593,7.9878,7.0732,9.5122,6.61,29.08,28.26,4,S01
10000,-10.24239,2.20027,-3.85706,6.8293,1.6463,16.7073,6.61,29.08,28.26,4,S01
10020,-9.57681,2.18112,-3.97916,4.1463,2.2561,23.4146,6.61,29.08,28.26,4,S01
10040,-9.54089,1.75974,-3.73735,-0.0610,6.1585,27.2561,6.61,29.08,28.26,4,S01
10060,-9.65821,1.45567,-3.29682,-3.0488,5.4878,28.4146,5.41,29.17,28.35,4,S01
10080,-9.51216,1.30005,-2.90177,-3.2317,-0.9756,28.9634,5.41,29.17,28.35,4,S01
10100,-9.09557,1.30963,-2.67432,-2.2561,-8.4756,29.5122,5.41,29.17,28.35,4,S01
10120,-8.49942,1.42934,-2.39420,-1.5244,-14.2073,29.3902,4.22,28.53,28.72,4,S01
10140,-7.89368,1.63045,-2.08056,-1.7683,-17.8049,28.1707,4.22,28.53,28.72,4,S01
10160,-7.32626,1.72143,-1.89381,-3.0488,-19.3293,26.4024,4.22,28.53,28.72,4,S01
10180,-6.81150,1.56820,-1.88184,-5.0000,-18.9634,24.5122,3.67,27.98,29.45,4,S01
10200,-6.52899,1.30963,-2.02549,-5.9146,-17.2561,22.1341,3.67,27.98,29.45,4,S01
10220,-6.45716,1.15161,-2.22900,-6.2195,-15.0610,19.0244,3.67,27.98,29.45,4,S01
10240,-6.67264,1.29526,-2.40378,-7.0732,-12.9268,16.0366,3.67,27.98,29.45,4,S01
10260,-7.09402,1.46286,-2.24337,-8.1707,-10.0000,14.4512,3.30,27.80,29.91,4,S01
10280,-7.63990,1.56102,-2.20267,-9.3293,-8.9634,14.0854,3.30,27.80,29.91,4,S01
10300,-8.07564,1.61848,-2.14760,-10.1829,-8.7195,13.2927,3.30,27.80,29.91,4,S01
10320,-8.30309,1.62327,-2.21224,-10.7317,-10.6707,11.6463,3.12,27.52,30.28,4,S01
10340,-8.40365,1.80762,-2.27449,-10.6098,-13.2927,9.6951,3.12,27.52,30.28,4,S01
10360,-8.46111,1.98000,-2.24816,-10.0610,-14.3902,9.1463,3.12,27.52,30.28,4,S01
10380,-8.79869,2.05183,-2.07098,-11.0366,-11.2805,10.7317,3.03,27.06,30.46,4,S01
10400,-9.01417,2.11887,-1.98479,-11.5854,-10.0000,11.0366,3.03,27.06,30.46,4,S01
10420,-9.14106,2.24097,-1.88424,-12.9878,-9.3902,10.8537,3.03,27.06,30.46,4,S01
10440,-9.18895,2.14520,-1.68791,-14.4512,-8.5976,10.6098,3.03,27.06,30.46,4,S01
10460,-9.14585,1.83396,-1.73580,-14.2073,-8.5366,9.3902,3.12,26.88,31.01,4,S01
10480,-8.99980,1.62327,-1.96564,-12.4390,-7.6220,7.0732,3.12,26.88,31.01,4,S01
10500,-8.85376,1.71664,-1.87227,-11.8293,-5.6098,5.2439,3.12,26.88,31.01,4,S01
10520,-8.76038,1.80523,-1.59693,-12.7439,-4.7561,5.0000,3.21,26.70,30.92,4,S01
10540,-8.74362,1.88184,-1.34075,-12.9878,-3.9634,4.4512,3.21,26.70,30.92,4,S01
10560,-8.77714,1.87945,-1.23780,-12.3171,-2.9268,3.1707,3.21,26.70,30.92,4,S01
10580,-8.70771,1.71185,-1.31681,-11.4024,-2.1341,1.5854,3.39,26.61,30.83,4,S01
10600,-8.60716,1.57778,-1.34075,-10.2439,0.3049,-0.2439,3.39,26.61,30.83,4,S01
10620,-8.62391,1.50116,-1.22823,-8.2317,3.8415,-1.2805,3.39,26.61,30.83,4,S01
10640,-8.81545,1.39821,-1.14443,-5.1220,7.3171,-1.7073,3.39,26.61,30.83,4,S01
10660,-9.06684,1.26414,-1.07260,-1.7683,9.8780,-1.7683,3.39,26.79,30.55,4,S01
10680,-9.28711,1.27611,-1.15879,1.0976,11.5854,-1.9512,3.39,26.79,30.55,4,S01
10700,-9.32063,1.34315,-1.28090,2.1341,13.4146,-2.0122,3.39,26.79,30.55,4,S01
10720,-9.27753,1.38145,-1.36470,2.2561,14.6341,-2.7439,3.12,27.34,29.72,4,S01
10740,-9.20571,1.39343,-1.25935,2.3780,14.9390,-4.6951,3.12,27.34,29.72,4,S01
10760,-9.27274,1.35033,-1.08218,2.5610,14.6341,-6.7073,3.12,27.34,29.72,4,S01
10780,-9.42597,1.25456,-1.26653,2.7439,13.2927,-7.6829,3.12,27.89,28.99,4,S01
10800,-9.45470,1.50116,-2.22421,-0.6098,11.4024,-7.9268,3.12,27.89,28.99,4,S01
10820,-9.65342,2.16196,-2.43251,-7.8049,10.5488,-7.0732,3.12,27.89,28.99,4,S01
10840,-10.07959,2.25294,-2.03507,-6.4634,9.3293,-2.8049,3.12,28.35,28.99,4,S01
10860,-10.36211,1.74537,-1.70228,-3.5366,6.2195,1.0366,3.21,28.35,28.62,4,S01
10880,-10.08917,1.11570,-1.75016,-6.4634,2.6220,3.6585,3.21,28.35,28.62,4,S01
10900,-9.29669,0.95289,-1.61369,-6.5854,1.0366,4.3293,3.21,28.35,28.62,4,S01
10920,-8.73165,1.44849,-1.52989,-1.9512,-0.6707,4.5122,2.94,28.35,28.53,4,S01
10940,-8.56406,2.17154,-1.63524,0.6707,0.1829,4.8780,2.94,28.35,28.53,4,S01
10960,-8.66222,2.67432,-1.75016,-2.8049,4.5732,4.1463,2.94,28.35,28.53,4,S01
10980,-9.10994,2.74136,-1.58017,-9.3902,7.7439,0.9756,3.12,28.53,28.26,4,S01
11000,-9.56962,2.60010,-1.58017,-16.4024,7.2561,-3.1707,3.12,28.53,28.26,4,S01
11020,-9.93354,2.28886,-1.81241,-23.5366,6.4634,-4.5732,3.12,28.53,28.26,4,S01
11040,-9.79229,2.10211,-2.17154,-29.8171,5.9146,-4.4512,3.12,28.81,27.89,4,S01
11060,-9.49540,1.98479,-2.40378,-33.1707,5.8537,-3.4146,4.22,28.81,27.89,4,S01
11080,-9.59835,2.10211,-2.44687,-34.4512,6.1585,-2.9268,4.22,28.81,27.89,4,S01
11100,-10.16817,2.37744,-2.33914,-34.6951,6.4634,-3.4146,4.22,28.81,27.89,4,S01
11120,-10.99896,2.52349,-2.31280,-34.6951,5.4268,-3.3537,5.41,28.90,27.43,4,S01
11140,-11.66934,2.50673,-2.47560,-35.1220,4.2073,-2.5000,5.41,28.90,27.43,4,S01
11160,-12.07875,2.26491,-2.68629,-33.4146,5.7317,-1.7683,5.41,28.90,27.43,4,S01
11180,-12.29662,1.91297,-2.81798,-29.0244,9.3293,-2.7439,6.06,29.17,26.88,4,S01
11200,-12.29662,1.73580,-2.90896,-22.7439,12.3171,-5.8537,6.06,29.17,26.88,4,S01
11220,-11.77947,1.64482,-3.21062,-13.5976,13.9024,-10.1829,6.06,29.17,26.88,4,S01
11240,-10.61828,1.67355,-3.60327,-2.3171,14.7561,-13.4146,6.51,29.63,26.24,4,S01
11260,-9.27753,1.59693,-3.57694,8.1098,16.0366,-14.6341,6.51,29.63,26.24,4,S01
11280,-8.41801,1.41976,-3.09091,16.5244,15.9756,-14.2683,6.51,29.63,26.24,4,S01
11300,-8.19775,1.32399,-2.84431,23.4756,13.5366,-12.9878,6.51,29.63,26.24,4,S01
11320,-8.71011,1.30245,-2.80122,21.5854,14.9390,-11.1585,6.33,30.00,25.78,4,S01
11340,-9.44273,1.56820,-3.00472,20.0000,13.7195,-11.6463,6.33,30.00,25.78,4,S01
11360,-9.29908,1.91536,-2.83713,17.9268,9.8171,-16.0366,6.33,30.00,25.78,4,S01
11380,-8.25521,2.34632,-2.44448,9.2683,10.4268,-21.8293,7.16,30.18,25.14,4,S01
11400,-7.37654,2.33435,-2.07098,-2.5000,13.4146,-25.4878,7.16,30.18,25.14,4,S01
11420,-7.38851,1.96325,-2.25534,-11.7073,12.8049,-27.4390,7.16,30.18,25.14,4,S01
11440,-7.78834,1.48440,-2.44209,-17.8659,10.6098,-29.7561,9.17,30.28,24.59,4,S01
11460,-8.03255,0.93853,-2.62165,-22.6829,8.1707,-30.9756,9.17,30.28,24.59,4,S01
11480,-8.05649,0.40462,-2.81079,-23.9634,5.7317,-29.9390,9.17,30.28,24.59,4,S01
11500,-8.14986,0.12210,-2.79403,-21.2805,4.3293,-28.3537,9.17,30.28,24.59,4,S01
11520,-8.25760,0.23224,-2.76291,-17.4390,2.8659,-27.4390,10.73,30.18,24.22,4,S01
11540,-8.33182,0.40223,-2.85149,-14.3902,0.9146,-26.2195,10.73,30.18,24.22,4,S01
11560,-8.37492,0.41659,-2.90177,-11.9512,-0.8537,-24.2683,10.73,30.18,24.22,4,S01
11580,-8.41323,0.32801,-3.04542,-9.3902,-3.2317,-22.4390,11.74,29.91,24.22,4,S01
11600,-8.43717,0.31603,-3.17950,-7.8659,-4.6341,-21.3415,11.74,29.91,24.22,4,S01
11620,-8.41562,0.44293,-3.13401,-8.5976,-3.9634,-20.3049,11.74,29.91,24.22,4,S01
11640,-8.42280,0.57221,-3.05261,-9.5122,-3.4756,-18.7805,12.48,29.63,24.13,4,S01
11660,-8.36295,0.58419,-3.09570,-9.5122,-4.2683,-17.1951,12.48,29.63,24.13,4,S01
11680,-8.28394,0.40462,-3.12204,-10.1829,-3.5976,-15.1829,12.48,29.63,24.13,4,S01
11700,-8.29591,0.11732,-3.00472,-11.3415,-2.0122,-13.4146,12.48,29.63,24.13,4,S01
11720,-8.32464,-0.04310,-2.88980,-11.4634,-0.9146,-12.3171,13.21,29.54,23.94,4,S01
11740,-8.66701,-0.37110,-2.93529,-8.7805,3.7805,-9.0244,13.21,29.54,23.94,4,S01
11760,-8.88967,-0.36392,-2.94966,-5.6098,6.0366,-6.4634,13.21,29.54,23.94,4,S01
11780,-9.01656,-0.23224,-2.88262,-3.5976,6.6463,-3.7195,13.30,29.82,23.58,4,S01
11800,-9.04290,-0.13886,-2.78685,-2.9878,6.5244,-1.0976,13.30,29.82,23.58,4,S01
11820,-9.12909,-0.08619,-2.82755,-3.3537,6.5244,1.2195,13.30,29.82,23.58,4,S01
11840,-9.26317,0.00718,-2.78206,-4.6951,7.1951,3.6585,13.03,30.00,23.03,4,S01
11860,-9.32542,0.21787,-2.73657,-7.6829,7.8049,6.1585,13.03,30.00,23.03,4,S01
11880,-9.42597,0.33279,-2.60010,-11.4634,8.5976,9.2683,13.03,30.00,23.03,4,S01
11900,-9.70609,0.04070,-2.36547,-14.5122,8.8415,13.0488,13.03,30.00,23.03,4,S01
11920,-9.99819,-0.58179,-2.61207,-17.0122,8.5366,15.3659,12.66,30.55,22.66,4,S01
11940,-10.14902,-0.62010,-3.34709,-19.7561,9.6951,14.0244,12.66,30.55,22.66,4,S01
11960,-10.25915,-0.44772,-3.72538,-20.3659,11.6463,12.6829,12.66,30.55,22.66,4,S01
11980,-10.40999,-0.41420,-3.56736,-15.0000,11.1585,12.6829,12.57,31.01,21.93,4,S01
12000,-10.88165,-0.33519,-4.11563,-11.6463,11.4634,10.6098,12.57,31.01,21.93,4,S01
12020,-11.59033,-0.06464,-4.46279,-11.6463,16.0366,9.0244,12.57,31.01,21.93,4,S01
12040,-12.00932,0.31364,-4.21140,-13.6585,17.5000,7.7439,12.57,31.38,21.01,4,S01
12060,-11.52090,0.67756,-4.61363,-15.6707,11.1585,4.8171,12.57,31.38,21.01,4,S01
12080,-10.74997,0.78290,-4.68545,-16.6463,7.6829,2.4390,12.57,31.38,21.01,4,S01
12100,-10.07001,0.93134,-4.52265,-16.2805,6.8293,1.6463,12.57,31.38,21.01,4,S01
12120,-9.38767,1.21386,-4.38857,-16.0976,4.8780,3.1098,12.84,31.47,20.73,4,S01
12140,-8.83460,1.55863,-4.41491,-16.7073,2.5000,4.8780,12.84,31.47,20.73,4,S01
12160,-8.66222,1.65679,-4.31435,-19.8171,2.2561,7.1341,12.84,31.47,20.73,4,S01
12180,-8.74123,1.66876,-3.93367,-24.0244,2.3171,9.4512,13.03,31.47,20.46,4,S01
12200,-8.81066,1.75974,-3.67989,-24.2683,-1.4024,10.6098,13.03,31.47,20.46,4,S01
12220,-8.70771,1.93930,-3.75650,-21.4634,-7.4390,11.0366,13.03,31.47,20.46,4,S01
12240,-8.52096,2.00395,-3.80199,-21.0366,-11.4024,12.0122,13.03,31.10,20.83,4,S01
12260,-8.37252,1.87945,-3.64637,-22.3171,-13.2317,13.6585,13.03,31.10,20.83,4,S01
12280,-8.22887,1.64482,-3.54581,-23.2317,-14.8780,15.0610,13.03,31.10,20.83,4,S01
12300,-8.06607,1.48919,-3.52187,-23.1707,-16.0366,15.5488,13.03,31.10,20.83,4,S01
12320,-7.92960,1.49398,-3.37343,-22.8659,-17.1341,14.5732,12.84,30.83,21.19,4,S01
12340,-7.82665,1.63763,-3.26569,-23.1707,-18.3537,12.9878,12.84,30.83,21.19,4,S01
12360,-7.80989,1.75495,-3.23457,-24.6951,-18.9024,11.8902,12.84,30.83,21.19,4,S01
12380,-7.87214,1.79326,-3.19865,-26.6463,-18.7195,10.8537,13.21,30.46,21.65,4,S01
12400,-7.96551,1.80283,-3.18668,-28.4756,-18.5366,9.4512,13.21,30.46,21.65,4,S01
12420,-7.97748,1.83875,-3.24175,-30.4268,-18.9024,7.9268,13.21,30.46,21.65,4,S01
12440,-7.91044,1.95606,-3.31597,-32.7439,-18.9024,6.4024,13.67,30.00,22.02,4,S01
12460,-7.95593,2.13323,-3.20105,-35.6098,-18.1707,5.4878,13.67,30.00,22.02,4,S01
12480,-8.08282,2.26252,-2.92093,-39.2683,-17.0732,5.0000,13.67,30.00,22.02,4,S01
12500,-8.23845,2.23858,-2.90417,-43.5366,-16.2195,4.5732,13.67,30.00,22.02,4,S01
12520,-8.27197,2.18830,-2.84192,-47.5610,-14.3293,4.1463,14.77,29.54,22.02,4,S01
12540,-8.28633,2.12605,-2.80122,-49.9390,-13.1707,4.2683,14.77,29.54,22.02,4,S01
12560,-8.32703,2.07338,-2.85868,-51.0366,-11.1585,4.6951,14.77,29.54,22.02,4,S01
12580,-8.49463,1.90100,-2.68629,-50.6098,-6.6463,5.4268,15.69,29.54,21.56,4,S01
12600,-8.68856,1.93691,-2.59771,-49.4512,-3.4756,5.1829,15.69,29.54,21.56,4,S01
12620,-8.79390,2.08296,-2.44209,-48.3537,-1.4024,4.8171,15.69,29.54,21.56,4,S01
12640,-8.81306,2.16436,-2.27210,-47.6220,-0.6098,4.8780,16.51,29.45,20.92,4,S01
12660,-8.77714,2.10450,-2.14042,-46.5244,-1.0976,5.0000,16.51,29.45,20.92,4,S01
12680,-8.75081,2.02310,-2.13084,-44.8780,-1.5244,5.2439,16.51,29.45,20.92,4,S01
12700,-8.76517,2.00874,-2.18351,-43.6585,-0.1220,5.9756,16.51,29.45,20.92,4,S01
12720,-8.89207,1.94409,-1.92973,-43.3537,1.9512,7.3780,16.97,29.63,20.37,4,S01
12740,-9.15064,1.98000,-1.64003,-43.4756,-0.3049,8.2927,16.97,29.63,20.37,4,S01
12760,-9.17698,1.94888,-1.57060,-44.0244,-4.8780,8.7805,16.97,29.63,20.37,4,S01
12780,-9.02375,1.86269,-1.62566,-43.9024,-7.8049,7.9268,17.61,29.36,20.09,4,S01
12800,-8.86812,1.83396,-1.61369,-41.2805,-8.3537,6.0976,17.61,29.36,20.09,4,S01
12820,-8.79390,1.84114,-1.54187,-37.3171,-6.9512,3.6585,17.61,29.36,20.09,4,S01
12840,-8.69813,1.81002,-1.55144,-33.7805,-4.4512,1.6463,18.17,29.27,19.63,4,S01
12860,-8.62870,1.70707,-1.53468,-31.2805,-0.6098,1.0366,18.17,29.27,19.63,4,S01
12880,-8.47547,1.63045,-1.51074,-28.7805,3.5976,1.0366,18.17,29.27,19.63,4,S01
12900,-8.44914,1.76692,-1.35751,-25.1829,8.0488,0.7927,18.17,29.27,19.63,4,S01
12920,-8.58561,1.90339,-1.12049,-21.5854,12.1341,0.4268,18.44,29.36,19.08,4,S01
12940,-8.70292,1.88663,-0.98402,-18.6585,14.8780,-0.4268,18.44,29.36,19.08,4,S01
12960,-8.90404,1.82917,-0.81642,-15.6098,16.7073,-1.7683,18.44,29.36,19.08,4,S01
12980,-9.28232,1.86029,-0.54109,-12.8049,16.5244,-3.9024,18.72,29.45,18.35,4,S01
13000,-9.56244,1.96325,-0.41899,-11.0366,14.3293,-6.5854,18.72,29.45,18.35,4,S01
13020,-9.63187,2.44687,-1.08936,-13.1707,11.6463,-8.9024,18.72,29.45,18.35,4,S01
13040,-9.73482,2.86825,-0.99359,-22.1951,8.4146,-9.6951,19.54,29.08,17.89,4,S01
13060,-10.17536,3.69665,-0.96726,-24.5732,5.6707,-8.9024,19.54,29.08,17.89,4,S01
13080,-10.73799,3.85945,-0.89064,-36.1585,1.6463,-5.1220,19.54,29.08,17.89,4,S01
13100,-10.82658,2.83952,-1.63285,-41.3415,-1.1585,-2.5000,19.54,29.08,17.89,4,S01
13120,-10.99657,3.34709,-1.57538,-34.5732,4.8780,-3.7195,20.37,28.81,17.25,4,S01
13140,-11.67173,3.88579,-1.62327,-29.5122,8.9024,-5.1220,20.37,28.81,17.25,4,S01
13160,-12.09072,4.00071,-2.61926,-28.5366,10.9146,-8.1098,20.37,28.81,17.25,4,S01
13180,-11.95904,3.61764,-3.45244,-27.1951,14.8171,-10.7927,21.19,28.53,16.15,4,S01
13200,-11.28627,3.31118,-4.00789,-23.7805,19.6341,-11.8902,21.19,28.53,16.15,4,S01
13220,-10.26155,3.11964,-4.40773,-19.6341,22.5000,-9.7561,21.19,28.53,16.15,4,S01
13240,-9.25838,2.95923,-4.68306,-17.4390,23.1707,-8.9634,22.02,28.44,14.77,4,S01
13260,-8.74602,2.91135,-4.59926,-17.8049,22.9878,-11.9512,22.02,28.44,14.77,4,S01
13280,-8.85136,2.80600,-4.46997,-21.0366,21.4024,-15.5488,22.02,28.44,14.77,4,S01
13300,-9.10754,2.50912,-4.25689,-26.4634,20.7927,-18.2927,22.02,28.44,14.77,4,S01
13320,-9.19852,2.20267,-4.01508,-28.9024,21.0366,-20.9756,23.21,27.89,13.39,4,S01
13340,-9.10036,1.89621,-3.74693,-28.2927,22.4390,-25.1829,23.21,27.89,13.39,4,S01
13360,-8.85855,1.58736,-3.46680,-27.0732,24.2073,-30.7927,23.21,27.89,13.39,4,S01
13380,-8.37971,1.21147,-3.03345,-27.0732,24.1463,-35.3659,25.23,27.16,11.83,4,S01
13400,-7.80989,1.08218,-2.71263,-28.8415,20.9146,-37.9268,25.23,27.16,11.83,4,S01
13420,-7.29034,1.15879,-2.45885,-32.1951,17.1341,-38.2317,25.23,27.16,11.83,4,S01
13440,-6.96234,1.26414,-2.28646,-34.9390,13.7195,-37.0122,26.97,26.06,10.37,4,S01
13460,-6.67982,1.11809,-2.33435,-34.7561,9.6951,-35.5488,26.97,26.06,10.37,4,S01
13480,-6.55772,0.89783,-2.56898,-32.8049,6.7683,-34.6341,26.97,26.06,10.37,4,S01
13500,-6.64630,0.76614,-2.59053,-31.5854,6.3415,-33.3537,26.97,26.06,10.37,4,S01
13520,-6.90488,0.79966,-2.78925,-29.2073,5.4878,-31.0366,28.44,25.05,9.45,4,S01
13540,-7.38611,0.94571,-3.12204,-26.7073,3.4756,-27.8659,28.44,25.05,9.45,4,S01
13560,-8.01100,1.03190,-3.29682,-24.6951,1.4634,-24.8780,28.44,25.05,9.45,4,S01
13580,-8.59040,1.11091,-3.33273,-24.4512,-1.8293,-22.8659,29.36,24.22,8.99,4,S01
13600,-8.92080,1.21865,-3.29442,-26.8902,-6.2805,-22.3780,29.36,24.22,8.99,4,S01
13620,-8.93037,1.11330,-3.18908,-29.1463,-9.5732,-22.3780,29.36,24.22,8.99,4,S01
13640,-8.80109,0.87149,-3.24175,-28.7805,-11.8293,-22.8049,30.37,23.12,8.44,4,S01
13660,-8.76278,0.57940,-3.32555,-26.8293,-11.9512,-23.0488,30.37,23.12,8.44,4,S01
13680,-8.90164,0.41180,-3.16513,-25.3049,-9.5732,-22.9878,30.37,23.12,8.44,4,S01
13700,-9.08600,0.35913,-2.97839,-25.0000,-7.8049,-22.8659,30.37,23.12,8.44,4,S01
13720,-9.16022,0.40223,-2.89698,-25.0610,-7.6829,-22.2561,31.28,22.29,7.89,4,S01
13740,-8.99262,0.27294,-2.88501,-24.3293,-8.4146,-20.7317,31.28,22.29,7.89,4,S01
13760,-8.88728,0.26815,-2.91614,-23.9634,-8.7195,-19.7561,31.28,22.29,7.89,4,S01
13780,-8.99502,0.40462,-2.77009,-24.7561,-6.9512,-18.1098,32.02,21.47,7.34,4,S01
13800,-9.06445,0.50518,-2.53546,-26.6463,-5.0610,-15.4268,32.02,21.47,7.34,4,S01
13820,-8.90883,0.51475,-2.64799,-27.7439,-5.0610,-12.9878,32.02,21.47,7.34,4,S01
13840,-8.72687,0.39265,-2.83713,-28.3537,-4.7561,-10.9146,32.57,21.10,6.51,4,S01
13860,-8.71489,0.09816,-2.95684,-28.7805,-2.8049,-8.5976,32.57,21.10,6.51,4,S01
13880,-8.99023,-0.21308,-2.94966,-27.9878,-0.1220,-6.2195,32.57,21.10,6.51,4,S01
13900,-9.29429,-0.45250,-2.76291,-26.5244,1.4634,-3.7805,32.57,21.10,6.51,4,S01
13920,-9.59117,-0.69432,-2.47082,-23.8415,1.2805,-1.8293,32.66,20.92,5.69,4,S01
13940,-9.78750,-0.87149,-2.46842,-18.5366,-1.6463,-1.2805,32.66,20.92,5.69,4,S01
13960,-9.98143,-0.98402,-2.64559,-13.3537,-4.4512,-1.0976,32.66,20.92,5.69,4,S01
13980,-10.08677,-0.98402,-2.81319,-10.9146,-5.4878,-0.4878,32.94,20.73,5.50,4,S01
14000,-10.22085,-0.72065,-2.54264,-11.2195,-5.6707,-0.3049,32.94,20.73,5.50,4,S01
14020,-10.46506,-0.28491,-2.29604,-12.7439,-6.8293,-0.4268,32.94,20.73,5.50,4,S01
14040,-10.22324,-0.01915,-3.16274,-15.4878,-7.3171,-0.0610,33.03,20.55,5.05,4,S01
14060,-10.09874,-0.73263,-3.66313,-12.3780,-2.9878,1.6463,33.03,20.55,5.05,4,S01
14080,-11.08515,-0.56982,-3.33752,-10.2439,4.3293,2.4390,33.03,20.55,5.05,4,S01
14100,-12.64617,-0.43814,-3.40934,-16.1585,10.5488,2.4390,33.03,20.55,5.05,4,S01
14120,-13.45781,0.03831,-3.06218,-12.6220,12.0732,-0.4878,33.21,20.37,4.04,4,S01
14140,-12.89278,0.79727,-3.47399,-13.8415,7.0122,-2.4390,33.21,20.37,4.04,4,S01
14160,-11.78187,0.67756,-3.30160,-12.2561,-4.3293,1.4634,33.21,20.37,4.04,4,S01
14180,-10.50097,0.99359,-3.23457,-8.9024,-14.3293,2.3171,33.39,20.09,4.04,4,S01
14200,-9.43316,1.23301,-2.98796,-6.5854,-15.6707,0.6707,33.39,20.09,4.04,4,S01
14220,-8.93277,1.30723,-3.13640,0.1220,-15.4268,1.7683,33.39,20.09,4.04,4,S01
14240,-9.21289,1.31681,-3.24414,5.9146,-12.1951,7.0732,33.12,20.37,4.59,4,S01
14260,-9.57681,1.24020,-2.99993,9.4512,-8.3537,12.9878,33.12,20.37,4.59,4,S01
14280,-9.37809,1.07021,-2.67672,13.9024,-10.3049,16.2195,33.12,20.37,4.59,4,S01
14300,-8.65504,0.86431,-2.45645,18.7195,-17.3171,17.6220,33.12,20.37,4.59,4,S01
14320,-7.74764,0.90740,-2.26013,22.3780,-24.5122,18.5976,32.48,20.92,5.96,4,S01
14340,-7.12275,1.19950,-1.77889,25.8537,-27.8659,19.8171,32.48,20.92,5.96,4,S01
14360,-6.53617,1.26893,-1.72383,27.5610,-29.4512,20.6707,32.48,20.92,5.96,4,S01
14380,-6.32309,1.04866,-1.79086,28.3537,-25.5488,20.0000,31.83,21.56,7.52,4,S01
14400,-6.42364,0.81882,-1.75974,29.8171,-18.9634,18.1707,31.83,21.56,7.52,4,S01
14420,-6.59603,0.72784,-1.84593,33.2927,-15.4878,17.1341,31.83,21.56,7.52,4,S01
14440,-6.81869,0.61052,-2.18351,38.9024,-12.8659,17.7439,31.01,21.93,9.17,4,S01
14460,-8.09719,0.83558,-1.81241,45.3049,-3.7195,18.7805,31.01,21.93,9.17,4,S01
14480,-8.65983,1.47483,-1.66876,43.5366,-5.0000,17.1951,31.01,21.93,9.17,4,S01
14500,-9.01656,2.03268,-1.57778,40.6707,-7.3171,15.6707,31.01,21.93,9.17,4,S01
14520,-9.18895,2.19548,-1.64960,38.1098,-8.9024,14.8171,30.37,22.29,10.73,4,S01
14540,-9.34457,2.03507,-1.65439,33.5976,-8.6585,14.5122,30.37,22.29,10.73,4,S01
14560,-9.50498,1.83396,-1.57778,26.9512,-7.5000,14.2683,30.37,22.29,10.73,4,S01
14580,-9.57202,1.81959,-1.42216,19.2073,-7.1341,13.7195,29.72,22.66,11.56,4,S01
14600,-9.40442,1.91297,-1.38145,11.9512,-8.4146,13.0488,29.72,22.66,11.56,4,S01
14620,-9.12430,1.81002,-1.41737,7.0732,-9.0244,12.5000,29.72,22.66,11.56,4,S01
14640,-8.76757,1.58736,-1.56820,6.2195,-7.8049,11.8902,29.54,22.84,11.93,4,S01
14660,-8.45153,1.39821,-1.67834,7.0732,-4.6341,11.0366,29.54,22.84,11.93,4,S01
14680,-8.40604,1.32160,-1.58736,7.3171,-0.1220,9.7561,29.54,22.84,11.93,4,S01
14700,-8.58321,1.37427,-1.41018,6.9512,3.7805,7.6220,29.54,22.84,11.93,4,S01
14720,-8.72208,1.48680,-1.18752,5.6707,5.9146,4.8171,29.45,22.84,11.93,4,S01
14740,-8.76038,1.62327,-1.01275,2.9878,7.1341,1.7073,29.45,22.84,11.93,4,S01
14760,-8.79630,1.71664,-0.93613,-0.7927,8.3537,-1.8902,29.45,22.84,11.93,4,S01
14780,-8.87291,1.70228,-0.96486,-3.8415,9.2683,-5.0610,29.54,22.39,11.28,4,S01
14800,-9.07402,1.58975,-0.97923,-6.0366,9.4512,-7.3171,29.54,22.39,11.28,4,S01
14820,-9.38527,1.56102,-1.06542,-8.4146,8.7805,-8.9024,29.54,22.39,11.28,4,S01
14840,-9.68455,1.62087,-0.98402,-11.6463,7.3780,-9.5732,30.28,22.11,10.37,4,S01
14860,-9.77553,1.69749,-1.00078,-13.6585,5.0000,-9.6951,30.28,22.11,10.37,4,S01
14880,-9.84735,1.69031,-1.04866,-14.3902,2.9878,-9.2073,30.28,22.11,10.37,4,S01
14900,-9.99579,1.64721,-1.10133,-13.5366,1.2805,-8.2317,30.28,22.11,10.37,4,S01
14920,-10.01734,1.79086,-1.23062,-14.3902,-0.9146,-7.3171,30.83,21.74,9.72,4,S01
14940,-10.24239,2.08535,-1.53468,-19.2073,-1.0976,-6.0366,30.83,21.74,9.72,4,S01
14960,-10.99417,2.32956,-2.36547,-25.3049,2.9268,0.1829,30.83,21.74,9.72,4,S01
14980,-11.50893,2.25534,-2.38702,-31.2195,8.0488,11.7683,31.10,22.20,8.07,4,S01
15000,-11.18810,2.11887,-1.55384,-36.7683,6.4634,19.8780,31.10,22.20,8.07,4,S01
15020,-10.18733,1.95846,-1.27611,-35.9146,-4.3293,21.7073,31.10,22.20,8.07,4,S01
15040,-9.17458,1.41258,-1.46765,-28.7805,-13.9634,18.5976,31.28,22.57,7.52,4,S01
15060,-8.46590,0.84515,-2.01831,-19.2683,-17.0732,11.7073,31.28,22.57,7.52,4,S01
15080,-8.15465,0.95768,-2.76051,-9.5122,-13.1707,4.0244,31.28,22.57,7.52,4,S01
15100,-8.39168,1.45807,-3.12683,-4.2073,-4.3293,-1.2805,31.28,22.57,7.52,4,S01
15120,-8.66222,2.06859,-3.17711,-5.1220,2.1341,-2.6220,32.29,22.39,6.88,4,S01
15140,-8.67419,2.23858,-3.01430,-10.7317,3.3537,-1.0976,32.29,22.39,6.88,4,S01
15160,-8.48984,1.98719,-2.92093,-16.0366,0.4268,0.6707,32.29,22.39,6.88,4,S01
15180,-8.48266,1.54905,-2.92093,-19.0244,-2.6829,1.4634,33.39,22.02,6.33,4,S01
15200,-8.79630,1.12049,-3.04303,-19.6341,-3.0488,1.7683,33.39,22.02,6.33,4,S01
15220,-9.22246,0.97205,-3.26809,-20.3049,-0.9756,0.2439,33.39,22.02,6.33,4,S01
15240,-9.61751,1.08697,-3.32794,-23.2317,2.8049,-3.5976,34.68,22.02,5.14,4,S01
15260,-9.73004,1.29766,-3.24175,-26.7683,5.9146,-8.9024,34.68,22.02,5.14,4,S01
15280,-9.31823,1.54187,-3.35667,-29.2683,6.2805,-15.0000,34.68,22.02,5.14,4,S01
15300,-8.78911,1.71904,-3.40455,-31.1585,6.9512,-20.1829,34.68,22.02,5.14,4,S01
15320,-8.46829,1.69509,-3.16274,-33.2927,9.6951,-22.8049,36.42,21.65,3.49,4,S01
15340,-8.45871,1.36948,-2.95684,-35.9146,13.1098,-22.1951,36.42,21.65,3.49,4,S01
15360,-8.66462,0.91698,-2.82995,-38.1098,16.7683,-19.9390,36.42,21.65,3.49,4,S01
15380,-8.88967,0.62010,-2.72700,-39.2073,19.4512,-18.4146,37.61,21.19,1.38,4,S01
15400,-9.10754,0.61770,-2.59771,-39.7561,20.5488,-18.2317,37.61,21.19,1.38,4,S01
15420,-9.21768,0.73741,-2.44448,-41.2805,19.8780,-18.5366,37.61,21.19,1.38,4,S01
15440,-9.14825,0.81163,-2.29365,-43.1098,17.8049,-18.4146,38.72,20.55,-1.01,4,S01
15460,-9.03572,0.72305,-2.28646,-45.3659,15.7927,-17.1341,38.72,20.55,-1.01,4,S01
15480,-8.98783,0.64404,-2.20027,-46.9512,15.2439,-15.3049,38.72,20.55,-1.01,4,S01
15500,-8.96150,0.57461,-2.07577,-48.2927,15.0610,-13.2317,38.72,20.55,-1.01,4,S01
15520,-8.97107,0.38068,-1.92494,-49.8781,15.5488,-10.9146,39.54,20.00,-3.49,4,S01
15540,-9.05966,0.21548,-1.79805,-52.1341,16.3415,-8.7805,39.54,20.00,-3.49,4,S01
15560,-9.30626,0.20590,-1.52511,-55.6707,16.0976,-6.8293,39.54,20.00,-3.49,4,S01
15580,-9.63906,0.14844,-1.25696,-59.5732,14.1463,-5.9146,40.18,19.63,-6.15,4,S01
15600,-9.80186,-0.22027,-1.16837,-60.7317,10.7317,-6.7683,40.18,19.63,-6.15,4,S01
15620,-9.80665,-0.60813,-1.33596,-58.7805,6.8293,-9.9390,40.18,19.63,-6.15,4,S01
15640,-9.92397,-1.07500,-1.45328,-55.7927,5.0610,-13.9024,41.01,18.99,-8.07,4,S01
15660,-10.25676,-1.62087,-1.44849,-51.4024,3.1098,-18.0488,41.01,18.99,-8.07,4,S01
15680,-10.40999,-2.00155,-1.44849,-44.7561,-1.2805,-23.4756,41.01,18.99,-8.07,4,S01
15700,-9.94791,-1.88184,-1.33836,-37.0732,-8.1098,-29.9390,41.01,18.99,-8.07,4,S01
15720,-9.17219,-1.31681,-1.64482,-30.1220,-16.2195,-33.5366,42.39,17.98,-7.61,4,S01
15740,-8.62870,-0.27054,-2.62644,-28.9024,-20.1220,-33.1098,42.39,17.98,-7.61,4,S01
15760,-8.98783,0.54827,-2.55701,-32.5000,-17.1951,-29.3293,42.39,17.98,-7.61,4,S01
15780,-9.92157,0.87628,-2.06141,-32.4390,-16.5854,-28.3537,43.03,17.16,-7.25,4,S01
15800,-10.90080,0.94810,-2.67911,-30.6098,-18.9024,-33.3537,43.03,17.16,-7.25,4,S01
15820,-12.09551,1.58496,-3.80439,-17.3780,-15.9756,-36.2805,43.03,17.16,-7.25,4,S01
15840,-10.94868,2.32238,-3.75411,-21.5854,-24.0244,-30.0610,43.49,16.42,-6.70,4,S01
15860,-9.58399,3.21541,-3.41174,-29.9390,-29.8780,-21.0366,43.49,16.42,-6.70,4,S01
15880,-8.75560,3.89537,-2.63841,-35.9146,-32.5000,-10.7317,43.49,16.42,-6.70,4,S01
15900,-8.24803,3.45962,-1.98240,-37.1341,-33.0488,-0.3659,43.49,16.42,-6.70,4,S01
15920,-8.03015,2.07338,-1.99437,-31.7073,-31.9512,7.8049,43.30,17.52,-6.51,4,S01
15940,-8.28633,0.93613,-2.44448,-24.9390,-25.7927,13.2927,43.30,17.52,-6.51,4,S01
15960,-8.88009,0.37828,-2.27449,-19.3293,-13.1707,18.6585,43.30,17.52,-6.51,4,S01
15980,-9.37091,0.78051,-1.54665,-14.3293,-3.9634,21.0976,42.57,19.17,-6.51,4,S01
16000,-9.35175,1.72143,-1.12527,-11.2195,-4.2073,20.6707,42.57,19.17,-6.51,4,S01
16020,-8.98304,2.42293,-1.07979,-11.7683,-5.9756,18.2317,42.57,19.17,-6.51,4,S01
16040,-8.63828,2.71263,-0.96965,-15.9146,-4.8171,14.4512,42.02,20.18,-6.42,4,S01
16060,-8.54251,2.55701,-0.97205,-20.8537,-3.4756,12.0122,42.02,20.18,-6.42,4,S01
16080,-8.83221,2.09732,-1.12527,-24.6951,-0.9146,11.8902,42.02,20.18,-6.42,4,S01
16100,-9.19373,1.68552,-1.24259,-26.4024,2.8049,12.8049,42.02,20.18,-6.42,4,S01
16120,-9.25598,1.46286,-1.31442,-26.8902,5.0000,12.9268,41.56,20.73,-7.16,4,S01
16140,-9.15543,1.43413,-1.20189,-24.8171,5.5488,12.6829,41.56,20.73,-7.16,4,S01
16160,-9.08360,1.48919,-0.97923,-20.9756,5.4268,12.5610,41.56,20.73,-7.16,4,S01
16180,-9.11712,1.55144,-0.79966,-17.9268,4.5122,12.0122,41.28,21.38,-7.43,4,S01
16200,-9.16740,1.64242,-0.62010,-16.4634,3.5976,10.0610,41.28,21.38,-7.43,4,S01
16220,-8.99262,1.77410,-0.50757,-16.9512,1.9512,7.1341,41.28,21.38,-7.43,4,S01
16240,-8.74123,1.95606,-0.37589,-18.3537,-0.1220,4.3293,41.38,21.47,-7.71,4,S01
16260,-8.71250,2.14520,-0.19393,-20.6098,-0.7927,1.6463,41.38,21.47,-7.71,4,S01
16280,-8.95192,2.11887,-0.00958,-22.6220,-0.3049,-1.3415,41.38,21.47,-7.71,4,S01
16300,-9.14585,1.97761,-0.01915,-24.6341,-0.4268,-4.3902,41.38,21.47,-7.71,4,S01
16320,-9.08600,1.94888,-0.22984,-26.2805,-1.2195,-6.4634,41.93,21.19,-8.07,4,S01
16340,-9.02135,2.00395,-0.19632,-27.2561,-0.6707,-7.2561,41.93,21.19,-8.07,4,S01
16360,-9.25359,2.08056,-0.01915,-26.0976,0.1220,-8.0488,41.93,21.19,-8.07,4,S01
16380,-9.93594,1.92015,0.20111,-23.1098,1.0976,-8.9024,42.94,20.73,-8.26,4,S01
16400,-10.50097,1.81720,0.36152,-20.7927,1.5854,-10.3049,42.94,20.73,-8.26,4,S01
16420,-10.83376,2.34153,-0.19154,-22.8659,0.4268,-11.4024,42.94,20.73,-8.26,4,S01
16440,-11.58554,3.08373,-1.23062,-27.8049,2.6220,-7.6829,43.85,20.64,-8.53,4,S01
16460,-11.87764,3.26330,-1.48680,-32.5000,5.2439,-0.4878,43.85,20.64,-8.53,4,S01
16480,-11.16416,3.27766,-2.15957,-38.2927,1.4024,1.3415,43.85,20.64,-8.53,4,S01
16500,-10.51055,3.17471,-2.79164,-47.3781,-3.0488,0.6707,43.85,20.64,-8.53,4,S01
16520,-9.77792,1.59454,-3.00233,-44.9390,-5.7317,4.3902,44.95,21.28,-8.90,4,S01
16540,-8.66701,0.16281,-3.70622,-34.8171,-9.1463,3.4146,44.95,21.28,-8.90,4,S01
16560,-8.06128,-0.03352,-4.17549,-30.1220,-9.4512,-2.8049,44.95,21.28,-8.90,4,S01
16580,-8.41323,0.79248,-3.67031,-31.0366,-3.9634,-7.5000,46.24,21.47,-8.81,4,S01
16600,-9.06205,1.58736,-2.95923,-39.0854,0.8537,-9.8171,46.24,21.47,-8.81,4,S01
16620,-9.18655,2.15718,-2.69108,-50.3049,1.0366,-12.7439,46.24,21.47,-8.81,4,S01
16640,-9.14585,1.86748,-2.67432,-60.4878,-0.5488,-15.4878,47.43,20.64,-10.64,4,S01
16660,-9.07402,1.20428,-2.82276,-67.3781,-0.0610,-19.6951,47.43,20.64,-10.64,4,S01
16680,-8.97826,0.68714,-2.86586,-70.6707,2.0732,-23.6585,47.43,20.64,-10.64,4,S01
16700,-8.88967,0.60334,-2.67432,-72.3781,3.4756,-24.4512,47.43,20.64,-10.64,4,S01
16720,-8.65743,0.71587,-2.50673,-74.2683,4.2683,-22.6829,48.62,19.63,-12.75,4,S01
16740,-8.48026,0.70629,-2.56419,-75.9146,4.8780,-20.7927,48.62,19.63,-12.75,4,S01
16760,-8.62870,0.57461,-2.65756,-77.7439,6.4024,-19.2683,48.62,19.63,-12.75,4,S01
16780,-9.00220,0.42617,-2.61447,-79.8781,7.5610,-17.5000,49.17,18.72,-15.41,4,S01
16800,-9.28232,0.23703,-2.48758,-80.9756,7.1341,-15.7317,49.17,18.72,-15.41,4,S01
16820,-9.48583,0.08859,-2.33195,-81.7073,6.5244,-15.9756,49.17,18.72,-15.41,4,S01
16840,-9.60314,0.01437,-2.31280,-81.6463,6.3415,-17.5610,49.45,17.61,-17.80,4,S01
16860,-9.67736,0.15562,-2.28886,-80.7317,5.7927,-19.1463,49.45,17.61,-17.80,4,S01
16880,-9.51216,0.45250,-2.15718,-80.7927,5.9756,-19.8171,49.45,17.61,-17.80,4,S01
16900,-9.43076,0.78051,-1.86508,-82.6829,7.8659,-19.2683,49.45,17.61,-17.80,4,S01
16920,-9.34936,0.80206,-1.73819,-86.4634,9.2683,-18.6585,48.81,16.42,-20.55,4,S01
16940,-9.24401,0.56982,-1.65439,-87.2561,10.2439,-18.5976,48.81,16.42,-20.55,4,S01
16960,-9.15064,0.13408,-1.72622,-85.5488,11.8902,-18.9634,48.81,16.42,-20.55,4,S01
16980,-9.27274,-0.27533,-1.80283,-84.8781,14.5732,-19.7561,48.17,14.86,-23.12,4,S01
17000,-9.50977,-0.50996,-1.92733,-83.7805,17.9268,-20.9146,48.17,14.86,-23.12,4,S01
17020,-9.67497,-0.63686,-1.92015,-81.9512,20.7317,-21.9512,48.17,14.86,-23.12,4,S01
17040,-9.58399,-0.60573,-1.92015,-80.0610,20.0610,-23.2927,47.16,13.30,-25.23,4,S01
17060,-9.33499,-0.37350,-2.04225,-77.9268,17.1341,-24.5122,47.16,13.30,-25.23,4,S01
17080,-9.30866,0.08619,-1.92254,-78.1098,15.1829,-24.9390,47.16,13.30,-25.23,4,S01
17100,-9.49301,0.38547,-1.67834,-81.1585,13.8415,-23.7805,47.16,13.30,-25.23,4,S01
17120,-9.57441,0.13408,-1.56102,-84.7561,12.2561,-22.1951,45.14,12.20,-27.16,4,S01
17140,-9.60314,-0.26576,-1.59214,-85.7927,10.7317,-23.3537,45.14,12.20,-27.16,4,S01
17160,-9.57441,-0.53630,-1.74058,-83.6585,9.6341,-25.9146,45.14,12.20,-27.16,4,S01
17180,-9.51935,-0.50996,-2.01831,-80.6098,9.0244,-27.5000,42.94,11.10,-28.62,4,S01
17200,-9.48104,-0.24900,-2.08056,-74.7561,9.8780,-24.6341,42.94,11.10,-28.62,4,S01
17220,-9.50977,-0.25857,-2.02071,-74.6341,7.5610,-22.1341,42.94,11.10,-28.62,4,S01
17240,-9.51695,-0.39744,-2.06380,-76.0976,5.3049,-18.9634,40.00,10.64,-29.82,4,S01
17260,-9.44513,-0.39983,-2.01592,-77.7439,5.0610,-15.6707,40.00,10.64,-29.82,4,S01
17280,-9.21049,-0.27773,-1.87227,-78.7805,5.9756,-13.4756,40.00,10.64,-29.82,4,S01
17300,-8.91601,-0.06704,-1.75974,-78.5976,7.5610,-12.6829,40.00,10.64,-29.82,4,S01
17320,-8.74602,0.22027,-1.81959,-79.2073,10.2439,-11.7683,36.51,10.28,-31.01,4,S01
17340,-8.55209,0.64404,-1.91297,-82.1341,13.2927,-10.0000,36.51,10.28,-31.01,4,S01
17360,-8.43717,1.01275,-1.72383,-87.9878,17.0732,-7.9878,36.51,10.28,-31.01,4,S01
17380,-8.29112,1.02472,-1.77171,-94.6951,20.2439,-5.7317,32.39,9.45,-32.75,4,S01
17400,-8.17620,0.46687,-2.44448,-100.1220,22.7439,-2.8049,32.39,9.45,-32.75,4,S01
17420,-8.65743,-0.44053,-3.00712,-101.5244,25.6707,1.1585,32.39,9.45,-32.75,4,S01
17440,-9.37809,-0.83318,-3.27287,-98.9634,26.2195,3.2927,27.52,8.53,-34.13,4,S01
17460,-9.85453,-0.73502,-3.43807,-95.7927,25.4268,3.2927,27.52,8.53,-34.13,4,S01
17480,-10.28070,-0.61531,-3.16513,-89.3293,24.5122,3.1707,27.52,8.53,-34.13,4,S01
17500,-10.52012,-0.46687,-2.59771,-79.5732,19.8171,3.1098,27.52,8.53,-34.13,4,S01
17520,-10.65659,-0.66080,-2.29125,-75.6098,12.9878,3.9634,23.30,8.26,-34.68,4,S01
17540,-11.00136,-0.96486,-2.26491,-75.6707,9.6341,6.6463,23.30,8.26,-34.68,4,S01
17560,-11.33415,-0.83797,-2.33195,-72.9878,9.0854,9.1463,23.30,8.26,-34.68,4,S01
17580,-11.29584,-0.57700,-2.78685,-65.9146,8.3537,11.2195,19.27,8.62,-34.95,4,S01
17600,-11.05164,-0.26576,-3.87861,-56.5854,10.3659,13.6585,19.27,8.62,-34.95,4,S01
17620,-10.86010,0.45250,-4.89854,-46.0976,13.8415,16.0366,19.27,8.62,-34.95,4,S01
17640,-10.55125,1.54426,-4.99191,-39.6951,14.3902,18.2927,16.33,8.99,-34.95,4,S01
17660,-10.22803,2.74136,-4.62081,-38.7805,11.6463,20.1829,16.33,8.99,-34.95,4,S01
17680,-10.02213,3.61524,-4.40294,-43.1707,7.8049,21.4024,16.33,8.99,-34.95,4,S01
17700,-9.55287,3.30879,-4.38139,-47.8659,3.7805,23.3537,16.33,8.99,-34.95,4,S01
17720,-8.92798,2.45645,-4.50110,-45.6098,1.0366,25.1829,13.21,9.91,-35.05,4,S01
17740,-8.49702,1.93691,-4.45561,-40.4268,1.2805,26.8902,13.21,9.91,-35.05,4,S01
17760,-8.39647,1.97282,-4.25210,-34.7561,3.1707,28.7195,13.21,9.91,-35.05,4,S01
17780,-8.64307,2.43490,-3.96719,-28.7195,5.4268,29.0244,11.28,10.64,-35.41,4,S01
17800,-8.94474,2.89938,-3.68468,-24.3902,6.0366,27.3780,11.28,10.64,-35.41,4,S01
17820,-8.87531,3.06937,-3.49314,-22.8049,3.0488,24.9390,11.28,10.64,-35.41,4,S01
17840,-8.42759,3.02867,-3.40455,-21.6463,-0.9756,22.5610,9.63,11.56,-35.60,4,S01
17860,-7.97030,3.03106,-3.39737,-20.9756,-2.8049,20.0610,9.63,11.56,-35.60,4,S01
17880,-7.66863,2.96163,-3.29203,-21.5854,-2.0122,17.4390,9.63,11.56,-35.60,4,S01
17900,-7.52498,2.92811,-3.39258,-23.8415,-0.6707,14.1463,9.63,11.56,-35.60,4,S01
17920,-7.52258,3.07176,-3.51948,-27.5000,1.2805,11.2195,8.07,11.93,-35.78,4,S01
17940,-7.52258,3.32794,-3.22260,-30.3049,3.5366,8.5366,8.07,11.93,-35.78,4,S01
17960,-7.47709,3.73256,-2.94966,-32.4390,2.1341,5.3659,8.07,11.93,-35.78,4,S01
17980,-7.55849,3.74693,-2.90656,-35.8537,0.0610,3.7805,6.42,12.02,-36.06,4,S01
18000,-7.78594,3.27048,-2.93050,-38.4146,-0.3049,3.2927,6.42,12.02,-36.06,4,S01
18020,-8.08522,2.77249,-2.98796,-38.1098,-2.2561,2.6220,6.42,12.02,-36.06,4,S01
18040,-8.34619,2.59531,-3.00233,-36.7683,-4.6951,1.6463,4.86,12.57,-36.06,4,S01
18060,-8.49463,2.67432,-2.68869,-35.4268,-6.9512,0.8537,4.86,12.57,-36.06,4,S01
18080,-8.43238,2.80361,-2.44687,-34.2073,-11.0976,1.2805,4.86,12.57,-36.06,4,S01
18100,-8.26000,2.75573,-2.31280,-34.8780,-15.3659,2.3171,4.86,12.57,-36.06,4,S01
18120,-8.26000,2.71742,-2.19309,-34.3293,-19.2683,2.4390,3.21,13.85,-35.69,4,S01
18140,-8.37492,2.74615,-2.07338,-32.0732,-23.6585,1.8293,3.21,13.85,-35.69,4,S01
18160,-8.49223,2.72221,-2.19788,-29.3293,-27.4390,0.6098,3.21,13.85,-35.69,4,S01
18180,-8.63349,2.65996,-2.15478,-27.2561,-27.9268,-1.0366,2.20,15.14,-35.14,4,S01
18200,-8.67180,2.53546,-1.96564,-27.9268,-26.6463,-2.2561,2.20,15.14,-35.14,4,S01
18220,-8.71968,2.50194,-1.81241,-30.3659,-25.5488,-4.2683,2.20,15.14,-35.14,4,S01
18240,-8.66701,2.62405,-1.84593,-30.7927,-24.2073,-6.6463,1.19,16.06,-34.50,4,S01
18260,-8.65025,2.49476,-1.88903,-30.2439,-22.0122,-7.3780,1.19,16.06,-34.50,4,S01
18280,-8.67659,2.37505,-1.78847,-27.1341,-20.0000,-7.5610,1.19,16.06,-34.50,4,S01
18300,-8.75320,2.43969,-1.57060,-22.3171,-17.3780,-7.4390,1.19,16.06,-34.50,4,S01
18320,-8.82503,2.59292,-1.35991,-19.0244,-14.3902,-7.2561,0.83,16.61,-33.94,4,S01
18340,-8.75560,2.60250,-1.16598,-15.7317,-12.0122,-7.5610,0.83,16.61,-33.94,4,S01
18360,-8.49223,2.45885,-1.10133,-12.6220,-11.0976,-8.3537,0.83,16.61,-33.94,4,S01
18380,-8.26239,2.39899,-1.09894,-9.6341,-9.6341,-9.5122,0.92,16.97,-33.85,4,S01
18400,-8.28154,2.54743,-1.06542,-7.7439,-7.6829,-10.1829,0.92,16.97,-33.85,4,S01
18420,-8.51378,2.67911,-1.04627,-7.4390,-5.5488,-10.1829,0.92,16.97,-33.85,4,S01
18440,-8.84179,2.67672,-1.15879,-7.0122,-2.0122,-10.1829,1.19,16.70,-34.13,4,S01
18460,-9.13388,2.71502,-1.21386,-4.8780,3.4756,-10.4268,1.19,16.70,-34.13,4,S01
18480,-9.41879,2.96163,-1.49398,-2.1951,9.2683,-11.1585,1.19,16.70,-34.13,4,S01
18500,-9.76834,3.30160,-1.46046,-2.8049,12.1341,-11.8293,1.19,16.70,-34.13,4,S01
18520,-10.23521,3.33273,-1.32639,-0.5488,10.0610,-10.7927,1.47,16.06,-34.31,4,S01
18540,-10.47463,2.82516,-1.28808,-0.7927,5.4878,-8.1707,1.47,16.06,-34.31,4,S01
18560,-10.05325,2.20985,-1.29047,-2.6829,1.5854,-5.7927,1.47,16.06,-34.31,4,S01
18580,-9.52653,2.07577,-1.28569,-0.3049,-0.0610,-5.6098,1.93,15.96,-34.50,4,S01
18600,-9.13388,2.88741,-1.02711,9.3293,-0.7317,-4.0854,1.93,15.96,-34.50,4,S01
18620,-9.45710,3.08373,-1.12527,8.2317,1.4024,-4.0854,1.93,15.96,-34.50,4,S01
18640,-9.71806,2.93050,-1.15879,5.3659,-0.1220,-4.2683,2.75,15.87,-34.50,4,S01
18660,-9.76834,2.65996,-1.12527,3.6585,-1.0366,-4.1463,2.75,15.87,-34.50,4,S01
18680,-9.81144,2.45885,-1.18274,4.1463,1.9512,-3.5976,2.75,15.87,-34.50,4,S01
18700,-9.92876,2.36787,-1.23780,5.9756,5.2439,-3.5366,2.75,15.87,-34.50,4,S01
18720,-9.86411,2.41575,-1.35991,6.7683,6.5244,-4.2683,3.49,15.41,-34.86,4,S01
18740,-9.72764,2.58095,-1.55623,5.2439,8.4146,-4.1463,3.49,15.41,-34.86,4,S01
18760,-9.71806,2.86347,-1.59214,3.9634,10.3049,-2.4390,3.49,15.41,-34.86,4,S01
18780,-9.85214,3.07176,-1.53708,2.1951,10.4878,-0.2439,3.94,14.68,-35.23,4,S01
18800,-9.84735,2.99754,-1.64721,-1.8293,10.9756,0.7317,3.94,14.68,-35.23,4,S01
18820,-9.56005,2.70305,-2.14281,-4.5732,11.7073,1.1585,3.94,14.68,-35.23,4,S01
18840,-9.21528,2.33914,-2.71263,-3.1707,14.6341,1.8902,4.31,13.76,-35.78,4,S01
18860,-9.08600,2.44209,-3.32555,0.4878,17.9268,1.9512,4.31,13.76,-35.78,4,S01
18880,-9.37569,2.93769,-3.76369,1.8293,17.4390,2.0732,4.31,13.76,-35.78,4,S01
18900,-9.95988,2.94487,-3.76129,1.7683,12.3780,2.4390,4.31,13.76,-35.78,4,S01
18920,-10.07001,2.32716,-3.79002,0.4268,5.0610,0.6098,4.95,13.30,-35.96,4,S01
18940,-9.75637,1.84593,-4.20422,-2.3780,-0.1220,-3.6585,4.95,13.30,-35.96,4,S01
18960,-9.54568,1.76213,-4.49631,-0.7317,0.6707,-7.6220,4.95,13.30,-35.96,4,S01
18980,-9.68933,1.73819,-4.33111,3.5366,4.6951,-10.0000,5.87,13.30,-36.33,4,S01
19000,-9.89284,1.69749,-3.99832,5.3659,6.7683,-13.4146,5.87,13.30,-36.33,4,S01
19020,-9.80665,1.60890,-3.51948,4.0854,5.9756,-18.2317,5.87,13.30,-36.33,4,S01
19040,-9.30866,1.50835,-3.12683,0.5488,3.5366,-23.6585,6.79,13.21,-36.79,4,S01
19060,-8.50899,1.43652,-2.73178,-3.9024,1.4634,-28.4756,6.79,13.21,-36.79,4,S01
19080,-7.70933,1.39343,-2.25294,-6.5244,0.9146,-32.1951,6.79,13.21,-36.79,4,S01
19100,-7.11317,1.16598,-2.14042,-7.6220,0.9146,-34.0244,6.79,13.21,-36.79,4,S01
19120,-6.99586,0.82361,-2.36068,-10.0000,1.7073,-33.5366,7.43,13.12,-36.88,4,S01
19140,-7.27598,0.60094,-2.38463,-12.0122,3.0488,-30.7927,7.43,13.12,-36.88,4,S01
19160,-7.56089,0.50757,-2.55222,-12.6829,2.9878,-27.1951,7.43,13.12,-36.88,4,S01
19180,-7.80031,0.58419,-2.80361,-12.1341,2.1951,-24.3902,7.61,13.03,-37.16,4,S01
19200,-8.01818,0.78769,-2.94966,-9.4512,1.2195,-22.1951,7.61,13.03,-37.16,4,S01
19220,-8.17620,0.90501,-2.99036,-5.9756,-1.2805,-19.9390,7.61,13.03,-37.16,4,S01
19240,-8.42041,0.73502,-3.17232,-2.9268,-4.0244,-17.5610,8.17,13.03,-37.06,4,S01
19260,-8.67419,0.61292,-3.45004,-2.1951,-5.7927,-17.0732,8.17,13.03,-37.06,4,S01
19280,-8.76038,0.62010,-3.53145,-3.0488,-6.8293,-18.1707,8.17,13.03,-37.06,4,S01
19300,-8.65025,0.65362,-3.53863,-2.6220,-7.2561,-18.6585,8.17,13.03,-37.06,4,S01
19320,-8.50899,0.59376,-3.39498,-1.6463,-6.7683,-18.0488,8.53,13.30,-36.97,4,S01
19340,-8.38928,0.60094,-3.42371,-1.5244,-6.0366,-16.8902,8.53,13.30,-36.97,4,S01
19360,-8.51857,0.48363,-3.18429,-1.7683,-3.5976,-15.2439,8.53,13.30,-36.97,4,S01
19380,-8.56645,0.34477,-3.04303,-0.6707,-2.9878,-14.1463,8.90,13.30,-36.97,4,S01
19400,-8.68377,0.02634,-2.97839,1.5244,-1.2195,-12.1341,8.90,13.30,-36.97,4,S01
19420,-9.00220,-0.14844,-2.93529,3.7805,1.4634,-10.4268,8.90,13.30,-36.97,4,S01
19440,-9.29429,-0.10295,-2.87544,5.0000,1.6463,-9.8780,9.54,13.03,-37.06,4,S01
19460,-9.15543,0.17717,-2.80840,5.3049,-0.1829,-9.9390,9.54,13.03,-37.06,4,S01
19480,-8.83221,0.43335,-2.63602,4.3293,-0.3659,-9.2683,9.54,13.03,-37.06,4,S01
19500,-8.76278,0.38307,-2.54743,2.5610,1.0976,-7.3780,9.54,13.03,-37.06,4,S01
19520,-8.99980,0.14605,-2.44687,1.4634,2.8659,-5.2439,9.82,12.94,-37.06,4,S01
19540,-9.21049,-0.10056,-2.44687,0.8537,3.9024,-3.5976,9.82,12.94,-37.06,4,S01
19560,-9.24641,-0.19393,-2.43730,0.1220,3.9634,-2.5000,9.82,12.94,-37.06,4,S01
19580,-9.15782,-0.16759,-2.31759,0.0000,3.5976,-1.2805,9.72,12.75,-37.25,4,S01
19600,-9.01896,-0.08140,-2.12845,0.0610,3.2317,0.1829,9.72,12.75,-37.25,4,S01
19620,-9.06924,-0.05267,-1.94170,0.6707,3.3537,1.4024,9.72,12.75,-37.25,4,S01
19640,-9.33978,-0.22984,-1.81241,1.9512,3.6585,3.4756,9.63,12.57,-37.34,4,S01
19660,-9.61511,-0.41180,-1.83396,1.7073,2.5610,5.7317,9.63,12.57,-37.34,4,S01
19680,-9.70370,-0.44293,-1.87466,-0.4268,0.5488,7.9878,9.63,12.57,-37.34,4,S01
19700,-9.63906,-0.32561,-1.85072,-3.8415,-1.0976,10.7927,9.63,12.57,-37.34,4,S01
19720,-9.49301,-0.18914,-1.81480,-7.9878,-2.3171,13.6585,8.90,12.94,-37.43,4,S01
19740,-9.39724,-0.14365,-1.79326,-11.2195,-2.9268,16.0976,8.90,12.94,-37.43,4,S01
19760,-9.26796,-0.13886,-2.19309,-14.1463,-2.3171,17.9268,8.90,12.94,-37.43,4,S01
19780,-9.37569,-0.71587,-2.86825,-16.0976,1.9512,19.4512,7.80,12.84,-37.52,4,S01
19800,-9.64145,-0.86431,-3.41892,-5.8537,4.6341,17.4390,7.80,12.84,-37.52,4,S01
19820,-10.13705,-0.89304,-3.52187,6.3415,6.3415,14.0854,7.80,12.84,-37.52,4,S01
19840,-10.79306,-0.73741,-3.09331,15.0000,7.6829,10.1829,8.81,12.48,-37.89,4,S01
19860,-11.14980,-0.29449,-3.20823,21.1585,6.4024,5.4268,8.81,12.48,-37.89,4,S01
19880,-11.48020,-0.09816,-4.37421,18.3537,7.5000,4.4512,8.81,12.48,-37.89,4,S01
19900,-12.30141,0.14605,-5.39892,9.8780,12.7439,8.2317,8.81,12.48,-37.89,4,S01
19920,-13.34049,1.04387,-5.10204,2.1951,16.2195,12.4390,8.62,12.02,-38.44,4,S01
19940,-13.35246,2.17154,-4.38139,-0.3659,11.2195,15.0610,8.62,12.02,-38.44,4,S01
19960,-12.01889,2.61447,-4.07254,-1.1585,1.5244,16.8902,8.62,12.02,-38.44,4,S01
19980,-9.19373,1.58017,-3.61046,-2.5610,-4.9390,16.7683,8.26,12.66,-38.53,4,S01
20000,-8.80827,1.13006,-2.94487,0.2439,-4.7561,17.8659,8.26,12.66,-38.53,4,S01
20020,-8.73405,1.05345,-2.44687,6.0976,-7.6829,21.6463,8.26,12.66,-38.53,4,S01
20040,-8.65504,1.09176,-2.30083,12.2561,-12.3780,25.7317,8.81,13.58,-38.44,4,S01
20060,-8.60716,1.25696,-2.26491,16.1585,-16.8902,26.2805,8.81,13.58,-38.44,4,S01
20080,-8.55927,1.46286,-2.32238,15.4878,-21.9512,22.8659,8.81,13.58,-38.44,4,S01
20100,-8.23845,1.70946,-2.42293,12.0122,-25.9146,17.9878,8.81,13.58,-38.44,4,S01
20120,-7.87692,1.82199,-2.21224,8.3537,-27.6829,14.8171,9.36,15.32,-38.35,4,S01
20140,-7.42681,1.72143,-2.19548,6.7683,-29.9390,13.1098,9.36,15.32,-38.35,4,S01
20160,-7.35978,1.71425,-2.41336,6.5244,-31.5854,11.4634,9.36,15.32,-38.35,4,S01
20180,-7.44118,1.70467,-2.46363,4.8780,-31.0366,10.1220,9.54,17.16,-37.61,4,S01
20200,-7.51540,1.65439,-2.49476,2.3171,-30.0610,9.0854,9.54,17.16,-37.61,4,S01
20220,-7.40527,1.68312,-2.50194,0.4268,-29.0854,7.7439,9.54,17.16,-37.61,4,S01
20240,-7.32147,1.83156,-2.48279,-0.1220,-27.1951,7.0122,9.63,18.26,-37.25,4,S01
20260,-7.46751,1.80044,-2.35111,-0.2439,-23.4756,7.3171,9.63,18.26,-37.25,4,S01
20280,-7.86495,1.83396,-2.54743,-0.6707,-20.0000,7.5000,9.63,18.26,-37.25,4,S01
20300,-8.41801,1.81720,-2.48518,-1.2805,-14.9390,8.1098,9.63,18.26,-37.25,4,S01
20320,-8.78911,1.98479,-2.26970,-2.0122,-11.6463,7.6220,9.45,18.99,-36.88,4,S01
20340,-8.70771,2.26731,-2.16196,-3.9024,-12.9878,6.8293,9.45,18.99,-36.88,4,S01
20360,-8.51378,2.44209,-2.09972,-6.5244,-15.4878,7.0122,9.45,18.99,-36.88,4,S01
20380,-8.53772,2.28407,-2.02071,-8.1707,-15.6707,8.4146,8.99,19.91,-36.70,4,S01
20400,-8.86333,1.99198,-1.97282,-8.4756,-13.7195,9.6951,8.99,19.91,-36.70,4,S01
20420,-9.21528,1.75495,-1.87227,-8.6585,-11.7683,9.8780,8.99,19.91,-36.70,4,S01
20440,-9.39006,1.70467,-1.75495,-8.8415,-11.1585,9.0854,8.62,20.37,-36.51,4,S01
20460,-9.33020,1.83635,-1.73580,-9.0854,-11.4024,7.6829,8.62,20.37,-36.51,4,S01
20480,-9.19852,1.90339,-1.56820,-9.0244,-11.4024,6.5854,8.62,20.37,-36.51,4,S01
20500,-9.01178,1.84832,-1.53468,-8.1707,-12.5000,5.9756,8.62,20.37,-36.51,4,S01
20520,-8.83700,1.72143,-1.84354,-7.3780,-13.7195,5.7317,8.35,21.01,-36.15,4,S01
20540,-8.82742,1.65679,-1.81241,-8.0488,-11.4024,5.3659,8.35,21.01,-36.15,4,S01
20560,-8.94953,1.76932,-1.52750,-8.9024,-8.8415,4.7561,8.35,21.01,-36.15,4,S01
20580,-9.05008,1.93691,-1.35751,-9.9390,-7.7439,4.2683,7.89,21.19,-36.24,4,S01
20600,-9.12909,2.04225,-1.31921,-10.6098,-7.0732,4.1463,7.89,21.19,-36.24,4,S01
20620,-9.10036,2.03507,-1.37906,-10.6098,-6.8902,4.2073,7.89,21.19,-36.24,4,S01
20640,-9.04529,2.00874,-1.44370,-10.2439,-6.7683,4.3293,7.43,21.28,-36.15,4,S01
20660,-9.07642,2.04465,-1.35751,-10.3659,-6.1585,4.4512,7.43,21.28,-36.15,4,S01
20680,-9.07881,2.13563,-1.22344,-10.9146,-5.3659,4.7561,7.43,21.28,-36.15,4,S01
20700,-9.07642,2.13084,-1.19471,-11.8902,-4.6341,5.4268,7.43,21.28,-36.15,4,S01
20720,-8.95192,2.03268,-1.21865,-13.1707,-3.1098,5.4878,6.79,21.38,-36.15,4,S01
20740,-8.89207,1.92494,-1.22104,-12.6220,-1.4634,4.5732,6.79,21.38,-36.15,4,S01
20760,-8.91122,1.89381,-1.18274,-10.3659,0.4268,2.6829,6.79,21.38,-36.15,4,S01
20780,-8.90404,1.88903,-1.17555,-8.8415,2.8049,0.7317,6.61,21.19,-36.33,4,S01
20800,-8.85615,1.76932,-1.19471,-7.9878,5.9756,-0.3659,6.61,21.19,-36.33,4,S01
20820,-8.85615,1.56102,-1.20907,-6.3415,9.8171,-0.4268,6.61,21.19,-36.33,4,S01
20840,-9.02135,1.31202,-1.22344,-2.5000,12.8659,0.6098,6.70,20.18,-36.79,4,S01
20860,-9.24401,1.07260,-1.23541,2.9878,14.3902,1.6463,6.70,20.18,-36.79,4,S01
20880,-9.29669,1.01035,-1.19950,9.3902,14.5122,1.7683,6.70,20.18,-36.79,4,S01
20900,-9.22965,1.13725,-1.17316,15.1829,13.9024,1.8902,6.70,20.18,-36.79,4,S01
20920,-9.14585,1.32399,-1.27132,19.3293,12.9268,2.1951,7.61,19.45,-37.16,4,S01
20940,-9.13867,1.61848,-1.51553,21.5244,12.5000,1.7073,7.61,19.45,-37.16,4,S01
20960,-9.19613,2.02310,-1.77650,21.5244,13.7195,0.7317,7.61,19.45,-37.16,4,S01
20980,-9.24162,2.60489,-2.00395,17.8049,15.1220,-0.1829,8.62,18.53,-37.52,4,S01
21000,-9.43794,2.80840,-1.79086,12.5610,14.6341,1.0366,8.62,18.53,-37.52,4,S01
21020,-9.54808,2.16196,-1.41258,10.2439,12.9878,2.8049,8.62,18.53,-37.52,4,S01
21040,-9.61511,1.27132,-1.31681,9.3293,10.6098,2.2561,9.08,17.98,-37.61,4,S01
21060,-9.41400,0.83558,-1.42455,9.5122,8.2927,0.8537,9.08,17.98,-37.61,4,S01
21080,-9.01417,0.99359,-1.43892,12.6829,7.7439,0.6098,9.08,17.98,-37.61,4,S01
21100,-8.79630,1.66397,-1.46765,17.0732,8.3537,1.8293,9.08,17.98,-37.61,4,S01
21120,-8.91601,2.38702,-1.56820,17.0122,10.1220,3.7805,10.00,17.34,-37.98,4,S01
21140,-9.39724,2.81319,-1.45807,11.0976,12.1951,5.0000,10.00,17.34,-37.98,4,S01
21160,-9.97903,2.78446,-1.25696,2.7439,10.3659,5.4268,10.00,17.34,-37.98,4,S01
21180,-10.42914,2.57856,-1.22104,-4.3902,5.0610,5.6098,9.17,17.06,-37.98,4,S01
21200,-10.67814,2.25055,-1.35512,-10.3659,-0.3659,6.2805,9.17,17.06,-37.98,4,S01
21220,-10.77391,2.19548,-1.52750,-16.2805,-5.9146,6.4024,9.17,17.06,-37.98,4,S01
21240,-10.95826,2.63123,-1.70228,-21.4634,-10.6098,5.1220,8.07,17.52,-37.80,4,S01
21260,-11.38443,2.96642,-2.02549,-24.9390,-12.0122,2.9268,8.07,17.52,-37.80,4,S01
21280,-11.88482,3.39737,-2.52588,-24.6341,-9.0244,-1.8293,8.07,17.52,-37.80,4,S01
21300,-12.52646,3.33033,-3.03824,-21.2195,-2.8659,-10.6707,8.07,17.52,-37.80,4,S01
21320,-12.76588,2.32956,-4.06296,-10.9146,1.7073,-18.4146,8.44,16.88,-38.17,4,S01
21340,-12.18649,1.58975,-4.92008,2.6829,5.5488,-21.0366,8.44,16.88,-38.17,4,S01
21360,-11.21923,1.16598,-5.04698,13.4756,9.7561,-17.8049,8.44,16.88,-38.17,4,S01
21380,-9.64624,1.31681,-4.36942,25.6098,13.8415,-15.0610,10.64,15.87,-38.62,4,S01
21400,-9.39485,1.79565,-3.64398,23.1098,17.2561,-18.6585,10.64,15.87,-38.62,4,S01
21420,-8.96150,2.27449,-2.70066,12.9878,18.5976,-22.6220,10.64,15.87,-38.62,4,S01
21440,-8.31985,2.35589,-2.13563,-0.3659,15.1220,-24.1463,11.74,14.40,-39.08,4,S01
21460,-7.83383,2.02310,-1.92494,-13.4146,10.9146,-24.0244,11.74,14.40,-39.08,4,S01
21480,-7.71412,1.68073,-1.96085,-22.9268,7.8659,-24.4512,11.74,14.40,-39.08,4,S01
21500,-7.70694,1.37667,-2.03986,-29.5732,5.5488,-25.0000,11.74,14.40,-39.08,4,S01
21520,-7.58483,1.07500,-2.31519,-34.4512,2.1951,-25.1829,11.01,13.58,-39.27,4,S01
21540,-7.41484,0.66798,-2.70545,-35.6098,-0.9756,-24.6951,11.01,13.58,-39.27,4,S01
21560,-7.43160,0.30406,-2.82755,-34.0854,-2.8049,-25.3659,11.01,13.58,-39.27,4,S01
21580,-7.57765,0.03112,-2.82276,-30.3659,-3.7195,-27.9268,10.28,13.58,-39.45,4,S01
21600,-7.73806,0.00239,-3.00951,-27.3780,-5.3049,-30.3049,10.28,13.58,-39.45,4,S01
21620,-7.89608,0.13647,-2.98796,-25.9146,-5.9146,-30.6098,10.28,13.58,-39.45,4,S01
21640,-7.96072,0.19154,-2.91135,-24.3902,-6.4024,-30.0000,10.09,13.58,-39.82,4,S01
21660,-7.96551,0.27773,-3.00951,-23.8415,-6.7073,-30.1829,10.09,13.58,-39.82,4,S01
21680,-8.02058,0.44293,-3.06458,-25.3049,-5.7927,-30.1829,10.09,13.58,-39.82,4,S01
21700,-8.17141,0.58897,-2.93769,-26.4634,-4.8780,-29.2683,10.09,13.58,-39.82,4,S01
21720,-8.36295,0.63686,-2.93769,-27.1341,-5.1220,-28.7195,9.45,13.49,-39.82,4,S01
21740,-8.62152,0.52194,-3.01669,-28.0488,-5.0610,-28.1707,9.45,13.49,-39.82,4,S01
21760,-8.77714,0.28252,-2.96402,-29.1463,-4.5732,-27.3780,9.45,13.49,-39.82,4,S01
21780,-8.78433,0.12689,-3.02148,-31.0976,-5.3659,-26.9512,8.44,13.21,-39.82,4,S01
21800,-8.74362,0.15083,-3.07176,-32.7439,-4.8780,-26.1585,8.44,13.21,-39.82,4,S01
21820,-8.80827,0.18435,-2.95205,-34.0854,-3.3537,-24.0854,8.44,13.21,-39.82,4,S01
21840,-8.85855,0.12689,-2.84431,-35.0000,-2.4390,-21.2805,7.16,13.12,-40.09,4,S01
21860,-8.89207,-0.00958,-2.77249,-35.4878,-1.7683,-19.0244,7.16,13.12,-40.09,4,S01
21880,-8.94474,-0.21069,-2.71263,-35.4878,-0.1829,-17.4390,7.16,13.12,-40.09,4,S01
21900,-9.15303,-0.27294,-2.64080,-34.9390,1.4634,-16.4634,7.16,13.12,-40.09,4,S01
21920,-9.18655,-0.26097,-2.73897,-35.3659,2.2561,-14.8780,5.87,12.84,-40.37,4,S01
21940,-9.26317,-0.45250,-2.70305,-34.6951,3.3537,-11.7683,5.87,12.84,-40.37,4,S01
21960,-9.23683,-0.54827,-2.74854,-31.5244,2.6220,-10.1220,5.87,12.84,-40.37,4,S01
21980,-9.14106,-0.48363,-2.85389,-28.9634,2.2561,-9.7561,4.86,12.57,-40.55,4,S01
22000,-9.18176,-0.36631,-2.70784,-27.7439,2.9268,-9.0854,4.86,12.57,-40.55,4,S01
22020,-9.22007,-0.16520,-2.65996,-27.5610,1.7683,-8.4146,4.86,12.57,-40.55,4,S01
22040,-9.24401,-0.14844,-2.56898,-27.5000,1.2805,-6.7073,3.76,12.39,-40.55,4,S01
22060,-9.33978,-0.39744,-2.46124,-27.5000,1.2805,-4.9390,3.76,12.39,-40.55,4,S01
22080,-9.32542,-0.53630,-2.43011,-27.3171,-0.1220,-5.0610,3.76,12.39,-40.55,4,S01
22100,-9.16500,-0.58419,-2.39899,-26.9512,-1.7073,-5.9146,3.76,12.39,-40.55,4,S01
22120,-9.02614,-0.58897,-2.40857,-26.3415,-2.2561,-6.5854,2.57,12.39,-40.55,4,S01
22140,-9.02135,-0.55785,-2.35350,-25.5488,-1.6463,-6.2805,2.57,12.39,-40.55,4,S01
22160,-9.14106,-0.53870,-2.22661,-24.8171,-1.2805,-5.4878,2.57,12.39,-40.55,4,S01
22180,-9.27514,-0.56982,-2.10690,-24.5122,-2.1951,-4.5122,1.74,12.39,-40.83,4,S01
22200,-9.30866,-0.57700,-2.00155,-23.8415,-3.7195,-3.9024,1.74,12.39,-40.83,4,S01
22220,-9.34457,-0.59616,-1.88184,-22.3171,-5.6098,-3.4756,1.74,12.39,-40.83,4,S01
22240,-9.46667,-0.75896,-1.76692,-20.0000,-7.5610,-2.7439,1.01,12.75,-40.46,4,S01
22260,-9.61033,-0.86670,-1.70946,-17.3780,-9.6341,-1.7073,1.01,12.75,-40.46,4,S01
22280,-9.62948,-0.83079,-1.54665,-15.4268,-11.2805,-0.1220,1.01,12.75,-40.46,4,S01
22300,-9.31823,-0.68714,-1.41497,-13.5366,-12.1951,2.6829,1.01,12.75,-40.46,4,S01
22320,-8.98544,-0.54588,-1.44370,-12.9878,-11.2805,7.2561,0.28,13.39,-40.00,4,S01
22340,-9.17219,-0.45490,-1.39103,-13.9634,-7.3171,12.2561,0.28,13.39,-40.00,4,S01
22360,-9.41400,-0.22505,-1.61130,-15.0000,-4.7561,14.1463,0.28,13.39,-40.00,4,S01
22380,-9.77553,-0.04070,-1.52511,-16.5244,-2.6220,14.6341,-0.83,13.39,-40.00,4,S01
22400,-9.81383,0.16281,-1.49877,-17.1951,-3.9634,12.8049,-0.83,13.39,-40.00,4,S01
22420,-9.63427,0.15562,-1.57778,-19.3902,-5.7317,10.6098,-0.83,13.39,-40.00,4,S01
22440,-9.57920,-0.29928,-1.82438,-21.5244,-5.5488,9.5122,-2.02,13.39,-39.72,4,S01
22460,-9.55526,-0.80445,-2.06859,-19.2073,-4.5732,8.8415,-2.02,13.39,-39.72,4,S01
22480,-9.51456,-0.95529,-2.02310,-14.2073,-3.1707,8.2317,-2.02,13.39,-39.72,4,S01
22500,-9.47386,-0.66798,-1.86508,-11.2195,-1.1585,7.1951,-2.02,13.39,-39.72,4,S01
22520,-9.44034,-0.45490,-1.92254,-10.8537,2.0122,5.9756,-2.66,13.12,-39.82,4,S01
22540,-9.51695,-0.31125,-2.08535,-12.0732,5.9756,4.8171,-2.66,13.12,-39.82,4,S01
22560,-9.79468,-0.22984,-2.21224,-13.4146,9.0244,4.8171,-2.66,13.12,-39.82,4,S01
22580,-10.18493,-0.09098,-2.22661,-13.5366,10.9756,5.3659,-3.49,12.39,-39.82,4,S01
22600,-10.62786,-0.03352,-2.38223,-13.1098,12.5000,5.7927,-3.49,12.39,-39.82,4,S01
22620,-11.09234,-0.08140,-2.48039,-12.5000,13.0488,5.6098,-3.49,12.39,-39.82,4,S01
22640,-11.74835,-0.22984,-2.61207,-9.0244,10.4268,3.9024,-3.58,11.65,-40.09,4,S01
22660,-12.55519,-0.30885,-3.04064,-1.4634,7.5610,0.7317,-3.58,11.65,-40.09,4,S01
22680,-12.93108,-0.03352,-3.65355,5.6707,5.7927,-0.8537,-3.58,11.65,-40.09,4,S01
22700,-12.42591,0.63686,-3.93607,7.8049,1.3415,2.1951,-3.58,11.65,-40.09,4,S01
22720,-11.42274,1.39103,-3.98874,5.0000,-4.3902,8.5366,-3.49,11.56,-40.09,4,S01
22740,-10.32380,1.83875,-3.58651,0.3659,-6.3415,15.3049,-3.49,11.56,-40.09,4,S01
22760,-9.23683,1.65918,-3.67031,-2.3171,-6.2195,20.5488,-3.49,11.56,-40.09,4,S01
22780,-9.07402,0.08619,-3.87382,-0.9146,4.5122,30.9146,-3.85,10.83,-40.18,4,S01
22800,-9.79947,0.22745,-3.40695,6.9512,8.1098,32.7439,-3.85,10.83,-40.18,4,S01
22820,-9.98861,0.51475,-3.12204,12.2561,4.5122,33.2317,-3.85,10.83,-40.18,4,S01
22840,-9.33499,0.46448,-2.76770,15.8537,-3.1098,33.2927,-3.30,10.37,-40.46,4,S01
22860,-8.31985,0.39025,-2.65756,19.3902,-11.9512,31.5854,-3.30,10.37,-40.46,4,S01
22880,-7.56568,0.52912,-2.37984,21.6463,-16.1585,30.0610,-3.30,10.37,-40.46,4,S01
22900,-8.15465,0.49081,-1.81002,27.8049,-40.0000,30.9756,-3.30,10.37,-40.46,4,S01
22920,-7.45076,1.11570,-4.44843,41.3415,-68.5366,31.2805,-1.74,13.30,-39.72,4,S01
22940,-7.59201,1.45089,-1.95367,16.7073,-8.4146,25.1829,-1.74,13.30,-39.72,4,S01
22960,-7.45794,1.33118,-1.58736,8.1098,1.5244,26.5854,-1.74,13.30,-39.72,4,S01
22980,-7.14909,1.53468,-2.55701,9.6951,-14.8171,24.5732,-1.93,12.20,-40.18,4,S01
23000,-7.47709,1.68791,-2.52588,7.6829,-11.8902,22.1951,-1.93,12.20,-40.18,4,S01
23020,-8.30549,1.87227,-1.92494,4.3902,-7.0732,21.8293,-1.93,12.20,-40.18,4,S01
23040,-8.78672,2.05901,-1.99437,1.7073,-13.9634,21.3415,-2.20,12.39,-39.91,4,S01
23060,-8.81545,2.03986,-2.20267,-1.2195,-21.4024,20.8537,-2.20,12.39,-39.91,4,S01
23080,-8.59997,1.81720,-2.35829,-3.6585,-24.2073,20.3659,-2.20,12.39,-39.91,4,S01
23100,-8.35816,1.81959,-2.28167,-4.4512,-24.0244,19.2683,-2.20,12.39,-39.91,4,S01
23120,-8.27915,2.01352,-2.09732,-4.8780,-22.3780,17.8659,-2.75,13.49,-39.36,4,S01
23140,-8.39886,2.13084,-1.84354,-4.3902,-18.9024,16.5244,-2.75,13.49,-39.36,4,S01
23160,-8.66940,2.02549,-1.71425,-3.5976,-15.5488,15.0610,-2.75,13.49,-39.36,4,S01
23180,-8.82263,1.86029,-1.62327,-3.1098,-14.8171,12.9878,-2.84,14.04,-38.99,4,S01
23200,-8.89207,1.68312,-1.67355,-2.0122,-16.2195,11.1585,-2.84,14.04,-38.99,4,S01
23220,-8.93995,1.67115,-1.65918,-0.7927,-16.5244,9.2683,-2.84,14.04,-38.99,4,S01
23240,-8.93037,1.79086,-1.63285,-0.1829,-15.3049,7.3171,-2.84,14.50,-38.81,4,S01
23260,-8.94953,1.83875,-1.53229,0.0610,-13.3537,6.0366,-2.84,14.50,-38.81,4,S01
23280,-8.95671,1.86508,-1.47243,0.6707,-11.6463,5.1220,-2.84,14.50,-38.81,4,S01
23300,-8.93037,1.98000,-1.48201,-0.6707,-11.4024,4.3902,-2.84,14.50,-38.81,4,S01
23320,-8.89925,1.97282,-1.41258,-2.4390,-11.2805,4.4512,-3.03,14.95,-38.53,4,S01
23340,-8.92798,1.89142,-1.25217,-3.8415,-10.3049,4.5732,-3.03,14.95,-38.53,4,S01
23360,-8.99980,1.70467,-1.17795,-4.6951,-9.2073,4.2073,-3.03,14.95,-38.53,4,S01
23380,-9.03811,1.55144,-1.12049,-4.1463,-7.9878,2.6220,-3.21,15.14,-38.44,4,S01
23400,-9.01656,1.36709,-1.14922,-1.9512,-6.3415,0.1220,-3.21,15.14,-38.44,4,S01
23420,-8.99741,1.25456,-1.20189,1.6463,-3.7195,-2.6220,-3.21,15.14,-38.44,4,S01
23440,-9.01178,1.33836,-1.18992,5.4878,-0.2439,-4.0854,-2.66,15.05,-38.53,4,S01
23460,-9.18655,1.53947,-1.18274,8.1098,2.9878,-3.5976,-2.66,15.05,-38.53,4,S01
23480,-9.56484,1.65918,-1.08457,10.1220,6.3415,-2.3171,-2.66,15.05,-38.53,4,S01
23500,-9.76595,1.87945,-1.36709,12.5610,8.4146,-1.8293,-2.66,15.05,-38.53,4,S01
23520,-9.70609,2.48758,-1.85790,10.9146,7.0732,-2.1341,-1.93,14.40,-38.90,4,S01
23540,-9.76116,2.92093,-1.74777,10.6098,4.6341,-0.9146,-1.93,14.40,-38.90,4,S01
23560,-9.81383,2.82516,-1.44849,12.1341,2.7439,0.9756,-1.93,14.40,-38.90,4,S01
23580,-9.72046,2.33195,-1.51314,8.6585,0.4268,1.9512,-1.38,14.22,-38.81,4,S01
23600,-9.42837,1.83875,-1.66158,7.0122,-0.2439,2.3171,-1.38,14.22,-38.81,4,S01
23620,-8.96150,1.62566,-1.61369,10.0610,1.9512,2.7439,-1.38,14.22,-38.81,4,S01
23640,-8.73405,1.95127,-1.37906,15.0000,4.6951,3.1707,-0.55,13.58,-39.17,4,S01
23660,-8.67659,2.35829,-1.39103,16.3415,5.9146,3.2927,-0.55,13.58,-39.17,4,S01
23680,-8.76038,2.54264,-1.47004,13.4756,7.5000,2.5000,-0.55,13.58,-39.17,4,S01
23700,-9.10036,2.48758,-1.39103,9.8780,9.5122,2.4390,-0.55,13.58,-39.17,4,S01
23720,-9.32063,2.36787,-1.29526,7.2561,10.0000,2.9878,-0.09,12.94,-39.36,4,S01
23740,-9.29429,2.29604,-1.27611,5.3659,8.7195,3.1707,-0.09,12.94,-39.36,4,S01
23760,-9.31344,2.16436,-1.29047,3.4146,7.6220,2.6220,-0.09,12.94,-39.36,4,S01
23780,-9.54329,2.10450,-1.30005,1.7073,7.8659,1.3415,-0.09,12.39,-39.36,4,S01
23800,-10.01973,2.22661,-1.35272,-0.3049,8.1707,-0.1829,-0.09,12.39,-39.36,4,S01
23820,-10.41957,2.39899,-1.40779,-2.7439,7.0122,-0.4268,-0.09,12.39,-39.36,4,S01
23840,-10.71166,2.53307,-1.53229,-5.1829,4.4512,0.3659,-0.46,12.02,-39.36,4,S01
23860,-11.05164,2.53067,-1.75734,-5.7927,3.0488,1.0976,-0.46,12.02,-39.36,4,S01
23880,-11.25514,2.50194,-2.19788,-4.3902,3.7195,1.5244,-0.46,12.02,-39.36,4,S01
23900,-11.37006,2.49955,-2.61926,-2.1951,6.5854,1.0976,-0.46,12.02,-39.36,4,S01
23920,-11.27430,2.31759,-2.77009,2.1341,8.7805,0.1220,-0.09,11.28,-39.54,4,S01
23940,-10.80743,1.86269,-3.20584,8.2317,7.5610,-0.5488,-0.09,11.28,-39.54,4,S01
23960,-10.06762,1.40779,-3.82354,15.3659,7.6829,-0.9756,-0.09,11.28,-39.54,4,S01
23980,-9.44752,1.37427,-3.95043,20.7317,10.0000,-2.0732,1.28,10.64,-39.82,4,S01
24000,-9.18895,1.79565,-3.67989,20.4878,12.0122,-3.9024,1.28,10.64,-39.82,4,S01
24020,-9.28232,2.17872,-3.36625,15.0610,13.0488,-5.3049,1.28,10.64,-39.82,4,S01
24040,-9.29429,2.20267,-3.16513,7.7439,12.3780,-7.2561,1.65,9.63,-39.91,4,S01
24060,-9.17937,1.84114,-3.16513,2.2561,10.2439,-10.0610,1.65,9.63,-39.91,4,S01
24080,-9.07163,1.24977,-3.21541,-0.7927,8.4146,-13.6585,1.65,9.63,-39.91,4,S01
24100,-8.99741,0.70150,-3.15077,-1.7683,7.8049,-17.7439,1.65,9.63,-39.91,4,S01
24120,-8.85136,0.44532,-2.94487,-1.0976,7.4390,-22.3171,2.20,9.08,-40.00,4,S01
24140,-8.52336,0.53630,-2.72460,0.2439,5.9756,-26.7683,2.20,9.08,-40.00,4,S01
24160,-7.68060,1.01514,-2.43730,2.4390,2.1341,-29.3293,2.20,9.08,-40.00,4,S01
24180,-7.53695,1.07021,-2.51152,1.5854,1.7683,-27.6220,3.03,8.90,-40.18,4,S01
24200,-7.64229,0.90740,-2.55461,0.5488,1.6463,-25.2439,3.03,8.90,-40.18,4,S01
24220,-7.84819,0.59616,-2.67432,0.9146,0.7927,-23.4146,3.03,8.90,-40.18,4,S01
24240,-8.09240,0.35674,-2.79164,2.3171,-1.0976,-22.1951,3.67,8.81,-40.00,4,S01
24260,-8.31506,0.36392,-2.75573,3.9634,-5.0000,-20.7927,3.67,8.81,-40.00,4,S01
24280,-8.59279,0.46448,-2.71981,5.7927,-11.1585,-18.5366,3.67,8.81,-40.00,4,S01
24300,-8.81306,0.54588,-2.63362,8.5366,-15.3049,-16.8902,3.67,8.81,-40.00,4,S01
24320,-8.87531,0.54588,-2.63123,9.6951,-16.7683,-16.5854,4.50,9.54,-39.82,4,S01
24340,-8.84179,0.48123,-2.80840,9.6951,-17.8659,-16.7683,4.50,9.54,-39.82,4,S01
24360,-8.85376,0.45729,-2.85868,9.8171,-17.7439,-16.8293,4.50,9.54,-39.82,4,S01
24380,-8.90404,0.42138,-2.71263,10.1220,-16.2195,-16.2195,5.60,10.28,-39.63,4,S01
24400,-8.98304,0.34716,-2.60489,10.3659,-15.4878,-15.0000,5.60,10.28,-39.63,4,S01
24420,-9.05727,0.27533,-2.49955,9.5122,-15.4878,-14.3293,5.60,10.28,-39.63,4,S01
24440,-9.00220,0.22027,-2.47560,7.3171,-16.4634,-13.6585,6.42,10.92,-39.36,4,S01
24460,-9.04290,0.19632,-2.39660,4.6341,-16.2805,-13.4146,6.42,10.92,-39.36,4,S01
24480,-9.09078,0.07422,-2.26252,2.7439,-14.3902,-13.3537,6.42,10.92,-39.36,4,S01
24500,-9.08360,-0.01437,-2.18351,1.7073,-13.0488,-13.7805,6.42,10.92,-39.36,4,S01
24520,-9.16261,-0.05986,-2.11647,1.0366,-11.2195,-14.3902,6.88,11.47,-39.17,4,S01
24540,-9.21289,-0.17238,-2.10211,-0.3659,-9.7561,-13.9634,6.88,11.47,-39.17,4,S01
24560,-9.24880,-0.26815,-2.13802,-2.5000,-9.3902,-12.4390,6.88,11.47,-39.17,4,S01
24580,-9.22246,-0.22505,-2.04944,-4.5122,-9.0244,-10.9756,7.16,11.74,-39.27,4,S01
24600,-9.14106,-0.22027,-1.96564,-5.6707,-8.0488,-10.0610,7.16,11.74,-39.27,4,S01
24620,-9.11473,-0.32561,-1.89860,-6.3415,-5.9756,-9.3902,7.16,11.74,-39.27,4,S01
24640,-9.13867,-0.51475,-1.94409,-6.7073,-3.9634,-8.5976,7.06,11.74,-39.27,4,S01
24660,-9.16979,-0.62728,-1.99437,-6.8902,-2.8049,-7.2561,7.06,11.74,-39.27,4,S01
24680,-9.20331,-0.58419,-1.99916,-6.9512,-2.0122,-5.4878,7.06,11.74,-39.27,4,S01
24700,-9.21768,-0.45969,-1.90578,-7.1951,-0.5488,-3.4756,7.06,11.74,-39.27,4,S01
24720,-9.20092,-0.33758,-1.83635,-8.4146,0.4878,-1.7683,6.88,11.65,-39.36,4,S01
24740,-9.15782,-0.41899,-1.78368,-9.6951,1.2195,-0.1220,6.88,11.65,-39.36,4,S01
24760,-9.11712,-0.45490,-1.84354,-10.5488,2.4390,1.3415,6.88,11.65,-39.36,4,S01
24780,-9.23204,-0.45490,-1.80044,-11.6463,3.9024,3.0488,6.42,11.28,-39.54,4,S01
24800,-9.36612,-0.42856,-1.66876,-12.5610,5.1220,4.9390,6.42,11.28,-39.54,4,S01
24820,-9.46667,-0.43335,-1.48919,-14.0244,5.4878,6.3415,6.42,11.28,-39.54,4,S01
24840,-9.46189,-0.54588,-1.39821,-14.9390,4.6951,7.0122,5.69,10.92,-39.82,4,S01
24860,-9.44513,-0.63207,-1.45328,-15.4268,2.9878,7.5000,5.69,10.92,-39.82,4,S01
24880,-9.44034,-0.60094,-1.50356,-16.1585,1.2805,8.6585,5.69,10.92,-39.82,4,S01
24900,-9.35415,-0.50996,-1.72383,-17.3780,-0.1829,10.3049,5.69,10.92,-39.82,4,S01
24920,-9.06924,-0.45250,-2.25534,-15.9146,-0.3659,12.3171,4.59,11.10,-39.91,4,S01
24940,-9.07163,-0.49081,-2.18591,-13.4756,2.4390,14.7561,4.59,11.10,-39.91,4,S01
24960,-9.33499,-0.42377,-2.15239,-11.9512,4.7561,14.7561,4.59,11.10,-39.91,4,S01
24980,-9.54329,-0.27533,-1.98240,-11.4024,7.0122,12.9878,3.94,10.55,-40.00,4,S01
25000,-9.55047,0.00479,-1.87227,-12.9878,7.1951,11.0366,3.94,10.55,-40.00,4,S01
25020,-9.47864,0.13886,-1.70228,-16.5854,6.1585,9.5732,3.94,10.55,-40.00,4,S01
25040,-9.47625,-0.36631,-1.47483,-19.5122,6.5244,8.7195,2.84,10.00,-40.18,4,S01
25060,-9.47864,-0.69911,-1.51553,-19.2683,6.8902,6.7683,2.84,10.00,-40.18,4,S01
25080,-9.49301,-1.01754,-1.69031,-16.5244,6.7683,5.1829,2.84,10.00,-40.18,4,S01
25100,-9.59357,-0.90740,-1.94649,-10.9756,6.2195,3.9024,2.84,10.00,-40.18,4,S01
25120,-9.80905,-0.71826,-1.99676,-7.0122,6.4024,3.6585,2.48,9.63,-40.37,4,S01
25140,-10.06522,-0.53630,-2.11408,-6.4024,7.0732,3.7805,2.48,9.63,-40.37,4,S01
25160,-10.38844,-0.41180,-2.26491,-6.3415,6.8902,2.9878,2.48,9.63,-40.37,4,S01
25180,-10.77630,-0.41659,-2.60010,-5.6098,4.8780,0.8537,2.39,9.36,-40.46,4,S01
25200,-11.56399,-0.52194,-3.04542,-4.1463,3.4756,-1.4634,2.39,9.36,-40.46,4,S01
25220,-12.72279,-0.57940,-3.44286,-2.0122,4.1463,-3.1707,2.39,9.36,-40.46,4,S01
25240,-14.02044,-0.09816,-4.29999,-2.2561,5.7927,-3.2317,2.39,8.81,-40.64,4,S01
25260,-14.42506,1.22583,-4.30717,-5.5488,5.1220,0.4878,2.39,8.81,-40.64,4,S01
25280,-13.48893,2.37984,-4.02944,-9.3293,-3.7195,7.2561,2.39,8.81,-40.64,4,S01
25300,-11.81060,2.88022,-3.70144,-17.3780,-14.8780,12.6829,2.39,8.81,-40.64,4,S01
25320,-10.01973,2.37744,-3.30639,-26.4634,-23.0488,15.7317,0.55,10.00,-39.82,4,S01
25340,-8.57842,1.46046,-3.22260,-32.0122,-26.0976,16.8902,0.55,10.00,-39.82,4,S01
25360,-8.15226,0.74220,-3.03345,-31.0366,-21.7683,19.6341,0.55,10.00,-39.82,4,S01
25380,-8.45393,0.49081,-2.93529,-26.1585,-13.4756,25.2439,-1.10,10.18,-39.54,4,S01
25400,-8.88728,0.57461,-2.49715,-19.1463,-5.7317,30.5488,-1.10,10.18,-39.54,4,S01
25420,-9.04051,0.73023,-1.96803,-12.2561,-4.4512,32.4390,-1.10,10.18,-39.54,4,S01
25440,-8.62631,0.75896,-1.77889,-5.9756,-10.1829,30.7317,-1.28,10.55,-39.45,4,S01
25460,-7.85777,0.79966,-1.73580,-0.2439,-16.0976,26.3415,-1.28,10.55,-39.45,4,S01
25480,-7.18261,0.91219,-1.81480,5.1220,-18.4146,22.4390,-1.28,10.55,-39.45,4,S01
25500,-7.02698,0.88107,-2.00874,10.9146,-17.0122,21.5244,-1.28,10.55,-39.45,4,S01
25520,-7.17542,0.68235,-1.90339,15.8537,-13.4146,21.7683,-0.64,11.10,-39.54,4,S01
25540,-7.39808,0.79248,-2.09972,18.8415,-12.2561,20.4878,-0.64,11.10,-39.54,4,S01
25560,-7.56089,1.03908,-1.81241,20.6098,-14.2073,17.7439,-0.64,11.10,-39.54,4,S01
25580,-7.62553,1.18992,-1.69270,20.7317,-15.4268,16.4024,0.28,11.65,-39.27,4,S01
25600,-7.85059,1.37906,-1.73340,21.0976,-15.9146,15.2439,0.28,11.65,-39.27,4,S01
25620,-8.25521,1.56102,-1.66397,22.1341,-14.5732,14.2683,0.28,11.65,-39.27,4,S01
25640,-8.63589,1.59454,-1.58017,22.6220,-13.7195,13.6585,1.38,12.11,-39.08,4,S01
25660,-8.86573,1.47722,-1.52032,23.2927,-13.9024,12.9268,1.38,12.11,-39.08,4,S01
25680,-8.84897,1.45567,-1.59693,24.8780,-14.3293,11.5244,1.38,12.11,-39.08,4,S01
25700,-8.75560,1.49159,-1.58975,26.2805,-12.9878,9.9390,1.38,12.11,-39.08,4,S01
25720,-8.82024,1.62327,-1.41737,27.2561,-10.1829,8.7805,2.66,12.66,-39.08,4,S01
25740,-9.00699,1.84114,-1.29047,26.8902,-8.5366,8.1707,2.66,12.66,-39.08,4,S01
25760,-9.21768,1.84593,-1.26653,26.2805,-8.8415,8.2317,2.66,12.66,-39.08,4,S01
25780,-9.29669,1.70946,-1.27132,27.1341,-11.0366,7.0732,4.04,13.12,-39.08,4,S01
25800,-9.20092,1.52511,-1.40300,29.3293,-13.1098,4.5732,4.04,13.12,-39.08,4,S01
25820,-9.23444,1.39103,-1.38385,32.1341,-13.7805,3.0488,4.04,13.12,-39.08,4,S01
25840,-9.21049,1.25456,-1.43652,34.8780,-14.5122,3.0488,5.96,13.85,-38.90,4,S01
25860,-9.06684,1.09176,-1.50356,37.2561,-15.0000,2.6220,5.96,13.85,-38.90,4,S01
25880,-8.83939,0.96726,-1.55623,39.5122,-14.7561,1.5854,5.96,13.85,-38.90,4,S01
25900,-8.65504,0.82121,-1.58017,41.7683,-13.9634,0.9146,5.96,13.85,-38.90,4,S01
25920,-8.59758,0.76614,-1.63763,44.5732,-11.5854,0.0000,8.35,14.31,-38.62,4,S01
25940,-8.69335,0.81163,-1.47483,46.8902,-7.2561,-1.5854,8.35,14.31,-38.62,4,S01
25960,-8.85136,0.98881,-1.21386,48.2317,-3.4146,-3.7195,8.35,14.31,-38.62,4,S01
25980,-9.01178,0.84276,-0.97683,48.9024,-0.3049,-5.0000,11.10,14.04,-38.53,4,S01
26000,-9.12191,0.70629,-0.92177,49.5732,1.5854,-6.8293,11.10,14.04,-38.53,4,S01
26020,-9.29669,0.44532,-1.01754,49.9390,3.1098,-7.4390,11.10,14.04,-38.53,4,S01
26040,-9.64145,0.30167,-1.07260,49.5122,4.5122,-7.4390,13.94,13.49,-38.53,4,S01
26060,-9.79707,0.47405,-1.49877,47.8049,4.5122,-7.6829,13.94,13.49,-38.53,4,S01
26080,-9.72046,1.20907,-2.04465,42.3780,3.3537,-8.0488,13.94,13.49,-38.53,4,S01
26100,-9.89524,2.04944,-2.03028,36.9512,0.8537,-5.6707,13.94,13.49,-38.53,4,S01
26120,-10.44351,2.15718,-1.64960,36.6463,0.6098,-0.1829,16.06,13.21,-38.26,4,S01
26140,-10.69490,1.14443,-1.56581,31.1585,2.6829,5.4878,16.06,13.21,-38.26,4,S01
26160,-9.86890,0.67995,-1.89142,23.2317,5.7317,6.0976,16.06,13.21,-38.26,4,S01
26180,-8.66701,1.40061,-1.81720,22.4390,5.0000,7.0122,16.97,12.84,-38.17,4,S01
26200,-8.61673,2.24816,-1.98000,24.2683,1.6463,12.7439,16.97,12.84,-38.17,4,S01
26220,-9.35175,2.43011,-1.96085,17.6220,5.3659,18.8415,16.97,12.84,-38.17,4,S01
26240,-9.90721,2.00155,-1.71904,9.7561,8.1098,22.9268,16.88,12.94,-38.35,4,S01
26260,-9.91200,1.64003,-1.79086,6.8293,4.3902,23.3537,16.88,12.94,-38.35,4,S01
26280,-9.66300,1.51074,-1.86508,7.7439,2.3780,23.1707,16.88,12.94,-38.35,4,S01
26300,-9.94791,1.40540,-1.78607,7.4390,3.9024,25.0610,16.88,12.94,-38.35,4,S01
26320,-10.55364,1.29526,-1.88903,3.9024,4.7561,26.8902,16.70,13.12,-38.35,4,S01
26340,-11.06361,1.20189,-2.10211,2.3171,4.2683,26.4634,16.70,13.12,-38.35,4,S01
26360,-11.51611,1.37427,-2.38463,4.3293,3.6585,24.2073,16.70,13.12,-38.35,4,S01
26380,-12.10748,1.85072,-2.71981,5.6098,5.4878,23.2317,16.42,13.03,-38.53,4,S01
26400,-12.45224,2.28886,-3.30400,4.1463,9.8171,23.2317,16.42,13.03,-38.53,4,S01
26420,-11.90876,2.29604,-3.75411,4.6341,14.5122,20.7927,16.42,13.03,-38.53,4,S01
26440,-10.79785,2.17872,-4.02465,8.8415,16.8902,16.5854,16.70,11.83,-38.62,4,S01
26460,-9.81623,1.98240,-4.13718,12.3171,19.1463,13.1707,16.70,11.83,-38.62,4,S01
26480,-9.31823,1.92494,-4.04620,14.7561,22.8049,10.1829,16.70,11.83,-38.62,4,S01
26500,-9.28232,2.02549,-3.75650,16.5854,26.4634,6.9512,16.70,11.83,-38.62,4,S01
26520,-9.30147,2.15718,-3.32315,17.6829,28.4756,2.6220,17.52,10.09,-38.90,4,S01
26540,-9.13149,2.25294,-2.96642,18.3537,28.2317,-2.7439,17.52,10.09,-38.90,4,S01
26560,-8.58321,2.20506,-2.79403,17.3780,26.1585,-7.4390,17.52,10.09,-38.90,4,S01
26580,-7.86974,1.91776,-2.85149,13.1707,23.7805,-11.2195,18.26,8.26,-39.27,4,S01
26600,-7.30710,1.56820,-2.98078,7.8659,22.6829,-14.5122,18.26,8.26,-39.27,4,S01
26620,-7.06289,1.26653,-3.02867,4.9390,22.8659,-16.8293,18.26,8.26,-39.27,4,S01
26640,-7.16106,1.15161,-2.94726,4.6951,22.6220,-18.7805,18.62,6.51,-39.36,4,S01
26660,-7.35020,1.14922,-2.88741,5.1829,20.0610,-19.8780,18.62,6.51,-39.36,4,S01
26680,-7.40766,1.30484,-2.98557,5.2439,15.6707,-20.4268,18.62,6.51,-39.36,4,S01
26700,-7.48906,1.46765,-3.31836,5.2439,10.4878,-19.5732,18.62,6.51,-39.36,4,S01
26720,-7.69018,1.54905,-3.63679,5.9756,6.2195,-17.9878,19.17,5.60,-39.45,4,S01
26740,-7.78834,1.59214,-3.87621,6.6463,2.9268,-17.0122,19.17,5.60,-39.45,4,S01
26760,-7.88171,1.70707,-4.00311,6.5244,0.9756,-17.1341,19.17,5.60,-39.45,4,S01
26780,-8.04691,1.76453,-3.95522,5.6707,0.0610,-17.1341,19.72,5.23,-39.27,4,S01
26800,-8.13310,1.61848,-3.91452,4.4512,-1.5854,-17.1341,19.72,5.23,-39.27,4,S01
26820,-8.19056,1.40300,-4.00071,3.1098,-3.4146,-17.3171,19.72,5.23,-39.27,4,S01
26840,-8.23366,1.27611,-4.09887,2.6829,-4.0244,-17.6829,20.28,4.95,-39.36,4,S01
26860,-8.37252,1.25696,-4.13000,3.1707,-3.5366,-17.9878,20.28,4.95,-39.36,4,S01
26880,-8.52815,1.27850,-4.07493,3.7805,-2.8049,-18.1707,20.28,4.95,-39.36,4,S01
26900,-8.59518,1.23780,-4.01986,3.2317,-2.8659,-18.6585,20.28,4.95,-39.36,4,S01
26920,-8.62152,1.23062,-3.92649,2.1341,-3.7805,-20.0000,20.73,4.68,-39.08,4,S01
26940,-8.66462,1.27132,-3.69186,1.5244,-4.7561,-21.8902,20.73,4.68,-39.08,4,S01
26960,-8.80827,0.93134,-3.44286,-0.7927,-7.9268,-22.8049,20.73,4.68,-39.08,4,S01
26980,-8.93995,0.57700,-3.34949,-2.9268,-9.5122,-22.1341,21.01,4.50,-38.99,4,S01
27000,-9.14585,0.27294,-3.38061,-3.9024,-11.7073,-21.7073,21.01,4.50,-38.99,4,S01
27020,-9.32781,0.07901,-3.26569,-3.7195,-13.8415,-21.4634,21.01,4.50,-38.99,4,S01
27040,-9.29669,0.10534,-3.18429,-1.6463,-17.1341,-21.4024,21.28,4.95,-38.81,4,S01
27060,-9.14825,0.16999,-3.14598,-0.0610,-21.0366,-21.0976,21.28,4.95,-38.81,4,S01
27080,-8.97107,0.10774,-3.16992,-2.9878,-22.7439,-20.0000,21.28,4.95,-38.81,4,S01
27100,-8.85376,-0.04070,-3.09570,-7.1341,-22.1951,-19.0854,21.28,4.95,-38.81,4,S01
27120,-8.70771,-0.28012,-3.20344,-9.2073,-21.0366,-18.7195,21.28,5.78,-38.72,4,S01
27140,-8.68377,-0.49799,-3.42371,-10.6098,-17.3171,-18.1098,21.28,5.78,-38.72,4,S01
27160,-8.93756,-0.47166,-3.39977,-14.2683,-12.5000,-17.0122,21.28,5.78,-38.72,4,S01
27180,-9.13388,-0.26097,-3.11964,-19.2683,-9.5732,-16.2805,20.73,5.78,-38.81,4,S01
27200,-9.16261,-0.13168,-2.85389,-24.1463,-8.8415,-16.6463,20.73,5.78,-38.81,4,S01
27220,-9.09078,0.00000,-2.64559,-29.8171,-8.7195,-18.4146,20.73,5.78,-38.81,4,S01
27240,-9.08360,-0.08859,-2.67672,-35.7927,-8.5976,-19.5732,19.17,5.78,-39.45,4,S01
27260,-9.14346,-0.28012,-2.58813,-40.5488,-7.3780,-19.8171,19.17,5.78,-39.45,4,S01
27280,-9.19134,-0.39744,-2.60250,-44.0854,-7.2561,-19.8171,19.17,5.78,-39.45,4,S01
27300,-9.22246,-0.43096,-2.62883,-47.3781,-7.0122,-19.1463,19.17,5.78,-39.45,4,S01
27320,-9.16740,-0.30885,-2.55222,-49.8171,-6.6463,-18.2927,16.97,5.78,-39.91,4,S01
27340,-9.12191,-0.31603,-2.41814,-51.2195,-6.9512,-17.4390,16.97,5.78,-39.91,4,S01
27360,-9.00938,-0.40223,-2.32716,-52.4390,-7.1341,-16.7683,16.97,5.78,-39.91,4,S01
27380,-8.94474,-0.52433,-2.23858,-53.5976,-6.8293,-15.7927,14.40,5.96,-40.55,4,S01
27400,-9.00459,-0.54348,-2.17154,-54.3902,-6.3415,-14.5732,14.40,5.96,-40.55,4,S01
27420,-9.08839,-0.54827,-2.13323,-55.6707,-5.1220,-12.5610,14.40,5.96,-40.55,4,S01
27440,-9.13149,-0.53630,-2.14999,-58.2317,-3.0488,-9.5122,11.47,5.87,-41.10,4,S01
27460,-9.20331,-0.51475,-2.17872,-62.1341,-0.4878,-6.4634,11.47,5.87,-41.10,4,S01
27480,-9.29429,-0.42856,-2.15478,-65.8537,1.1585,-4.2073,11.47,5.87,-41.10,4,S01
27500,-9.31344,-0.39983,-2.27449,-69.4512,1.8902,-2.5610,11.47,5.87,-41.10,4,S01
27520,-9.27274,-0.76375,-2.79882,-71.4634,3.1098,-0.9146,7.43,5.78,-41.47,4,S01
27540,-9.53610,-1.37427,-3.05021,-68.8415,5.5488,0.2439,7.43,5.78,-41.47,4,S01
27560,-9.83059,-1.15161,-3.26330,-62.5610,5.1220,-2.6220,7.43,5.78,-41.47,4,S01
27580,-9.87848,-0.41420,-3.24175,-58.2927,5.1220,-5.9146,4.40,5.60,-41.83,4,S01
27600,-9.52413,-0.10534,-3.28484,-54.4512,6.0976,-5.0610,4.40,5.60,-41.83,4,S01
27620,-9.22246,-0.50518,-3.40934,-53.0488,9.6951,-1.0976,4.40,5.60,-41.83,4,S01
27640,-9.27993,-1.12527,-3.65595,-51.9512,13.2927,3.7805,1.65,4.77,-41.83,4,S01
27660,-9.69173,-1.32878,-3.73495,-49.7561,17.3171,7.9268,1.65,4.77,-41.83,4,S01
27680,-10.13466,-1.13485,-3.64637,-44.7561,19.2073,10.0000,1.65,4.77,-41.83,4,S01
27700,-10.36450,-0.78530,-3.57694,-39.1463,19.5732,9.5122,1.65,4.77,-41.83,4,S01
27720,-10.34535,-0.62010,-3.62243,-35.6098,19.1463,7.6829,-0.18,3.58,-41.74,4,S01
27740,-10.35732,-0.67995,-3.91213,-31.8293,18.1707,5.2439,-0.18,3.58,-41.74,4,S01
27760,-10.59434,-0.50278,-4.28802,-26.2195,19.3902,3.1098,-0.18,3.58,-41.74,4,S01
27780,-10.79067,-0.03112,-4.49631,-22.5000,19.8780,2.5610,-1.38,2.75,-41.65,4,S01
27800,-10.80743,0.44532,-4.44603,-21.6463,17.0732,4.2683,-1.38,2.75,-41.65,4,S01
27820,-10.48660,0.87628,-4.23774,-24.2073,12.1951,6.8293,-1.38,2.75,-41.65,4,S01
27840,-9.90960,1.41976,-4.13479,-30.5488,7.2561,8.3537,-3.21,2.39,-41.10,4,S01
27860,-9.51456,1.78847,-4.36702,-39.2073,4.1463,9.2683,-3.21,2.39,-41.10,4,S01
27880,-9.47386,1.81720,-4.41251,-45.1220,4.3293,10.8537,-3.21,2.39,-41.10,4,S01
27900,-9.54089,1.60651,-4.08930,-44.9390,6.0976,11.6463,-3.21,2.39,-41.10,4,S01
27920,-9.42597,1.27611,-3.85227,-41.2195,6.8902,11.9512,-5.50,1.93,-40.46,4,S01
27940,-9.16500,0.96486,-4.01508,-36.7073,6.2805,12.8659,-5.50,1.93,-40.46,4,S01
27960,-8.91840,0.77093,-4.04859,-31.0976,6.0366,14.2683,-5.50,1.93,-40.46,4,S01
27980,-8.69574,0.73263,-3.80918,-24.0244,5.3659,15.6707,-6.42,1.74,-40.09,4,S01
28000,-8.41083,0.92895,-3.62722,-18.0488,2.6829,16.0366,-6.42,1.74,-40.09,4,S01
28020,-8.03494,1.39103,-3.46920,-16.4634,-0.7927,15.1829,-6.42,1.74,-40.09,4,S01
28040,-7.69736,1.89860,-3.21302,-19.0854,-3.7195,13.4146,-7.52,2.02,-39.36,4,S01
28060,-7.41484,2.26491,-3.10528,-24.1463,-6.7683,11.7073,-7.52,2.02,-39.36,4,S01
28080,-7.28795,2.38941,-3.11964,-30.3049,-9.6341,11.0976,-7.52,2.02,-39.36,4,S01
28100,-7.31429,2.27210,-3.16035,-35.9756,-11.8293,11.5244,-7.52,2.02,-39.36,4,S01
28120,-7.47709,1.96564,-3.21541,-39.0244,-12.9268,12.0122,-9.54,2.39,-38.62,4,S01
28140,-7.72848,1.67355,-3.16513,-38.9024,-12.8049,11.9512,-9.54,2.39,-38.62,4,S01
28160,-8.00142,1.55384,-3.15556,-36.7073,-13.8415,11.3415,-9.54,2.39,-38.62,4,S01
28180,-8.23366,1.84354,-3.17471,-34.9390,-16.5244,10.5488,-11.28,3.03,-37.89,4,S01
28200,-8.31985,2.01592,-3.11964,-34.6951,-20.0000,10.4878,-11.28,3.03,-37.89,4,S01
28220,-8.31267,2.04704,-3.40695,-34.3902,-24.2073,9.5732,-11.28,3.03,-37.89,4,S01
28240,-8.38928,1.98958,-3.31597,-32.1951,-24.3293,8.2927,-12.94,4.31,-37.16,4,S01
28260,-8.46111,2.06141,-3.33512,-29.3902,-24.3293,6.5244,-12.94,4.31,-37.16,4,S01
28280,-8.47308,2.22182,-3.15795,-27.9878,-22.7439,4.6341,-12.94,4.31,-37.16,4,S01
28300,-8.43238,2.33435,-2.78925,-28.1707,-20.4878,3.3537,-12.94,4.31,-37.16,4,S01
28320,-8.47547,2.23140,-2.59053,-29.9390,-19.2073,3.7805,-14.22,5.41,-36.42,4,S01
28340,-8.69095,2.06380,-2.47082,-30.8537,-18.9634,5.3049,-14.22,5.41,-36.42,4,S01
28360,-9.01417,1.65918,-2.18591,-28.4756,-20.7317,7.7439,-14.22,5.41,-36.42,4,S01
28380,-9.08121,1.63045,-2.14520,-27.1341,-22.2561,7.3171,-15.60,6.33,-35.69,4,S01
28400,-9.08121,1.57060,-2.05183,-27.5610,-20.7927,7.1341,-15.60,6.33,-35.69,4,S01
28420,-8.96868,1.56341,-2.00395,-26.4024,-17.0122,5.9756,-15.60,6.33,-35.69,4,S01
28440,-8.80827,1.54905,-1.83875,-22.9878,-11.7073,4.1463,-16.70,6.88,-35.05,4,S01
28460,-8.65983,1.53708,-1.81480,-18.5366,-7.5610,2.5610,-16.70,6.88,-35.05,4,S01
28480,-8.47547,1.52750,-1.73819,-15.3659,-3.4756,2.1951,-16.70,6.88,-35.05,4,S01
28500,-8.47787,1.41497,-1.67594,-12.4390,-0.1220,2.7439,-16.70,6.88,-35.05,4,S01
28520,-8.56167,1.45807,-1.50835,-8.5976,2.0732,2.0122,-17.06,6.79,-34.77,4,S01
28540,-8.64786,1.65439,-1.36709,-5.6098,2.8049,0.0610,-17.06,6.79,-34.77,4,S01
28560,-8.76996,1.90818,-1.36230,-5.0000,3.1098,-2.1951,-17.06,6.79,-34.77,4,S01
28580,-8.93756,2.02071,-1.32160,-5.3659,4.3902,-4.5122,-17.16,6.79,-34.77,4,S01
28600,-9.13388,1.88424,-1.18992,-5.0610,6.0976,-6.6463,-17.16,6.79,-34.77,4,S01
28620,-9.21768,1.77171,-1.62806,-4.3293,7.4390,-8.7805,-17.16,6.79,-34.77,4,S01
28640,-9.29429,2.34153,-2.09732,-9.2073,8.7805,-11.1585,-17.52,6.88,-34.68,4,S01
28660,-9.23204,2.37744,-1.57060,-12.3171,7.0122,-11.4024,-17.52,6.88,-34.68,4,S01
28680,-9.50019,2.75094,-1.52989,-9.3293,3.3537,-11.9512,-17.52,6.88,-34.68,4,S01
28700,-9.78989,2.24337,-1.55144,-15.6707,2.6220,-8.1707,-17.52,6.88,-34.68,4,S01
28720,-9.44991,1.35991,-1.75974,-14.8780,1.0366,-4.2073,-18.17,7.25,-34.40,4,S01
28740,-8.98783,1.05584,-1.65200,-7.9268,0.9756,-3.8415,-18.17,7.25,-34.40,4,S01
28760,-9.02854,1.60651,-1.62327,0.7927,3.2927,-4.0244,-18.17,7.25,-34.40,4,S01
28780,-9.51935,2.63602,-1.64721,4.5732,7.0122,-3.9634,-17.89,7.25,-34.59,4,S01
28800,-10.24958,3.10289,-1.57778,2.6220,9.6951,-2.2561,-17.89,7.25,-34.59,4,S01
28820,-11.01572,3.10528,-1.66397,0.8537,7.2561,0.8537,-17.89,7.25,-34.59,4,S01
28840,-11.44189,3.13640,-2.05183,-2.5610,1.8902,3.9634,-18.26,7.06,-34.31,4,S01
28860,-11.64300,3.32315,-2.35589,-5.8537,-0.2439,6.9512,-18.26,7.06,-34.31,4,S01
28880,-12.02608,3.39498,-2.83234,-7.5610,-1.2805,9.6341,-18.26,7.06,-34.31,4,S01
28900,-12.72997,3.39019,-3.87142,-9.9390,-2.8049,11.4024,-18.26,7.06,-34.31,4,S01
28920,-13.09389,2.89938,-5.06134,-5.4268,-2.0732,11.6463,-18.53,7.16,-33.85,4,S01
28940,-12.31338,2.23140,-5.64792,7.0732,3.0488,9.2683,-18.53,7.16,-33.85,4,S01
28960,-10.76433,2.13084,-5.73172,17.0732,9.9390,5.0610,-18.53,7.16,-33.85,4,S01
28980,-9.22965,2.28886,-5.31273,23.0488,15.6707,2.5610,-17.06,6.33,-34.59,4,S01
29000,-8.20493,2.31519,-4.71179,23.9024,20.3659,0.4268,-17.06,6.33,-34.59,4,S01
29020,-7.81946,1.95846,-4.21619,19.5732,23.5366,-2.6220,-17.06,6.33,-34.59,4,S01
29040,-7.92720,1.46286,-3.71341,13.2927,25.5488,-6.9512,-16.15,5.14,-34.86,4,S01
29060,-8.12113,1.17076,-3.11007,6.5244,27.3171,-12.4390,-16.15,5.14,-34.86,4,S01
29080,-8.15705,1.04627,-2.49476,1.2195,27.1951,-18.8415,-16.15,5.14,-34.86,4,S01
29100,-7.95833,0.94332,-2.13563,-2.6220,22.6829,-24.5122,-16.15,5.14,-34.86,4,S01
29120,-7.41005,0.92416,-2.06141,-6.3415,14.2683,-27.8659,-15.78,5.05,-34.59,4,S01
29140,-6.79474,0.93374,-2.20985,-11.0976,6.3415,-28.7805,-15.78,5.05,-34.59,4,S01
29160,-6.61518,0.82361,-2.53307,-15.1220,1.4634,-27.9268,-15.78,5.05,-34.59,4,S01
29180,-6.94797,0.66798,-2.89698,-16.5244,0.7927,-27.1341,-16.06,5.78,-33.85,4,S01
29200,-7.52976,0.62249,-3.16035,-15.7317,1.8293,-27.0122,-16.06,5.78,-33.85,4,S01
29220,-7.88411,0.69671,-3.43329,-13.6585,0.3049,-27.0732,-16.06,5.78,-33.85,4,S01
29240,-8.02297,0.85473,-3.66313,-10.6707,-3.0488,-26.7073,-16.06,6.88,-33.49,4,S01
29260,-8.15944,1.04148,-3.76369,-7.4390,-6.0976,-25.0610,-16.06,6.88,-33.49,4,S01
29280,-8.28154,1.07500,-3.79002,-5.5488,-8.0488,-23.3537,-16.06,6.88,-33.49,4,S01
29300,-8.28873,1.09415,-3.83312,-5.6707,-9.5122,-22.9268,-16.06,6.88,-33.49,4,S01
29320,-8.18817,1.19231,-3.88579,-7.3171,-10.1220,-23.3537,-16.06,7.98,-33.21,4,S01
29340,-8.22887,1.24498,-3.82833,-8.6585,-9.6951,-22.6220,-16.06,7.98,-33.21,4,S01
29360,-8.49702,1.02472,-3.71580,-8.8415,-8.7195,-20.4268,-16.06,7.98,-33.21,4,S01
29380,-8.83460,0.67756,-3.58891,-8.4756,-7.8659,-18.8415,-15.96,8.99,-33.12,4,S01
29400,-8.96150,0.44772,-3.48356,-7.5610,-7.8659,-18.7805,-15.96,8.99,-33.12,4,S01
29420,-8.94713,0.43814,-3.32315,-5.7317,-8.8415,-19.8171,-15.96,8.99,-33.12,4,S01
29440,-8.88249,0.41659,-3.25851,-3.5976,-10.6098,-20.4268,-15.41,10.09,-33.12,4,S01
29460,-8.80587,0.46448,-3.29682,-2.5610,-11.5854,-20.6098,-15.41,10.09,-33.12,4,S01
29480,-8.78911,0.53870,-3.26090,-3.2927,-11.4024,-20.2439,-15.41,10.09,-33.12,4,S01
29500,-8.76038,0.48842,-3.14359,-4.5122,-10.8537,-19.5732,-15.41,10.09,-33.12,4,S01
29520,-8.77475,0.43096,-3.13401,-5.2439,-10.8537,-18.7805,-15.23,10.92,-32.94,4,S01
29540,-8.87531,0.22984,-2.97839,-6.5854,-10.3049,-16.7073,-15.23,10.92,-32.94,4,S01
29560,-9.03332,0.02634,-2.78206,-7.3780,-10.3049,-14.4512,-15.23,10.92,-32.94,4,S01
29580,-9.11712,-0.16281,-2.73657,-7.8659,-10.6707,-12.7439,-15.05,11.65,-32.84,4,S01
29600,-9.17219,-0.22984,-2.74376,-7.4390,-10.7317,-11.6463,-15.05,11.65,-32.84,4,S01
29620,-9.22486,-0.17238,-2.71024,-7.1951,-10.6098,-10.6707,-15.05,11.65,-32.84,4,S01
29640,-9.37330,-0.21069,-2.50912,-7.2561,-10.3659,-9.6341,-15.05,12.48,-32.48,4,S01
29660,-9.24401,-0.21548,-2.47800,-7.0732,-11.5854,-9.8171,-15.05,12.48,-32.48,4,S01
29680,-9.04769,-0.26576,-2.50194,-7.1341,-11.5244,-9.0854,-15.05,12.48,-32.48,4,S01
29700,-9.04051,-0.35913,-2.45645,-8.2927,-10.0000,-6.8293,-15.05,12.48,-32.48,4,S01
29720,-9.17698,-0.40223,-2.35589,-8.9634,-8.2927,-4.3902,-15.05,12.94,-32.20,4,S01
29740,-9.33260,-0.38307,-2.20027,-8.7195,-7.5610,-2.2561,-15.05,12.94,-32.20,4,S01
29760,-9.27514,-0.20590,-2.08056,-10.1220,-9.2073,0.7927,-15.05,12.94,-32.20,4,S01
29780,-9.10994,-0.21548,-2.10690,-11.7073,-9.3902,2.3171,-15.41,13.21,-31.83,4,S01
29800,-9.02135,-0.27533,-2.09972,-12.3780,-8.5366,4.2683,-15.41,13.21,-31.83,4,S01
29820,-9.04051,-0.36871,-2.05183,-12.7439,-7.0122,6.8293,-15.41,13.21,-31.83,4,S01
29840,-9.09557,-0.32322,-2.01592,-13.0488,-5.9756,9.0854,-16.24,13.21,-31.56,4,S01
29860,-9.20571,-0.16520,-1.97522,-13.5976,-5.2439,10.7927,-16.24,13.21,-31.56,4,S01
29880,-9.38048,-0.12929,-1.79326,-14.5732,-4.5732,12.8659,-16.24,13.21,-31.56,4,S01
29900,-9.49062,-0.20111,-1.78607,-15.9146,-5.1829,14.0244,-16.24,13.21,-31.56,4,S01
29920,-9.54089,-0.26815,-1.84114,-16.9512,-5.4878,13.2927,-17.25,13.12,-31.10,4,S01
