timestamp,ax,ay,az,gx,gy,gz,mx,my,mz,label,subject_id
0,-12.30141,4.86262,-0.58179,14.2683,-30.6707,17.8659,3.03,14.86,36.79,0,S01
20,-11.70525,2.66475,-0.88825,9.1463,-12.8049,19.1463,1.74,14.04,36.88,0,S01
40,-11.84890,1.84832,-0.15802,9.1463,2.4390,9.6951,1.74,14.04,36.88,0,S01
60,-11.39640,2.34392,0.20351,12.4390,5.3049,1.5854,1.74,14.04,36.88,0,S01
80,-10.65899,2.77249,-0.09337,18.0488,3.5366,0.3049,0.73,14.59,36.42,0,S01
100,-10.38605,2.46603,0.20351,19.8171,7.5610,4.2073,0.73,14.59,36.42,0,S01
120,-10.01734,1.96564,0.59855,18.2927,11.0976,9.0244,0.73,14.59,36.42,0,S01
140,-9.14825,1.99916,0.50757,17.6220,11.5854,11.8293,-0.46,14.95,35.87,0,S01
160,-8.13071,2.19788,0.08380,17.5000,11.2805,12.4390,-0.46,14.95,35.87,0,S01
180,-7.65426,2.20027,-0.07422,17.6220,13.1707,11.6463,-0.46,14.95,35.87,0,S01
200,-7.71651,1.96803,0.24421,16.1585,15.1220,10.2439,-0.46,14.95,35.87,0,S01
220,-8.02058,1.81480,0.40701,13.7805,13.4146,8.2317,-1.47,15.50,35.32,0,S01
240,-8.32703,1.61848,0.42856,11.5854,10.7927,5.6707,-1.47,15.50,35.32,0,S01
260,-9.34936,1.46765,0.62968,10.1220,6.6463,-2.6829,-1.47,15.50,35.32,0,S01
280,-9.89524,1.69509,0.47884,10.8537,4.2073,-6.7073,-1.93,15.87,34.95,0,S01
300,-10.21845,2.23618,0.28491,8.8415,2.3171,-8.8415,-1.93,15.87,34.95,0,S01
320,-10.13944,2.68869,0.17717,4.2683,0.4878,-7.6829,-1.93,15.87,34.95,0,S01
340,-9.98382,2.79403,0.25379,1.1585,-0.7927,-3.3537,-1.93,15.87,34.77,0,S01
360,-9.99100,2.65756,0.74939,-0.1220,-0.4878,1.8293,-1.93,15.87,34.77,0,S01
380,-9.86890,2.38463,1.15161,-0.3049,-1.8293,5.4878,-1.93,15.87,34.77,0,S01
400,-9.49780,2.07338,1.12527,0.3659,-5.4878,7.3780,-1.93,15.87,34.77,0,S01
420,-9.09318,1.81959,1.01275,1.7073,-7.5610,7.6829,-2.39,15.60,34.86,0,S01
440,-8.96629,1.77650,0.98402,2.9878,-7.9268,6.0976,-2.39,15.60,34.86,0,S01
460,-9.14106,1.81959,1.06063,3.7805,-7.6829,3.5976,-2.39,15.60,34.86,0,S01
480,-9.34936,1.81002,1.16119,4.6341,-7.8049,1.0976,-3.03,15.32,34.86,0,S01
500,-9.38048,1.77889,1.14922,6.2195,-9.1463,-1.2805,-3.03,15.32,34.86,0,S01
520,-9.24880,1.68073,1.01993,8.9024,-10.9756,-2.7439,-3.03,15.32,34.86,0,S01
540,-9.15303,1.57778,0.79727,12.5610,-11.3415,-3.3537,-3.67,14.95,34.95,0,S01
560,-9.22486,1.70228,0.68714,14.6951,-9.6951,-3.4756,-3.67,14.95,34.95,0,S01
580,-9.28711,1.92015,0.68474,13.9634,-7.9878,-3.1707,-3.67,14.95,34.95,0,S01
600,-9.30626,2.01113,0.68953,12.5610,-6.9512,-2.6220,-3.67,14.95,34.95,0,S01
620,-9.23444,2.03986,0.53870,12.2561,-6.1585,-2.0122,-4.50,14.59,34.77,0,S01
640,-9.15303,2.09493,0.35434,12.8659,-4.0854,-1.0976,-4.50,14.59,34.77,0,S01
660,-9.15543,2.17154,0.29209,13.2927,-0.9756,-0.2439,-4.50,14.59,34.77,0,S01
680,-9.19613,2.25773,0.41899,12.9878,0.5488,-0.1829,-5.23,14.86,34.31,0,S01
700,-9.26077,2.23618,0.55785,10.8537,-0.5488,-0.7927,-5.23,14.86,34.31,0,S01
720,-9.20571,2.14281,0.60573,7.1951,-3.5976,-1.7073,-5.23,14.86,34.31,0,S01
740,-9.03093,2.15239,0.64883,2.9268,-6.1585,-2.1341,-5.50,14.68,34.40,0,S01
760,-8.90883,2.14520,0.85712,-0.9756,-6.7683,-2.2561,-5.50,14.68,34.40,0,S01
780,-8.88249,2.06859,1.05105,-2.3780,-7.4390,-2.8049,-5.50,14.68,34.40,0,S01
800,-8.94953,1.97282,1.12049,-1.8902,-8.6585,-3.5366,-5.50,14.68,34.40,0,S01
820,-8.95192,1.87945,1.30723,-1.3415,-9.5732,-3.6585,-5.69,14.40,34.50,0,S01
840,-8.90883,1.82438,1.52750,-1.1585,-10.4268,-3.4756,-5.69,14.40,34.50,0,S01
860,-8.87531,1.83635,1.73580,-1.2805,-11.4634,-3.1707,-5.69,14.40,34.50,0,S01
880,-8.85855,1.94170,1.85311,-2.0732,-13.1707,-2.9878,-5.78,13.94,34.68,0,S01
900,-8.83221,1.98719,1.85551,-3.9634,-14.6341,-2.7439,-5.78,13.94,34.68,0,S01
920,-8.64786,1.88424,1.97043,-6.5244,-14.7561,-3.1707,-5.78,13.94,34.68,0,S01
940,-8.33900,1.80762,1.87227,-7.9878,-13.4756,-4.2073,-5.78,13.39,35.05,0,S01
960,-8.14268,1.77889,1.66636,-8.6585,-9.8780,-4.4512,-5.78,13.39,35.05,0,S01
980,-8.17859,1.79086,1.55623,-10.3659,-4.0854,-4.5122,-5.78,13.39,35.05,0,S01
1000,-8.32943,1.75256,1.53708,-12.6220,1.2195,-4.6341,-5.78,13.39,35.05,0,S01
1020,-8.38928,1.70707,1.56581,-14.1463,5.2439,-4.4512,-5.60,13.85,35.23,0,S01
1040,-8.36295,1.61130,1.72861,-15.6098,8.4146,-3.5366,-5.60,13.85,35.23,0,S01
1060,-8.19535,1.51553,1.71664,-17.5000,10.1220,-2.0122,-5.60,13.85,35.23,0,S01
1080,-7.94396,1.50356,1.54426,-19.0244,10.7317,-0.7317,-5.14,14.31,35.23,0,S01
1100,-7.69257,1.62327,1.45089,-20.1829,11.2805,-0.1220,-5.14,14.31,35.23,0,S01
1120,-7.63032,2.01113,1.48440,-21.4024,12.6220,-0.4878,-5.14,14.31,35.23,0,S01
1140,-7.72609,2.30801,1.51792,-22.7439,13.3537,-1.2805,-4.59,14.86,35.41,0,S01
1160,-7.68060,2.11887,1.38864,-23.8415,12.2561,-2.3780,-4.59,14.86,35.41,0,S01
1180,-7.38851,1.60651,1.64003,-23.9634,10.6098,-4.2073,-4.59,14.86,35.41,0,S01
1200,-7.04614,1.57778,2.06859,-23.9024,7.5000,-7.3780,-4.59,14.86,35.41,0,S01
1220,-6.82108,1.81002,2.17154,-26.5854,3.7195,-10.2439,-3.76,14.95,35.96,0,S01
1240,-6.81150,2.10211,1.90818,-27.6220,1.4024,-12.9878,-3.76,14.95,35.96,0,S01
1260,-6.69419,2.12126,1.37667,-27.9268,-2.6829,-15.9756,-3.76,14.95,35.96,0,S01
1280,-7.33583,2.39181,0.10774,-27.8659,-8.9024,-17.1951,-2.75,14.50,36.79,0,S01
1300,-8.96629,2.91614,-1.28569,-27.6220,-12.0732,-11.7073,-2.75,14.50,36.79,0,S01
1320,-10.95587,1.49638,-1.73819,-22.1951,-6.0976,-0.7927,-2.75,14.50,36.79,0,S01
1340,-13.35486,0.17478,-1.32878,-20.7317,2.3171,3.0488,-2.66,14.59,37.16,0,S01
1360,-16.97250,0.32082,-0.63686,-24.3902,4.6341,4.8171,-2.66,14.59,37.16,0,S01
1380,-19.29966,-1.06303,0.56264,-26.1585,0.7927,20.0610,-2.66,14.59,37.16,0,S01
1400,-17.25741,-1.36709,1.65918,-17.3171,-16.5854,22.6829,-2.66,14.59,37.16,0,S01
1420,-14.59984,-0.22984,1.95846,-9.4512,-27.5000,-0.6098,-2.48,13.21,37.71,0,S01
1440,-11.88242,1.24498,2.23140,-8.7805,-27.9878,-26.7683,-2.48,13.21,37.71,0,S01
1460,-9.06205,1.78368,1.29287,-10.7927,-31.6463,-39.5122,-2.48,13.21,37.71,0,S01
1480,-7.25443,1.80044,0.05507,-14.6341,-27.9268,-42.6220,-1.47,13.12,38.35,0,S01
1500,-7.06289,0.62249,-0.50518,-13.7805,-4.9390,-36.5854,-1.47,13.12,38.35,0,S01
1520,-7.90087,-0.08140,-0.32561,-12.9878,25.1220,-27.6829,-1.47,13.12,38.35,0,S01
1540,-8.80109,0.28252,0.29449,-18.0488,44.4512,-17.3780,-0.83,15.78,37.52,0,S01
1560,-9.10754,0.54827,0.96247,-26.4024,47.8659,-5.1220,-0.83,15.78,37.52,0,S01
1580,-8.81306,0.26097,1.35272,-32.6829,40.9146,3.7805,-0.83,15.78,37.52,0,S01
1600,-8.14986,-0.05028,1.42455,-32.6829,31.7073,5.5488,-0.83,15.78,37.52,0,S01
1620,-7.81228,-0.37110,1.42216,-25.5488,24.6951,3.7195,-0.18,16.61,37.43,0,S01
1640,-8.14747,-0.65601,1.64482,-16.3415,19.4512,3.6585,-0.18,16.61,37.43,0,S01
1660,-8.57124,-1.00556,2.02071,-12.0122,12.1951,5.9146,-0.18,16.61,37.43,0,S01
1680,-8.11874,-0.85712,2.11647,-13.2317,-0.7317,6.8293,-0.37,15.78,37.89,0,S01
1700,-6.71813,-0.76854,1.93212,-15.7317,-17.7439,9.8171,-0.37,15.78,37.89,0,S01
1720,-4.85065,-1.68552,1.33596,-9.1463,-31.2805,10.7927,-0.37,15.78,37.89,0,S01
1740,-5.04219,-2.55940,1.21386,8.4756,-27.3171,3.4146,-1.47,14.04,38.81,0,S01
1760,-5.58567,-2.63123,1.31202,27.5000,-22.4390,-6.7683,-1.47,14.04,38.81,0,S01
1780,-6.18662,-2.26731,0.68714,40.9146,-18.0488,-14.7561,-1.47,14.04,38.81,0,S01
1800,-6.61278,-0.70390,-0.18914,43.1707,-8.9634,-17.9268,-1.47,14.04,38.81,0,S01
1820,-6.86418,1.70467,-0.58419,35.9756,0.2439,-11.5244,-4.13,14.22,38.26,0,S01
1840,-7.61117,3.28963,-1.51074,20.3659,1.7073,3.6585,-4.13,14.22,38.26,0,S01
1860,-10.48182,4.42448,-2.36308,3.7805,8.4756,14.5732,-4.13,14.22,38.26,0,S01
1880,-14.24789,3.40216,0.23703,-7.5610,25.1220,13.9634,-4.86,14.95,38.07,0,S01
1900,-17.70273,2.37505,1.55863,1.0366,22.2561,1.8293,-4.86,14.95,38.07,0,S01
1920,-19.05785,2.89698,1.64721,15.8537,1.1585,-11.2805,-4.86,14.95,38.07,0,S01
1940,-18.48324,3.85227,1.37427,16.6463,-17.4390,-11.3415,-5.78,14.40,37.89,0,S01
1960,-16.32846,5.04219,1.49877,13.5366,-25.6098,-1.1585,-5.78,14.40,37.89,0,S01
1980,-13.57034,5.00149,0.43335,8.4146,-29.0854,9.9390,-5.78,14.40,37.89,0,S01
2000,-11.68370,3.74453,-0.12450,1.0976,-18.7195,15.0000,-5.78,14.40,37.89,0,S01
2020,-10.41478,1.94649,0.48842,-4.6341,-1.0976,15.1220,-6.61,13.21,38.26,0,S01
2040,-9.04769,0.70150,0.85712,-7.6220,7.3780,12.8659,-6.61,13.21,38.26,0,S01
2060,-7.57525,0.31843,0.54109,-7.1951,8.1707,10.0610,-6.61,13.21,38.26,0,S01
2080,-6.40449,0.64883,0.23942,-4.0854,10.7927,7.5610,-6.97,13.85,38.26,0,S01
2100,-5.52103,1.12049,0.29928,-0.8537,16.5244,6.1585,-6.97,13.85,38.26,0,S01
2120,-5.05655,1.52032,0.39744,0.8537,22.5610,6.2805,-6.97,13.85,38.26,0,S01
2140,-5.13556,1.53468,0.71587,0.6098,26.3415,7.9878,-7.61,14.68,37.61,0,S01
2160,-5.47315,1.43173,1.13964,-1.5854,24.1463,8.4756,-7.61,14.68,37.61,0,S01
2180,-5.34146,0.93374,1.45807,-4.1463,14.3293,7.7439,-7.61,14.68,37.61,0,S01
2200,-4.56574,0.72784,0.98402,-3.0488,-0.9756,6.9512,-7.61,14.68,37.61,0,S01
2220,-3.78763,1.19231,0.29209,0.4878,-11.2805,5.9146,-8.35,14.04,37.80,0,S01
2240,-3.73735,1.72143,-0.16520,3.4756,-13.9024,6.7683,-8.35,14.04,37.80,0,S01
2260,-4.23055,1.89142,-0.13408,3.2927,-13.6585,7.8659,-8.35,14.04,37.80,0,S01
2280,-4.58011,2.11647,-0.11492,0.2439,-17.1951,4.0854,-9.36,13.12,38.26,0,S01
2300,-5.90171,2.35829,-0.84994,1.2195,-22.0122,-3.0488,-9.36,13.12,38.26,0,S01
2320,-9.82341,3.34231,-2.81798,4.6341,-24.4512,-1.4024,-9.36,13.12,38.26,0,S01
2340,-14.01087,2.73418,-1.57538,3.7805,-11.7073,18.2927,-10.64,12.20,38.44,0,S01
2360,-17.02517,0.72544,1.64721,-10.9146,-3.5976,38.4146,-10.64,12.20,38.44,0,S01
2380,-19.75695,0.38786,0.99599,-20.7927,-15.7927,37.6829,-10.64,12.20,38.44,0,S01
2400,-21.72977,0.65841,0.81403,-20.1829,0.7317,23.9634,-10.64,12.20,38.44,0,S01
2420,-19.61091,-0.30885,3.39498,-21.5244,17.1341,2.4390,-10.00,12.39,38.62,0,S01
2440,-15.85201,-0.67516,2.98796,-30.7927,6.4024,-32.9878,-10.00,12.39,38.62,0,S01
2460,-12.61984,-0.02634,2.28646,-31.7683,-6.5854,-57.9268,-10.00,12.39,38.62,0,S01
2480,-10.80743,1.06781,1.24738,-23.6585,-9.5122,-60.9146,-8.07,13.49,39.17,0,S01
2500,-9.71567,1.73580,0.68235,-14.8171,-5.4878,-47.1951,-8.07,13.49,39.17,0,S01
2520,-8.71250,1.60890,1.23062,-13.4756,1.0366,-28.4146,-8.07,13.49,39.17,0,S01
2540,-7.44357,0.86431,1.05345,-13.9634,0.7927,-10.6707,-8.26,13.30,39.54,0,S01
2560,-6.26802,0.18196,0.50518,-13.7805,1.2805,5.2439,-8.26,13.30,39.54,0,S01
2580,-5.58328,-0.17717,0.42377,-17.7439,5.5488,17.0122,-8.26,13.30,39.54,0,S01
2600,-5.37977,0.04788,0.41659,-24.2683,10.6707,21.9512,-8.26,13.30,39.54,0,S01
2620,-5.36301,0.61531,0.65362,-30.9146,14.0854,21.5854,-7.89,13.39,39.72,0,S01
2640,-5.29597,0.80206,0.64643,-35.1829,11.2805,20.1829,-7.89,13.39,39.72,0,S01
2660,-5.20739,0.28491,0.48363,-35.1829,5.4268,20.5488,-7.89,13.39,39.72,0,S01
2680,-5.30076,-0.62728,-0.05028,-31.3415,-1.2195,23.0488,-7.61,12.94,40.28,0,S01
2700,-5.46596,-1.67115,-0.56264,-25.5488,-4.0854,22.5000,-7.61,12.94,40.28,0,S01
2720,-5.77960,-2.43969,-0.56743,-13.2927,-1.4634,14.4512,-7.61,12.94,40.28,0,S01
2740,-6.03099,-2.45406,-0.29449,2.8049,-0.2439,2.8049,-8.99,13.49,40.00,0,S01
2760,-5.86101,-1.43652,-0.75178,11.3415,-3.5976,-5.2439,-8.99,13.49,40.00,0,S01
2780,-5.86579,0.64643,-1.52750,4.0854,-4.8780,-7.8049,-8.99,13.49,40.00,0,S01
2800,-7.45794,2.84671,-2.54743,-6.7073,-2.7439,-3.6585,-8.99,13.49,40.00,0,S01
2820,-10.81700,3.71580,-1.94888,-10.1829,8.5366,1.7683,-8.99,14.77,39.63,0,S01
2840,-15.84962,3.68946,0.99599,0.3659,26.6463,6.1585,-8.99,14.77,39.63,0,S01
2860,-21.54782,4.03902,2.26491,-0.1220,19.6341,4.6951,-8.99,14.77,39.63,0,S01
2880,-22.76646,6.64870,2.11887,-3.2317,-18.9634,-10.1829,-8.99,14.40,39.72,0,S01
2900,-19.44810,5.73890,2.94247,-5.2439,-38.1707,-7.8049,-8.99,14.40,39.72,0,S01
2920,-15.16727,2.86107,3.59370,-8.7805,-42.6829,9.5122,-8.99,14.40,39.72,0,S01
2940,-11.54963,0.52194,2.53067,-5.6098,-42.8049,14.9390,-10.28,12.11,40.28,0,S01
2960,-9.28232,-0.30167,0.83318,3.1707,-32.1341,10.1829,-10.28,12.11,40.28,0,S01
2980,-7.91284,-0.12929,-0.00479,10.4268,-9.3902,4.6951,-10.28,12.11,40.28,0,S01
3000,-7.15148,0.77812,0.16999,20.8537,17.1341,2.6829,-10.28,12.11,40.28,0,S01
3020,-6.79714,1.71664,0.42617,32.5610,34.6341,1.0976,-12.48,14.13,38.62,0,S01
3040,-6.82587,1.79565,0.82839,41.8293,41.2195,-0.9146,-12.48,14.13,38.62,0,S01
3060,-6.97431,1.47722,0.98641,46.8902,36.4024,-1.5244,-12.48,14.13,38.62,0,S01
3080,-7.02459,1.42216,1.03190,42.9268,25.4268,-1.0366,-14.95,15.32,36.79,0,S01
3100,-7.11557,1.80044,0.74220,31.1585,13.4146,-0.9146,-14.95,15.32,36.79,0,S01
3120,-6.92164,2.51631,0.75896,18.1098,3.3537,-2.0122,-14.95,15.32,36.79,0,S01
3140,-6.39731,3.18668,1.03669,9.1463,-7.3780,-1.8902,-15.96,14.95,36.70,0,S01
3160,-5.61680,3.13880,1.19950,4.7561,-15.0610,0.7317,-15.96,14.95,36.70,0,S01
3180,-4.87459,2.27689,0.13168,-5.8537,-15.3049,3.2927,-15.96,14.95,36.70,0,S01
3200,-4.51068,2.18591,0.13647,-16.3415,-8.3537,2.1951,-15.96,14.95,36.70,0,S01
3220,-4.60884,2.64080,0.13168,-26.4024,-0.3049,-1.4024,-16.15,15.14,37.34,0,S01
3240,-5.04937,2.26013,0.02155,-37.0732,4.0854,-3.9024,-16.15,15.14,37.34,0,S01
3260,-7.17303,1.86029,-1.00078,-39.2073,2.0732,-6.4634,-16.15,15.14,37.34,0,S01
3280,-10.80743,1.99198,-1.91776,-33.5366,-0.1220,-2.8659,-15.41,16.51,37.98,0,S01
3300,-13.61104,1.56341,-1.66876,-29.2683,-1.7073,11.5854,-15.41,16.51,37.98,0,S01
3320,-16.23508,0.24900,0.13408,-42.6829,-5.6098,20.9756,-15.41,16.51,37.98,0,S01
3340,-18.71548,-0.57700,1.47004,-50.0000,-15.0610,19.6341,-14.68,16.15,39.45,0,S01
3360,-19.22305,-0.09098,1.25217,-43.0488,-20.4878,12.3171,-14.68,16.15,39.45,0,S01
3380,-17.93975,0.01197,2.24576,-39.0244,-13.5976,-1.5244,-14.68,16.15,39.45,0,S01
3400,-15.52161,-0.00239,2.30083,-37.3780,-8.6585,-20.1220,-14.68,16.15,39.45,0,S01
3420,-13.00530,0.31843,1.67594,-34.6951,-3.9024,-33.0488,-12.94,16.88,40.09,0,S01
3440,-10.45787,1.15161,0.84755,-34.5732,-0.6098,-36.5244,-12.94,16.88,40.09,0,S01
3460,-8.71729,1.88663,0.28970,-34.3293,4.8171,-33.4146,-12.94,16.88,40.09,0,S01
3480,-7.63990,1.42455,-0.07183,-32.7439,12.3780,-22.8049,-11.93,18.17,40.55,0,S01
3500,-6.83545,0.39265,-0.04549,-35.7927,18.2927,-11.2195,-11.93,18.17,40.55,0,S01
3520,-6.38534,-0.33519,0.08859,-37.6829,21.2195,-1.9512,-11.93,18.17,40.55,0,S01
3540,-6.24647,-0.70390,0.39265,-35.0610,22.8659,5.6098,-11.19,19.45,40.73,0,S01
3560,-6.22971,-0.85712,0.99599,-31.6463,22.3171,10.6098,-11.19,19.45,40.73,0,S01
3580,-6.16986,-0.89064,1.50595,-27.6829,16.5854,12.3171,-11.19,19.45,40.73,0,S01
3600,-6.05015,-0.88346,1.20428,-22.2561,5.4878,11.5854,-11.19,19.45,40.73,0,S01
3620,-5.84664,-0.87628,0.74460,-17.0732,-4.6341,12.1951,-11.19,19.63,40.83,0,S01
3640,-5.66947,-0.70629,0.75417,-12.5000,-9.0244,15.6098,-11.19,19.63,40.83,0,S01
3660,-5.57131,-1.08697,0.86431,-9.2073,-12.4390,20.3659,-11.19,19.63,40.83,0,S01
3680,-5.88016,-1.88903,0.87867,-1.5244,-13.8415,19.6951,-11.83,19.17,41.01,0,S01
3700,-6.52420,-2.13563,1.73340,9.0244,-10.0610,10.7927,-11.83,19.17,41.01,0,S01
3720,-6.95037,-1.61609,2.25294,16.4634,-10.9146,1.2805,-11.83,19.17,41.01,0,S01
3740,-7.03416,-0.29449,0.70868,20.4878,-17.6220,-3.5976,-12.29,19.63,40.37,0,S01
3760,-7.67821,0.95050,-1.67834,17.0732,-18.4756,-0.7317,-12.29,19.63,40.37,0,S01
3780,-10.30943,2.55940,-3.05740,14.8171,-3.2317,1.5244,-12.29,19.63,40.37,0,S01
3800,-13.99650,3.29921,-0.05507,14.5122,24.3293,-3.9024,-12.29,19.63,40.37,0,S01
3820,-16.47690,4.22337,2.14042,13.2317,21.8293,-6.6463,-12.39,21.93,38.72,0,S01
3840,-17.35078,4.55617,1.55144,4.1463,-1.8902,-1.0976,-12.39,21.93,38.72,0,S01
3860,-18.25579,3.90015,1.39343,-5.7317,-13.5976,0.1829,-12.39,21.93,38.72,0,S01
3880,-18.35634,4.01268,3.28245,-7.9268,-11.5244,-0.9756,-12.02,21.10,39.17,0,S01
3900,-16.18241,3.75890,3.21781,-4.0244,-20.4878,4.5732,-12.02,21.10,39.17,0,S01
3920,-12.99573,2.64559,1.68312,3.9634,-27.6220,11.5854,-12.02,21.10,39.17,0,S01
3940,-10.18733,0.67995,0.40223,13.8415,-17.9878,17.3171,-14.77,19.91,38.90,0,S01
3960,-8.59040,-0.45969,0.26815,26.5854,2.9878,18.5366,-14.77,19.91,38.90,0,S01
3980,-7.35499,-0.19632,0.33758,40.3049,19.7561,13.9024,-14.77,19.91,38.90,0,S01
4000,-6.18422,0.38547,0.33279,53.4756,25.3049,9.8780,-14.77,19.91,38.90,0,S01
4020,-5.29597,0.39025,0.36392,63.0488,26.1585,7.3780,-18.53,21.38,35.78,0,S01
4040,-5.18584,0.38786,0.18196,68.7805,24.6341,4.0854,-18.53,21.38,35.78,0,S01
4060,-5.42526,0.78051,0.74460,66.3415,21.9512,-0.6707,-18.53,21.38,35.78,0,S01
4080,-5.25288,1.27850,0.56743,60.8537,12.1341,-5.0610,-21.10,22.39,33.21,0,S01
4100,-4.24013,1.64721,-0.68235,58.3537,-6.8902,-8.9024,-21.10,22.39,33.21,0,S01
4120,-3.01191,1.85311,-1.91536,57.6829,-23.9024,-11.9512,-21.10,22.39,33.21,0,S01
4140,-2.55222,1.53708,-1.79326,56.8293,-25.0000,-11.4634,-22.94,22.66,31.74,0,S01
4160,-2.75573,0.76854,-1.11570,56.1585,-22.6220,-7.9878,-22.94,22.66,31.74,0,S01
4180,-3.07655,0.61052,-1.18034,52.3171,-29.1463,-7.6829,-22.94,22.66,31.74,0,S01
4200,-3.69186,0.96007,-1.35512,49.4512,-31.9512,-11.7073,-22.94,22.66,31.74,0,S01
4220,-5.54976,0.67756,-1.73340,54.8781,-28.3537,-16.2195,-23.76,23.30,30.37,0,S01
4240,-9.23204,1.26893,-2.95684,56.2195,-22.2561,-15.0610,-23.76,23.30,30.37,0,S01
4260,-14.17128,3.72538,-1.35751,35.6707,-0.9756,-0.4878,-23.76,23.30,30.37,0,S01
4280,-17.25262,2.76530,1.72383,10.0000,10.0000,23.4146,-24.04,23.85,29.72,0,S01
4300,-18.74181,0.90261,1.82678,-3.7805,1.6463,18.1707,-24.04,23.85,29.72,0,S01
4320,-20.05623,0.49321,1.87945,-15.9756,8.8415,-7.5610,-24.04,23.85,29.72,0,S01
4340,-18.38268,-1.46046,4.69982,-30.9756,4.0854,-20.1829,-20.64,25.41,31.19,0,S01
4360,-15.04038,-2.79403,3.77566,-43.7805,-23.8415,-36.1585,-20.64,25.41,31.19,0,S01
4380,-11.99256,-1.34075,2.20267,-36.9512,-37.7439,-48.5976,-20.64,25.41,31.19,0,S01
4400,-9.78750,1.02951,1.44849,-21.7683,-23.9024,-45.1829,-20.64,25.41,31.19,0,S01
4420,-8.68138,2.19548,1.47483,-17.5000,-2.0732,-28.4756,-19.36,26.61,31.28,0,S01
4440,-8.77236,2.02549,1.78607,-25.6707,13.5976,-9.8171,-19.36,26.61,31.28,0,S01
4460,-9.28950,0.76854,2.77488,-35.2439,19.8780,6.7073,-19.36,26.61,31.28,0,S01
4480,-8.89925,-0.33519,3.10049,-42.5000,10.2439,17.4390,-18.62,25.96,32.39,0,S01
4500,-7.42203,-1.09654,2.79403,-48.9024,-7.9268,21.4634,-18.62,25.96,32.39,0,S01
4520,-6.06212,-1.75974,2.43969,-47.3781,-19.6341,20.0000,-18.62,25.96,32.39,0,S01
4540,-4.94642,-1.84593,2.36787,-35.6707,-25.7927,16.4634,-17.98,23.94,33.76,0,S01
4560,-4.65912,-1.48680,1.12288,-19.5732,-32.6829,17.4390,-17.98,23.94,33.76,0,S01
4580,-4.58011,-1.22344,-0.37589,-9.1463,-27.3171,20.7317,-17.98,23.94,33.76,0,S01
4600,-4.75488,-0.84036,-0.92177,-6.5854,-6.7073,21.0366,-17.98,23.94,33.76,0,S01
4620,-6.39970,-0.49321,-2.47321,-7.1341,10.9146,16.6463,-17.71,23.85,32.75,0,S01
4640,-9.22965,0.56264,-3.68468,-5.6707,23.5366,12.2561,-17.71,23.85,32.75,0,S01
4660,-15.33965,2.08535,-0.13886,12.1951,34.6951,6.0976,-17.71,23.85,32.75,0,S01
4680,-19.16319,3.80439,1.09415,13.0488,15.7317,1.8293,-17.34,25.14,30.83,0,S01
4700,-20.33874,5.55215,1.50595,-0.6707,-8.0488,-6.0976,-17.34,25.14,30.83,0,S01
4720,-17.72428,5.26485,1.90100,5.2439,-24.6951,0.5488,-17.34,25.14,30.83,0,S01
4740,-14.29099,2.86825,1.68073,8.9024,-31.5854,18.5366,-17.80,23.21,31.10,0,S01
4760,-11.34373,0.81642,1.62566,12.6220,-26.0976,25.6098,-17.80,23.21,31.10,0,S01
4780,-9.32302,-0.50757,0.89543,25.9756,-16.3415,23.4756,-17.80,23.21,31.10,0,S01
4800,-7.93678,-0.78530,0.70629,42.5000,-2.9268,18.1098,-17.80,23.21,31.10,0,S01
4820,-6.68222,-0.24421,0.61052,60.7317,6.9512,13.3537,-20.55,22.57,29.08,0,S01
4840,-5.65271,0.45490,0.02155,75.6098,10.1220,9.1463,-20.55,22.57,29.08,0,S01
4860,-5.15232,0.90501,-0.19632,82.0732,15.1220,4.9390,-20.55,22.57,29.08,0,S01
4880,-5.03740,0.99359,0.22027,83.2927,21.4024,1.4634,-23.03,23.12,24.95,0,S01
4900,-4.77883,0.94571,0.62249,81.6463,21.2805,-1.6463,-23.03,23.12,24.95,0,S01
4920,-4.49631,1.06063,0.56024,76.2195,15.0610,-5.2439,-23.03,23.12,24.95,0,S01
4940,-4.24253,1.33596,0.15083,68.6585,7.2561,-8.1707,-23.76,23.76,21.74,0,S01
4960,-4.11084,1.59933,-0.41659,62.2561,-0.9756,-9.8171,-23.76,23.76,21.74,0,S01
4980,-4.18267,1.70228,-0.76854,57.4390,-7.6829,-10.4878,-23.76,23.76,21.74,0,S01
5000,-4.72376,1.68791,-0.39744,55.7927,-11.8293,-11.4634,-23.76,23.76,21.74,0,S01
5020,-4.86502,1.58736,-0.74220,52.9878,-20.0610,-13.4146,-23.58,24.13,20.00,0,S01
5040,-4.77404,1.90578,-1.73580,42.5610,-28.3537,-18.3537,-23.58,24.13,20.00,0,S01
5060,-6.34224,2.31759,-2.86107,33.7195,-26.7073,-22.7439,-23.58,24.13,20.00,0,S01
5080,-9.00220,3.43568,-2.28167,21.7683,-7.2561,-15.3049,-21.93,24.68,19.54,0,S01
5100,-13.03643,3.82833,0.61052,2.9878,22.3171,4.0854,-21.93,24.68,19.54,0,S01
5120,-15.88553,1.53468,2.70545,-20.9146,26.0366,27.7439,-21.93,24.68,19.54,0,S01
5140,-18.13129,-0.52194,3.45004,-25.1220,20.0610,26.0976,-20.46,24.40,19.27,0,S01
5160,-21.69147,-1.40540,2.02549,-32.1341,25.9146,3.2317,-20.46,24.40,19.27,0,S01
5180,-19.74738,-1.89142,3.94804,-41.0976,20.4878,-8.7805,-20.46,24.40,19.27,0,S01
5200,-15.49288,-1.38624,3.15556,-37.1341,-6.4024,-25.6707,-20.46,24.40,19.27,0,S01
5220,-11.76750,-0.27054,1.35033,-31.3415,-24.5122,-39.6951,-16.88,24.59,21.65,0,S01
5240,-9.54568,1.33118,1.30245,-33.4756,-19.2683,-41.3415,-16.88,24.59,21.65,0,S01
5260,-8.13310,1.59454,2.02549,-38.2317,-7.9878,-28.6585,-16.88,24.59,21.65,0,S01
5280,-6.93361,1.41018,2.12366,-40.6098,-5.5488,-13.5976,-14.95,25.05,21.83,0,S01
5300,-6.15070,0.39983,1.92494,-41.5854,-5.3049,-0.0610,-14.95,25.05,21.83,0,S01
5320,-5.82509,-1.05345,1.73580,-44.3293,-2.6220,11.2805,-14.95,25.05,21.83,0,S01
5340,-6.11479,-2.05423,2.23858,-44.0854,3.8415,18.9634,-13.85,24.13,23.30,0,S01
5360,-6.28478,-2.43730,2.86107,-35.1220,3.1098,23.5976,-13.85,24.13,23.30,0,S01
5380,-6.04775,-2.57616,2.13802,-18.2927,-7.0732,26.9512,-13.85,24.13,23.30,0,S01
5400,-6.07409,-2.84192,0.49799,-0.3659,-13.8415,29.2073,-13.85,24.13,23.30,0,S01
5420,-6.63673,-3.23217,-0.65362,12.3780,-9.6951,28.2927,-13.94,22.11,23.49,0,S01
5440,-7.28556,-2.69108,0.02634,13.8415,1.4024,18.7805,-13.94,22.11,23.49,0,S01
5460,-8.46350,-2.13084,-1.16837,8.2317,-1.6463,4.2073,-13.94,22.11,23.49,0,S01
5480,-10.99657,1.30245,-3.27527,5.7317,-10.7927,-11.7683,-12.48,21.38,24.04,0,S01
5500,-13.61582,4.29999,-1.48919,6.7073,1.8902,-12.4390,-12.48,21.38,24.04,0,S01
5520,-16.23748,4.26168,-2.37265,18.9634,2.7439,-15.3049,-12.48,21.38,24.04,0,S01
5540,-19.49838,2.20985,-3.18908,20.9756,-7.8049,-29.5732,-11.19,21.83,24.13,0,S01
5560,-21.09292,2.62644,-0.24900,16.8902,-7.0122,-49.6341,-11.19,21.83,24.13,0,S01
5580,-19.03390,3.32315,0.92177,27.8659,-25.0000,-46.5854,-11.19,21.83,24.13,0,S01
5600,-14.92306,3.14119,0.62489,41.1585,-52.0122,-25.0610,-11.19,21.83,24.13,0,S01
5620,-10.93432,1.58017,-0.34716,54.0244,-65.8537,-2.7439,-12.29,20.00,25.23,0,S01
5640,-8.35576,0.12929,-0.66080,72.2561,-60.1220,13.9634,-12.29,20.00,25.23,0,S01
5660,-6.56969,-0.96726,-0.93613,96.4634,-46.7683,25.8537,-12.29,20.00,25.23,0,S01
5680,-5.51863,-0.91459,-1.00078,117.9268,-31.9512,27.8049,-17.06,17.98,23.21,0,S01
5700,-5.41808,-0.19154,-1.21865,132.2561,-16.2805,23.4146,-17.06,17.98,23.21,0,S01
5720,-6.08127,0.75178,-0.77812,139.3293,1.7683,18.4756,-17.06,17.98,23.21,0,S01
5740,-6.75883,1.36230,0.94571,139.2683,13.7805,16.0976,-20.73,17.61,18.90,0,S01
5760,-6.56969,1.70707,1.86987,135.5488,8.8415,14.4512,-20.73,17.61,18.90,0,S01
5780,-6.50265,2.35350,2.00395,128.2927,-1.5244,9.8171,-20.73,17.61,18.90,0,S01
5800,-7.41963,2.60729,2.82037,114.5122,-4.2073,4.0244,-20.73,17.61,18.90,0,S01
5820,-8.79151,2.57137,3.01669,101.6463,-9.2073,0.0000,-22.29,17.16,16.61,0,S01
5840,-9.27035,3.53863,1.17795,87.3171,-17.4390,1.5854,-22.29,17.16,16.61,0,S01
5860,-9.00220,4.40773,0.26097,63.5976,-14.4512,11.4634,-22.29,17.16,16.61,0,S01
5880,-8.68138,4.31675,1.13725,46.8902,-7.1341,19.8780,-23.12,16.15,16.15,0,S01
5900,-9.64145,3.02867,1.40779,36.9512,-3.1707,20.4268,-23.12,16.15,16.15,0,S01
5920,-12.88080,1.24738,0.59376,39.0244,2.0732,21.2195,-23.12,16.15,16.15,0,S01
5940,-14.92545,1.13725,-0.28491,32.5000,-6.8293,29.2073,-24.13,14.40,16.06,0,S01
5960,-14.08030,-1.44610,-0.46208,31.5854,-29.7561,40.6098,-24.13,14.40,16.06,0,S01
5980,-13.58709,-3.40695,-1.02472,52.5000,-47.6220,28.5366,-24.13,14.40,16.06,0,S01
6000,-13.14417,-2.47800,-2.33195,65.9756,-62.8659,3.7195,-24.13,14.40,16.06,0,S01
6020,-11.88242,-0.10534,-3.37582,74.4512,-64.8781,-15.6707,-25.50,14.04,14.68,0,S01
6040,-10.82179,2.13802,-3.25611,79.6341,-49.2683,-30.0000,-25.50,14.04,14.68,0,S01
6060,-10.27831,3.38061,-2.48039,69.3902,-27.8049,-41.8293,-25.50,14.04,14.68,0,S01
6080,-9.42837,3.28484,-1.48680,48.7195,-14.5122,-50.2439,-25.05,16.51,13.39,0,S01
6100,-8.18578,2.78685,-1.39582,30.1220,-7.9268,-55.6707,-25.05,16.51,13.39,0,S01
6120,-7.36456,1.82917,-0.84515,18.1707,4.8171,-52.0122,-25.05,16.51,13.39,0,S01
6140,-7.03177,0.96965,0.04070,13.3537,17.3780,-41.7683,-24.50,18.26,12.48,0,S01
6160,-7.61356,0.22984,0.39504,15.4268,24.3293,-20.1829,-24.50,18.26,12.48,0,S01
6180,-8.04212,-0.27054,0.19154,20.8537,27.1951,-12.6829,-24.50,18.26,12.48,0,S01
6200,-8.59279,-0.50518,0.81403,26.0976,33.2927,-8.1098,-24.50,18.26,12.48,0,S01
6220,-8.90883,-0.49321,1.39343,29.6951,32.5000,-5.4878,-24.86,18.81,11.01,0,S01
6240,-8.91840,-0.54109,1.25456,31.8902,24.6341,-4.2073,-24.86,18.81,11.01,0,S01
6260,-8.88728,-0.48123,0.94092,33.4146,19.2683,-3.5366,-24.86,18.81,11.01,0,S01
6280,-8.77475,-0.10774,0.52194,32.1341,18.0488,-1.4024,-25.41,18.81,9.27,0,S01
6300,-8.79869,0.45490,0.40223,27.4390,19.8780,2.0732,-25.41,18.81,9.27,0,S01
6320,-9.01896,0.96965,0.54109,21.4024,21.2195,6.4024,-25.41,18.81,9.27,0,S01
6340,-9.33739,0.86191,1.21865,14.7561,20.6098,10.4268,-25.87,17.98,8.44,0,S01
6360,-9.73243,-0.14605,1.37906,13.2317,15.3049,11.8293,-25.87,17.98,8.44,0,S01
6380,-10.02213,-1.03430,0.73023,14.6341,8.3537,9.8780,-25.87,17.98,8.44,0,S01
6400,-10.10832,-1.73819,0.53391,15.6707,4.0854,10.0610,-25.87,17.16,8.26,0,S01
6420,-10.64223,-2.35350,1.49398,20.2439,2.1951,10.3659,-26.42,17.16,8.26,0,S01
6440,-11.09234,-2.03028,2.58334,29.5732,-1.3415,5.9146,-26.42,17.16,8.26,0,S01
6460,-10.91517,-1.11809,2.17394,33.9634,-10.1829,0.1829,-26.42,17.16,8.26,0,S01
6480,-10.71884,-0.84994,-0.69192,36.1585,-17.6220,0.4878,-26.97,16.42,6.97,0,S01
6500,-11.47780,-0.44293,-2.82516,37.3171,-10.1220,5.2439,-26.97,16.42,6.97,0,S01
6520,-11.42752,-1.18992,-2.38223,39.1463,-0.2439,8.5976,-26.97,16.42,6.97,0,S01
6540,-10.76672,-1.34794,-3.34709,52.5610,-5.3659,-2.0122,-27.80,15.60,5.23,0,S01
6560,-10.26873,0.42377,-3.01909,65.9146,-13.4146,-18.9634,-27.80,15.60,5.23,0,S01
6580,-9.83059,2.82516,-2.83474,69.3293,-20.7927,-26.0366,-27.80,15.60,5.23,0,S01
6600,-9.64863,3.26569,-1.83396,64.7561,-21.5244,-13.7805,-28.07,15.50,2.94,0,S01
6620,-9.90242,1.72143,-0.97205,64.0244,-20.9756,7.1951,-28.07,15.50,2.94,0,S01
6640,-10.15620,0.02873,-1.00078,72.5610,-23.1098,20.6707,-28.07,15.50,2.94,0,S01
6660,-10.01734,-0.77572,-1.26414,80.0000,-25.4878,24.8780,-28.07,15.50,2.94,0,S01
6680,-9.77074,-0.41420,-1.02472,85.2439,-23.5366,24.0244,-29.08,13.58,-0.18,0,S01
6700,-9.32302,0.75178,-0.54348,88.7195,-22.6220,22.1951,-29.08,13.58,-0.18,0,S01
6720,-8.62631,1.73101,-0.74699,92.1341,-26.6463,22.4390,-29.08,13.58,-0.18,0,S01
6740,-8.27197,1.74777,-1.03908,96.0976,-27.8049,24.3902,-29.54,12.11,-4.04,0,S01
6760,-8.47308,1.13964,-1.12527,102.9878,-23.2927,26.1585,-29.54,12.11,-4.04,0,S01
6780,-8.97347,0.78051,-0.62968,108.0488,-16.4634,25.3659,-29.54,12.11,-4.04,0,S01
6800,-9.25598,0.92895,0.01437,110.2439,-14.6341,21.5854,-28.99,10.64,-8.62,0,S01
6820,-9.09318,1.38864,0.06943,110.6707,-18.3537,16.7683,-28.99,10.64,-8.62,0,S01
6840,-8.79390,1.90339,0.23224,107.3781,-20.4878,13.2927,-28.99,10.64,-8.62,0,S01
6860,-8.58800,1.98719,0.47645,99.3902,-22.5000,10.9146,-28.99,10.64,-8.62,0,S01
6880,-8.63589,1.88184,0.46208,90.0610,-26.5244,8.9024,-27.80,10.18,-11.93,0,S01
6900,-8.64786,1.76932,0.24900,80.0610,-30.2439,7.9878,-27.80,10.18,-11.93,0,S01
6920,-8.72926,2.03747,0.12210,70.0610,-28.7195,8.2317,-27.80,10.18,-11.93,0,S01
6940,-9.01656,2.51870,0.12450,55.0610,-24.5122,12.2561,-26.97,9.72,-13.30,0,S01
6960,-9.28950,1.32878,0.70150,52.1341,-20.2439,14.1463,-26.97,9.72,-13.30,0,S01
6980,-9.82820,0.49560,1.17555,56.0976,-19.7561,5.5488,-26.97,9.72,-13.30,0,S01
7000,-9.86651,-0.44293,1.74777,57.8049,-22.8659,-6.5854,-25.14,10.83,-15.50,0,S01
7020,-10.65180,-1.06303,0.04549,69.2073,-30.6098,-18.4146,-25.14,10.83,-15.50,0,S01
7040,-12.33014,0.75178,-2.33914,83.1707,-34.1463,-20.0000,-25.14,10.83,-15.50,0,S01
7060,-11.91355,3.08134,-2.21464,85.9146,-29.7561,0.4878,-25.14,10.83,-15.50,0,S01
7080,-10.18493,2.29604,-1.75495,94.4512,-32.1341,28.5976,-23.12,10.37,-18.62,0,S01
7100,-10.01973,-1.04387,-2.58813,107.7439,-39.1463,35.4268,-23.12,10.37,-18.62,0,S01
7120,-10.88404,-0.58419,-3.63919,114.9390,-40.5488,18.5976,-23.12,10.37,-18.62,0,S01
7140,-11.34852,2.16436,-2.10211,108.5366,-35.1829,2.2561,-19.82,11.47,-21.65,0,S01
7160,-10.93192,3.39498,-1.41737,100.2439,-37.9268,-6.5854,-19.82,11.47,-21.65,0,S01
7180,-10.50576,3.10289,-0.92656,91.7683,-39.0854,-17.3171,-19.82,11.47,-21.65,0,S01
7200,-9.76595,2.30322,-0.71826,77.9268,-39.0244,-30.3049,-16.70,14.22,-23.03,0,S01
7220,-8.60716,1.66397,-0.80685,61.4634,-37.1341,-38.9634,-16.70,14.22,-23.03,0,S01
7240,-7.35020,1.27850,-1.13246,49.7561,-31.3415,-39.4512,-16.70,14.22,-23.03,0,S01
7260,-6.57927,1.13246,-1.24020,43.5976,-21.9512,-35.7927,-16.70,14.22,-23.03,0,S01
7280,-6.79235,1.09894,-0.62249,41.0366,-7.7439,-30.4268,-14.50,15.32,-23.58,0,S01
7300,-7.40766,0.82839,-0.16759,39.7561,3.7805,-23.0488,-14.50,15.32,-23.58,0,S01
7320,-7.97269,0.58179,-0.11971,36.0976,10.1220,-15.4268,-14.50,15.32,-23.58,0,S01
7340,-8.52096,0.58419,0.22984,30.0000,13.7195,-9.3902,-13.12,14.95,-24.40,0,S01
7360,-9.23204,0.83079,1.15640,24.0854,13.0488,-4.5732,-13.12,14.95,-24.40,0,S01
7380,-9.87608,0.83079,2.08774,21.1585,4.3293,0.3049,-13.12,14.95,-24.40,0,S01
7400,-10.02931,0.18196,2.02549,22.1951,-11.5854,3.3537,-11.56,15.50,-24.22,0,S01
7420,-9.79468,-0.00958,1.57538,23.9024,-23.9024,2.5000,-11.56,15.50,-24.22,0,S01
7440,-8.99502,0.06704,1.13725,22.4390,-31.5244,5.0000,-11.56,15.50,-24.22,0,S01
7460,-9.01178,-0.37589,-0.60573,22.3171,-33.4756,11.8902,-11.56,15.50,-24.22,0,S01
7480,-10.11790,-0.17957,-0.57221,27.5000,-13.1707,7.5610,-10.37,15.50,-24.13,0,S01
7500,-11.72201,-0.19632,-1.19231,33.0488,0.4878,-1.0366,-10.37,15.50,-24.13,0,S01
7520,-13.44344,0.02634,-0.67516,32.8049,4.2683,-11.5854,-10.37,15.50,-24.13,0,S01
7540,-12.76588,0.81882,0.11492,29.2683,-5.6098,-24.4512,-7.80,17.06,-23.94,0,S01
7560,-10.13705,2.39899,-1.30005,27.3171,-28.4146,-33.6585,-7.80,17.06,-23.94,0,S01
7580,-7.80989,3.39977,-2.63362,20.4268,-35.7927,-31.2805,-7.80,17.06,-23.94,0,S01
7600,-7.60877,2.60010,-2.96163,17.0122,-22.8659,-22.9878,-6.33,17.34,-24.13,0,S01
7620,-8.72208,1.13964,-2.65996,18.2317,-2.0732,-16.8902,-6.33,17.34,-24.13,0,S01
7640,-11.31021,0.01437,0.10534,36.3415,11.2195,-15.0000,-6.33,17.34,-24.13,0,S01
7660,-11.06121,1.39343,-0.53391,48.9024,-9.9390,-15.7317,-6.33,17.34,-24.13,0,S01
7680,-10.36450,2.35589,-1.23301,48.2317,-24.0244,-10.9146,-3.67,17.98,-24.40,0,S01
7700,-9.05248,2.14281,-1.50595,42.5610,-28.3537,-2.0732,-3.67,17.98,-24.40,0,S01
7720,-7.51300,1.45328,-1.55623,39.2683,-24.8780,3.8415,-3.67,17.98,-24.40,0,S01
7740,-6.69898,1.09176,-1.46765,39.3293,-11.8293,4.7561,-2.20,18.35,-24.59,0,S01
7760,-7.08923,0.93134,-0.70629,40.7927,6.0976,4.1463,-2.20,18.35,-24.59,0,S01
7780,-8.53054,1.08936,0.47166,43.9024,19.3902,4.5732,-2.20,18.35,-24.59,0,S01
7800,-9.97664,0.97923,1.64242,45.9146,21.4024,8.5366,-0.28,17.34,-25.87,0,S01
7820,-10.36211,0.83318,2.46363,45.6707,9.5732,13.7805,-0.28,17.34,-25.87,0,S01
7840,-9.89045,0.60334,2.60489,44.3902,-10.6707,17.4390,-0.28,17.34,-25.87,0,S01
7860,-9.06684,0.83797,2.24337,45.1220,-30.0000,16.2195,-0.28,17.34,-25.87,0,S01
7880,-7.75721,1.30723,1.80283,44.8171,-45.1220,12.6220,1.38,18.72,-25.60,0,S01
7900,-6.35182,1.72861,1.55144,40.3659,-54.2073,8.6585,1.38,18.72,-25.60,0,S01
7920,-5.13556,2.31519,0.71587,34.0244,-54.6341,3.9024,1.38,18.72,-25.60,0,S01
7940,-4.49152,2.61447,0.29209,26.0366,-42.9878,1.0976,3.21,20.09,-24.50,0,S01
7960,-4.78122,2.77727,0.47166,16.5854,-25.0610,-0.8537,3.21,20.09,-24.50,0,S01
7980,-5.80115,2.55940,1.26414,5.0610,-10.9146,-2.9268,3.21,20.09,-24.50,0,S01
8000,-6.78277,2.12845,1.47243,-6.7073,-5.6707,-5.1220,3.85,20.09,-24.59,0,S01
8020,-7.27598,1.45328,1.38624,-19.5732,-5.4268,-8.1707,3.85,20.09,-24.59,0,S01
8040,-7.43639,1.05824,1.61130,-27.5000,-6.8293,-12.9268,3.85,20.09,-24.59,0,S01
8060,-7.12036,0.62249,2.01831,-26.9512,-10.3659,-17.3780,3.85,20.09,-24.59,0,S01
8080,-6.76362,0.08380,2.13563,-18.2927,-15.9756,-20.8537,4.95,20.92,-24.59,0,S01
8100,-7.58244,-0.17717,0.72784,-7.5000,-23.0488,-22.1951,4.95,20.92,-24.59,0,S01
8120,-9.38288,0.80924,-0.84276,-4.7561,-23.5976,-17.4390,4.95,20.92,-24.59,0,S01
8140,-11.61188,2.06380,-0.81642,-5.6098,-11.8293,-5.3049,6.15,21.56,-24.68,0,S01
8160,-14.88475,1.11809,0.55785,-11.2805,2.2561,9.6341,6.15,21.56,-24.68,0,S01
8180,-18.09538,-1.15401,1.37906,-10.3049,2.7439,19.6341,6.15,21.56,-24.68,0,S01
8200,-18.31085,-1.47004,1.68552,-2.8049,-6.9512,18.2927,6.51,21.93,-24.77,0,S01
8220,-15.96932,-1.36948,1.63045,6.9512,-17.0732,4.3293,6.51,21.93,-24.77,0,S01
8240,-12.67490,-0.61292,0.68714,15.4268,-24.8171,-14.2683,6.51,21.93,-24.77,0,S01
8260,-10.04128,0.57221,0.18675,18.4756,-16.6463,-26.9512,6.51,21.93,-24.77,0,S01
8280,-8.14029,1.28329,0.41420,16.4634,2.3171,-28.4756,8.72,22.29,-25.23,0,S01
8300,-6.99825,1.17795,0.63207,10.6707,16.1585,-23.1098,8.72,22.29,-25.23,0,S01
8320,-6.91924,0.43814,0.55785,2.1951,23.8415,-14.8171,8.72,22.29,-25.23,0,S01
8340,-7.95833,-0.34716,1.32878,-5.5488,31.5854,-4.0244,8.81,20.92,-26.15,0,S01
8360,-9.01896,-0.82839,2.84671,-11.2195,31.3415,8.7805,8.81,20.92,-26.15,0,S01
8380,-8.74602,-1.30484,3.02867,-15.6707,14.2683,18.9634,8.81,20.92,-26.15,0,S01
8400,-7.29274,-1.56102,2.09972,-16.6463,-5.6707,22.1341,8.35,21.47,-25.78,0,S01
8420,-5.83946,-1.47722,2.01831,-13.2317,-15.4878,17.8659,8.35,21.47,-25.78,0,S01
8440,-4.63039,-1.52032,1.87227,-5.0610,-23.3537,12.8049,8.35,21.47,-25.78,0,S01
8460,-4.12521,-1.55384,1.01514,5.4878,-28.5976,9.0244,8.35,21.47,-25.78,0,S01
8480,-4.40773,-0.95529,-0.01197,12.3171,-22.2561,6.2195,9.63,22.29,-25.69,0,S01
8500,-5.36541,-0.43814,-0.40941,10.6707,-5.5488,4.0244,9.63,22.29,-25.69,0,S01
8520,-6.83784,-0.29209,-1.09894,1.6463,5.4878,-1.3415,9.63,22.29,-25.69,0,S01
8540,-10.14663,0.00479,-3.57454,-1.7073,11.5854,-12.0732,11.28,21.38,-26.88,0,S01
8560,-13.70441,2.97839,0.11971,-5.6707,32.5610,-24.8171,11.28,21.38,-26.88,0,S01
8580,-15.57428,5.56652,1.83396,-8.8415,24.6341,-24.4512,11.28,21.38,-26.88,0,S01
8600,-18.38986,5.68623,0.67756,-4.0854,2.1951,-12.5000,12.94,21.56,-27.61,0,S01
8620,-20.48718,5.65989,2.77727,-2.8049,1.0976,-9.2073,12.94,21.56,-27.61,0,S01
8640,-18.63407,5.19542,3.39498,3.6585,-13.5366,-10.0000,12.94,21.56,-27.61,0,S01
8660,-14.74589,2.92811,2.19788,11.4024,-33.2317,7.9268,12.94,21.56,-27.61,0,S01
8680,-11.02530,0.35434,1.33836,16.9512,-35.7317,22.9878,12.84,22.84,-26.70,0,S01
8700,-8.45871,-0.66080,0.62249,27.4390,-20.7927,17.9878,12.84,22.84,-26.70,0,S01
8720,-7.12275,0.08619,0.22027,35.4878,-1.4634,7.1341,12.84,22.84,-26.70,0,S01
8740,-6.27041,1.58975,0.35674,37.8049,18.3537,-0.9756,14.77,21.83,-27.52,0,S01
8760,-5.77242,2.49236,0.19632,42.8049,27.8659,-2.9268,14.77,21.83,-27.52,0,S01
8780,-6.07888,1.94888,0.16520,48.4146,32.0122,-1.2805,14.77,21.83,-27.52,0,S01
8800,-7.11317,1.41737,1.33118,51.4634,37.0732,-2.0122,16.97,20.55,-28.62,0,S01
8820,-8.20253,1.43652,2.23140,48.2317,33.4756,-4.0854,16.97,20.55,-28.62,0,S01
8840,-8.32703,1.48680,1.52989,40.6707,16.2805,-3.5366,16.97,20.55,-28.62,0,S01
8860,-7.62793,1.72383,1.20428,35.8537,0.3659,-0.9146,16.97,20.55,-28.62,0,S01
8880,-6.77320,1.52750,1.41497,31.4024,-11.7073,1.2195,18.35,21.65,-28.53,0,S01
8900,-5.38935,1.34315,0.89783,27.6220,-24.0854,-2.1341,18.35,21.65,-28.53,0,S01
8920,-4.18506,1.70707,-0.05746,25.2439,-29.7561,-9.0244,18.35,21.65,-28.53,0,S01
8940,-3.50751,2.50434,0.07183,17.0122,-24.6341,-14.5732,19.54,22.84,-27.98,0,S01
8960,-3.23217,3.24414,-0.13647,4.0244,-17.0732,-16.0366,19.54,22.84,-27.98,0,S01
8980,-3.33991,3.36385,-0.73741,-13.0488,-7.3780,-17.1341,19.54,22.84,-27.98,0,S01
9000,-3.95283,2.15478,-1.47004,-25.8537,5.0610,-19.3902,19.08,22.75,-29.27,0,S01
9020,-6.50744,1.91776,-3.81396,-26.4024,17.0732,-24.6341,19.08,22.75,-29.27,0,S01
9040,-10.33577,3.19865,-3.17711,-25.3659,36.4634,-15.9146,19.08,22.75,-29.27,0,S01
9060,-14.66688,3.81636,1.01275,-24.3293,54.6341,13.8415,19.08,22.75,-29.27,0,S01
9080,-21.26290,0.79727,2.53546,-32.9268,47.0122,47.9878,15.32,22.66,-31.01,0,S01
9100,-24.94758,-3.01669,1.84832,-41.7683,15.7317,68.5976,15.32,22.66,-31.01,0,S01
9120,-18.42338,-0.90261,2.59531,-23.3537,-19.9390,0.5488,15.32,22.66,-31.01,0,S01
9140,-13.41232,-0.45250,2.37505,-20.2439,-44.9390,-32.6220,16.61,24.13,-29.08,0,S01
9160,-8.97586,0.90501,-0.43096,-11.2805,-62.0732,-47.6220,16.61,24.13,-29.08,0,S01
9180,-6.48589,2.22182,-1.59933,-11.6463,-38.8415,-52.8049,16.61,24.13,-29.08,0,S01
9200,-6.19141,2.27928,-0.08619,-21.0976,1.8293,-48.9634,16.79,24.04,-30.09,0,S01
9220,-6.49547,1.63763,1.14922,-27.6220,27.5000,-33.4146,16.79,24.04,-30.09,0,S01
9240,-6.44280,1.24498,1.05824,-33.6585,36.2805,-12.1951,16.79,24.04,-30.09,0,S01
9260,-6.17704,1.15401,1.41258,-44.6341,39.1463,6.3415,16.79,24.04,-30.09,0,S01
9280,-5.76045,0.79966,1.82678,-52.8049,34.9390,19.9390,13.85,22.75,-31.47,0,S01
9300,-5.62398,0.04549,2.15957,-52.4390,25.7317,26.5244,13.85,22.75,-31.47,0,S01
9320,-5.24570,-1.00796,1.71185,-42.1951,11.5244,25.5488,13.85,22.75,-31.47,0,S01
9340,-4.96318,-2.31998,0.26576,-27.0732,-4.0854,19.9390,11.74,23.12,-31.38,0,S01
9360,-5.94001,-2.52349,-0.56743,-12.8659,-5.2439,11.5854,11.74,23.12,-31.38,0,S01
9380,-6.88094,-2.28886,0.73263,0.6098,2.3780,6.1585,11.74,23.12,-31.38,0,S01
9400,-6.87854,-2.38223,1.51792,12.8659,-6.8293,2.3780,12.84,23.76,-31.01,0,S01
9420,-5.76284,-2.53785,-1.14922,27.5610,-28.5366,-2.4390,12.84,23.76,-31.01,0,S01
9440,-6.07648,-1.52511,-3.48835,31.7073,-28.2317,-9.3902,12.84,23.76,-31.01,0,S01
9460,-8.17380,1.76213,-4.93445,25.7927,-10.3659,-17.0122,12.84,23.76,-31.01,0,S01
9480,-11.98537,4.32632,-1.20428,13.7805,17.6220,-18.9024,14.59,24.04,-31.38,0,S01
9500,-16.00284,5.03501,0.96247,25.0000,25.5488,-8.7805,14.59,24.04,-31.38,0,S01
9520,-20.27171,5.12599,1.28808,19.0244,14.2683,9.2073,14.59,24.04,-31.38,0,S01
9540,-22.11285,6.13634,2.76291,-6.5854,-4.6951,14.3293,14.22,24.40,-31.38,0,S01
9560,-19.38824,5.90171,1.92254,-14.1463,-30.6098,16.2805,14.22,24.40,-31.38,0,S01
9580,-14.87039,4.30477,1.63524,-23.5976,-35.3659,23.7805,14.22,24.40,-31.38,0,S01
9600,-11.19529,1.32399,0.78769,-30.7317,-30.0000,34.7561,11.65,25.60,-30.37,0,S01
9620,-9.50977,0.66080,0.39025,-21.6463,-12.5000,33.2317,11.65,25.60,-30.37,0,S01
9640,-8.20493,0.93374,0.69432,-5.4268,7.7439,25.6098,11.65,25.60,-30.37,0,S01
9660,-7.53455,0.88107,0.98402,7.5610,18.6585,22.4390,11.65,25.60,-30.37,0,S01
9680,-6.74447,0.72784,1.28808,19.0244,21.8293,18.2317,11.83,24.40,-31.19,0,S01
9700,-5.93762,0.33758,1.60172,27.9878,18.5976,12.0122,11.83,24.40,-31.19,0,S01
9720,-5.04458,-0.10534,1.88424,35.0000,9.2073,6.0366,11.83,24.40,-31.19,0,S01
9740,-3.98156,-0.17717,1.11809,39.1463,-2.0122,0.8537,13.67,24.40,-31.10,0,S01
9760,-2.99275,0.32322,-0.34716,37.6220,-6.1585,-3.0488,13.67,24.40,-31.10,0,S01
9780,-2.49236,1.16598,-0.90740,30.9756,-5.0000,-5.3659,13.67,24.40,-31.10,0,S01
9800,-2.80840,1.71425,-0.55306,26.1585,-4.9390,-6.4634,15.05,24.77,-30.73,0,S01
9820,-3.56975,1.81241,-0.16999,23.5366,-10.1829,-8.7195,15.05,24.77,-30.73,0,S01
9840,-4.10845,1.97522,-1.10133,18.1098,-19.7561,-12.4390,15.05,24.77,-30.73,0,S01
9860,-4.80995,2.19788,-1.79326,8.3537,-21.3415,-17.1341,15.05,24.77,-30.73,0,S01
9880,-7.36696,2.54504,-3.15795,4.5122,-20.4878,-18.6585,15.78,25.78,-30.18,0,S01
9900,-12.09311,2.54743,-3.02627,3.0488,-11.5854,-7.1951,15.78,25.78,-30.18,0,S01
9920,-16.89588,2.20745,-0.05507,-11.2805,5.6707,17.0122,15.78,25.78,-30.18,0,S01
9940,-18.46887,0.14126,1.21865,-24.5122,-3.9024,40.1220,13.30,26.61,-30.46,0,S01
9960,-18.16241,-0.59137,0.96965,-27.9878,-14.7561,35.5488,13.30,26.61,-30.46,0,S01
9980,-17.39148,0.14365,1.35991,-17.6829,-2.1341,10.4268,13.30,26.61,-30.46,0,S01
10000,-16.28057,-0.22745,2.25534,-11.6463,13.9024,-16.3415,15.78,25.96,-31.56,0,S01
10020,-14.51126,-0.95529,2.71263,-14.0244,15.2439,-35.7927,15.78,25.96,-31.56,0,S01
10040,-12.68448,-0.69911,1.95127,-9.9390,5.0610,-43.4146,15.78,25.96,-31.56,0,S01
10060,-10.99896,0.65362,1.52511,-1.8902,-2.9268,-42.2561,15.78,25.96,-31.56,0,S01
10080,-9.35893,1.47962,1.12767,1.8293,-6.5854,-33.7805,15.96,25.87,-31.10,0,S01
10100,-7.67102,1.60651,0.75657,-2.3171,-6.8902,-23.2927,15.96,25.87,-31.10,0,S01
10120,-6.26563,1.39582,0.94332,-10.8537,-6.0366,-13.3537,15.96,25.87,-31.10,0,S01
10140,-5.47315,0.70390,1.17555,-17.5610,-7.8659,-4.5122,14.95,26.15,-30.73,0,S01
10160,-5.19302,0.35195,1.06781,-22.4390,-9.6951,1.3415,14.95,26.15,-30.73,0,S01
10180,-4.96797,-0.22505,1.16598,-29.2683,-9.4512,5.7317,14.95,26.15,-30.73,0,S01
10200,-4.53462,-1.09654,1.62566,-31.1585,-9.1463,7.3780,13.67,26.70,-30.28,0,S01
10220,-4.39575,-1.99198,1.25935,-24.4512,-15.3659,8.4146,13.67,26.70,-30.28,0,S01
10240,-4.73813,-2.16196,0.70150,-13.7195,-20.9756,8.7195,13.67,26.70,-30.28,0,S01
10260,-5.06852,-1.52271,-0.50757,-0.7927,-18.7805,7.0732,13.67,26.70,-30.28,0,S01
10280,-5.66947,-0.98402,-1.54426,4.5122,-8.9634,5.1829,13.85,27.25,-30.09,0,S01
10300,-7.95833,-0.21787,-3.96480,3.7195,-1.8902,1.2195,13.85,27.25,-30.09,0,S01
10320,-11.58554,2.32238,-1.24020,-1.4634,19.0854,-8.1098,13.85,27.25,-30.09,0,S01
10340,-15.31810,4.25928,0.82600,1.8293,27.9268,-13.0488,14.40,26.33,-31.10,0,S01
10360,-18.52633,4.59926,1.41976,3.1098,16.1585,-5.0610,14.40,26.33,-31.10,0,S01
10380,-20.15439,4.64715,2.56658,-14.2683,4.4512,-0.3049,14.40,26.33,-31.10,0,S01
10400,-19.08179,5.78439,2.62165,-19.2073,-11.6463,2.0732,13.03,27.34,-30.73,0,S01
10420,-16.15847,5.19063,1.94649,-15.8537,-21.0366,14.7561,13.03,27.34,-30.73,0,S01
10440,-13.11544,2.80600,0.74220,-10.3049,-19.3902,31.7073,13.03,27.34,-30.73,0,S01
10460,-10.92235,0.64404,1.10612,-3.1707,-3.1707,36.9512,13.03,27.34,-30.73,0,S01
10480,-9.30387,-0.83797,1.60890,7.6829,3.1707,31.9512,12.02,27.06,-30.55,0,S01
10500,-7.46991,-0.73981,0.76375,21.1585,-3.7195,21.4024,12.02,27.06,-30.55,0,S01
10520,-5.20260,-0.15083,0.30406,30.6098,-5.5488,11.4024,12.02,27.06,-30.55,0,S01
10540,-3.50751,0.38547,-0.21548,38.2317,-1.6463,4.9390,13.85,26.70,-30.73,0,S01
10560,-2.99515,0.78051,0.26336,42.6829,9.9390,-1.3415,13.85,26.70,-30.73,0,S01
10580,-3.37343,0.73023,1.00078,44.0244,20.3049,-5.6098,13.85,26.70,-30.73,0,S01
10600,-4.00311,0.70390,0.89064,30.6707,10.1220,-8.9024,15.50,26.06,-31.19,0,S01
10620,-4.24253,1.63285,0.39504,22.9878,-1.8293,-13.2927,15.50,26.06,-31.19,0,S01
10640,-4.33829,1.95606,-0.27294,20.3659,-12.0732,-14.3902,15.50,26.06,-31.19,0,S01
10660,-3.84509,1.33357,-1.41976,21.4634,-21.2805,-13.1707,15.50,26.06,-31.19,0,S01
10680,-4.21380,0.52194,-2.82516,20.3049,-26.5244,-16.2805,16.42,27.16,-30.28,0,S01
10700,-7.17782,2.07338,-4.35745,13.4756,-24.0854,-18.0488,16.42,27.16,-30.28,0,S01
10720,-11.51850,3.89537,-2.22182,5.6707,-1.1585,2.1341,16.42,27.16,-30.28,0,S01
10740,-18.02594,4.20661,1.73101,-13.2927,24.0244,39.4512,14.77,26.79,-31.01,0,S01
10760,-21.62922,-0.04549,2.43251,-23.8415,13.7805,70.7317,14.77,26.79,-31.01,0,S01
10780,-21.61007,-0.63446,2.88501,-20.1220,7.4390,54.3902,14.77,26.79,-31.01,0,S01
10800,-19.14404,0.34477,3.12922,-13.3537,3.5976,17.3780,14.59,27.34,-30.92,0,S01
10820,-15.58386,0.12450,2.44448,-20.6707,-8.5976,-14.4512,14.59,27.34,-30.92,0,S01
10840,-12.02368,0.47884,1.41018,-26.5854,-16.7683,-39.4512,14.59,27.34,-30.92,0,S01
10860,-9.43555,1.01275,0.30885,-25.6098,-13.5976,-50.6707,14.59,27.34,-30.92,0,S01
10880,-8.31027,0.99359,1.01993,-25.0610,1.0976,-47.5610,14.86,27.43,-31.47,0,S01
10900,-7.96072,0.99838,1.91297,-24.2683,8.9024,-33.1098,14.86,27.43,-31.47,0,S01
10920,-7.08205,0.99359,2.35350,-29.5732,3.3537,-16.7683,14.86,27.43,-31.47,0,S01
10940,-5.61201,0.70629,1.83396,-35.8537,-8.2927,-3.8415,12.66,27.43,-30.73,0,S01
10960,-4.13957,0.01915,0.90740,-40.3049,-16.0976,4.3902,12.66,27.43,-30.73,0,S01
10980,-3.10289,-0.50039,0.20590,-42.6829,-16.5244,8.7195,12.66,27.43,-30.73,0,S01
11000,-3.08852,-0.95050,-0.61770,-39.1463,-8.7195,12.9878,10.18,27.61,-30.18,0,S01
11020,-3.62243,-1.80044,-1.00078,-26.5854,4.2073,19.0854,10.18,27.61,-30.18,0,S01
11040,-4.39097,-1.71185,-0.75417,-11.2195,16.0366,18.0488,10.18,27.61,-30.18,0,S01
11060,-5.37738,-1.84832,-1.14682,-3.7195,18.3537,12.0732,10.18,27.61,-30.18,0,S01
11080,-7.29034,-1.79565,-3.81396,-5.9756,14.5732,2.5610,9.54,26.70,-30.92,0,S01
11100,-11.84172,1.05584,-3.22260,-9.5732,27.2561,-13.1098,9.54,26.70,-30.92,0,S01
11120,-16.71871,4.97276,0.45011,-4.0854,37.9878,-20.6707,9.54,26.70,-30.92,0,S01
11140,-19.09376,6.18901,1.85072,-6.0976,16.9512,-6.4634,9.54,25.96,-31.83,0,S01
11160,-18.90701,4.72615,0.95768,-16.5854,-11.0366,6.3415,9.54,25.96,-31.83,0,S01
11180,-18.69632,4.46997,1.31921,-19.1463,-14.7561,5.6707,9.54,25.96,-31.83,0,S01
11200,-16.81927,4.33111,1.75016,-16.5244,-16.3415,9.6951,8.07,26.79,-30.83,0,S01
11220,-13.35486,3.15556,1.64242,-11.0366,-18.2927,23.4146,8.07,26.79,-30.83,0,S01
11240,-9.98382,1.19471,0.89543,-1.5244,-17.7439,36.4024,8.07,26.79,-30.83,0,S01
11260,-8.78193,0.00958,0.52194,13.2317,-5.9756,34.0854,8.07,26.79,-30.83,0,S01
11280,-8.05170,0.14605,0.92895,26.4634,9.7561,20.5488,7.80,26.42,-30.83,0,S01
11300,-6.93361,0.47166,1.15401,32.5610,14.6341,10.5488,7.80,26.42,-30.83,0,S01
11320,-5.55215,0.95050,1.08697,33.2927,13.2317,3.0488,7.80,26.42,-30.83,0,S01
11340,-4.43646,0.97444,1.01275,35.0610,9.6341,-0.6098,9.17,25.87,-31.19,0,S01
11360,-3.81875,0.92895,0.39744,37.7439,6.6463,-1.8902,9.17,25.87,-31.19,0,S01
11380,-3.76608,1.01275,-0.07901,36.0366,7.8049,-1.8293,9.17,25.87,-31.19,0,S01
11400,-4.19943,1.30963,-0.09337,30.2439,8.5366,-2.1951,10.28,25.32,-31.38,0,S01
11420,-4.97276,1.59933,0.11732,25.3049,3.7195,-4.6341,10.28,25.32,-31.38,0,S01
11440,-5.71017,1.76453,-0.21787,22.0732,-6.7683,-8.1098,10.28,25.32,-31.38,0,S01
11460,-5.65032,2.54982,-0.69671,14.2073,-16.5854,-11.4634,10.28,25.32,-31.38,0,S01
11480,-5.22654,2.93290,-0.79966,1.0366,-20.9146,-12.0122,10.46,26.06,-30.55,0,S01
11500,-6.31112,2.54264,-1.64482,-4.0244,-23.7195,-10.9146,10.46,26.06,-30.55,0,S01
11520,-9.51695,2.16675,-2.73657,-3.8415,-23.7805,-5.4268,10.46,26.06,-30.55,0,S01
11540,-12.57435,1.78847,-1.32639,-13.5366,-15.4268,9.4512,9.08,26.42,-29.63,0,S01
11560,-15.78018,1.45328,0.01676,-37.1951,-11.7683,23.4146,9.08,26.42,-29.63,0,S01
11580,-18.42817,0.62489,1.54426,-36.9512,-1.9512,27.5610,9.08,26.42,-29.63,0,S01
11600,-18.21748,0.69911,2.59292,-35.0000,1.9512,14.0854,7.89,26.42,-30.09,0,S01
11620,-16.35000,0.69432,2.05901,-34.6341,-0.6707,-6.6463,7.89,26.42,-30.09,0,S01
11640,-14.44182,-0.13408,1.22344,-35.6098,1.8902,-27.1951,7.89,26.42,-30.09,0,S01
11660,-12.68927,-0.84755,1.35272,-33.8415,7.9878,-39.3902,7.89,26.42,-30.09,0,S01
11680,-10.93911,-0.88825,1.15401,-24.3902,10.6098,-40.8537,8.53,25.96,-30.00,0,S01
11700,-9.48822,-0.39983,1.18274,-15.1829,10.1220,-35.4878,8.53,25.96,-30.00,0,S01
11720,-8.19535,0.48363,0.81163,-11.0976,6.1585,-26.2195,8.53,25.96,-30.00,0,S01
11740,-7.04135,1.15161,1.12767,-13.2927,4.2683,-15.4268,8.26,25.78,-29.54,0,S01
11760,-6.13394,1.26893,1.77889,-18.7195,-0.6707,-6.1585,8.26,25.78,-29.54,0,S01
11780,-5.31513,0.74699,1.59693,-21.5854,-10.0610,1.3415,8.26,25.78,-29.54,0,S01
11800,-4.63996,-0.31603,1.27611,-20.9756,-15.3659,6.6463,7.16,26.15,-28.53,0,S01
11820,-4.32872,-1.79326,0.97923,-16.2195,-14.7561,10.3049,7.16,26.15,-28.53,0,S01
11840,-4.46997,-2.90896,1.11570,-7.4390,-13.8415,12.6829,7.16,26.15,-28.53,0,S01
11860,-5.03979,-3.09810,0.76136,7.1341,-17.5000,12.4390,7.16,26.15,-28.53,0,S01
11880,-5.40611,-2.24097,-0.11732,24.8171,-18.7805,7.3171,7.80,26.42,-27.71,0,S01
11900,-5.56412,-0.96965,-1.06542,33.5976,-15.5488,2.7439,7.80,26.42,-27.71,0,S01
11920,-6.29436,0.09816,-2.58095,27.1951,-12.9268,0.2439,7.80,26.42,-27.71,0,S01
11940,-9.52174,1.63045,-3.78044,21.9512,-4.3902,-5.4878,8.62,25.69,-28.07,0,S01
11960,-14.28141,3.40934,-0.86910,25.1829,20.4268,-13.8415,8.62,25.69,-28.07,0,S01
11980,-18.78970,5.47554,2.67911,20.7927,26.8293,-14.2683,8.62,25.69,-28.07,0,S01
12000,-18.99320,5.81312,2.13084,6.9512,-4.9390,-7.2561,9.08,25.96,-27.71,0,S01
12020,-17.33402,5.62877,-0.19154,3.9024,-26.2195,1.6463,9.08,25.96,-27.71,0,S01
12040,-16.64210,4.65433,1.43173,3.9634,-10.7317,8.6585,9.08,25.96,-27.71,0,S01
12060,-14.41549,3.28245,1.89621,8.6585,-7.5610,21.2195,9.08,25.96,-27.71,0,S01
12080,-12.10508,0.74939,1.36709,16.8293,-11.3415,33.1707,8.72,25.96,-26.97,0,S01
12100,-8.79869,-0.38547,1.32160,42.6829,-15.1220,17.9878,8.72,25.96,-26.97,0,S01
12120,-6.71574,0.08380,0.64643,49.5122,-17.8049,10.3659,8.72,25.96,-26.97,0,S01
12140,-4.63517,0.39504,0.00718,55.2439,-12.3780,6.7073,10.83,26.33,-26.42,0,S01
12160,-3.33752,0.96726,-0.31364,61.4634,-0.6098,3.2927,10.83,26.33,-26.42,0,S01
12180,-3.34231,1.52511,0.33758,65.1829,13.1707,2.0122,10.83,26.33,-26.42,0,S01
12200,-4.52744,1.67594,1.45567,61.5244,23.9024,2.7439,13.30,24.95,-26.97,0,S01
12220,-5.37738,1.27850,1.87705,54.0854,22.0732,3.7195,13.30,24.95,-26.97,0,S01
12240,-5.32710,1.03908,1.35991,47.6220,7.3171,2.8659,13.30,24.95,-26.97,0,S01
12260,-5.02782,1.32639,0.80445,41.2195,-7.3780,-0.8537,13.30,24.95,-26.97,0,S01
12280,-4.93206,1.49159,0.38068,35.9756,-17.2561,-5.1220,14.95,25.05,-26.33,0,S01
12300,-4.64954,1.01754,-0.46926,36.0366,-27.6220,-9.7561,14.95,25.05,-26.33,0,S01
12320,-6.12197,1.22823,-2.70066,34.7561,-36.5854,-16.7683,14.95,25.05,-26.33,0,S01
12340,-10.17536,3.42371,-4.29520,23.9024,-25.9756,-11.4634,16.51,25.50,-25.05,0,S01
12360,-13.55358,3.60088,-0.17238,10.0000,2.6220,18.5976,16.51,25.50,-25.05,0,S01
12380,-16.23269,0.88585,1.04387,-15.3659,-1.6463,51.6463,16.51,25.50,-25.05,0,S01
12400,-17.64287,-0.15083,1.24738,-15.4268,-15.0000,57.3781,14.22,25.69,-24.95,0,S01
12420,-18.00679,0.84994,2.50194,-13.6585,-5.9756,26.7073,14.22,25.69,-24.95,0,S01
12440,-16.62294,0.16041,2.71742,-18.3537,-5.9756,-0.5488,14.22,25.69,-24.95,0,S01
12460,-14.93024,-1.22344,2.55701,-19.0244,-3.2317,-15.3049,14.22,25.69,-24.95,0,S01
12480,-12.85447,-1.41976,1.97522,-11.3415,3.6585,-23.1707,16.61,25.50,-25.60,0,S01
12500,-11.09712,-0.08619,1.21386,1.9512,14.2683,-27.9268,16.61,25.50,-25.60,0,S01
12520,-10.00058,1.40300,0.98641,10.6098,24.5732,-26.6463,16.61,25.50,-25.60,0,S01
12540,-9.43076,1.94170,1.03908,13.2317,30.3049,-17.6829,16.70,24.22,-26.15,0,S01
12560,-8.70532,1.06781,1.12767,10.9146,32.6829,-7.3780,16.70,24.22,-26.15,0,S01
12580,-7.73327,-0.13647,0.91698,7.1951,31.2805,0.1220,16.70,24.22,-26.15,0,S01
12600,-7.02698,-0.64883,0.92416,1.2195,29.6341,3.6585,16.61,22.94,-26.61,0,S01
12620,-6.91685,-0.41899,1.26414,-4.2073,28.0488,5.5488,16.61,22.94,-26.61,0,S01
12640,-7.26161,0.04070,2.09014,-7.9878,25.4268,7.5610,16.61,22.94,-26.61,0,S01
12660,-7.25922,0.38547,2.52109,-11.3415,15.9756,9.6341,16.61,22.94,-26.61,0,S01
12680,-6.47153,0.31364,2.17872,-13.1707,1.2195,12.1951,16.06,22.48,-26.61,0,S01
12700,-5.58567,-0.94092,0.93853,-9.8171,-11.4634,18.9024,16.06,22.48,-26.61,0,S01
12720,-5.46117,-1.66636,0.46926,-2.1951,-7.9878,20.6098,16.06,22.48,-26.61,0,S01
12740,-5.85861,-1.90339,1.12767,4.2683,2.6829,15.9756,16.06,22.48,-26.24,0,S01
12760,-6.27281,-2.08056,1.33118,12.0732,3.3537,9.5122,16.06,22.48,-26.24,0,S01
12780,-6.92882,-2.24097,0.81163,20.5488,-1.5244,-0.3049,16.06,22.48,-26.24,0,S01
12800,-7.68539,-3.00712,-1.47004,24.8780,-7.9878,-12.6829,17.71,22.20,-25.32,0,S01
12820,-9.53371,-0.44532,-4.41730,22.3171,-3.9024,-28.2317,17.71,22.20,-25.32,0,S01
12840,-12.03565,4.06057,-2.17154,20.3049,26.2195,-33.1707,17.71,22.20,-25.32,0,S01
12860,-14.56872,4.53941,-0.16520,36.4024,33.7195,-19.7561,17.71,22.20,-25.32,0,S01
12880,-16.74265,3.41892,-0.56024,52.9878,10.6098,-6.8293,20.55,20.55,-25.23,0,S01
12900,-17.86074,3.69186,-0.02155,44.7561,-8.9634,-7.2561,20.55,20.55,-25.23,0,S01
12920,-17.03714,4.20661,0.69671,36.8902,-27.4390,-5.1829,20.55,20.55,-25.23,0,S01
12940,-14.76744,4.46040,1.71185,38.0488,-38.4756,5.7927,22.11,22.02,-23.67,0,S01
12960,-11.77229,3.83791,1.10373,41.2805,-49.3902,18.2317,22.11,22.02,-23.67,0,S01
12980,-9.34696,2.18112,0.51475,47.1341,-48.1707,26.8293,22.11,22.02,-23.67,0,S01
13000,-7.74524,0.23942,-0.30646,58.7195,-36.5854,28.4756,23.49,22.94,-21.28,0,S01
13020,-6.62715,-1.08697,0.04070,70.0000,-16.2805,21.0366,23.49,22.94,-21.28,0,S01
13040,-6.11479,-1.20189,0.66559,83.2927,-2.5000,9.3902,23.49,22.94,-21.28,0,S01
13060,-5.83467,-0.12450,0.51475,96.3415,-1.7073,-0.4878,23.49,22.94,-21.28,0,S01
13080,-5.55694,1.15640,-0.01437,100.8537,-5.3049,-3.6585,27.16,22.11,-19.27,0,S01
13100,-5.47315,2.17394,-0.29928,94.4512,-2.5000,-1.8293,27.16,22.11,-19.27,0,S01
13120,-5.68144,2.56419,0.05267,79.2073,5.6707,1.5244,27.16,22.11,-19.27,0,S01
13140,-5.95199,2.82037,0.76375,61.2195,12.1341,3.5366,29.08,21.65,-18.44,0,S01
13160,-6.17465,3.04064,1.31921,43.4756,12.5610,5.5488,29.08,21.65,-18.44,0,S01
13180,-6.47392,3.25133,1.64960,26.2195,10.2439,7.8049,29.08,21.65,-18.44,0,S01
13200,-6.88094,3.85706,1.34554,10.7317,5.4268,10.9146,29.72,22.02,-18.53,0,S01
13220,-7.00065,4.05099,0.69911,-3.5976,-1.4634,15.5488,29.72,22.02,-18.53,0,S01
13240,-7.92241,3.55778,-0.30406,-12.5000,-10.4878,17.8049,29.72,22.02,-18.53,0,S01
13260,-11.52090,3.69186,-3.96001,-20.0000,-24.3902,20.5488,29.72,22.02,-18.53,0,S01
13280,-15.05713,3.50990,-5.88016,-35.3049,-29.2683,35.8537,28.53,23.85,-18.35,0,S01
13300,-16.19917,-0.39744,-1.56341,-36.9512,-7.5000,54.5122,28.53,23.85,-18.35,0,S01
13320,-17.84398,-2.41575,-0.22266,-20.6098,-13.7195,49.1463,28.53,23.85,-18.35,0,S01
13340,-18.00679,-1.14203,-1.24020,9.0854,-33.4756,34.9390,28.62,25.23,-16.97,0,S01
13360,-17.39627,0.57461,-1.80523,30.9146,-36.4024,17.2561,28.62,25.23,-16.97,0,S01
13380,-16.74984,0.90022,-1.29526,42.5610,-30.0610,-4.5732,28.62,25.23,-16.97,0,S01
13400,-14.78898,0.19393,-0.99838,41.5854,-28.7195,-26.2805,31.56,24.59,-15.96,0,S01
13420,-12.24634,1.06063,-2.20745,35.2439,-30.3659,-41.8293,31.56,24.59,-15.96,0,S01
13440,-9.59596,2.62644,-2.41814,28.1707,-16.2195,-43.7805,31.56,24.59,-15.96,0,S01
13460,-7.33823,3.62722,-1.93452,20.5488,3.1098,-37.0732,31.56,24.59,-15.96,0,S01
13480,-5.87298,3.13401,-1.36470,9.2683,17.4390,-31.3415,32.84,23.30,-15.96,0,S01
13500,-5.32470,1.48680,-0.80445,-3.2317,24.1463,-26.8902,32.84,23.30,-15.96,0,S01
13520,-5.30555,-0.32322,-0.39504,-11.4634,25.6707,-21.8902,32.84,23.30,-15.96,0,S01
13540,-5.59764,-1.29287,0.00239,-11.0366,26.0976,-16.2195,33.30,22.48,-17.16,0,S01
13560,-6.11958,-1.28090,0.69192,-2.8049,26.1585,-10.0000,33.30,22.48,-17.16,0,S01
13580,-6.76601,-0.83558,1.24738,6.7683,22.0732,-3.4756,33.30,22.48,-17.16,0,S01
13600,-8.66940,-0.05507,2.13084,15.7927,5.4878,8.0488,34.13,22.48,-16.79,0,S01
13620,-9.66060,-0.08859,3.06458,21.7683,-2.7439,11.8902,34.13,22.48,-16.79,0,S01
13640,-10.11790,0.28730,2.43251,33.1707,-14.6341,14.8780,34.13,22.48,-16.79,0,S01
13660,-10.63983,0.10295,1.41976,43.9024,-19.7561,20.3659,34.13,22.48,-16.79,0,S01
13680,-12.06199,-0.68953,0.35674,50.5488,-13.5976,21.8902,35.05,23.39,-15.14,0,S01
13700,-14.20480,-1.18992,-2.11169,53.2317,-9.8780,15.4268,35.05,23.39,-15.14,0,S01
13720,-15.33965,-0.03591,-1.77410,53.8415,-3.3537,-1.5854,35.05,23.39,-15.14,0,S01
13740,-13.98932,0.84036,-1.18513,63.1098,-12.6220,-29.4512,36.88,22.48,-13.30,0,S01
13760,-10.75236,2.01352,-2.46842,70.3659,-39.8171,-48.8415,36.88,22.48,-13.30,0,S01
13780,-9.17458,4.00311,-3.68707,60.6707,-47.0122,-49.5732,36.88,22.48,-13.30,0,S01
13800,-8.77714,3.71820,-2.69827,44.8171,-30.1829,-27.5000,39.08,21.65,-10.46,0,S01
13820,-9.16979,1.78368,-1.22104,45.1829,-15.9146,-0.8537,39.08,21.65,-10.46,0,S01
13840,-10.01255,-1.00556,-0.64404,59.7561,-12.9268,15.3049,39.08,21.65,-10.46,0,S01
13860,-10.54885,-2.27928,-0.62489,76.2195,-16.5244,16.8293,39.08,21.65,-10.46,0,S01
13880,-10.30704,-1.35272,-1.41018,90.3049,-22.9878,11.6463,39.72,22.39,-7.16,0,S01
13900,-10.00537,0.29928,-1.44610,100.9756,-19.9390,7.9268,39.72,22.39,-7.16,0,S01
13920,-9.43794,1.85790,-1.66876,113.9634,-16.2195,10.4878,39.72,22.39,-7.16,0,S01
13940,-8.88728,2.55461,-1.93212,125.4268,-14.6951,17.2561,40.09,22.57,-2.94,0,S01
13960,-8.63589,1.96085,-1.93212,133.2317,-14.1463,22.3780,40.09,22.57,-2.94,0,S01
13980,-8.67180,0.99599,-1.83635,139.2683,-14.8780,22.9878,40.09,22.57,-2.94,0,S01
14000,-8.64786,0.01437,-1.30484,142.3171,-15.4878,20.2439,39.63,23.12,2.48,0,S01
14020,-8.45632,-0.42377,-1.22104,144.7561,-18.7195,15.3659,39.63,23.12,2.48,0,S01
14040,-8.24324,0.02873,-1.51792,148.7195,-20.0610,11.7073,39.63,23.12,2.48,0,S01
14060,-8.12832,0.58658,-1.56102,152.2561,-16.0976,11.5854,39.63,23.12,2.48,0,S01
14080,-8.10916,1.31442,-1.30723,151.0976,-11.4634,11.7073,38.62,22.94,7.80,0,S01
14100,-8.17380,2.06620,-0.71587,141.4634,-10.0610,9.5122,38.62,22.94,7.80,0,S01
14120,-8.29351,2.55940,-0.16520,126.5854,-13.5976,6.4024,38.62,22.94,7.80,0,S01
14140,-8.34858,2.84910,0.43335,107.8659,-19.6951,3.3537,37.16,22.75,11.56,0,S01
14160,-8.14507,2.67911,0.56024,88.9634,-27.4390,1.5244,37.16,22.75,11.56,0,S01
14180,-8.07325,2.58574,0.12450,74.0854,-32.2561,1.4634,37.16,22.75,11.56,0,S01
14200,-8.33422,1.77650,0.07661,66.8293,-30.7927,2.8659,36.15,22.11,14.50,0,S01
14220,-8.83460,0.85473,-0.20351,69.8171,-25.7927,2.5000,36.15,22.11,14.50,0,S01
14240,-9.21289,1.42216,0.31843,63.4146,-20.7317,0.7927,36.15,22.11,14.50,0,S01
14260,-9.58638,2.18830,1.41737,55.2439,-17.6220,1.0366,36.15,22.11,14.50,0,S01
14280,-10.34774,1.57299,1.59214,54.2073,-18.1707,4.4512,34.77,21.74,16.51,0,S01
14300,-11.92791,1.52989,-0.32801,61.9512,-22.1951,8.7195,34.77,21.74,16.51,0,S01
14320,-13.65653,3.21062,-1.79326,59.0244,-24.6341,19.5732,34.77,21.74,16.51,0,S01
14340,-12.97418,1.39343,-1.23301,47.3781,-30.1220,39.1463,32.02,21.83,19.08,0,S01
14360,-11.64061,-1.28329,-2.13802,50.0610,-46.4024,38.5366,32.02,21.83,19.08,0,S01
14380,-11.36288,-2.06141,-2.78206,59.7561,-51.7073,16.0976,32.02,21.83,19.08,0,S01
14400,-11.41795,-0.81882,-2.34632,70.4268,-44.2073,-3.6585,30.18,20.00,22.29,0,S01
14420,-11.04924,0.33758,-1.70946,78.5366,-43.4756,-14.5122,30.18,20.00,22.29,0,S01
14440,-10.56801,0.80685,-1.64960,87.1341,-47.7439,-19.9390,30.18,20.00,22.29,0,S01
14460,-10.04607,0.91219,-1.87945,86.2195,-48.7195,-24.8171,30.18,20.00,22.29,0,S01
14480,-9.25838,1.35751,-2.05901,75.9756,-43.4146,-30.5488,28.17,17.71,25.05,0,S01
14500,-8.39886,1.47722,-1.91057,64.3293,-32.6220,-33.9024,28.17,17.71,25.05,0,S01
14520,-7.72848,1.00796,-1.64003,57.5000,-19.6341,-34.9390,28.17,17.71,25.05,0,S01
14540,-7.78355,0.83318,-1.37667,53.3537,-9.5122,-35.4878,27.25,16.79,25.96,0,S01
14560,-8.37013,0.41899,-1.32878,49.5732,-2.1341,-32.0122,27.25,16.79,25.96,0,S01
14580,-8.82263,-0.05507,-1.30963,46.2805,3.9634,-25.1220,27.25,16.79,25.96,0,S01
14600,-8.99980,-0.09816,-1.00556,45.5488,8.2317,-18.0488,25.78,16.88,26.51,0,S01
14620,-9.10275,0.24900,-0.50039,46.3415,9.8780,-12.4390,25.78,16.88,26.51,0,S01
14640,-9.12430,0.56024,-0.03831,45.0610,7.3780,-9.1463,25.78,16.88,26.51,0,S01
14660,-9.10036,0.79487,0.16520,42.1341,2.9878,-7.3780,25.78,16.88,26.51,0,S01
14680,-9.09797,0.95768,0.56982,37.6220,-0.1829,-6.5244,24.13,16.61,27.06,0,S01
14700,-9.12670,0.96965,1.07739,32.9878,-3.3537,-5.3659,24.13,16.61,27.06,0,S01
14720,-9.06445,0.77572,1.40300,29.5732,-7.2561,-3.5366,24.13,16.61,27.06,0,S01
14740,-9.01656,0.56024,1.53229,28.5366,-9.8780,-1.5244,22.94,16.15,27.61,0,S01
14760,-8.93037,0.35674,1.70467,28.4756,-10.7927,0.0000,22.94,16.15,27.61,0,S01
14780,-8.55209,0.07901,1.41018,26.9512,-11.7683,0.3659,22.94,16.15,27.61,0,S01
14800,-8.17620,0.01197,0.79487,23.1098,-10.0610,-0.7927,21.93,15.60,27.80,0,S01
14820,-8.21211,0.11013,0.45729,16.0366,-2.0732,-2.3780,21.93,15.60,27.80,0,S01
14840,-8.83939,-0.09577,0.78530,7.5000,9.3902,-3.4146,21.93,15.60,27.80,0,S01
14860,-9.68215,-0.65601,1.13725,2.9268,15.1220,-3.8415,21.93,15.60,27.80,0,S01
14880,-10.55364,-1.25217,1.33118,2.1951,15.3659,-4.0854,21.65,16.15,27.16,0,S01
14900,-11.40119,-1.69270,1.09415,2.7439,12.5610,-5.7317,21.65,16.15,27.16,0,S01
14920,-12.29901,-2.14520,0.63925,5.3049,8.2317,-8.9634,21.65,16.15,27.16,0,S01
14940,-12.78983,-1.87466,0.54827,11.8902,1.8902,-16.4024,21.10,15.60,27.06,0,S01
14960,-12.58392,-1.95606,-0.68235,19.9390,-13.4146,-25.9756,21.10,15.60,27.06,0,S01
14980,-11.63821,-0.18675,-1.98719,30.5488,-30.1829,-35.4878,21.10,15.60,27.06,0,S01
15000,-10.07001,2.11887,-2.87304,30.0610,-39.5732,-39.2073,21.01,13.49,27.61,0,S01
15020,-8.85376,3.93607,-3.49075,24.6341,-39.3293,-33.4756,21.01,13.49,27.61,0,S01
15040,-8.75320,3.59130,-3.03824,19.6341,-27.8049,-20.7927,21.01,13.49,27.61,0,S01
15060,-9.39724,2.05662,-2.32477,17.8659,-17.3171,-6.0976,21.01,13.49,27.61,0,S01
15080,-10.33816,0.50518,-1.30005,19.1463,-10.8537,5.5488,19.72,13.30,27.52,0,S01
15100,-10.28310,0.63925,-1.00796,38.6585,-17.8049,13.9634,19.72,13.30,27.52,0,S01
15120,-9.27753,0.86670,-1.20189,47.5000,-17.0732,16.8293,19.72,13.30,27.52,0,S01
15140,-8.40125,0.91459,-1.07021,51.8902,-10.7317,18.1098,17.61,12.94,27.89,0,S01
15160,-7.89608,0.91937,-0.83558,54.3902,-4.5732,17.3780,17.61,12.94,27.89,0,S01
15180,-7.82665,0.99359,-0.96007,56.2805,-1.2195,15.2439,17.61,12.94,27.89,0,S01
15200,-8.36774,1.18034,-1.06781,58.1098,3.3537,13.1707,15.23,13.21,27.80,0,S01
15220,-9.21528,1.29766,-0.52433,58.2927,8.9024,13.1098,15.23,13.21,27.80,0,S01
15240,-9.93833,1.35512,0.24660,57.5000,8.1707,14.3902,15.23,13.21,27.80,0,S01
15260,-10.44830,1.19710,0.84036,57.1951,-1.7683,14.8780,15.23,13.21,27.80,0,S01
15280,-10.81700,0.95050,1.07500,57.5610,-17.9878,12.8659,13.03,13.21,27.98,0,S01
15300,-10.73799,0.82121,0.67038,57.3171,-37.3171,9.8171,13.03,13.21,27.98,0,S01
15320,-9.80186,1.18992,0.25857,56.2195,-51.8902,7.8659,13.03,13.21,27.98,0,S01
15340,-8.33900,1.17316,-0.10534,58.1098,-57.5000,9.7561,10.83,11.10,28.90,0,S01
15360,-7.11317,1.01993,-0.05507,63.1098,-52.9268,12.0122,10.83,11.10,28.90,0,S01
15380,-6.33745,1.24498,0.44053,66.5244,-40.6098,13.6585,10.83,11.10,28.90,0,S01
15400,-6.15789,1.73580,0.99838,65.5488,-27.2561,14.8171,8.44,10.46,28.81,0,S01
15420,-6.46195,2.21464,1.51553,58.9024,-19.1463,13.3537,8.44,10.46,28.81,0,S01
15440,-6.76123,2.18112,1.86029,50.0610,-14.2683,8.2317,8.44,10.46,28.81,0,S01
15460,-7.09881,1.77889,1.71185,45.3049,-10.1829,0.6707,8.44,10.46,28.81,0,S01
15480,-7.18261,1.37906,1.20189,42.1341,-5.3049,-6.7073,7.16,10.37,28.35,0,S01
15500,-7.21612,1.18274,0.61052,39.9390,3.1098,-11.9512,7.16,10.37,28.35,0,S01
15520,-7.27837,1.43413,0.60813,39.0854,11.3415,-14.0854,7.16,10.37,28.35,0,S01
15540,-7.23528,1.98719,0.91219,35.0000,11.5244,-13.9634,6.42,11.38,27.71,0,S01
15560,-7.20415,2.65038,1.09415,26.0976,7.0732,-12.6220,6.42,11.38,27.71,0,S01
15580,-7.14430,3.01669,1.00078,15.9756,1.7073,-9.8780,6.42,11.38,27.71,0,S01
15600,-7.00065,2.83713,0.91698,6.0976,-2.6220,-7.0732,6.70,11.47,27.25,0,S01
15620,-6.66306,2.27689,1.03190,-0.4268,-8.2317,-6.0366,6.70,11.47,27.25,0,S01
15640,-6.58166,1.39103,0.71347,-0.6098,-17.8659,-7.6220,6.70,11.47,27.25,0,S01
15660,-7.48906,1.08697,-1.06781,6.7683,-27.9268,-9.0244,6.70,11.47,27.25,0,S01
15680,-9.76355,2.22182,-2.26013,10.3659,-25.4878,-5.4878,6.61,10.73,27.16,0,S01
15700,-12.32056,2.48279,-0.81642,4.3293,-14.9390,3.7805,6.61,10.73,27.16,0,S01
15720,-14.72913,1.27850,0.36871,-9.6341,-14.2683,13.8415,6.61,10.73,27.16,0,S01
15740,-17.33402,0.31843,0.41659,-18.7805,-17.9268,17.3171,7.06,10.55,26.70,0,S01
15760,-18.45211,-0.92177,1.88903,-16.7683,-8.1707,19.1463,7.06,10.55,26.70,0,S01
15780,-15.93820,-1.42934,3.02388,-7.1341,-8.4146,14.5732,7.06,10.55,26.70,0,S01
15800,-13.08671,-1.18752,2.08774,2.3780,-10.3049,-2.6829,7.89,10.92,26.42,0,S01
15820,-10.79306,-0.20590,1.22583,8.6585,-2.6220,-22.9878,7.89,10.92,26.42,0,S01
15840,-8.62391,0.68953,0.58419,7.8659,6.3415,-33.3537,7.89,10.92,26.42,0,S01
15860,-7.28316,0.98402,0.05028,3.5976,13.9024,-31.2805,7.89,10.92,26.42,0,S01
15880,-7.18739,0.46448,-0.16281,4.6341,24.7561,-18.9634,8.26,12.02,25.96,0,S01
15900,-7.89129,0.01437,0.43814,4.0244,34.4512,-1.2805,8.26,12.02,25.96,0,S01
15920,-8.35816,-0.01676,1.58017,-7.1951,31.6463,15.0000,8.26,12.02,25.96,0,S01
15940,-8.02058,0.14605,2.02071,-22.3171,12.6220,25.3659,8.72,12.66,25.96,0,S01
15960,-6.90967,-0.31125,1.61130,-30.0610,-9.3293,28.9024,8.72,12.66,25.96,0,S01
15980,-5.71975,-1.23301,0.94092,-25.7927,-20.3659,26.5244,8.72,12.66,25.96,0,S01
16000,-5.32470,-2.12605,0.81642,-14.0854,-18.9634,19.3293,9.08,12.29,26.42,0,S01
16020,-5.48512,-2.17633,0.94571,-1.7683,-13.9634,8.0488,9.08,12.29,26.42,0,S01
16040,-5.88016,-1.94888,0.75896,10.2439,-11.0366,-1.8293,9.08,12.29,26.42,0,S01
16060,-6.06691,-1.87466,0.55545,21.6463,-9.5122,-9.8780,9.08,12.29,26.42,0,S01
16080,-6.15789,-1.34794,0.20111,27.0732,-9.0854,-15.0000,8.81,12.39,26.61,0,S01
16100,-6.61039,0.02873,-0.73741,19.5732,-6.7073,-14.0854,8.81,12.39,26.61,0,S01
16120,-8.69813,1.49877,-3.09570,2.7439,0.8537,-6.6463,8.81,12.39,26.61,0,S01
16140,-12.32056,3.24654,-2.02789,-7.8659,21.2805,-0.4878,9.45,13.67,25.96,0,S01
16160,-15.84722,4.88657,0.74699,-4.2683,30.4268,-0.8537,9.45,13.67,25.96,0,S01
16180,-17.74582,5.20021,1.61848,-2.2561,13.7805,1.2195,9.45,13.67,25.96,0,S01
16200,-17.56865,4.02944,1.13006,-1.1585,-8.6585,7.2561,9.45,13.76,26.15,0,S01
16220,-16.92222,3.92889,1.56581,0.0000,-14.6951,8.7805,9.45,13.76,26.15,0,S01
16240,-15.45457,3.80918,2.16196,0.7927,-17.0732,10.9756,9.45,13.76,26.15,0,S01
16260,-13.44105,3.23217,1.94649,7.2561,-22.6220,15.0610,9.45,13.76,26.15,0,S01
16280,-11.25993,2.30562,1.10133,16.3415,-23.4146,15.5488,8.72,13.12,27.06,0,S01
16300,-9.46907,1.22583,0.44053,23.7195,-15.9756,12.1951,8.72,13.12,27.06,0,S01
16320,-8.07085,0.39744,0.38307,31.4634,-4.0854,8.6585,8.72,13.12,27.06,0,S01
16340,-6.81150,0.08859,0.46926,39.5732,4.2683,6.1585,7.25,13.49,26.88,0,S01
16360,-5.93044,0.24900,0.57940,46.8902,6.0976,3.6585,7.25,13.49,26.88,0,S01
16380,-5.58328,0.63446,0.57461,54.1463,4.9390,1.6463,7.25,13.49,26.88,0,S01
16400,-5.61201,1.14682,0.59137,58.5366,5.3049,0.2439,5.41,14.13,26.61,0,S01
16420,-5.71735,1.58975,0.47645,58.0488,6.3415,-0.1829,5.41,14.13,26.61,0,S01
16440,-5.79397,1.67834,0.51954,53.6585,3.6585,0.0610,5.41,14.13,26.61,0,S01
16460,-6.10043,1.83156,0.57461,48.2927,-3.4756,-2.5000,5.41,14.13,26.61,0,S01
16480,-6.40928,2.18351,0.41180,41.0366,-11.1585,-7.0732,4.13,14.40,26.70,0,S01
16500,-6.63673,2.68151,0.06943,30.6098,-15.3659,-9.1463,4.13,14.40,26.70,0,S01
16520,-6.56490,3.08373,0.35913,12.9878,-16.2195,-9.6951,4.13,14.40,26.70,0,S01
16540,-6.57208,3.03106,1.05105,-5.5488,-14.2073,-11.7683,4.86,14.59,26.79,0,S01
16560,-6.87136,2.65278,1.50116,-18.7195,-9.6341,-14.8780,4.86,14.59,26.79,0,S01
16580,-6.65109,0.79009,0.76136,-27.2561,-5.9146,-28.1707,4.86,14.59,26.79,0,S01
16600,-6.82347,0.20111,-0.49321,-23.9634,-6.5854,-35.0610,6.42,15.23,26.70,0,S01
16620,-7.99424,0.53630,-1.94888,-21.3415,-8.3537,-32.2561,6.42,15.23,26.70,0,S01
16640,-10.47703,2.00395,-1.69988,-15.6707,5.9756,-22.3171,6.42,15.23,26.70,0,S01
16660,-14.45380,2.31280,-0.12210,-18.6585,30.9756,-5.7927,6.42,15.23,26.70,0,S01
16680,-17.55907,0.03591,1.59693,-20.6098,34.5122,14.8780,6.79,16.79,25.87,0,S01
16700,-18.35395,0.64643,1.96085,-8.9024,22.5610,16.9512,6.79,16.79,25.87,0,S01
16720,-17.29811,1.55144,1.91776,3.8415,8.4756,4.5122,6.79,16.79,25.87,0,S01
16740,-16.14650,0.88825,1.18992,12.6220,-3.3537,-10.7317,6.61,17.25,25.32,0,S01
16760,-15.02840,0.23224,1.35991,15.9756,-4.1463,-25.1220,6.61,17.25,25.32,0,S01
16780,-12.91193,-0.27054,1.36709,13.0488,-9.5732,-32.8049,6.61,17.25,25.32,0,S01
16800,-10.13226,0.25857,0.40701,9.7561,-22.1341,-35.9756,6.79,17.25,26.24,0,S01
16820,-8.05888,1.62087,-0.93134,2.9878,-28.9634,-35.2439,6.79,17.25,26.24,0,S01
16840,-6.44759,2.59292,-1.14443,-5.4878,-21.0366,-25.6098,6.79,17.25,26.24,0,S01
16860,-5.08528,2.16915,-0.73502,-14.1463,-6.2195,-11.2805,6.79,17.61,26.88,0,S01
16880,-4.37421,0.82839,-0.27533,-20.7927,6.5244,0.1220,7.25,17.61,26.88,0,S01
16900,-4.26168,-0.36871,0.13886,-26.5244,13.9634,5.3659,7.25,17.61,26.88,0,S01
16920,-4.59926,-1.13485,0.56982,-32.6220,16.2805,6.1585,7.25,17.61,26.88,0,S01
16940,-5.10204,-1.25935,1.03430,-36.2805,11.8293,5.7317,7.80,18.44,26.70,0,S01
16960,-5.56173,-1.34075,1.68791,-37.5000,2.9268,6.9512,7.80,18.44,26.70,0,S01
16980,-5.91128,-1.39103,2.13563,-35.0000,-9.0854,9.1463,7.80,18.44,26.70,0,S01
17000,-6.12437,-1.70228,1.67355,-25.4268,-22.1951,14.0854,7.71,17.89,27.43,0,S01
17020,-6.52420,-2.10450,0.98162,-10.5488,-25.8537,18.9024,7.71,17.89,27.43,0,S01
17040,-6.66306,-1.87466,0.32801,1.7073,-20.3049,18.5976,7.71,17.89,27.43,0,S01
17060,-6.62476,-1.00796,-2.01592,5.3049,-18.8415,15.1829,5.96,17.80,27.25,0,S01
17080,-9.15782,1.67594,-4.07493,4.8780,-9.6951,4.5122,5.96,17.80,27.25,0,S01
17100,-13.06037,4.18028,-0.84276,1.5854,20.3659,-9.3902,5.96,17.80,27.25,0,S01
17120,-17.08023,5.43963,1.69031,8.1098,24.4512,-7.5610,5.96,17.80,27.25,0,S01
17140,-19.06742,5.50906,2.07338,-5.6098,-1.8293,5.7927,5.78,18.53,26.79,0,S01
17160,-19.35712,5.42287,1.24020,-22.6220,-25.1829,15.8537,5.78,18.53,26.79,0,S01
17180,-17.94933,5.48512,1.77171,-21.2805,-31.1585,18.9024,5.78,18.53,26.79,0,S01
17200,-14.92306,4.63517,1.81480,-16.4024,-35.0000,24.8780,5.41,17.16,28.26,0,S01
17220,-11.32936,2.67911,1.29526,-15.4268,-41.8293,35.7927,5.41,17.16,28.26,0,S01
17240,-9.54329,1.21386,0.95289,-14.3293,-34.9390,34.6951,5.41,17.16,28.26,0,S01
17260,-8.45871,0.83558,1.14922,-10.0000,-18.2927,22.7439,4.77,16.88,29.17,0,S01
17280,-7.38132,1.07979,1.32160,-4.8171,-5.3659,15.4878,4.77,16.88,29.17,0,S01
17300,-5.93523,1.36230,1.18274,0.3049,4.5732,15.0610,4.77,16.88,29.17,0,S01
17320,-4.90093,1.13006,0.90740,8.3537,14.1463,16.0366,4.77,16.88,29.17,0,S01
17340,-4.66869,1.12288,1.30005,15.3659,24.9390,11.8293,3.67,18.07,28.72,0,S01
17360,-5.30316,1.12767,2.15239,17.2561,30.5488,5.6098,3.67,18.07,28.72,0,S01
17380,-5.94001,1.29526,2.19309,15.3049,28.6585,-0.2439,3.67,18.07,28.72,0,S01
17400,-6.16268,1.89860,1.84593,11.6463,24.0854,-4.7561,3.30,19.17,28.17,0,S01
17420,-6.04536,2.45645,1.97522,9.4512,16.8293,-6.2805,3.30,19.17,28.17,0,S01
17440,-5.78679,2.18351,2.00155,6.4634,2.9268,-5.4878,3.30,19.17,28.17,0,S01
17460,-5.66468,1.63524,1.33118,1.5244,-11.6463,-4.4512,3.67,18.62,28.90,0,S01
17480,-5.61440,1.92494,0.79248,-9.8780,-14.9390,-7.5610,3.67,18.62,28.90,0,S01
17500,-5.68144,3.02388,0.49321,-21.4634,-11.4024,-12.0122,3.67,18.62,28.90,0,S01
17520,-6.44998,3.34470,-0.50039,-30.3659,-8.4146,-17.3780,3.67,18.62,28.90,0,S01
17540,-9.12670,3.20105,-2.84671,-26.5854,-4.8171,-17.5610,5.05,18.53,29.08,0,S01
17560,-11.99256,1.90339,-3.23457,-20.1829,8.9024,-4.3902,5.05,18.53,29.08,0,S01
17580,-14.47056,1.53468,-1.37427,-33.6585,21.8293,11.3415,5.05,18.53,29.08,0,S01
17600,-17.45134,0.59376,1.72861,-43.7805,23.9024,23.3537,6.42,19.08,28.72,0,S01
17620,-18.00440,-0.08380,1.18274,-47.8659,5.1829,22.3171,6.42,19.08,28.72,0,S01
17640,-16.74744,0.73741,1.27372,-51.1585,-3.1098,2.3780,6.42,19.08,28.72,0,S01
17660,-15.57189,0.83558,1.52989,-43.5366,-0.3049,-17.2561,8.90,19.45,28.90,0,S01
17680,-14.30296,0.06225,1.72861,-32.8659,-2.0122,-25.9756,8.90,19.45,28.90,0,S01
17700,-12.46421,-0.67277,1.01993,-23.5366,-7.3780,-26.7073,8.90,19.45,28.90,0,S01
17720,-10.49139,-0.43096,0.10534,-15.6707,-5.0610,-25.6707,8.90,19.45,28.90,0,S01
17740,-9.02375,0.30646,-0.22266,-12.4390,5.1829,-22.9878,9.63,20.09,29.54,0,S01
17760,-7.78116,1.32399,-0.24421,-15.1220,16.0976,-18.6585,9.63,20.09,29.54,0,S01
17780,-6.83066,1.64003,0.09816,-23.0488,22.8659,-11.2195,9.63,20.09,29.54,0,S01
17800,-6.16028,1.05345,0.55306,-30.1220,23.6585,-2.1341,10.55,21.28,29.08,0,S01
17820,-5.81552,0.25379,0.97444,-32.5000,19.8780,5.4268,10.55,21.28,29.08,0,S01
17840,-5.76045,-0.29688,1.60651,-32.0122,14.8171,9.2073,10.55,21.28,29.08,0,S01
17860,-5.86101,-0.67277,1.66636,-27.8049,8.2927,9.2073,11.10,21.38,29.27,0,S01
17880,-6.13873,-0.89543,1.15879,-20.9146,1.8902,7.9878,11.10,21.38,29.27,0,S01
17900,-6.59363,-1.42934,0.70150,-13.4756,-1.2195,9.5122,11.10,21.38,29.27,0,S01
17920,-6.79474,-1.67355,1.22104,-7.1951,-3.1098,10.9146,11.10,21.38,29.27,0,S01
17940,-6.27999,-2.35111,0.99359,-2.0732,-13.9634,9.6951,10.37,20.73,29.82,0,S01
17960,-6.28717,-2.87304,0.27773,13.2317,-22.8659,1.5244,10.37,20.73,29.82,0,S01
17980,-6.48350,-2.46363,0.10295,33.4756,-21.2195,-10.0000,10.37,20.73,29.82,0,S01
18000,-6.96952,-0.65601,-0.18675,38.7805,-14.9390,-15.9756,9.27,20.28,29.91,0,S01
18020,-7.90326,1.70228,-0.76136,25.4878,-7.3780,-14.6951,9.27,20.28,29.91,0,S01
18040,-9.81862,3.54581,-1.46765,9.4512,-1.9512,-7.9268,9.27,20.28,29.91,0,S01
18060,-14.86320,3.32794,0.96486,-2.1341,10.0000,0.3659,9.27,20.46,29.36,0,S01
18080,-16.25663,4.30477,1.98958,-12.8049,1.2805,4.4512,9.27,20.46,29.36,0,S01
18100,-16.32127,3.71101,0.84755,-10.9146,-15.6098,10.0610,9.27,20.46,29.36,0,S01
18120,-17.04911,3.44047,1.25696,-8.0488,-13.6585,6.7073,9.27,20.46,29.36,0,S01
18140,-16.43141,3.96240,2.46124,-7.3171,-8.7805,5.3659,9.45,20.09,29.72,0,S01
18160,-14.09227,3.62722,1.72622,-0.6098,-15.0610,15.0610,9.45,20.09,29.72,0,S01
18180,-11.71483,2.12126,0.51236,9.8171,-14.0244,26.5854,9.45,20.09,29.72,0,S01
18200,-9.83538,0.92895,0.75657,16.4024,-3.2927,26.5244,7.71,20.28,30.37,0,S01
18220,-8.07325,0.41659,0.44772,21.2195,0.6707,20.2439,7.71,20.28,30.37,0,S01
18240,-6.65588,0.32082,0.16999,25.5488,5.9756,14.2073,7.71,20.28,30.37,0,S01
18260,-5.77721,0.55067,0.23703,28.6585,13.7195,9.0244,6.42,21.28,30.18,0,S01
18280,-5.35822,0.89064,0.37350,30.0000,19.3293,4.8171,6.42,21.28,30.18,0,S01
18300,-5.30316,1.18274,0.58897,29.9390,23.2927,1.5854,6.42,21.28,30.18,0,S01
18320,-5.44202,1.67115,0.61770,26.6463,25.0610,-1.5854,6.42,21.28,30.18,0,S01
18340,-5.82509,2.35829,0.81882,18.0488,25.2439,-3.7805,5.69,22.48,29.17,0,S01
18360,-6.14831,2.86825,1.31442,5.3049,22.0732,-3.9634,5.69,22.48,29.17,0,S01
18380,-5.96635,3.05021,1.30963,-7.1341,11.6463,-2.9878,5.69,22.48,29.17,0,S01
18400,-5.26246,2.72939,0.88825,-16.5244,-1.4024,-2.0122,6.42,22.57,29.08,0,S01
18420,-4.72376,2.12605,0.11253,-21.1585,-8.4146,-0.4268,6.42,22.57,29.08,0,S01
18440,-5.18345,1.78607,-0.30406,-24.4512,-5.2439,1.3415,6.42,22.57,29.08,0,S01
18460,-5.89931,1.83875,-0.01915,-29.8171,-0.7317,0.4878,7.52,22.39,28.90,0,S01
18480,-6.24168,1.84593,0.71347,-33.4146,-1.2805,-3.8415,7.52,22.39,28.90,0,S01
18500,-7.35738,1.76213,0.00958,-30.6098,-7.9878,-10.9756,7.52,22.39,28.90,0,S01
18520,-10.58237,2.43969,-2.57137,-27.5610,-17.0122,-8.9024,7.52,22.39,28.90,0,S01
18540,-13.49133,1.44370,-2.23379,-26.4024,-8.7805,12.9878,8.17,21.56,28.81,0,S01
18560,-15.98369,-0.41180,0.39983,-35.9756,2.5610,30.0610,8.17,21.56,28.81,0,S01
18580,-18.39944,-0.51236,1.67115,-34.1463,-2.0122,27.2561,8.17,21.56,28.81,0,S01
18600,-18.56464,1.30484,1.39582,-26.8902,-7.3171,13.2927,8.81,21.74,28.72,0,S01
18620,-17.47767,1.95367,0.98162,-24.0244,-6.6463,-2.5000,8.81,21.74,28.72,0,S01
18640,-16.33564,0.95050,1.23541,-27.3171,0.1829,-16.5244,8.81,21.74,28.72,0,S01
18660,-14.38676,-0.71587,1.62327,-29.8171,0.9756,-24.6341,10.64,22.11,29.17,0,S01
18680,-11.84412,-0.81882,0.56982,-22.8049,-6.5244,-27.8659,10.64,22.11,29.17,0,S01
18700,-9.61751,0.16281,-0.49081,-13.6585,-7.9268,-26.2195,10.64,22.11,29.17,0,S01
18720,-8.10916,1.18752,-0.77812,-9.6341,-0.7927,-19.9390,10.64,22.11,29.17,0,S01
18740,-6.97192,1.20668,-0.21069,-9.3293,9.4512,-10.9146,10.83,22.84,29.36,0,S01
18760,-5.95917,0.62249,0.39983,-11.0366,13.5366,-3.1707,10.83,22.84,29.36,0,S01
18780,-5.13317,-0.02873,0.41659,-14.3293,10.6707,2.3780,10.83,22.84,29.36,0,S01
18800,-4.84108,-0.05028,0.94332,-21.2805,9.0854,4.5732,11.10,23.49,29.27,0,S01
18820,-4.91051,0.19154,1.79565,-29.6341,5.2439,4.7561,11.10,23.49,29.27,0,S01
18840,-4.75967,-0.00958,1.52750,-32.7439,-5.9146,4.3902,11.10,23.49,29.27,0,S01
18860,-4.35745,-0.63686,0.63925,-28.1707,-16.8293,4.5732,11.19,22.75,30.00,0,S01
18880,-4.18746,-1.42934,-0.36631,-19.4512,-22.5610,6.2805,11.19,22.75,30.00,0,S01
18900,-4.51307,-1.77171,-1.20907,-13.2317,-23.8415,7.0732,11.19,22.75,30.00,0,S01
18920,-5.42287,-2.17633,-0.57221,-5.7927,-16.8902,3.8415,11.19,22.75,30.00,0,S01
18940,-6.42364,-1.90339,1.02232,6.0366,-5.9146,-4.0244,10.18,22.11,30.18,0,S01
18960,-7.52258,-1.10133,0.88825,7.9268,-3.0488,-8.3537,10.18,22.11,30.18,0,S01
18980,-9.79229,0.69432,-1.69031,3.2317,-5.3049,-10.0000,10.18,22.11,30.18,0,S01
19000,-12.89517,4.28323,-0.75178,-1.2195,6.6463,-11.0976,9.63,22.39,29.54,0,S01
19020,-16.51281,5.44920,1.47483,-5.3049,18.5976,-9.0244,9.63,22.39,29.54,0,S01
19040,-18.66998,5.07331,2.71742,-14.9390,9.3293,-2.4390,9.63,22.39,29.54,0,S01
19060,-18.56225,4.12521,1.36948,-21.6463,-11.4024,6.8902,9.82,21.93,30.00,0,S01
19080,-18.22706,4.45082,1.90100,-21.6463,-13.9634,9.0244,9.82,21.93,30.00,0,S01
19100,-16.23029,4.16112,2.16436,-15.5488,-13.2927,12.1341,9.82,21.93,30.00,0,S01
19120,-13.44105,2.82516,1.87227,-4.3293,-13.9634,23.1098,9.82,21.93,30.00,0,S01
19140,-11.35330,1.00078,0.90980,8.1707,-10.4268,31.5854,7.98,21.93,30.83,0,S01
19160,-9.84017,0.26097,0.99359,18.7805,0.9756,26.0366,7.98,21.93,30.83,0,S01
19180,-8.23605,0.06225,0.82600,27.6829,5.3659,18.6585,7.98,21.93,30.83,0,S01
19200,-6.57687,0.22745,0.53870,34.2683,5.8537,12.4390,6.15,22.66,30.92,0,S01
19220,-5.24330,0.61770,0.17478,38.6585,6.3415,7.5000,6.15,22.66,30.92,0,S01
19240,-4.55856,0.98162,-0.09337,40.3659,9.8171,4.0854,6.15,22.66,30.92,0,S01
19260,-4.53222,1.30723,0.38547,40.1220,16.8293,1.6463,4.40,23.58,30.37,0,S01
19280,-4.76925,1.45567,0.84036,37.3171,18.4756,0.3659,4.40,23.58,30.37,0,S01
19300,-5.12838,1.63285,0.83558,31.9512,16.0366,-0.3659,4.40,23.58,30.37,0,S01
19320,-5.32710,1.76932,0.59376,23.6585,12.2561,-2.9878,4.40,23.58,30.37,0,S01
19340,-5.40371,1.97282,0.37589,16.6463,6.8902,-8.3537,3.39,23.85,30.18,0,S01
19360,-5.59285,2.13084,0.43096,12.8659,-0.3659,-14.0854,3.39,23.85,30.18,0,S01
19380,-5.77721,2.31040,0.21787,7.8049,-10.3049,-17.8659,3.39,23.85,30.18,0,S01
19400,-6.04536,2.96881,0.05507,-1.3415,-16.9512,-17.5610,3.85,22.94,30.92,0,S01
19420,-5.72932,3.43568,-0.45490,-14.3293,-18.5366,-13.9634,3.85,22.94,30.92,0,S01
19440,-6.50983,3.00712,-1.58975,-22.6829,-15.6707,-10.2439,3.85,22.94,30.92,0,S01
19460,-9.33978,2.67193,-2.99515,-20.5488,-7.1951,-2.5610,3.67,22.39,31.01,0,S01
19480,-12.18409,0.80685,-1.64242,-12.3171,6.0976,15.3659,3.67,22.39,31.01,0,S01
19500,-13.74990,-0.04310,0.43574,-25.1829,5.4878,25.7927,3.67,22.39,31.01,0,S01
19520,-18.86391,-0.19154,-0.00239,-10.8537,-8.1098,20.9756,3.67,22.39,31.01,0,S01
19540,-18.67717,-0.65601,1.73580,2.9878,5.2439,15.1829,3.21,21.93,30.92,0,S01
19560,-16.26860,-0.20830,1.69749,3.8415,2.6220,-1.4024,3.21,21.93,30.92,0,S01
19580,-13.61104,0.88585,0.57940,-2.0122,-6.4634,-18.1098,3.21,21.93,30.92,0,S01
19600,-11.51850,1.55384,0.10056,-5.4878,-4.0854,-23.4146,4.04,22.39,31.38,0,S01
19620,-10.12987,1.58736,0.78290,-5.1220,5.3659,-20.3659,4.04,22.39,31.38,0,S01
19640,-9.20571,1.10373,1.45089,-0.7317,9.7561,-12.9878,4.04,22.39,31.38,0,S01
19660,-8.17620,0.06704,1.13006,3.5976,6.7073,-3.9024,3.39,23.21,31.65,0,S01
19680,-7.25922,-0.77812,0.94332,2.8049,3.8415,3.2927,3.39,23.21,31.65,0,S01
19700,-6.44040,-0.95529,1.34554,-5.4268,0.1829,5.1829,3.39,23.21,31.65,0,S01
19720,-5.60004,-0.90740,1.93212,-12.8049,-5.6098,1.7073,3.39,23.21,31.65,0,S01
19740,-4.92727,-1.13006,1.80762,-10.2439,-14.2683,-3.3537,3.30,22.75,32.29,0,S01
19760,-4.37421,-1.32399,0.79966,-1.8902,-22.8049,-5.0000,3.30,22.75,32.29,0,S01
19780,-4.40533,-1.29047,-0.35434,7.4390,-23.7805,-1.1585,3.30,22.75,32.29,0,S01
19800,-5.21697,-1.48201,-0.36152,15.3049,-13.2927,3.8415,1.65,22.20,32.84,0,S01
19820,-6.12676,-0.96726,0.54588,21.0366,-2.6829,0.6707,1.65,22.20,32.84,0,S01
19840,-6.33745,-0.55306,-0.29688,21.8902,-5.6707,-1.6463,1.65,22.20,32.84,0,S01
19860,-7.01501,-0.37828,-1.33596,14.3293,-8.9634,-3.1098,0.09,22.29,32.57,0,S01
19880,-9.20331,0.51715,-2.43490,12.8049,-11.4024,-9.7561,0.09,22.29,32.57,0,S01
19900,-13.04122,2.49236,-0.76375,18.6585,-2.9878,-19.8171,0.09,22.29,32.57,0,S01
19920,-16.51760,5.02064,1.94409,20.5488,0.2439,-22.5000,0.09,22.29,32.57,0,S01
19940,-16.94377,6.53378,1.58975,14.9390,-19.6951,-9.5732,-0.73,22.20,32.39,0,S01
19960,-16.04115,4.51307,1.11091,3.2927,-28.3537,10.4878,-0.73,22.20,32.39,0,S01
19980,-15.46176,3.17950,1.17555,-1.4634,-23.9024,19.6951,-0.73,22.20,32.39,0,S01
20000,-14.36042,3.40934,1.60651,-0.9756,-15.1220,22.6220,-1.93,21.38,33.21,0,S01
20020,-12.78983,3.55060,1.64721,1.0976,-7.1341,27.0732,-1.93,21.38,33.21,0,S01
20040,-10.87686,2.43251,1.28090,6.4024,-1.5854,32.6220,-1.93,21.38,33.21,0,S01
20060,-9.29190,1.17795,0.84994,15.3659,1.8902,31.7683,-3.94,21.38,32.94,0,S01
20080,-7.78834,0.40223,0.59376,21.5854,4.3902,28.2927,-3.94,21.38,32.94,0,S01
20100,-6.36379,0.18914,0.46448,24.8780,6.7073,25.6098,-3.94,21.38,32.94,0,S01
20120,-4.92008,0.46687,0.12929,27.6220,8.2927,21.2195,-3.94,21.38,32.94,0,S01
20140,-4.35745,1.13246,-0.17717,29.8171,12.6829,14.0854,-6.15,21.74,32.20,0,S01
20160,-4.82192,1.81480,0.24660,33.1098,20.6098,7.3171,-6.15,21.74,32.20,0,S01
20180,-5.77242,2.14520,1.40061,37.3780,26.1585,3.0488,-6.15,21.74,32.20,0,S01
20200,-6.46195,2.23618,2.36547,39.6341,21.7073,0.7317,-8.17,22.84,30.55,0,S01
20220,-6.33745,2.04465,2.14999,38.5976,7.5000,-0.6707,-8.17,22.84,30.55,0,S01
20240,-5.78439,1.90818,1.15640,35.5488,-4.8171,-2.7439,-8.17,22.84,30.55,0,S01
20260,-5.81073,1.91536,0.71587,28.5976,-9.1463,-5.4878,-9.36,22.75,30.09,0,S01
20280,-6.17704,2.42772,0.12450,19.6341,-11.6463,-8.4146,-9.36,22.75,30.09,0,S01
20300,-6.41407,3.03824,-0.64883,11.8293,-15.9756,-10.4878,-9.36,22.75,30.09,0,S01
20320,-7.27119,3.39498,-1.38864,9.6951,-22.1341,-9.6341,-9.36,22.75,30.09,0,S01
20340,-9.82820,2.76530,-2.21943,14.0244,-21.4634,1.7073,-10.37,21.93,30.28,0,S01
20360,-12.57914,0.21787,-1.58975,13.1707,-10.3049,21.0976,-10.37,21.93,30.28,0,S01
20380,-14.93982,-0.28012,-0.23942,-10.9756,-8.3537,28.3537,-10.37,21.93,30.28,0,S01
20400,-19.91736,0.25139,1.58257,-12.3171,-3.4146,27.8049,-11.38,21.38,30.00,0,S01
20420,-20.65717,-1.47962,4.03902,2.6220,-6.3415,22.5000,-11.38,21.38,30.00,0,S01
20440,-17.51359,-1.52750,4.07014,2.2561,-30.6098,-13.0488,-11.38,21.38,30.00,0,S01
20460,-13.95580,-1.23541,2.60729,4.3902,-39.5122,-48.1707,-9.17,21.83,30.73,0,S01
20480,-10.79546,0.05267,0.64883,13.1098,-35.4268,-61.0976,-9.17,21.83,30.73,0,S01
20500,-8.58561,1.81959,-1.26174,23.3537,-20.0610,-53.1707,-9.17,21.83,30.73,0,S01
20520,-8.01818,2.40857,-1.20189,25.3659,11.8293,-33.2927,-9.17,21.83,30.73,0,S01
20540,-7.88889,1.66158,0.01676,18.5976,38.9634,-13.2927,-10.92,24.22,29.08,0,S01
20560,-7.35259,0.65601,0.55306,10.0610,45.9756,0.3659,-10.92,24.22,29.08,0,S01
20580,-6.71813,-0.09337,0.64643,2.3780,42.7439,7.5610,-10.92,24.22,29.08,0,S01
20600,-6.67743,-0.75417,1.29766,1.1585,39.8171,8.6585,-11.74,25.60,27.89,0,S01
20620,-7.14909,-0.69671,2.04225,7.9268,34.5122,5.5488,-11.74,25.60,27.89,0,S01
20640,-7.35499,-0.46208,2.51152,15.3049,22.4390,2.9878,-11.74,25.60,27.89,0,S01
20660,-7.10120,-0.47405,2.45885,22.4390,6.5854,2.6220,-13.21,25.60,26.97,0,S01
20680,-6.52659,-0.66319,2.23618,29.4512,-5.0610,5.9146,-13.21,25.60,26.97,0,S01
20700,-5.95438,-1.01275,1.52750,33.1707,-12.1341,12.2561,-13.21,25.60,26.97,0,S01
20720,-5.63116,-1.16598,0.94571,35.3659,-14.1463,13.2317,-13.21,25.60,26.97,0,S01
20740,-5.43244,-1.34315,0.87149,38.5366,-13.7805,8.4756,-15.23,24.95,26.33,0,S01
20760,-6.00945,-2.06141,0.10056,41.8293,-13.0488,2.1341,-15.23,24.95,26.33,0,S01
20780,-8.32224,-2.45885,-3.56257,46.5244,-10.3049,-5.4268,-15.23,24.95,26.33,0,S01
20800,-10.76672,0.11971,-3.99592,40.1829,8.3537,-13.4146,-16.61,26.33,24.22,0,S01
20820,-12.91911,4.07972,0.26097,45.7927,34.3902,-20.8537,-16.61,26.33,24.22,0,S01
20840,-14.33648,5.64074,-0.11492,66.8293,12.9878,-14.7561,-16.61,26.33,24.22,0,S01
20860,-15.34923,4.54180,-0.04070,64.3293,-8.7195,-6.7073,-18.90,25.87,23.12,0,S01
20880,-15.58625,3.21302,0.52194,52.7439,-16.4634,-3.7195,-18.90,25.87,23.12,0,S01
20900,-14.64054,3.16035,0.53151,52.8659,-23.5976,4.0244,-18.90,25.87,23.12,0,S01
20920,-12.45703,3.42610,0.58179,57.4390,-28.9024,13.1707,-18.90,25.87,23.12,0,S01
20940,-10.06044,2.93290,0.06704,61.8902,-30.2439,19.5122,-21.74,24.68,22.39,0,S01
20960,-8.46350,2.21464,0.43814,63.9024,-22.3780,17.2561,-21.74,24.68,22.39,0,S01
20980,-5.92086,1.77650,0.03112,60.7317,-11.2195,3.4146,-21.74,24.68,22.39,0,S01
21000,-5.42766,2.46363,-0.25379,56.7683,-0.9146,2.3780,-23.85,24.77,21.28,0,S01
21020,-5.39174,3.19865,-0.03352,48.0488,12.8659,5.4268,-23.85,24.77,21.28,0,S01
21040,-5.59764,3.52666,0.61292,36.6463,25.9146,10.4878,-23.85,24.77,21.28,0,S01
21060,-5.94480,3.26330,1.47962,23.2317,33.6585,13.9024,-24.68,24.86,20.46,0,S01
21080,-6.54096,2.98318,2.09253,10.3659,31.5854,12.3780,-24.68,24.86,20.46,0,S01
21100,-7.48906,3.28484,2.44448,-1.1585,21.5244,8.1707,-24.68,24.86,20.46,0,S01
21120,-8.37013,3.51708,2.35111,-9.2683,2.6220,7.2561,-24.68,24.86,20.46,0,S01
21140,-7.80989,2.54264,1.23301,-7.6220,-24.4512,10.2439,-23.58,24.22,22.29,0,S01
21160,-7.71651,0.87628,-0.70150,0.3049,-45.5488,12.9268,-23.58,24.22,22.29,0,S01
21180,-10.43393,1.03190,-4.01268,10.4268,-56.2805,9.5732,-23.58,24.22,22.29,0,S01
21200,-14.40352,1.31202,-5.32231,14.8171,-43.0488,11.5244,-23.03,22.48,24.31,0,S01
21220,-17.55429,-0.63207,-2.54982,17.3780,-6.1585,22.4390,-23.03,22.48,24.31,0,S01
21240,-20.50634,0.56743,-1.14203,15.1220,-0.9146,35.4878,-23.03,22.48,24.31,0,S01
21260,-20.76012,1.61848,-1.30723,23.6585,-21.6463,51.5244,-24.04,20.18,24.59,0,S01
21280,-19.16558,1.93691,-2.26731,27.2561,-40.0610,41.6463,-24.04,20.18,24.59,0,S01
21300,-16.67322,2.09014,-0.71347,10.2439,-37.4390,6.4634,-24.04,20.18,24.59,0,S01
21320,-12.74912,1.30005,-0.25618,-8.7195,-45.0610,-21.7073,-24.04,20.18,24.59,0,S01
21340,-9.01178,1.55623,-1.42934,-16.6463,-52.5610,-37.4390,-21.38,21.19,26.88,0,S01
21360,-6.32069,2.31280,-2.70545,-26.2805,-42.1951,-43.0488,-21.38,21.19,26.88,0,S01
21380,-4.59208,2.19788,-3.24414,-36.4024,-11.2195,-36.8293,-21.38,21.19,26.88,0,S01
21400,-4.18267,1.41976,-1.79086,-42.6829,30.6098,-25.1829,-18.35,23.67,28.35,0,S01
21420,-4.69024,0.65601,-0.18675,-47.4390,56.6463,-13.8415,-18.35,23.67,28.35,0,S01
21440,-5.62159,0.54348,1.28808,-53.1098,60.9756,-7.5000,-18.35,23.67,28.35,0,S01
21460,-6.44998,0.33998,2.07338,-53.4146,48.6585,-4.0244,-15.41,25.60,28.62,0,S01
21480,-6.94797,0.13886,2.62165,-47.4390,31.2195,-1.4024,-15.41,25.60,28.62,0,S01
21500,-7.69018,-0.13647,2.68151,-39.6341,15.2439,2.6220,-15.41,25.60,28.62,0,S01
21520,-8.66222,-0.83079,1.77171,-30.1220,0.8537,9.0244,-15.41,25.60,28.62,0,S01
21540,-9.66779,-1.18513,1.31681,-18.1098,-4.0854,15.1220,-14.04,24.95,29.54,0,S01
21560,-10.62547,-0.75178,0.46208,-7.7439,-6.0976,21.2195,-14.04,24.95,29.54,0,S01
21580,-12.42112,-1.56581,-2.13323,5.4268,-7.7439,28.2317,-14.04,24.95,29.54,0,S01
21600,-14.58548,-1.49877,-3.92410,24.0244,0.7927,20.3049,-14.68,24.68,28.90,0,S01
21620,-15.16008,0.14844,-1.02472,33.5976,13.1098,-0.6098,-14.68,24.68,28.90,0,S01
21640,-12.92869,1.83156,-0.13886,40.6098,-5.8537,-26.7073,-14.68,24.68,28.90,0,S01
21660,-10.70208,3.68228,-1.64003,44.9390,-33.4146,-41.5854,-13.85,25.23,29.27,0,S01
21680,-9.92636,3.33991,-2.48997,43.2927,-40.6098,-34.3902,-13.85,25.23,29.27,0,S01
21700,-9.48104,1.41018,-2.76051,44.9390,-34.8780,-14.5122,-13.85,25.23,29.27,0,S01
21720,-9.89045,-0.64165,-2.13802,51.8293,-17.3171,4.2683,-13.85,25.23,29.27,0,S01
21740,-10.81940,-1.33596,-0.09098,69.1463,0.4268,10.7317,-16.06,24.86,27.98,0,S01
21760,-10.94150,-0.36152,0.19393,92.0122,-7.1951,6.1585,-16.06,24.86,27.98,0,S01
21780,-10.16817,1.01275,-0.66559,108.5976,-25.2439,1.8902,-16.06,24.86,27.98,0,S01
21800,-8.93037,1.81959,-1.53229,118.7805,-36.0366,2.9268,-19.63,23.76,25.50,0,S01
21820,-7.62074,1.52989,-2.03268,125.0000,-37.5610,7.7439,-19.63,23.76,25.50,0,S01
21840,-7.27598,0.84036,-1.95367,129.9390,-31.1585,10.4878,-19.63,23.76,25.50,0,S01
21860,-7.86495,0.99838,-1.33836,133.4146,-23.1098,9.8171,-23.39,23.12,21.74,0,S01
21880,-8.57124,1.42455,-0.59137,134.7561,-18.4146,9.2073,-23.39,23.12,21.74,0,S01
21900,-8.81545,1.60172,-0.39265,135.0610,-22.0732,8.1707,-23.39,23.12,21.74,0,S01
21920,-8.61913,1.76453,-0.45011,135.7317,-26.4634,5.9146,-23.39,23.12,21.74,0,S01
21940,-8.26718,1.83396,-0.60573,136.8902,-26.0976,4.3293,-26.42,22.48,17.43,0,S01
21960,-8.29112,2.08535,-0.05267,134.3293,-20.7317,2.2561,-26.42,22.48,17.43,0,S01
21980,-8.61194,2.06620,0.66559,124.3293,-17.3171,-0.3659,-26.42,22.48,17.43,0,S01
22000,-9.00699,2.20027,0.99359,107.1951,-20.0610,-4.5122,-27.71,22.57,14.22,0,S01
22020,-8.98065,2.53307,1.09415,87.5000,-25.6707,-8.4146,-27.71,22.57,14.22,0,S01
22040,-8.63349,2.70784,0.95768,71.2805,-30.0610,-9.6951,-27.71,22.57,14.22,0,S01
22060,-8.18578,3.03106,0.16281,55.9756,-32.1341,-7.8659,-27.98,22.57,13.49,0,S01
22080,-7.77876,1.73101,-0.67516,48.9024,-28.5976,-4.2073,-27.98,22.57,13.49,0,S01
22100,-7.73088,1.52271,-0.17238,44.9390,-18.6585,-4.1463,-27.98,22.57,13.49,0,S01
22120,-8.30788,0.78290,1.74537,40.3049,-7.1341,-3.9634,-27.98,22.57,13.49,0,S01
22140,-9.37330,-0.62010,2.49476,45.3049,-7.2561,-4.5122,-28.26,22.75,12.02,0,S01
22160,-10.69729,-1.22583,0.47884,55.3659,-20.5488,-4.6341,-28.26,22.75,12.02,0,S01
22180,-12.06678,0.85473,-1.32160,64.8781,-25.6098,0.1829,-28.26,22.75,12.02,0,S01
22200,-12.87602,3.19626,-2.12845,70.9756,-16.7683,17.3171,-29.63,21.56,9.45,0,S01
22220,-12.65814,0.81163,-1.48919,64.8781,-15.0610,32.8049,-29.63,21.56,9.45,0,S01
22240,-13.03403,-2.03986,-2.11887,60.1829,-24.7561,23.8415,-29.63,21.56,9.45,0,S01
22260,-13.20881,-1.66158,-1.66158,69.3293,-26.3415,-0.9146,-29.72,22.39,7.16,0,S01
22280,-12.32056,-0.37589,-1.62327,79.5122,-31.4634,-20.7927,-29.72,22.39,7.16,0,S01
22300,-10.94390,0.65601,-1.77171,83.5366,-37.3780,-31.0976,-29.72,22.39,7.16,0,S01
22320,-9.82341,1.15640,-2.19548,83.0488,-38.4146,-36.7683,-29.72,22.39,7.16,0,S01
22340,-8.87531,1.13485,-2.16196,78.8415,-29.9390,-41.2805,-28.90,24.50,4.40,0,S01
22360,-8.33182,1.01754,-2.16196,71.8902,-16.1585,-44.9390,-28.90,24.50,4.40,0,S01
22380,-8.04931,0.88825,-1.58975,65.6098,-0.1220,-44.1463,-28.90,24.50,4.40,0,S01
22400,-8.18338,0.58419,-0.75896,64.0244,11.5854,-37.7439,-27.98,26.33,1.10,0,S01
22420,-8.65265,0.03112,-0.31843,64.3902,13.2317,-29.9390,-27.98,26.33,1.10,0,S01
22440,-8.82024,-0.32561,-0.94332,64.0854,7.1951,-17.7439,-27.98,26.33,1.10,0,S01
22460,-8.91122,-0.21069,-0.62010,63.1098,9.6951,-13.8415,-27.43,26.97,-1.74,0,S01
22480,-8.92798,0.01676,-0.22266,60.5488,9.2073,-11.4024,-27.43,26.97,-1.74,0,S01
22500,-8.78433,0.30406,0.02155,56.9512,6.5244,-9.5122,-27.43,26.97,-1.74,0,S01
22520,-8.67659,0.53870,0.10774,52.2561,4.0854,-7.2561,-27.43,26.97,-1.74,0,S01
22540,-8.63349,0.64165,0.33040,46.9512,3.4146,-3.3537,-27.06,27.16,-4.13,0,S01
22560,-8.65743,0.62010,0.68235,40.8537,3.7805,2.0732,-27.06,27.16,-4.13,0,S01
22580,-8.66701,0.42617,0.92656,34.8780,3.8415,8.4756,-27.06,27.16,-4.13,0,S01
22600,-8.76278,-0.02155,1.07739,30.7317,3.3537,14.2073,-27.52,26.51,-5.41,0,S01
22620,-8.82503,-0.35434,0.98641,28.2927,0.4268,17.3171,-27.52,26.51,-5.41,0,S01
22640,-8.94953,-0.55067,0.50278,25.5488,-2.3171,18.2927,-27.52,26.51,-5.41,0,S01
22660,-9.18895,-0.62249,0.29209,22.7439,-0.7317,16.6463,-27.89,25.60,-6.42,0,S01
22680,-9.73722,-1.03430,0.64643,23.0488,1.7683,13.3537,-27.89,25.60,-6.42,0,S01
22700,-10.33098,-1.40779,1.62566,22.9268,1.5244,8.7195,-27.89,25.60,-6.42,0,S01
22720,-10.86968,-1.18034,2.22661,22.0122,-1.0976,2.8659,-27.89,25.60,-6.42,0,S01
22740,-11.33894,-0.80445,1.61848,18.9024,-4.6341,-2.9878,-27.52,25.78,-7.34,0,S01
22760,-11.69328,-0.59616,0.39025,18.7195,-4.8171,-4.7561,-27.52,25.78,-7.34,0,S01
22780,-12.13860,-1.23301,-0.69671,20.9146,0.1829,-3.1707,-27.52,25.78,-7.34,0,S01
22800,-12.65336,-2.32716,-2.12605,24.7561,1.4024,-6.3415,-27.34,26.24,-8.35,0,S01
22820,-11.98537,-0.73023,-2.29604,36.6463,-2.1341,-19.7561,-27.34,26.24,-8.35,0,S01
22840,-10.27112,1.46525,-2.69348,46.4024,-12.6220,-31.2805,-27.34,26.24,-8.35,0,S01
22860,-8.56167,3.32315,-3.19626,48.0488,-19.5122,-31.6463,-25.41,27.71,-9.63,0,S01
22880,-7.97987,3.61764,-2.35589,42.0122,-13.3537,-20.6098,-25.41,27.71,-9.63,0,S01
22900,-8.62391,2.39660,-1.40779,39.0854,-7.8049,-3.7195,-25.41,27.71,-9.63,0,S01
22920,-9.50977,0.35434,-1.21865,44.7561,-10.6098,13.1098,-25.41,27.71,-9.63,0,S01
22940,-9.91439,-1.13964,-1.63285,55.1220,-15.9146,21.0976,-25.78,26.88,-11.10,0,S01
22960,-10.00297,-0.76854,-1.44610,67.6829,-15.3659,17.8049,-25.78,26.88,-11.10,0,S01
22980,-9.72285,0.36871,-1.37906,79.5732,-14.8171,12.3780,-25.78,26.88,-11.10,0,S01
23000,-8.96629,1.29287,-1.73340,87.6829,-16.0366,11.2195,-24.31,26.70,-14.22,0,S01
23020,-8.26957,1.82917,-2.19788,91.0366,-14.5122,12.9878,-24.31,26.70,-14.22,0,S01
23040,-8.22408,1.94649,-1.91297,89.0244,-6.2195,15.2439,-24.31,26.70,-14.22,0,S01
23060,-8.78672,1.93212,-1.34315,84.8781,2.0122,16.5244,-22.94,25.96,-17.34,0,S01
23080,-9.28711,1.83875,-0.91698,79.2073,4.2683,17.0732,-22.94,25.96,-17.34,0,S01
23100,-9.40442,1.68552,-0.56743,73.6585,2.5000,17.1341,-22.94,25.96,-17.34,0,S01
23120,-9.30147,1.50835,-0.25139,71.0366,-0.4268,16.5854,-22.94,25.96,-17.34,0,S01
23140,-9.15543,1.36948,-0.05507,70.2439,-3.1707,15.0000,-21.65,25.14,-19.63,0,S01
23160,-9.04769,1.22344,0.06943,68.5976,-5.3049,12.9878,-21.65,25.14,-19.63,0,S01
23180,-8.99980,1.20668,0.19393,66.1585,-8.1098,10.5488,-21.65,25.14,-19.63,0,S01
23200,-8.92319,1.24738,0.18914,64.6341,-11.2805,8.6585,-19.91,24.95,-21.38,0,S01
23220,-8.87291,1.25217,0.18196,63.4146,-12.6220,7.5000,-19.91,24.95,-21.38,0,S01
23240,-9.04290,1.35751,0.57940,60.6707,-12.4390,5.6707,-19.91,24.95,-21.38,0,S01
23260,-9.29190,1.81959,0.94571,56.4024,-14.8171,3.4756,-18.17,25.41,-22.75,0,S01
23280,-9.55765,2.50912,1.07500,49.8781,-20.1829,2.3171,-18.17,25.41,-22.75,0,S01
23300,-9.66060,2.87304,1.08697,43.2317,-26.4634,3.4756,-18.17,25.41,-22.75,0,S01
23320,-9.49301,2.71502,0.86431,40.2439,-32.0122,6.7073,-18.17,25.41,-22.75,0,S01
23340,-9.07881,2.38941,0.51475,39.3293,-32.9878,9.2683,-16.79,26.06,-22.29,0,S01
23360,-8.65025,2.04944,0.31843,37.7439,-27.9878,10.1220,-16.79,26.06,-22.29,0,S01
23380,-8.47787,2.11647,0.35674,34.8171,-18.7805,9.9390,-16.79,26.06,-22.29,0,S01
23400,-8.56167,2.14760,0.84276,29.6951,-8.9634,10.9756,-15.69,25.69,-22.94,0,S01
23420,-8.89207,1.90578,1.49159,29.6951,-2.1951,13.9634,-15.69,25.69,-22.94,0,S01
23440,-9.54329,1.23541,1.72143,37.0122,0.0000,16.5244,-15.69,25.69,-22.94,0,S01
23460,-10.76433,0.54109,0.32082,49.7561,-3.1707,15.5488,-13.67,25.23,-24.40,0,S01
23480,-12.48337,1.59933,-1.30963,62.0732,-6.5244,14.2683,-13.67,25.23,-24.40,0,S01
23500,-12.67490,2.22900,-1.70946,58.4146,-12.2561,17.5610,-13.67,25.23,-24.40,0,S01
23520,-11.96383,2.75812,-3.97677,50.8537,-27.1341,21.1585,-13.67,25.23,-24.40,0,S01
23540,-10.78588,0.63686,-3.65595,45.1829,-27.5000,26.8902,-12.66,25.60,-24.50,0,S01
23560,-9.98622,-1.70467,-2.94247,50.9756,-23.5976,23.5366,-12.66,25.60,-24.50,0,S01
23580,-10.01495,-1.54665,-2.77727,62.8659,-26.5244,8.9024,-12.66,25.60,-24.50,0,S01
23600,-10.32140,-0.30646,-1.90578,70.0000,-26.5854,-4.1463,-9.27,26.79,-25.32,0,S01
23620,-10.33338,0.28252,-1.10373,72.6829,-27.7439,-10.9756,-9.27,26.79,-25.32,0,S01
23640,-9.74201,0.43814,-1.37427,67.5000,-33.1098,-17.7439,-9.27,26.79,-25.32,0,S01
23660,-8.94474,0.83797,-2.06620,58.7805,-32.0122,-26.0976,-5.87,28.44,-25.78,0,S01
23680,-8.43477,1.43652,-1.42455,52.2561,-17.2561,-32.8049,-5.87,28.44,-25.78,0,S01
23700,-8.13310,1.84114,-0.42377,48.7195,-4.5122,-33.7805,-5.87,28.44,-25.78,0,S01
23720,-8.05409,1.66876,0.21308,45.1220,-2.1341,-29.2073,-5.87,28.44,-25.78,0,S01
23740,-8.19535,1.01993,0.03112,41.2805,-4.9390,-21.6463,-3.39,28.81,-26.42,0,S01
23760,-8.48026,0.54109,-0.26576,36.5244,-4.4512,-14.6341,-3.39,28.81,-26.42,0,S01
23780,-8.84179,0.24900,-0.16520,31.0366,-0.7317,-9.2683,-3.39,28.81,-26.42,0,S01
23800,-9.15303,0.12689,0.39504,27.5000,1.0366,-6.1585,-2.11,28.90,-26.61,0,S01
23820,-9.18416,0.12689,0.73263,27.0732,-3.0488,-4.8780,-2.11,28.90,-26.61,0,S01
23840,-9.00699,0.09098,1.00556,26.7683,-9.0854,-2.9878,-2.11,28.90,-26.61,0,S01
23860,-8.86812,0.17238,1.07979,25.4268,-14.6951,0.3049,-1.19,29.45,-25.96,0,S01
23880,-8.81066,0.27773,1.17316,22.0122,-20.5488,4.5732,-1.19,29.45,-25.96,0,S01
23900,-7.64469,0.94810,1.29047,15.2439,-32.8049,11.4024,-1.19,29.45,-25.96,0,S01
23920,-6.72531,1.00556,0.93853,12.8659,-36.1585,17.1341,-1.19,29.45,-25.96,0,S01
23940,-6.43561,0.42617,0.60334,12.0122,-32.5000,22.6829,-1.28,30.18,-24.40,0,S01
23960,-6.78996,-0.20111,0.82361,13.9634,-22.9268,21.9512,-1.28,30.18,-24.40,0,S01
23980,-7.12275,-0.64643,0.62968,18.8415,-16.4024,18.1098,-1.28,30.18,-24.40,0,S01
24000,-7.39329,-0.73981,0.27054,21.0976,-10.9756,12.8659,-0.92,30.09,-23.85,0,S01
24020,-7.57047,-0.19872,0.34716,20.2439,-4.8171,6.5244,-0.92,30.09,-23.85,0,S01
24040,-7.52498,0.91459,0.80924,16.6463,-1.0366,1.4634,-0.92,30.09,-23.85,0,S01
24060,-7.15866,1.73819,0.99838,9.0854,-2.7439,-0.4878,-0.28,29.82,-23.67,0,S01
24080,-6.67264,1.61369,0.78769,0.4878,-5.9756,1.1585,-0.28,29.82,-23.67,0,S01
24100,-6.70616,0.93134,0.65122,-8.1707,-5.0000,4.9390,-0.28,29.82,-23.67,0,S01
24120,-7.52498,-0.45729,-0.05507,-16.4634,-3.4146,7.9268,-0.28,29.82,-23.67,0,S01
24140,-9.42118,-1.88903,-2.79164,-22.6829,-6.4024,4.5732,-1.10,29.72,-22.84,0,S01
24160,-12.34211,-0.97923,-2.83474,-21.2195,5.2439,-8.5976,-1.10,29.72,-22.84,0,S01
24180,-15.34683,2.06141,0.08859,-9.3902,17.9878,-19.9390,-1.10,29.72,-22.84,0,S01
24200,-17.10178,3.83791,0.71826,3.7195,2.1951,-15.9756,0.46,29.27,-22.84,0,S01
24220,-17.27417,3.50272,-1.03430,19.2073,-25.9146,-7.6829,0.46,29.27,-22.84,0,S01
24240,-17.31965,3.16274,-0.16041,21.2805,-26.4024,-7.8659,0.46,29.27,-22.84,0,S01
24260,-15.74666,3.61764,0.82121,27.8659,-25.0000,-6.0976,1.56,30.18,-22.02,0,S01
24280,-13.01249,2.87544,0.63446,35.0610,-32.5000,5.3049,1.56,30.18,-22.02,0,S01
24300,-10.38365,1.75495,0.22984,42.8049,-33.4146,13.1098,1.56,30.18,-22.02,0,S01
24320,-7.97030,0.84515,-0.30646,49.3293,-26.3415,12.9268,1.56,30.18,-22.02,0,S01
24340,-6.24647,0.56503,-0.29928,50.9146,-14.8171,9.0244,2.48,30.46,-21.28,0,S01
24360,-5.31513,1.05584,-0.12210,52.3171,-3.9634,4.0854,2.48,30.46,-21.28,0,S01
24380,-5.26006,1.42694,-0.06704,55.9756,3.4146,0.9146,2.48,30.46,-21.28,0,S01
24400,-6.33506,1.48201,0.53151,59.5732,10.6098,-1.2805,4.31,29.72,-22.11,0,S01
24420,-8.06128,1.47722,1.58257,61.7683,12.8659,-3.5366,4.31,29.72,-22.11,0,S01
24440,-9.38767,1.79805,2.07577,57.8049,3.7195,-6.4024,4.31,29.72,-22.11,0,S01
24460,-9.34936,2.42772,2.03747,48.1098,-12.0732,-7.8659,6.33,30.09,-21.65,0,S01
24480,-8.25521,2.48279,1.66636,41.4024,-25.3659,-6.6463,6.33,30.09,-21.65,0,S01
24500,-7.06529,2.27689,1.34315,35.6707,-31.9512,-8.4756,6.33,30.09,-21.65,0,S01
24520,-5.98072,2.81319,1.04387,28.6585,-32.8659,-13.3537,6.33,30.09,-21.65,0,S01
24540,-5.02543,3.29682,0.27773,17.9268,-29.7561,-15.1220,7.80,30.83,-20.37,0,S01
24560,-4.89854,3.68707,0.53391,1.8293,-18.1098,-16.1585,7.80,30.83,-20.37,0,S01
24580,-5.67186,3.74214,1.41976,-16.7683,-5.9146,-16.2805,7.80,30.83,-20.37,0,S01
24600,-6.49307,3.18908,1.59933,-36.7683,-0.3659,-17.0122,7.98,30.37,-19.82,0,S01
24620,-7.04614,2.10211,1.48680,-51.0366,4.5732,-19.7561,7.98,30.37,-19.82,0,S01
24640,-7.56328,1.16837,1.28090,-52.5000,11.1585,-25.3049,7.98,30.37,-19.82,0,S01
24660,-8.06846,0.64165,0.70629,-45.2439,12.4390,-30.2439,8.62,30.09,-19.82,0,S01
24680,-8.48026,0.66319,-0.60573,-41.8293,4.8780,-28.6585,8.62,30.09,-19.82,0,S01
24700,-9.68215,1.19471,-2.31280,-43.9634,0.4268,-16.5854,8.62,30.09,-19.82,0,S01
24720,-11.61667,1.48680,-1.92254,-44.3293,6.8902,-4.0244,8.62,30.09,-19.82,0,S01
24740,-14.13776,0.87149,-0.38786,-46.5244,10.6707,3.8415,7.80,29.72,-19.82,0,S01
24760,-16.29015,-1.25935,1.18034,-50.7927,6.9512,13.2317,7.80,29.72,-19.82,0,S01
24780,-16.36676,-1.28808,1.11570,-40.4268,-9.1463,13.2927,7.80,29.72,-19.82,0,S01
24800,-16.06749,-0.12929,0.08619,-18.7195,-15.2439,4.5732,7.52,30.09,-19.08,0,S01
24820,-15.60301,0.11732,0.93613,-4.3293,-7.1341,-5.4268,7.52,30.09,-19.08,0,S01
24840,-14.58787,0.21308,1.75495,-1.6463,-6.4024,-19.0244,7.52,30.09,-19.08,0,S01
24860,-12.42830,0.44053,1.57299,-6.7683,-16.9512,-31.2805,9.08,30.46,-18.62,0,S01
24880,-9.87369,0.93613,0.98641,-13.4146,-24.0244,-38.4146,9.08,30.46,-18.62,0,S01
24900,-7.98227,1.58017,0.19872,-18.7195,-23.6585,-38.7195,9.08,30.46,-18.62,0,S01
24920,-6.87615,1.75256,-0.06704,-22.0732,-14.5732,-30.6098,9.08,30.46,-18.62,0,S01
24940,-6.46195,1.12049,0.37110,-23.9634,-0.3659,-17.1951,9.45,30.18,-18.17,0,S01
24960,-6.30633,-0.08619,0.91937,-24.2073,10.9756,-3.8415,9.45,30.18,-18.17,0,S01
24980,-6.30393,-0.98402,1.12049,-21.4634,17.1951,6.7683,9.45,30.18,-18.17,0,S01
25000,-6.72292,-1.12288,1.64242,-19.3293,20.4878,14.9390,8.44,29.45,-18.62,0,S01
25020,-7.35020,-0.84994,2.64799,-21.2805,19.0244,20.9146,8.44,29.45,-18.62,0,S01
25040,-7.53695,-0.58179,3.17950,-21.8902,7.9878,24.2683,8.44,29.45,-18.62,0,S01
25060,-7.03177,-0.79248,2.58095,-19.0244,-10.7927,26.5854,7.34,29.54,-17.89,0,S01
25080,-6.39252,-0.85712,2.20985,-15.0610,-23.5976,26.6463,7.34,29.54,-17.89,0,S01
25100,-5.61201,-1.60651,1.66397,-8.2927,-29.8171,23.9634,7.34,29.54,-17.89,0,S01
25120,-5.45160,-2.95205,-0.08140,4.8171,-30.7927,15.9756,7.34,29.54,-17.89,0,S01
25140,-5.83228,-3.32794,-0.56743,20.6707,-17.8659,-0.6707,8.35,29.36,-16.88,0,S01
25160,-6.71095,-2.01113,0.58658,27.9878,0.5488,-19.0854,8.35,29.36,-16.88,0,S01
25180,-7.43160,1.56820,1.98000,21.0366,8.6585,-31.2805,8.35,29.36,-16.88,0,S01
25200,-7.66623,4.83389,2.03986,3.4146,1.6463,-24.7561,9.91,28.99,-16.70,0,S01
25220,-8.27915,4.69742,1.29287,-25.7927,-2.3171,-0.3049,9.91,28.99,-16.70,0,S01
25240,-11.33654,1.81002,-1.42455,-46.9512,4.4512,18.7805,9.91,28.99,-16.70,0,S01
25260,-15.55992,-0.68714,0.63925,-55.7317,20.4878,14.4512,9.17,28.35,-16.88,0,S01
25280,-16.89109,2.13802,1.88663,-37.5610,15.1829,-8.3537,9.17,28.35,-16.88,0,S01
25300,-16.84560,2.96163,0.01676,-17.1951,-9.3293,-8.8415,9.17,28.35,-16.88,0,S01
25320,-17.46570,4.62799,0.79248,-13.1707,-11.5244,-4.4512,9.17,28.35,-16.88,0,S01
25340,-16.17523,5.50906,1.79326,-16.6463,-13.2317,4.1463,8.99,28.62,-16.42,0,S01
25360,-13.59667,5.38935,1.43892,-19.0244,-19.9390,13.4146,8.99,28.62,-16.42,0,S01
25380,-9.88087,1.61130,0.59376,-24.8780,-8.0488,19.7561,8.99,28.62,-16.42,0,S01
25400,-8.55209,-0.28012,0.69671,-19.1463,4.6341,14.7561,7.61,28.53,-15.87,0,S01
25420,-7.45794,-0.37589,0.71347,-9.6341,15.6707,7.9878,7.61,28.53,-15.87,0,S01
25440,-6.53138,0.79727,0.41899,-0.9756,24.8780,4.8171,7.61,28.53,-15.87,0,S01
25460,-6.21056,2.14520,0.03831,4.5732,32.1341,5.0000,7.89,27.61,-17.06,0,S01
25480,-6.57927,2.47560,0.49799,4.5122,40.7317,6.4634,7.89,27.61,-17.06,0,S01
25500,-7.18979,2.71024,1.09894,0.0610,44.9390,5.2439,7.89,27.61,-17.06,0,S01
25520,-7.84819,2.63602,1.74537,-8.1707,42.5000,3.4146,7.89,27.61,-17.06,0,S01
25540,-8.31506,2.09014,2.37265,-15.9146,32.7439,2.8659,7.71,26.61,-18.53,0,S01
25560,-8.29830,1.37906,2.58574,-18.0488,17.1951,3.7195,7.71,26.61,-18.53,0,S01
25580,-7.68778,1.20428,2.60250,-18.8415,1.8902,3.9634,7.71,26.61,-18.53,0,S01
25600,-6.40210,1.35512,2.24337,-21.4634,-11.7073,4.0854,7.52,26.88,-18.17,0,S01
25620,-5.03501,1.50835,1.76932,-21.5244,-19.4512,4.0244,7.52,26.88,-18.17,0,S01
25640,-3.92889,1.67115,1.00317,-20.1220,-20.3049,3.3537,7.52,26.88,-18.17,0,S01
25660,-3.50990,1.64960,0.68953,-21.0366,-14.1463,2.0732,7.43,27.16,-17.34,0,S01
25680,-3.57454,1.78368,0.76854,-26.5244,-6.2195,-1.5244,7.43,27.16,-17.34,0,S01
25700,-4.34069,1.99437,0.90980,-31.0976,0.1220,-6.4634,7.43,27.16,-17.34,0,S01
25720,-6.36618,1.88903,0.03831,-30.8537,1.2805,-11.9512,7.43,27.16,-17.34,0,S01
25740,-10.78348,3.30400,-2.99275,-29.5122,-4.4512,-11.1585,7.89,27.16,-17.25,0,S01
25760,-14.73871,2.24816,-4.24013,-22.1951,-1.8293,12.2561,7.89,27.16,-17.25,0,S01
25780,-17.01080,-1.45807,-0.03112,-27.8049,14.5732,36.0366,7.89,27.16,-17.25,0,S01
25800,-19.12967,-2.65517,1.87466,-31.9512,0.6707,32.6220,6.33,26.97,-17.34,0,S01
25820,-18.28212,-0.68235,1.13006,-23.7195,-21.4024,19.5122,6.33,26.97,-17.34,0,S01
25840,-16.02439,0.68953,0.92895,-16.9512,-22.8049,6.5854,6.33,26.97,-17.34,0,S01
25860,-14.04199,0.76854,0.66559,-21.0976,-15.8537,-8.9024,7.98,27.89,-17.52,0,S01
25880,-12.80659,0.69192,0.97683,-27.6220,-10.7317,-24.7561,7.98,27.89,-17.52,0,S01
25900,-11.59512,0.39504,1.36230,-31.7073,-5.4878,-33.2317,7.98,27.89,-17.52,0,S01
25920,-10.43154,0.53630,1.58975,-28.2317,-3.1707,-33.6585,7.98,27.89,-17.52,0,S01
25940,-9.15782,0.79009,1.43413,-22.9878,-3.8415,-27.9268,7.98,27.98,-16.79,0,S01
25960,-7.85298,0.74220,1.22583,-21.5854,-1.9512,-17.6829,7.98,27.98,-16.79,0,S01
25980,-6.82587,0.53870,0.89543,-22.7439,3.3537,-7.5000,7.98,27.98,-16.79,0,S01
26000,-6.26084,-0.03352,0.76614,-24.8171,10.4878,2.1341,7.43,27.61,-17.25,0,S01
26020,-6.61757,-0.11253,1.41976,-27.6829,17.9878,9.6341,7.43,27.61,-17.25,0,S01
26040,-7.27119,0.05507,2.64799,-31.1585,19.8780,15.8537,7.43,27.61,-17.25,0,S01
26060,-7.09881,-0.29928,2.69348,-31.0366,8.7805,19.3902,6.33,27.43,-17.43,0,S01
26080,-6.15070,-1.04627,1.57538,-25.6707,-8.8415,18.5976,6.33,27.43,-17.43,0,S01
26100,-5.42287,-1.29047,0.68235,-20.2439,-16.9512,16.0366,6.33,27.43,-17.43,0,S01
26120,-5.30076,-1.33118,0.90261,-17.3780,-15.9756,14.8171,6.33,27.43,-17.43,0,S01
26140,-5.42526,-2.06620,0.80206,-6.1585,-16.1585,11.5244,6.24,27.61,-16.51,0,S01
26160,-5.83706,-2.33914,0.20830,14.0854,-16.5244,3.9024,6.24,27.61,-16.51,0,S01
26180,-6.33745,-1.35272,0.22266,24.0244,-11.8902,-4.2683,6.24,27.61,-16.51,0,S01
26200,-6.61997,0.45011,0.75657,21.1585,-6.4024,-6.9512,7.98,27.43,-16.88,0,S01
26220,-6.86896,1.53468,0.01915,13.6585,-10.2439,-0.7927,7.98,27.43,-16.88,0,S01
26240,-9.29429,2.02071,-2.31280,10.4878,-8.3537,5.4268,7.98,27.43,-16.88,0,S01
26260,-14.20240,1.86987,-1.71904,-0.9146,12.9268,2.3171,8.53,26.97,-17.71,0,S01
26280,-18.37071,4.13000,2.98796,-14.4512,22.0122,-3.1707,8.53,26.97,-17.71,0,S01
26300,-16.90067,5.70538,1.76932,-15.2439,-6.9512,6.9512,8.53,26.97,-17.71,0,S01
26320,-15.19839,3.55539,0.72065,-17.5000,-20.0000,22.5000,8.53,27.43,-17.25,0,S01
26340,-15.84962,2.06859,2.09014,-25.6098,-7.9268,24.4512,7.61,27.43,-17.25,0,S01
26360,-15.29177,3.19387,3.01430,-27.1341,-2.5610,19.0854,7.61,27.43,-17.25,0,S01
26380,-13.03882,2.95684,2.58095,-19.1463,-3.5976,20.2439,7.61,27.43,-17.25,0,S01
26400,-10.54167,1.62806,1.31921,-2.8049,0.3049,22.9878,6.79,27.43,-17.80,0,S01
26420,-8.89446,0.70390,0.88107,10.2439,11.8293,19.8171,6.79,27.43,-17.80,0,S01
26440,-7.67821,0.64643,0.65841,19.7561,18.1707,16.2805,6.79,27.43,-17.80,0,S01
26460,-6.54575,1.10852,0.32561,24.2683,19.2073,15.1220,7.16,26.70,-18.72,0,S01
26480,-5.60004,1.44849,0.41180,21.4634,21.3415,13.9024,7.16,26.70,-18.72,0,S01
26500,-5.01106,1.41258,0.34716,18.3537,24.8780,11.6463,7.16,26.70,-18.72,0,S01
26520,-5.31752,1.48919,0.31843,14.9390,31.0366,7.5610,7.61,25.96,-20.46,0,S01
26540,-6.31830,1.41018,0.86191,9.5732,37.9878,2.5000,7.61,25.96,-20.46,0,S01
26560,-7.34781,1.86029,1.72861,3.2927,39.0244,-4.7561,7.61,25.96,-20.46,0,S01
26580,-7.38851,2.79164,2.15718,-2.1341,28.1098,-10.0610,7.61,25.96,-20.46,0,S01
26600,-6.42364,2.74854,2.03028,-6.5244,12.6829,-7.7439,7.98,25.87,-21.38,0,S01
26620,-5.34625,1.80283,1.74537,-8.4146,2.2561,-2.0732,7.98,25.87,-21.38,0,S01
26640,-4.88657,1.12527,0.54588,-10.4268,-4.2073,-0.7927,7.98,25.87,-21.38,0,S01
26660,-5.05895,0.91219,-0.03831,-15.6098,-4.0854,-3.7195,8.07,26.42,-21.65,0,S01
26680,-5.37977,1.67355,-0.21548,-23.1707,-3.3537,-10.5488,8.07,26.42,-21.65,0,S01
26700,-5.67665,2.53307,-0.58179,-30.7317,-4.8780,-15.7927,8.07,26.42,-21.65,0,S01
26720,-8.37013,3.58412,-2.38702,-32.6829,-8.7195,-12.6829,6.88,26.88,-21.83,0,S01
26740,-12.55280,3.37822,-3.99113,-32.9878,-6.5854,11.5854,6.88,26.88,-21.83,0,S01
26760,-14.60463,-0.43814,0.12450,-34.4512,7.2561,43.1098,6.88,26.88,-21.83,0,S01
26780,-18.06665,-2.20745,2.19548,-37.3171,-9.6341,41.0366,6.88,26.88,-21.83,0,S01
26800,-21.44247,-1.99676,1.46765,-17.5610,-25.9756,26.0976,6.06,27.89,-21.56,0,S01
26820,-19.60851,-1.22344,1.79086,-2.1341,-25.1829,5.0000,6.06,27.89,-21.56,0,S01
26840,-12.71082,1.13246,0.10056,0.8537,-27.5610,-47.5000,6.06,27.89,-21.56,0,S01
26860,-10.83137,2.14520,-0.38068,-3.6585,-18.4756,-54.3902,9.91,28.81,-21.74,0,S01
26880,-9.45470,2.27928,0.27533,-10.2439,-7.4390,-45.3049,9.91,28.81,-21.74,0,S01
26900,-8.58321,1.60172,0.66559,-14.1463,-1.7073,-32.5000,9.91,28.81,-21.74,0,S01
26920,-7.57286,0.65841,0.66319,-14.5732,0.0610,-20.4268,8.72,28.90,-21.74,0,S01
26940,-6.47632,-0.02155,0.37828,-12.1951,3.1707,-9.9390,8.72,28.90,-21.74,0,S01
26960,-5.99987,-0.35674,0.42617,-9.1463,10.9756,-0.8537,8.72,28.90,-21.74,0,S01
26980,-6.36379,-0.49081,1.30245,-6.2805,20.9146,8.1098,8.72,28.90,-21.74,0,S01
27000,-6.85460,-0.43335,2.09493,-4.9390,23.7195,15.7317,8.07,28.17,-22.75,0,S01
27020,-6.80911,-0.56503,1.88903,-6.4024,15.3049,19.3293,8.07,28.17,-22.75,0,S01
27040,-6.13873,-0.80206,1.04627,-6.7683,2.9878,17.5000,8.07,28.17,-22.75,0,S01
27060,-5.24809,-1.04627,0.76136,-5.6707,-5.4268,11.6463,7.61,28.53,-23.03,0,S01
27080,-4.77404,-1.27372,0.68235,-1.7683,-11.1585,4.5732,7.61,28.53,-23.03,0,S01
27100,-4.85784,-2.04944,0.25379,6.0976,-17.4390,0.6098,7.61,28.53,-23.03,0,S01
27120,-5.30076,-2.85628,-0.86431,19.1463,-20.9146,-2.3780,9.08,29.17,-22.94,0,S01
27140,-5.84425,-2.52588,-0.77572,29.1463,-14.3293,-9.0854,9.08,29.17,-22.94,0,S01
27160,-6.76601,-1.11570,-0.79248,28.0488,-6.1585,-13.4146,9.08,29.17,-22.94,0,S01
27180,-8.66940,1.08697,-1.60651,16.6463,-3.8415,-11.8902,9.08,29.17,-22.94,0,S01
27200,-11.93988,3.83072,-0.74699,7.6829,6.1585,-5.3049,10.55,29.27,-24.04,0,S01
27220,-15.50006,4.01986,2.05183,10.0000,18.1707,1.2805,10.55,29.27,-24.04,0,S01
27240,-17.96130,5.01346,3.02867,1.6463,3.8415,0.7317,10.55,29.27,-24.04,0,S01
27260,-18.06665,4.30956,1.35512,-6.2195,-20.9756,4.3902,10.64,30.00,-24.68,0,S01
27280,-18.42099,4.14915,1.17795,-8.1707,-20.9146,4.8780,10.64,30.00,-24.68,0,S01
27300,-16.81448,4.48913,1.86987,-7.2561,-12.9268,9.3293,10.64,30.00,-24.68,0,S01
27320,-13.52963,4.11324,1.51314,-3.2927,-12.9878,23.5976,8.99,30.37,-24.22,0,S01
27340,-10.64223,2.49955,0.30646,2.3780,-13.0488,39.8171,8.99,30.37,-24.22,0,S01
27360,-9.11233,0.40462,0.62249,6.2805,0.1829,39.2073,8.99,30.37,-24.22,0,S01
27380,-8.30788,-0.89783,1.10852,12.8049,9.8780,24.6341,8.99,30.37,-24.22,0,S01
27400,-7.26401,-1.26653,1.16358,24.0854,10.0610,10.4268,8.90,29.91,-24.95,0,S01
27420,-5.85382,-0.82121,0.99120,33.5366,6.2805,-0.0610,8.90,29.91,-24.95,0,S01
27440,-4.87938,0.09816,1.20428,39.6341,5.1220,-7.3780,8.90,29.91,-24.95,0,S01
27460,-4.79798,0.75896,1.62806,45.7927,6.8293,-9.6951,11.01,30.00,-25.69,0,S01
27480,-4.65433,1.02951,1.46525,52.0732,4.6951,-8.3537,11.01,30.00,-25.69,0,S01
27500,-4.22816,1.06542,0.86431,55.0000,-2.1341,-5.4878,11.01,30.00,-25.69,0,S01
27520,-3.79242,0.92656,0.73263,52.3781,-6.4634,-3.0488,12.66,30.37,-25.78,0,S01
27540,-3.63440,0.90980,0.47884,45.9146,-10.7317,-3.5976,12.66,30.37,-25.78,0,S01
27560,-3.93846,1.41737,-0.26336,39.6341,-15.1220,-8.7195,12.66,30.37,-25.78,0,S01
27580,-4.37421,2.32477,-1.03190,32.8049,-14.6951,-16.2195,12.66,30.37,-25.78,0,S01
27600,-4.98952,2.66475,-1.68552,27.7439,-12.1951,-22.2561,14.22,30.92,-25.69,0,S01
27620,-7.42921,2.39899,-2.71981,24.6951,-13.1707,-24.8171,14.22,30.92,-25.69,0,S01
27640,-11.27669,2.35350,-3.49075,14.2073,-9.5122,-14.4512,14.22,30.92,-25.69,0,S01
27660,-14.93982,3.26090,-0.81882,-17.3171,6.5244,7.9268,12.66,30.64,-26.33,0,S01
27680,-19.01714,1.41976,2.95444,-34.0244,11.7683,32.0732,12.66,30.64,-26.33,0,S01
27700,-21.04503,-0.80206,3.11246,-26.3415,-0.9756,38.4756,12.66,30.64,-26.33,0,S01
27720,-19.70667,-0.05746,1.84354,-21.7683,-17.8659,16.3415,13.49,31.47,-25.69,0,S01
27740,-16.82166,0.08380,1.77171,-19.4512,-22.9268,-14.0854,13.49,31.47,-25.69,0,S01
27760,-13.34289,-0.60573,1.42455,-22.6829,-25.2439,-40.0610,13.49,31.47,-25.69,0,S01
27780,-9.86411,-0.28491,0.76375,-22.5610,-24.4512,-55.7927,13.49,31.47,-25.69,0,S01
27800,-7.17542,1.01754,-0.60573,-16.3415,-16.3415,-56.5244,14.40,31.74,-25.60,0,S01
27820,-6.12197,2.10450,-0.56743,-17.2561,4.9390,-43.6585,14.40,31.74,-25.60,0,S01
27840,-6.50265,2.23618,1.09654,-27.6220,27.9878,-23.4146,14.40,31.74,-25.60,0,S01
27860,-6.88812,1.36948,2.81558,-39.8780,35.1220,-5.7317,11.83,30.46,-26.51,0,S01
27880,-6.77799,0.25379,3.04542,-48.3537,21.4024,4.5732,11.83,30.46,-26.51,0,S01
27900,-5.91847,-0.68235,2.70305,-53.4146,4.0244,10.1829,11.83,30.46,-26.51,0,S01
27920,-5.04458,-1.00796,2.24576,-53.2317,-6.9512,13.4756,9.36,30.64,-25.23,0,S01
27940,-4.41970,-1.62806,1.17076,-46.2805,-14.3902,18.0488,9.36,30.64,-25.23,0,S01
27960,-4.40533,-2.08296,-0.18435,-35.3049,-18.2317,22.2561,9.36,30.64,-25.23,0,S01
27980,-4.61602,-1.91297,-1.17795,-23.9024,-12.6829,21.2195,9.36,30.64,-25.23,0,S01
28000,-5.64074,-1.85072,-1.80523,-10.8537,-0.2439,15.4878,8.26,29.82,-24.77,0,S01
28020,-8.11634,-2.53785,-4.08690,-1.0366,9.8171,5.4268,8.26,29.82,-24.77,0,S01
28040,-12.04762,0.46926,-2.43730,1.7073,28.5976,-13.2317,8.26,29.82,-24.77,0,S01
28060,-15.01883,3.83551,0.79248,8.2927,30.0610,-20.0000,10.00,28.44,-25.32,0,S01
28080,-17.54710,4.50349,0.53630,22.3780,4.6341,-8.9024,10.00,28.44,-25.32,0,S01
28100,-20.18551,4.05578,2.14520,13.9634,-8.2927,2.3780,10.00,28.44,-25.32,0,S01
28120,-19.69710,4.97755,2.31519,1.8902,-27.4390,5.7927,9.54,29.54,-23.58,0,S01
28140,-16.80251,5.20499,1.92973,1.4024,-41.6463,9.0244,9.54,29.54,-23.58,0,S01
28160,-13.03164,3.97437,0.95768,0.9756,-43.8415,18.2317,9.54,29.54,-23.58,0,S01
28180,-9.48822,2.37505,0.49321,1.5244,-34.0854,29.5122,9.54,29.54,-23.58,0,S01
28200,-7.43639,0.82121,-0.11013,5.3049,-18.5366,35.4878,8.26,29.82,-22.48,0,S01
28220,-6.79474,-0.47645,-0.14605,9.0854,0.8537,30.5488,8.26,29.82,-22.48,0,S01
28240,-6.75165,-0.21308,0.40701,15.0000,21.3415,17.2561,8.26,29.82,-22.48,0,S01
28260,-6.07170,0.23942,1.19471,22.1951,32.6829,8.5976,9.63,28.26,-23.67,0,S01
28280,-5.33428,0.86431,1.01754,28.7805,30.1220,5.4878,9.63,28.26,-23.67,0,S01
28300,-5.74608,1.40779,1.44849,31.7073,28.2927,3.8415,9.63,28.26,-23.67,0,S01
28320,-7.30710,1.75734,2.34871,34.0244,22.6829,-4.3293,11.56,27.25,-24.31,0,S01
28340,-6.97192,2.03268,1.92254,28.9634,12.6220,-8.8415,11.56,27.25,-24.31,0,S01
28360,-6.22492,2.38223,1.42934,19.1463,2.8049,-10.2439,11.56,27.25,-24.31,0,S01
28380,-5.73411,2.70305,0.85712,6.4634,-5.1829,-9.8171,11.56,27.25,-24.31,0,S01
28400,-5.27682,3.04782,0.10534,-5.4878,-9.8780,-10.3659,12.94,27.25,-23.85,0,S01
28420,-4.91769,3.16035,-0.49081,-19.4512,-9.2073,-12.0732,12.94,27.25,-23.85,0,S01
28440,-4.96557,3.05740,-0.62010,-36.1585,-3.4756,-16.3415,12.94,27.25,-23.85,0,S01
28460,-6.70376,2.13802,-1.48440,-43.9024,-2.5000,-19.2073,13.39,26.79,-23.67,0,S01
28480,-10.70448,2.43969,-2.96642,-46.3415,2.3171,-13.9634,13.39,26.79,-23.67,0,S01
28500,-13.57752,1.20907,-1.52989,-48.2927,11.3415,7.6829,13.39,26.79,-23.67,0,S01
28520,-15.60780,-0.46448,1.06303,-58.9024,-0.9756,20.6098,12.02,26.70,-23.85,0,S01
28540,-18.95729,-1.25456,1.24738,-53.2927,-21.6463,19.0854,12.02,26.70,-23.85,0,S01
28560,-19.98440,-0.63925,1.34794,-46.5244,-30.7317,16.4634,12.02,26.70,-23.85,0,S01
28580,-17.75061,-0.03591,2.45406,-38.8415,-33.3537,6.8293,12.02,26.70,-23.85,0,S01
28600,-14.91109,0.09816,2.22182,-33.0488,-37.4390,-13.5366,13.30,28.17,-23.21,0,S01
28620,-12.25831,0.53151,1.61848,-30.3659,-36.5854,-32.6829,13.30,28.17,-23.21,0,S01
28640,-9.44034,1.12527,0.25139,-29.1463,-30.3049,-40.6707,13.30,28.17,-23.21,0,S01
28660,-7.18500,2.00874,-0.76136,-29.5122,-14.3293,-36.9512,13.39,28.26,-22.57,0,S01
28680,-6.30872,1.76932,-0.46926,-33.0488,10.5488,-23.3537,13.39,28.26,-22.57,0,S01
28700,-6.24408,0.71347,0.00239,-36.4024,32.0122,-8.6585,13.39,28.26,-22.57,0,S01
28720,-6.55532,-0.22266,0.41420,-37.8659,45.3049,4.3293,12.11,26.42,-24.31,0,S01
28740,-6.96473,-0.66319,0.85952,-40.7927,50.3659,14.9390,12.11,26.42,-24.31,0,S01
28760,-7.47230,-0.50996,1.74298,-45.3049,47.9878,22.6220,12.11,26.42,-24.31,0,S01
28780,-7.66623,-0.54348,2.31280,-46.8902,35.6707,27.6829,12.11,26.42,-24.31,0,S01
28800,-7.33583,-1.12767,1.72143,-39.5122,16.0366,28.6585,10.37,25.60,-24.95,0,S01
28820,-6.85699,-1.98958,1.14203,-27.9268,0.7927,25.5488,10.37,25.60,-24.95,0,S01
28840,-6.32548,-2.07577,1.30005,-19.3902,-5.5488,18.9024,10.37,25.60,-24.95,0,S01
28860,-5.63116,-2.21943,1.34554,-13.2317,-13.2927,13.9634,10.64,25.78,-24.68,0,S01
28880,-5.35583,-3.25372,0.50039,1.2195,-20.8537,8.4146,10.64,25.78,-24.68,0,S01
28900,-5.55215,-3.36146,-0.26336,23.2927,-19.2683,-4.9390,10.64,25.78,-24.68,0,S01
28920,-5.83467,-1.95846,-0.74220,37.3171,-10.4878,-17.8659,14.13,24.95,-24.40,0,S01
28940,-6.07648,0.78769,-0.82839,33.1098,-2.2561,-22.3780,14.13,24.95,-24.40,0,S01
28960,-6.97910,3.41413,-1.06063,15.3049,-2.2561,-14.4512,14.13,24.95,-24.40,0,S01
28980,-9.73243,3.50032,-1.37906,8.0488,1.4024,-2.5000,14.13,24.95,-24.40,0,S01
29000,-14.33648,2.23140,0.63446,11.2195,18.2317,1.0976,15.50,23.76,-24.86,0,S01
29020,-18.99560,3.34709,3.28006,-1.5244,17.5000,-2.7439,15.50,23.76,-24.86,0,S01
29040,-19.66118,3.75171,1.60172,5.6707,-14.5122,-5.7927,15.50,23.76,-24.86,0,S01
29060,-19.06742,3.66792,1.66876,12.0732,-24.3902,-8.1707,17.61,24.31,-24.86,0,S01
29080,-16.91504,3.61524,2.59053,13.7195,-21.4634,1.8902,17.61,24.31,-24.86,0,S01
29100,-13.76905,3.13880,1.88424,19.1463,-20.3049,24.5732,17.61,24.31,-24.86,0,S01
29120,-10.64941,1.92733,0.66319,25.4878,-10.9756,43.5366,16.42,24.40,-24.59,0,S01
29140,-8.73165,0.04549,0.78769,29.2073,8.4146,43.7805,16.42,24.40,-24.59,0,S01
29160,-8.00382,-0.50039,1.09894,39.5732,19.2073,31.7073,16.42,24.40,-24.59,0,S01
29180,-7.09163,0.14126,0.96965,51.5854,19.6951,19.7561,16.42,24.40,-24.59,0,S01
29200,-5.89213,0.58419,0.86431,59.8171,16.8293,13.7805,18.81,23.39,-24.77,0,S01
29220,-4.91051,0.65841,0.90022,68.2317,16.6463,10.3659,18.81,23.39,-24.77,0,S01
29240,-4.41730,0.62968,0.97444,76.2195,17.4390,6.5854,18.81,23.39,-24.77,0,S01
29260,-4.28562,0.63686,0.92895,80.3049,15.6098,4.1463,22.39,22.66,-24.68,0,S01
29280,-4.23295,0.57221,0.97444,78.7195,9.8171,3.9024,22.39,22.66,-24.68,0,S01
29300,-3.85466,0.94092,0.41420,74.5732,-0.1829,1.5244,22.39,22.66,-24.68,0,S01
29320,-3.46202,1.41976,-0.63686,71.8902,-9.8171,-2.9878,26.33,22.57,-23.30,0,S01
29340,-3.22260,1.44610,-1.88663,72.4390,-16.2195,-7.0732,26.33,22.57,-23.30,0,S01
29360,-3.36146,1.65679,-2.62883,67.9878,-17.0732,-12.6829,26.33,22.57,-23.30,0,S01
29380,-4.73094,1.74298,-3.08613,61.4024,-12.5000,-16.5854,26.33,22.57,-23.30,0,S01
29400,-7.98706,1.61369,-3.06697,51.9512,2.1341,-10.3049,30.00,22.02,-22.75,0,S01
29420,-12.83292,2.29125,-1.85790,31.9512,29.6951,7.8659,30.00,22.02,-22.75,0,S01
29440,-16.45774,3.51469,1.11091,-3.5366,40.6707,33.2927,30.00,22.02,-22.75,0,S01
29460,-17.60935,2.21464,3.87621,-9.5732,26.3415,42.6220,29.91,22.48,-24.59,0,S01
29480,-20.17833,2.21224,3.43089,-12.8659,7.7439,16.4024,29.91,22.48,-24.59,0,S01
29500,-20.61647,-1.00078,3.28245,-20.8537,-4.8171,0.7317,29.91,22.48,-24.59,0,S01
29520,-17.38909,-3.41174,3.88579,-24.2073,-20.1220,-16.9512,32.29,22.29,-24.22,0,S01
29540,-13.48414,-3.56497,2.32716,-17.9268,-39.0244,-44.3902,32.29,22.29,-24.22,0,S01
29560,-10.55843,-0.48363,0.90501,-5.0000,-41.7073,-62.2561,32.29,22.29,-24.22,0,S01
29580,-8.64307,2.61926,0.81642,1.0976,-27.9878,-58.6585,32.29,22.29,-24.22,0,S01
29600,-7.54892,3.56975,1.54905,-5.9756,-11.3415,-41.4634,33.39,21.01,-24.95,0,S01
29620,-7.11078,2.75333,2.00155,-22.3780,-3.8415,-25.2439,33.39,21.01,-24.95,0,S01
29640,-6.18422,0.97444,1.96803,-36.4024,-5.6098,-11.8902,33.39,21.01,-24.95,0,S01
29660,-5.46117,-1.12288,1.92733,-46.7073,-5.2439,-1.4634,32.02,21.01,-26.70,0,S01
29680,-5.18105,-2.44927,1.87466,-49.9390,-3.0488,4.1463,32.02,21.01,-26.70,0,S01
29700,-5.41090,-2.43251,1.52511,-44.1463,-2.5610,7.0732,32.02,21.01,-26.70,0,S01
29720,-5.83706,-1.72861,1.11330,-32.8049,-1.2195,11.7073,31.47,21.38,-27.98,0,S01
29740,-6.44519,-1.02232,0.09098,-23.1098,-3.1707,16.6463,31.47,21.38,-27.98,0,S01
29760,-6.37097,0.14365,-1.08697,-22.5610,-10.4878,15.3049,31.47,21.38,-27.98,0,S01
29780,-7.71172,0.23224,-6.92882,-48.1098,-36.9512,1.6463,31.47,21.38,-27.98,0,S01
29800,-12.58632,1.78847,-4.46279,-49.9390,-3.7195,-11.3415,29.91,22.48,-29.27,0,S01
