timestamp,ax,ay,az,gx,gy,gz,mx,my,mz,label,subject_id
0,-9.62948,0.25379,-1.83396,-3.2927,-2.2561,-0.5488,-26.70,17.16,-11.47,3,S01
20,-9.50977,0.16999,-1.86748,-5.0000,-2.3171,-0.2439,-26.70,17.16,-11.38,3,S01
40,-9.38767,0.02394,-1.83875,-6.6463,-2.1341,0.4878,-26.70,17.16,-11.38,3,S01
60,-9.36133,-0.14605,-1.75016,-7.5000,-1.2195,0.9756,-26.70,17.16,-11.38,3,S01
80,-9.38527,-0.28970,-1.67834,-7.1951,-0.6098,0.9146,-26.70,17.25,-11.28,3,S01
100,-9.38048,-0.39025,-1.69031,-6.2805,-0.5488,0.5488,-26.70,17.25,-11.28,3,S01
120,-9.33499,-0.43335,-1.67834,-5.4268,-0.4268,0.1220,-26.70,17.25,-11.28,3,S01
140,-9.30866,-0.40223,-1.65918,-5.0000,-0.6707,-0.4268,-26.70,17.25,-11.38,3,S01
160,-9.33499,-0.31843,-1.65200,-5.0000,-1.0366,-0.9756,-26.70,17.25,-11.38,3,S01
180,-9.42597,-0.20351,-1.65200,-5.2439,-1.3415,-1.3415,-26.70,17.25,-11.38,3,S01
200,-9.50977,-0.13408,-1.67115,-5.6707,-1.5854,-1.4634,-26.70,17.25,-11.38,3,S01
220,-9.58878,-0.08859,-1.71425,-6.2195,-1.4634,-1.4634,-26.70,17.16,-11.28,3,S01
240,-9.61033,-0.11492,-1.73580,-7.3171,-1.2805,-1.4024,-26.70,17.16,-11.28,3,S01
260,-9.51935,-0.16041,-1.75734,-8.2927,-2.0122,-1.3415,-26.70,17.16,-11.28,3,S01
280,-9.44513,-0.22027,-1.69988,-9.4512,-2.8659,-1.2805,-26.79,17.34,-11.01,3,S01
300,-9.41400,-0.32561,-1.61369,-10.3049,-3.4146,-1.0976,-26.79,17.34,-11.01,3,S01
320,-9.42358,-0.41420,-1.58017,-10.2439,-3.5976,-0.9146,-26.79,17.34,-11.01,3,S01
340,-9.46428,-0.43814,-1.58736,-9.4512,-3.1707,-0.7317,-26.79,17.43,-10.83,3,S01
360,-9.50738,-0.40701,-1.57778,-8.7195,-2.8049,-0.7317,-26.79,17.43,-10.83,3,S01
380,-9.52174,-0.33279,-1.57538,-8.5976,-3.0488,-0.9756,-26.79,17.43,-10.83,3,S01
400,-9.51456,-0.26097,-1.56102,-9.0244,-3.9634,-1.2805,-26.79,17.43,-10.83,3,S01
420,-9.47864,-0.21787,-1.52989,-9.5732,-5.3049,-1.4634,-26.88,17.52,-10.64,3,S01
440,-9.46667,-0.21069,-1.47483,-10.0610,-6.1585,-1.6463,-26.88,17.52,-10.64,3,S01
460,-9.53132,-0.23703,-1.44849,-10.3049,-6.4024,-1.8293,-26.88,17.52,-10.64,3,S01
480,-9.61033,-0.26336,-1.44610,-10.3659,-6.4024,-1.7683,-26.88,17.71,-10.18,3,S01
500,-9.63187,-0.30406,-1.45328,-10.6707,-6.5854,-1.4024,-26.88,17.71,-10.18,3,S01
520,-9.58160,-0.31364,-1.47483,-11.0366,-7.1951,-1.2195,-26.88,17.71,-10.18,3,S01
540,-9.50259,-0.31603,-1.46525,-11.0976,-7.8049,-1.0976,-26.88,17.89,-10.00,3,S01
560,-9.45470,-0.32561,-1.42934,-11.0366,-7.9878,-0.9756,-26.88,17.89,-10.00,3,S01
580,-9.44273,-0.34716,-1.36709,-10.9756,-7.5000,-0.7317,-26.88,17.89,-10.00,3,S01
600,-9.47146,-0.38307,-1.32639,-10.9146,-6.5854,-0.3049,-26.88,17.89,-10.00,3,S01
620,-9.47386,-0.41180,-1.34794,-10.5488,-5.8537,0.0000,-26.88,17.89,-9.63,3,S01
640,-9.45231,-0.40462,-1.38145,-10.0610,-5.1220,0.1220,-26.88,17.89,-9.63,3,S01
660,-9.43316,-0.37350,-1.36948,-9.8171,-4.4512,0.2439,-26.88,17.89,-9.63,3,S01
680,-9.46907,-0.35913,-1.34554,-10.0000,-3.9634,0.4878,-27.06,17.98,-9.27,3,S01
700,-9.56962,-0.37110,-1.33836,-10.4878,-3.4146,1.0366,-27.06,17.98,-9.27,3,S01
720,-9.61751,-0.44772,-1.31681,-11.0366,-3.1098,1.7683,-27.06,17.98,-9.27,3,S01
740,-9.60554,-0.51954,-1.39343,-10.9756,-3.2927,2.3780,-27.25,18.07,-9.17,3,S01
760,-9.57202,-0.57461,-1.49159,-10.1220,-2.8049,3.1707,-27.25,18.07,-9.17,3,S01
780,-9.50259,-0.53630,-1.54187,-9.3902,-1.9512,4.2073,-27.25,18.07,-9.17,3,S01
800,-9.40682,-0.21069,-1.60890,-10.1829,-1.4634,5.4268,-27.25,18.07,-9.17,3,S01
820,-9.32542,0.30885,-1.71185,-13.7805,-0.9756,7.4390,-27.52,17.61,-8.72,3,S01
840,-9.33739,0.73263,-1.58975,-18.6585,-0.5488,10.6707,-27.52,17.61,-8.72,3,S01
860,-9.39245,0.59137,-1.32639,-20.6098,-0.3049,14.2683,-27.52,17.61,-8.72,3,S01
880,-9.72285,0.01676,-1.15161,-18.1707,2.0122,15.7927,-28.17,16.79,-8.26,3,S01
900,-10.23521,-0.42377,-1.04387,-13.7805,4.6951,16.5244,-28.17,16.79,-8.26,3,S01
920,-10.40759,-0.59616,-0.96486,-7.3171,4.3902,19.0854,-28.17,16.79,-8.26,3,S01
940,-9.98382,-0.78530,-0.89783,2.6829,2.4390,21.5244,-28.44,16.06,-9.08,3,S01
960,-9.35893,-1.01514,-0.90261,12.9878,1.2195,21.7073,-28.44,16.06,-9.08,3,S01
980,-8.90643,-1.12767,-0.86191,21.8902,1.5244,20.6707,-28.44,16.06,-9.08,3,S01
1000,-8.57364,-1.05345,-0.86910,30.1829,2.8659,19.0854,-28.44,16.06,-9.08,3,S01
1020,-8.52815,-1.20668,-1.17316,38.1098,5.7927,16.5854,-27.89,15.32,-10.92,3,S01
1040,-9.45949,-2.44448,-2.51152,64.7561,22.8049,10.5488,-27.89,15.32,-10.92,3,S01
1060,-9.16500,-2.21943,-2.96163,76.7073,26.5854,6.9512,-27.89,15.32,-10.92,3,S01
1080,-8.36774,-1.23062,-3.23696,82.5000,23.9024,4.9390,-26.24,14.40,-14.50,3,S01
1100,-8.12592,0.22745,-2.95205,79.2073,25.4878,6.7683,-26.24,14.40,-14.50,3,S01
1120,-8.51857,1.29047,-2.19309,73.1098,30.3659,14.5732,-26.24,14.40,-14.50,3,S01
1140,-9.09557,1.41258,-1.55863,68.7195,30.3659,23.6585,-25.23,12.57,-17.34,3,S01
1160,-9.88087,0.42856,-1.55863,65.4878,25.6098,27.3780,-25.23,12.57,-17.34,3,S01
1180,-10.51055,-0.80445,-2.11169,62.6220,22.0732,23.7195,-25.23,12.57,-17.34,3,S01
1200,-10.64223,-1.61848,-2.48279,60.8537,19.5122,17.9268,-25.23,12.57,-17.34,3,S01
1220,-10.17536,-1.78368,-2.48518,63.4146,15.8537,14.1463,-23.39,11.47,-19.54,3,S01
1240,-9.32063,-1.46525,-2.51391,70.1220,13.4146,12.1341,-23.39,11.47,-19.54,3,S01
1260,-8.67898,-1.15401,-2.61447,79.3293,14.3902,12.0732,-23.39,11.47,-19.54,3,S01
1280,-8.48026,-1.06542,-2.57856,87.5000,18.4146,13.8415,-20.64,10.46,-22.66,3,S01
1300,-8.61434,-1.06063,-2.44927,92.6220,21.2805,16.4634,-20.64,10.46,-22.66,3,S01
1320,-8.87531,-1.10852,-2.38223,95.7317,21.8293,19.4512,-20.64,10.46,-22.66,3,S01
1340,-9.27035,-1.13725,-2.22661,97.0732,21.5244,22.4390,-17.43,9.17,-25.78,3,S01
1360,-9.62469,-1.12288,-2.17872,97.1951,18.9634,25.0000,-17.43,9.17,-25.78,3,S01
1380,-9.73961,-1.11570,-2.27210,96.4634,15.0610,26.3415,-17.43,9.17,-25.78,3,S01
1400,-9.61511,-1.05105,-2.48997,96.6463,11.4634,25.1829,-17.43,9.17,-25.78,3,S01
1420,-9.41640,-1.15401,-2.51870,97.5610,9.6341,22.9268,-14.13,8.35,-28.17,3,S01
1440,-9.31584,-1.58496,-2.69587,96.9512,8.6585,20.6098,-14.13,8.35,-28.17,3,S01
1460,-9.27274,-2.03747,-2.88501,94.3293,8.3537,18.5976,-14.13,8.35,-28.17,3,S01
1480,-9.30387,-2.41336,-3.08134,91.5854,9.0244,18.0488,-10.37,7.98,-30.46,3,S01
1500,-9.39485,-2.61926,-3.08134,87.9878,10.6098,20.2439,-10.37,7.98,-30.46,3,S01
1520,-9.39724,-2.69827,-3.01430,82.6829,11.6463,24.0244,-10.37,7.98,-30.46,3,S01
1540,-9.21049,-2.89698,-3.01669,76.4634,12.6829,27.6829,-7.43,7.16,-32.11,3,S01
1560,-9.13388,-3.31358,-2.70784,71.4024,15.1829,29.6951,-7.43,7.16,-32.11,3,S01
1580,-9.32781,-3.97437,-2.59292,69.7561,16.4634,29.0244,-7.43,7.16,-32.11,3,S01
1600,-9.64384,-4.26886,-2.46124,70.9146,16.3415,25.7927,-7.43,7.16,-32.11,3,S01
1620,-9.73004,-4.06057,-1.98000,73.9634,12.8049,22.8049,-4.31,6.06,-33.21,3,S01
1640,-9.40203,-3.82354,-2.06141,78.5366,5.1829,21.0366,-4.31,6.06,-33.21,3,S01
1660,-8.88488,-3.65355,-4.12760,79.5122,0.3659,20.4878,-4.31,6.06,-33.21,3,S01
1680,-9.05966,-2.46603,-6.14592,70.7317,8.3537,22.8049,-0.73,5.32,-34.13,3,S01
1700,-9.98861,-0.67038,-5.84185,57.5610,17.7439,28.2927,-0.73,5.32,-34.13,3,S01
1720,-10.42435,1.56341,-4.13479,57.3171,7.1341,30.0610,-0.73,5.32,-34.13,3,S01
1740,-10.02931,3.96240,-3.47159,64.1463,-15.9146,26.2805,2.20,5.87,-34.40,3,S01
1760,-9.23444,4.53222,-3.91452,59.0244,-26.8293,23.7805,2.20,5.87,-34.40,3,S01
1780,-9.09797,3.27287,-3.86185,45.3659,-22.3780,25.9146,2.20,5.87,-34.40,3,S01
1800,-9.59357,1.49877,-3.24654,31.1585,-13.6585,29.7561,2.20,5.87,-34.40,3,S01
1820,-9.97903,0.70629,-2.74376,23.0488,-10.4878,30.8537,2.94,6.33,-33.85,3,S01
1840,-9.74919,1.14203,-2.88262,21.7683,-9.3902,30.6707,2.94,6.33,-33.85,3,S01
1860,-9.30147,1.77410,-3.14598,23.2927,-6.0366,33.1707,2.94,6.33,-33.85,3,S01
1880,-8.74362,1.85551,-2.99754,23.7195,-2.8049,38.7195,3.03,7.06,-34.04,3,S01
1900,-8.00860,1.62806,-3.02148,22.1341,-2.9268,43.1098,3.03,7.06,-34.04,3,S01
1920,-7.82425,1.58017,-3.12683,21.5854,0.3049,43.2317,3.03,7.06,-34.04,3,S01
1940,-8.32464,1.60172,-3.00233,22.9878,9.2683,40.9756,3.39,7.16,-34.04,3,S01
1960,-9.23204,1.54426,-3.04064,24.5732,14.8780,38.5366,3.39,7.16,-34.04,3,S01
1980,-10.07241,1.17316,-3.17471,23.9024,14.4512,37.1341,3.39,7.16,-34.04,3,S01
2000,-10.49857,0.72065,-2.78685,21.8293,9.1463,35.8537,3.39,7.34,-34.04,3,S01
2020,-10.44590,0.16759,-2.05183,20.9756,-0.7317,33.9634,3.76,7.34,-33.85,3,S01
2040,-10.51055,-0.18435,-1.50835,23.2317,-9.6341,29.6951,3.76,7.34,-33.85,3,S01
2060,-10.73081,-0.47884,-0.93613,28.6585,-14.5122,25.6098,3.76,7.34,-33.85,3,S01
2080,-10.57998,-0.55785,-0.82839,34.0244,-20.8537,22.2561,5.14,8.99,-33.21,3,S01
2100,-9.34457,-0.20111,-1.13485,37.4390,-30.3659,20.0000,5.14,8.99,-33.21,3,S01
2120,-7.67581,0.74699,-1.68552,40.1829,-38.8415,18.7195,5.14,8.99,-33.21,3,S01
2140,-6.00226,1.87705,-1.82438,37.9268,-40.1220,18.2927,6.61,11.47,-32.11,3,S01
2160,-4.17070,2.54504,-2.14520,30.0610,-41.1585,18.2927,6.61,11.47,-32.11,3,S01
2180,-3.16513,2.60489,-2.56898,19.8171,-40.7927,18.5366,6.61,11.47,-32.11,3,S01
2200,-4.00789,1.15640,-3.66313,17.1951,-38.1098,23.5366,6.61,12.57,-31.10,3,S01
2220,-7.34781,-0.52672,-4.42927,17.8049,-30.4268,22.6829,7.16,12.57,-31.10,3,S01
2240,-10.78827,-1.88903,-4.74531,11.8293,-21.6463,18.7805,7.16,12.57,-31.10,3,S01
2260,-12.69885,-1.28090,-5.02304,4.7561,-21.0366,13.8415,7.16,12.57,-31.10,3,S01
2280,-13.67568,-0.03831,-4.81235,16.5854,-23.0488,14.5732,7.89,13.39,-30.64,3,S01
2300,-15.02840,0.56024,-4.81235,26.3415,-18.0488,12.5610,7.89,13.39,-30.64,3,S01
2320,-16.97010,-0.17717,-4.15873,20.9756,-7.6220,8.1098,7.89,13.39,-30.64,3,S01
2340,-17.78892,-1.36230,-3.49793,22.3780,-5.0610,-0.1829,8.53,12.84,-30.46,3,S01
2360,-16.26621,-1.76932,-2.97839,31.0976,-10.0610,-12.6829,8.53,12.84,-30.46,3,S01
2380,-13.63258,-1.66876,-2.20506,44.9390,-14.0854,-24.4512,8.53,12.84,-30.46,3,S01
2400,-10.88404,-1.20668,-2.03986,58.2927,-17.7439,-34.8171,11.74,12.75,-28.99,3,S01
2420,-5.06374,-0.21787,-1.10133,67.2561,-26.2805,-38.8415,11.74,12.75,-28.99,3,S01
2440,-3.21062,0.50278,-1.26414,62.9268,-32.5610,-30.5488,11.74,12.75,-28.99,3,S01
2460,-2.53067,0.81163,-0.98641,50.9756,-28.9024,-17.0732,11.74,12.75,-28.99,3,S01
2480,-1.94888,1.28090,-0.65601,40.7927,-28.2317,-7.7439,13.67,13.21,-26.97,3,S01
2500,-1.12288,1.29766,-1.68073,38.9634,-37.6220,-3.6585,13.67,13.21,-26.97,3,S01
2520,-0.81882,0.92416,-3.75890,36.7073,-43.1098,-0.9756,13.67,13.21,-26.97,3,S01
2540,-2.21224,0.94571,-5.24330,28.0488,-32.0122,-0.1829,15.14,14.40,-24.86,3,S01
2560,-5.45878,1.58496,-3.58891,15.9146,-5.4268,-3.6585,15.14,14.40,-24.86,3,S01
2580,-9.12430,3.30400,-3.01430,2.6829,10.6707,-12.4390,15.14,14.40,-24.86,3,S01
2600,-12.24874,3.38540,-5.64074,-14.6951,24.9390,-22.2561,15.32,12.48,-24.77,3,S01
2620,-15.40190,-0.07661,-5.75087,-25.1220,49.2683,-24.4512,15.32,12.48,-24.77,3,S01
2640,-18.30607,-1.03430,-4.39097,-19.1463,49.6341,-17.3780,15.32,12.48,-24.77,3,S01
2660,-19.12249,0.45250,-4.06535,-7.4390,29.7561,-6.2195,15.32,12.48,-24.77,3,S01
2680,-18.82082,2.24337,-3.28006,-2.8659,12.8049,1.6463,15.87,11.10,-24.86,3,S01
2700,-16.92940,3.13401,-3.00233,-15.2439,-4.2683,7.8049,15.87,11.10,-24.86,3,S01
2720,-14.98531,3.35188,-1.94409,-39.6951,-13.1707,13.2317,15.87,11.10,-24.86,3,S01
2740,-12.90475,3.09810,-2.02310,-57.3171,-19.8171,21.9512,14.13,11.47,-24.50,3,S01
2760,-11.12586,1.95367,-1.10612,-65.3659,-13.8415,26.0366,14.13,11.47,-24.50,3,S01
2780,-8.55209,1.07500,-0.26336,-65.6707,-6.7073,19.6341,14.13,11.47,-24.50,3,S01
2800,-6.06212,-0.31843,0.26576,-62.6829,-5.0610,8.8415,13.49,11.01,-24.95,3,S01
2820,-3.93846,-1.85072,0.40462,-59.1463,-7.0122,-7.1951,13.49,11.01,-24.95,3,S01
2840,-1.75495,-2.83474,0.26336,-54.0244,-16.3415,-25.9756,13.49,11.01,-24.95,3,S01
2860,0.04788,-2.54982,-0.57700,-41.0976,-29.6341,-39.0244,13.49,11.01,-24.95,3,S01
2880,1.15161,-0.77572,-2.22421,-27.1341,-33.7195,-43.6585,15.05,11.47,-25.41,3,S01
2900,0.76614,1.88184,-4.14436,-30.9756,-20.5488,-37.3780,15.05,11.47,-25.41,3,S01
2920,-2.09014,3.96480,-4.73334,-38.1098,3.3537,-17.0732,15.05,11.47,-25.41,3,S01
2940,-6.36618,3.89776,-4.40294,-39.2073,19.3902,6.2805,14.50,11.01,-27.61,3,S01
2960,-12.12424,3.51948,-7.58962,-52.5000,28.1707,18.2927,14.50,11.01,-27.61,3,S01
2980,-18.61252,0.09816,-6.82108,-90.5488,43.7195,35.4268,14.50,11.01,-27.61,3,S01
3000,-18.86870,-0.70390,-6.24647,-70.9146,18.7805,40.6707,11.38,10.55,-29.36,3,S01
3020,-17.46331,0.16759,-5.42287,-50.6707,5.2439,15.4268,11.38,10.55,-29.36,3,S01
3040,-16.23029,0.00958,-4.36463,-29.9390,5.4878,-6.2195,11.38,10.55,-29.36,3,S01
3060,-14.37239,-0.39265,-3.55778,-16.6463,1.8293,-22.6220,11.38,10.55,-29.36,3,S01
3080,-12.50252,-0.81163,-3.36625,-15.4878,4.3293,-31.4634,11.28,8.99,-31.01,3,S01
3100,-10.86489,-1.27132,-2.64320,-12.1341,16.5244,-32.8659,11.28,8.99,-31.01,3,S01
3120,-9.03572,-0.99838,-1.98719,-8.2927,21.4024,-36.0976,11.28,8.99,-31.01,3,S01
3140,-7.04853,0.00958,-1.41976,-8.3537,14.9390,-43.6585,10.73,7.52,-32.20,3,S01
3160,-5.00867,0.85234,-1.14203,-12.3171,3.1098,-48.4756,10.73,7.52,-32.20,3,S01
3180,-3.79002,1.68791,-1.14682,-20.6098,-4.2683,-48.4146,10.73,7.52,-32.20,3,S01
3200,-3.64637,1.25696,-0.39744,-33.4146,-1.5854,-39.9390,8.72,7.52,-32.66,3,S01
3220,-4.07493,0.26336,0.24181,-45.3049,-1.0976,-30.3659,8.72,7.52,-32.66,3,S01
3240,-4.91290,-0.85234,0.62489,-52.5000,-6.0976,-23.5976,8.72,7.52,-32.66,3,S01
3260,-5.88495,-1.64721,0.62968,-54.2073,-12.7439,-21.2805,8.72,7.52,-32.66,3,S01
3280,-6.74925,-1.95606,0.56264,-50.1829,-17.4390,-22.3171,6.15,8.35,-32.57,3,S01
3300,-7.25922,-2.00634,0.18196,-39.4512,-18.5976,-22.3171,6.15,8.35,-32.57,3,S01
3320,-7.20894,-2.22900,-1.92973,-28.6585,-17.7439,-21.0976,6.15,8.35,-32.57,3,S01
3340,-7.43639,-1.37906,-5.11641,-27.1951,-7.3171,-22.7439,5.23,8.62,-32.57,3,S01
3360,-8.47308,1.00796,-4.80037,-28.4146,6.1585,-25.3049,5.23,8.62,-32.57,3,S01
3380,-10.06283,3.40695,-2.86347,-27.5610,-0.3659,-27.7439,5.23,8.62,-32.57,3,S01
3400,-12.31577,5.20739,-2.14042,-35.6707,-16.2805,-31.2805,2.84,9.54,-31.83,3,S01
3420,-14.37958,5.00867,-4.06057,-56.0366,-20.9146,-33.8415,2.84,9.54,-31.83,3,S01
3440,-16.68998,2.67193,-4.35745,-86.8293,-3.2317,-36.0366,2.84,9.54,-31.83,3,S01
3460,-18.39704,1.35751,-4.29520,-101.0366,9.7561,-32.8049,2.84,9.54,-31.83,3,S01
3480,-17.65006,0.77572,-4.04620,-100.2439,14.5732,-17.7439,-1.47,8.26,-31.47,3,S01
3500,-16.31648,1.00796,-3.57694,-97.9268,18.5976,-4.3902,-1.47,8.26,-31.47,3,S01
3520,-14.90630,1.82917,-2.37505,-101.6463,21.6463,-1.9512,-1.47,8.26,-31.47,3,S01
3540,-13.07952,1.95846,-1.89142,-108.1098,8.5366,-2.3780,-5.69,8.90,-30.64,3,S01
3560,-10.69490,1.18992,-2.29365,-105.2439,-13.5976,-0.3659,-5.69,8.90,-30.64,3,S01
3580,-7.99663,0.26097,-1.81002,-98.6585,-22.5000,-0.3659,-5.69,8.90,-30.64,3,S01
3600,-5.42526,-0.02155,-0.87867,-90.1829,-21.1585,-3.9024,-8.62,10.46,-29.17,3,S01
3620,-2.82276,-0.12689,0.01915,-85.6707,-20.1829,-6.8902,-8.62,10.46,-29.17,3,S01
3640,-0.42377,-0.48842,0.17238,-82.7439,-19.8780,-9.1463,-8.62,10.46,-29.17,3,S01
3660,1.30963,-0.87867,-1.52989,-77.1341,-21.8902,-13.3537,-8.62,10.46,-29.17,3,S01
3680,1.08697,0.19154,-4.02705,-72.9268,-20.1829,-20.0610,-10.46,11.74,-27.98,3,S01
3700,-1.84354,2.47800,-5.50188,-70.3659,-4.2683,-24.9390,-10.46,11.74,-27.98,3,S01
3720,-6.49068,3.62482,-4.36942,-83.6585,19.2683,-17.3780,-10.46,11.74,-27.98,3,S01
3740,-11.03248,2.49476,-6.78038,-101.4634,27.3171,3.4146,-15.69,10.28,-26.33,3,S01
3760,-17.04193,0.71826,-6.82347,-134.2073,40.7927,26.0366,-15.69,10.28,-26.33,3,S01
3780,-18.66759,-0.49799,-5.15232,-140.0000,26.1585,39.6951,-15.69,10.28,-26.33,3,S01
3800,-14.62139,-0.78769,-4.97036,-104.3293,-5.4878,-3.5976,-18.35,11.56,-23.58,3,S01
3820,-13.01249,-1.16837,-4.49392,-84.6951,2.9268,-20.4878,-18.35,11.56,-23.58,3,S01
3840,-11.51372,-1.46525,-4.14436,-70.0000,10.2439,-27.5610,-18.35,11.56,-23.58,3,S01
3860,-10.01255,-1.76932,-3.59849,-55.4268,19.3293,-28.8415,-18.35,11.56,-23.58,3,S01
3880,-8.85855,-1.37667,-3.32794,-38.6585,25.7927,-30.4878,-19.17,11.65,-23.58,3,S01
3900,-7.36935,-0.68235,-2.89698,-28.2317,25.9146,-31.7073,-19.17,11.65,-23.58,3,S01
3920,-5.74848,0.23703,-2.36308,-26.1585,20.5488,-33.2927,-19.17,11.65,-23.58,3,S01
3940,-4.43406,0.61292,-2.14042,-29.6341,16.6463,-33.9024,-19.27,11.74,-23.49,3,S01
3960,-3.94325,0.46687,-1.69509,-36.5854,19.1463,-32.4390,-19.27,11.74,-23.49,3,S01
3980,-4.31435,-0.11971,-1.39821,-43.8415,21.7073,-26.8902,-19.27,11.74,-23.49,3,S01
4000,-5.27921,-0.84994,-1.42455,-51.3415,22.7439,-19.3902,-20.28,11.28,-22.75,3,S01
4020,-6.61039,-1.67115,-1.66876,-57.7439,24.5122,-12.6220,-20.28,11.28,-22.75,3,S01
4040,-8.48984,-2.49476,-1.13964,-58.1707,27.7439,-10.0000,-20.28,11.28,-22.75,3,S01
4060,-10.27352,-3.66073,-0.74699,-45.8537,24.8780,-12.6829,-20.28,11.28,-22.75,3,S01
4080,-11.68849,-4.60166,-0.43335,-26.1585,16.1585,-21.1585,-21.47,10.83,-22.48,3,S01
4100,-12.58871,-4.89375,-0.19872,-3.9634,3.8415,-28.3537,-21.47,10.83,-22.48,3,S01
4120,-12.31577,-3.78763,-0.63207,12.3780,-7.6829,-28.9024,-21.47,10.83,-22.48,3,S01
4140,-10.72124,-1.95846,-1.16837,14.2683,-16.0976,-24.3293,-20.00,11.47,-23.30,3,S01
4160,-8.45393,0.65122,-2.38702,9.2683,-28.6585,-22.9878,-20.00,11.47,-23.30,3,S01
4180,-7.33583,3.34949,-2.95444,5.9146,-40.1829,-25.4878,-20.00,11.47,-23.30,3,S01
4200,-8.48505,4.05099,-3.05261,3.9634,-40.4268,-24.6951,-19.82,13.58,-22.48,3,S01
4220,-10.71166,3.95283,-4.07493,-6.2805,-29.6951,-24.9390,-19.82,13.58,-22.48,3,S01
4240,-12.57435,2.63362,-5.49709,-19.0854,-17.8659,-20.6707,-19.82,13.58,-22.48,3,S01
4260,-14.05157,0.54827,-5.49709,-28.0488,-7.0122,-8.3537,-19.82,13.58,-22.48,3,S01
4280,-14.35563,0.19872,-5.06134,-28.5366,-3.2927,8.9634,-20.37,13.12,-21.28,3,S01
4300,-14.53520,1.45567,-4.37421,-27.3780,0.9756,26.0366,-20.37,13.12,-21.28,3,S01
4320,-14.86799,3.36625,-3.47159,-29.2683,10.0610,35.4268,-20.37,13.12,-21.28,3,S01
4340,-14.37958,4.36463,-3.40455,-38.9024,18.0488,32.6220,-22.48,11.74,-20.64,3,S01
4360,-13.11783,3.83312,-3.25851,-52.8659,18.0488,27.5610,-22.48,11.74,-20.64,3,S01
4380,-11.35570,2.74854,-3.19147,-64.7561,10.2439,26.8902,-22.48,11.74,-20.64,3,S01
4400,-9.05966,1.66876,-1.96325,-74.3902,4.5732,28.9634,-25.41,10.83,-18.72,3,S01
4420,-6.72531,0.47884,-1.86029,-77.8049,-5.3659,30.4878,-25.41,10.83,-18.72,3,S01
4440,-4.39815,-0.52194,-1.24738,-77.3781,-4.6951,24.7561,-25.41,10.83,-18.72,3,S01
4460,-2.11887,-2.11887,-0.78769,-71.3415,-4.0854,16.5854,-25.41,10.83,-18.72,3,S01
4480,-0.27294,-3.56736,-0.80206,-55.8537,-13.7195,5.4878,-26.79,11.10,-16.61,3,S01
4500,0.31125,-2.94247,-1.76213,-33.1098,-22.1951,-7.3780,-26.79,11.10,-16.61,3,S01
4520,-0.05028,-0.41420,-2.14999,-24.1463,-17.9878,-17.4390,-26.79,11.10,-16.61,3,S01
4540,-1.66397,1.78607,-2.53307,-27.0732,-17.1341,-16.0366,-26.88,12.20,-16.06,3,S01
4560,-5.02064,2.42293,-3.81157,-18.8415,-15.9756,-1.8902,-26.88,12.20,-16.06,3,S01
4580,-11.25275,1.60890,-5.70538,-24.0854,6.2195,11.0976,-26.88,12.20,-16.06,3,S01
4600,-17.38190,-0.10774,-5.48272,-61.2805,26.0976,28.7195,-29.27,10.64,-13.94,3,S01
4620,-19.84554,0.27533,-5.03979,-68.7805,2.0732,33.8415,-29.27,10.64,-13.94,3,S01
4640,-19.69949,0.57940,-5.75806,-52.5610,-11.0366,16.8293,-29.27,10.64,-13.94,3,S01
4660,-19.57020,-0.25857,-4.53222,-46.6463,-2.3780,-7.4390,-29.27,10.64,-13.94,3,S01
4680,-17.94215,-1.74058,-3.52187,-35.7317,-6.4024,-21.9512,-29.17,11.10,-13.12,3,S01
4700,-15.42584,-2.92811,-3.10049,-18.9024,-9.3902,-28.2927,-29.17,11.10,-13.12,3,S01
4720,-12.71082,-2.48039,-2.44209,8.8415,-4.8780,-32.5610,-29.17,11.10,-13.12,3,S01
4740,-9.64863,-2.27449,-1.32878,33.0488,-4.7561,-34.0244,-27.61,13.21,-15.05,3,S01
4760,-6.83066,-0.58897,-1.03669,44.3902,-16.5244,-44.0244,-27.61,13.21,-15.05,3,S01
4780,-3.79960,1.12049,-1.50835,47.5000,-31.4024,-44.3293,-27.61,13.21,-15.05,3,S01
4800,-1.49638,2.08535,-1.80283,42.1341,-36.2805,-31.0976,-26.33,15.05,-15.41,3,S01
4820,-0.21308,2.30083,-1.46765,24.5122,-37.1951,-11.5244,-26.33,15.05,-15.41,3,S01
4840,0.50278,1.30963,-1.86987,5.4268,-45.6098,7.0122,-26.33,15.05,-15.41,3,S01
4860,0.82839,0.28491,-3.12204,-8.9024,-57.1951,15.0610,-26.33,15.05,-15.41,3,S01
4880,0.32082,-0.14126,-4.82432,-13.8415,-53.9024,9.8780,-27.25,15.60,-13.94,3,S01
4900,-1.86748,0.72305,-5.31752,-16.7683,-24.5122,-2.1341,-27.25,15.60,-13.94,3,S01
4920,-6.03339,2.16436,-3.28963,-19.1463,13.1098,-8.7195,-27.25,15.60,-13.94,3,S01
4940,-12.46421,3.96719,-4.63757,-26.3415,36.4024,-12.4390,-27.80,14.31,-13.94,3,S01
4960,-20.03707,2.47082,-5.08289,-42.7439,61.6463,-14.3293,-27.80,14.31,-13.94,3,S01
4980,-23.59246,0.87628,-3.56497,-43.5976,51.5244,-7.3171,-27.80,14.31,-13.94,3,S01
5000,-21.85667,1.20189,-4.30477,-35.4878,14.6951,2.5000,-28.81,12.48,-13.30,3,S01
5020,-19.60612,2.04944,-4.66151,-35.1220,6.7683,10.3659,-28.81,12.48,-13.30,3,S01
5040,-17.78652,3.16274,-2.46124,-47.1951,11.4634,17.1341,-28.81,12.48,-13.30,3,S01
5060,-15.81610,3.78523,-1.48440,-58.2317,-0.1829,28.1098,-28.81,12.48,-13.30,3,S01
5080,-13.37640,2.82516,-1.56581,-58.5366,-18.3537,37.6829,-31.47,11.47,-10.18,3,S01
5100,-9.78031,-0.06704,-1.35033,-59.1463,-27.5610,34.0854,-31.47,11.47,-10.18,3,S01
5120,-6.03818,-2.48758,-1.89142,-58.8415,-32.4390,17.1341,-31.47,11.47,-10.18,3,S01
5140,-2.20745,-2.98796,-1.79326,-53.4756,-25.4268,-8.5366,-31.74,13.12,-7.98,3,S01
5160,1.19471,-1.89860,-0.83558,-49.0244,-20.8537,-29.2073,-31.74,13.12,-7.98,3,S01
5180,3.00951,1.30963,-2.97120,-36.1585,-21.7073,-30.8537,-31.74,13.12,-7.98,3,S01
5200,1.09894,2.35829,-3.19147,-38.7805,-2.8049,-17.6220,-31.83,13.67,-6.61,3,S01
5220,-1.25696,2.40857,-3.04303,-38.3537,8.0488,-0.7317,-31.83,13.67,-6.61,3,S01
5240,-3.60806,0.79009,-4.03423,-27.2561,11.3415,15.4268,-31.83,13.67,-6.61,3,S01
5260,-7.84101,-0.20351,-7.03656,-21.7073,26.4024,19.1463,-31.83,13.67,-6.61,3,S01
5280,-15.72272,-0.21069,-3.84269,-35.2439,43.9634,22.8049,-33.03,12.29,-6.15,3,S01
5300,-19.49838,-0.83318,-5.19542,-23.9024,4.9390,39.5122,-33.03,12.29,-6.15,3,S01
5320,-19.77611,0.05267,-4.78601,-13.0488,-10.6707,27.0732,-33.03,12.29,-6.15,3,S01
5340,-19.77611,-0.03591,-3.65116,-5.9146,0.7317,1.8902,-33.76,11.93,-5.78,3,S01
5360,-18.85434,-0.65841,-3.43329,-1.4024,2.9878,-15.6098,-33.76,11.93,-5.78,3,S01
5380,-16.63731,-2.02310,-3.49314,2.7439,10.5488,-20.3659,-33.76,11.93,-5.78,3,S01
5400,-14.71955,-2.68151,-2.11887,18.3537,29.0854,-20.4268,-32.75,11.65,-7.71,3,S01
5420,-12.69645,-2.90417,-1.48680,35.6098,36.5244,-20.9146,-32.75,11.65,-7.71,3,S01
5440,-10.24958,-2.39660,-0.98402,50.6098,24.5732,-27.3780,-32.75,11.65,-7.71,3,S01
5460,-7.13233,-0.52672,-0.84276,59.0244,-1.5854,-40.0610,-32.75,11.65,-7.71,3,S01
5480,-4.03423,2.31759,-1.26893,59.3902,-26.8293,-47.3171,-31.83,14.22,-9.91,3,S01
5500,-1.59214,3.96719,-1.55384,46.0366,-36.5854,-37.3171,-31.83,14.22,-9.91,3,S01
5520,-0.37828,3.38301,-0.84276,26.3415,-35.0000,-16.3415,-31.83,14.22,-9.91,3,S01
5540,-0.01197,1.65679,-0.56024,9.7561,-41.8902,0.0000,-31.93,14.86,-8.90,3,S01
5560,0.37828,0.30167,-1.25935,-7.3171,-52.5610,5.0000,-31.93,14.86,-8.90,3,S01
5580,0.43096,-0.00479,-4.21380,-18.2927,-49.7561,0.3049,-31.93,14.86,-8.90,3,S01
5600,-1.58257,0.54827,-6.33266,-21.2195,-17.1951,-5.3049,-32.20,15.14,-7.80,3,S01
5620,-6.32069,1.66397,-4.63278,-18.0488,28.9024,-6.2805,-32.20,15.14,-7.80,3,S01
5640,-11.96861,3.45483,-4.44364,-20.8537,51.2805,-2.9878,-32.20,15.14,-7.80,3,S01
5660,-18.85673,3.24654,-5.24330,-38.5366,56.3415,4.3293,-32.20,15.14,-7.80,3,S01
5680,-23.23333,2.49236,-3.83551,-46.2195,48.2927,4.2683,-33.30,13.67,-6.88,3,S01
5700,-21.43050,2.25534,-3.70622,-41.7073,19.1463,-2.9878,-33.30,13.67,-6.88,3,S01
5720,-18.59337,1.62806,-3.12204,-41.1585,0.4268,0.1829,-33.30,13.67,-6.88,3,S01
5740,-16.49844,1.10612,-2.78925,-41.7073,-4.3293,10.4268,-33.21,12.02,-5.14,3,S01
5760,-16.02679,1.65439,-1.73819,-41.0976,2.5000,22.7439,-33.21,12.02,-5.14,3,S01
5780,-14.60702,3.11964,-0.55545,-46.5244,8.8415,27.3780,-33.21,12.02,-5.14,3,S01
5800,-11.44668,2.59771,-0.71108,-51.0366,-2.1951,26.7073,-35.23,11.38,-1.93,3,S01
5820,-8.02536,0.64404,-0.91937,-62.7439,-14.3293,17.9268,-35.23,11.38,-1.93,3,S01
5840,-4.50349,-0.89783,-0.88585,-78.2317,-19.3293,-0.9146,-35.23,11.38,-1.93,3,S01
5860,-1.29526,-1.69988,-0.46208,-87.4390,-24.4512,-21.8293,-35.23,11.38,-1.93,3,S01
5880,1.47483,-1.69031,-0.66080,-80.6707,-31.8902,-37.0732,-34.22,13.58,2.94,3,S01
5900,2.58813,-0.80445,-1.99916,-69.5122,-32.5000,-40.3049,-34.22,13.58,2.94,3,S01
5920,2.09732,1.33836,-2.77249,-62.1341,-18.8415,-34.0854,-34.22,13.58,2.94,3,S01
5940,-0.10774,3.30160,-3.22978,-55.8537,-4.0244,-19.8780,-33.30,14.22,5.32,3,S01
5960,-3.43089,2.65517,-3.57454,-47.1341,5.3659,-0.3049,-33.30,14.22,5.32,3,S01
5980,-8.03973,1.68791,-6.48589,-45.1220,16.5244,9.6341,-33.30,14.22,5.32,3,S01
6000,-15.37317,0.88585,-5.56652,-70.6098,36.4634,16.8293,-33.39,13.12,8.07,3,S01
6020,-20.03707,0.25139,-6.57448,-75.7317,20.6098,34.3293,-33.39,13.12,8.07,3,S01
6040,-20.21664,1.02951,-5.88974,-66.5244,7.1341,24.3293,-33.39,13.12,8.07,3,S01
6060,-19.94849,0.94332,-4.97755,-64.5122,17.9878,-3.2927,-33.39,13.12,8.07,3,S01
6080,-19.11052,-0.05986,-4.61602,-61.8293,23.3537,-24.8171,-31.83,14.68,10.00,3,S01
6100,-17.33881,-1.12288,-4.44843,-60.6707,24.1463,-32.6220,-31.83,14.68,10.00,3,S01
6120,-15.45936,-1.18992,-2.38463,-52.3781,29.0244,-34.9390,-31.83,14.68,10.00,3,S01
6140,-12.80180,-0.93374,-1.76692,-42.0122,12.8659,-39.4512,-30.28,16.97,10.83,3,S01
6160,-8.88009,-0.14365,-0.95289,-36.8293,-12.4390,-51.1585,-30.28,16.97,10.83,3,S01
6180,-4.46279,1.81959,-1.26653,-35.0610,-34.5732,-65.3049,-30.28,16.97,10.83,3,S01
6200,-0.43096,2.99275,-1.61848,-43.1098,-38.1707,-62.6220,-28.07,18.81,13.21,3,S01
6220,1.99676,2.83952,-1.55384,-59.4512,-27.6220,-42.5000,-28.07,18.81,13.21,3,S01
6240,2.04704,1.56102,-1.19231,-77.9878,-15.0610,-19.7561,-28.07,18.81,13.21,3,S01
6260,0.91219,0.36871,-1.17555,-94.8781,-13.8415,-8.5976,-28.07,18.81,13.21,3,S01
6280,-0.22745,-0.07183,-2.54264,-99.0244,-21.3415,-11.5854,-26.24,17.98,17.25,3,S01
6300,-1.18992,-0.11013,-4.53941,-90.8537,-14.9390,-19.2073,-26.24,17.98,17.25,3,S01
6320,-3.31118,-0.12210,-5.20260,-76.5854,13.3537,-22.8049,-26.24,17.98,17.25,3,S01
6340,-8.35337,-0.10056,-1.19471,-62.0122,46.7683,-17.5610,-24.68,18.62,17.71,3,S01
6360,-13.32613,2.29365,-2.56180,-58.1707,47.8049,-13.7805,-24.68,18.62,17.71,3,S01
6380,-17.86793,3.01430,-3.37104,-60.3049,45.3659,-4.2073,-24.68,18.62,17.71,3,S01
6400,-21.53584,1.61609,-3.60088,-66.2195,39.0854,9.1463,-24.31,17.98,18.62,3,S01
6420,-22.26129,2.44209,-3.14598,-60.0000,34.5122,6.2805,-24.31,17.98,18.62,3,S01
6440,-20.65238,3.11246,-3.33512,-52.9268,25.7317,5.9756,-24.31,17.98,18.62,3,S01
6460,-18.93095,3.18908,-3.17232,-53.2317,18.1707,14.5732,-24.31,17.98,18.62,3,S01
6480,-16.51520,2.32716,-2.46124,-56.0366,12.2561,25.3049,-23.39,15.14,18.72,3,S01
6500,-13.31894,0.77093,-1.37906,-51.7073,-5.9756,27.3171,-23.39,15.14,18.72,3,S01
6520,-9.50977,-0.32561,-1.53229,-49.4512,-30.6098,16.4024,-23.39,15.14,18.72,3,S01
6540,-5.02543,-0.52433,-1.17316,-58.7195,-38.3537,0.3659,-22.48,16.70,22.29,3,S01
6560,2.71742,0.28730,-1.37427,-83.0488,-21.5854,-20.5488,-22.48,16.70,22.29,3,S01
6580,3.44047,1.13964,-1.11809,-83.7195,-3.4756,-25.4268,-22.48,16.70,22.29,3,S01
6600,1.61369,1.89860,-2.07577,-70.3659,9.4512,-25.1829,-20.09,18.35,23.39,3,S01
6620,-1.25696,2.31998,-3.02627,-58.3537,19.3293,-20.0610,-20.09,18.35,23.39,3,S01
6640,-4.03662,1.91536,-3.34470,-49.3293,22.0732,-7.8049,-20.09,18.35,23.39,3,S01
6660,-7.34781,1.29287,-5.56652,-46.5244,17.5000,8.2927,-20.09,18.35,23.39,3,S01
6680,-13.37640,0.19632,-5.30555,-57.1341,18.0488,28.1098,-19.63,18.81,23.85,3,S01
6700,-17.93018,-1.75016,-7.18021,-57.3781,1.2805,51.2195,-19.63,18.81,23.85,3,S01
6720,-18.86152,-0.61531,-6.49307,-47.7439,0.5488,45.6707,-19.63,18.81,23.85,3,S01
6740,-18.21988,0.84994,-5.07571,-29.2073,12.3171,19.6951,-18.90,19.63,24.68,3,S01
6760,-18.02116,0.76854,-4.81235,-16.4634,17.6829,-5.7927,-18.90,19.63,24.68,3,S01
6780,-17.39866,-0.88107,-5.41568,-10.7927,17.1951,-17.8049,-18.90,19.63,24.68,3,S01
6800,-16.23269,-2.83952,-4.81953,-2.1341,22.2561,-16.9512,-18.07,20.09,23.03,3,S01
6820,-14.24311,-3.47638,-3.47159,15.4878,18.5366,-16.4634,-18.07,20.09,23.03,3,S01
6840,-11.07079,-2.71981,-2.20267,34.6341,-3.6585,-24.8780,-18.07,20.09,23.03,3,S01
6860,-7.04853,-0.25857,-1.59454,49.9390,-32.5000,-41.2195,-18.07,20.09,23.03,3,S01
6880,-2.82755,2.52828,-1.25935,53.9634,-50.5488,-49.0244,-18.81,22.84,22.29,3,S01
6900,0.10295,4.44364,-0.69911,42.1341,-53.8415,-38.7195,-18.81,22.84,22.29,3,S01
6920,0.60573,4.01508,-0.71587,21.5854,-50.2439,-14.6951,-18.81,22.84,22.29,3,S01
6940,0.02634,2.45645,-0.65841,-9.2073,-45.5488,2.0122,-17.80,21.65,23.85,3,S01
6960,-0.23942,0.90980,-1.47722,-32.5610,-48.2317,3.4756,-17.80,21.65,23.85,3,S01
6980,-0.90740,-0.60334,-3.16753,-29.4512,-45.1829,-1.9512,-17.80,21.65,23.85,3,S01
7000,-2.88741,-1.64721,-3.64637,-9.7561,-20.2439,-5.6098,-17.43,20.55,24.50,3,S01
7020,-6.54335,-0.83797,-1.15879,4.7561,11.2805,-4.6341,-17.43,20.55,24.50,3,S01
7040,-10.81461,2.19548,-2.91135,7.9878,19.0244,0.8537,-17.43,20.55,24.50,3,S01
7060,-15.86638,3.53384,-4.56574,11.8902,35.2439,14.6951,-17.43,20.55,24.50,3,S01
7080,-20.31241,1.96085,-3.56497,11.0366,46.5244,31.6463,-19.54,20.00,22.48,3,S01
7100,-22.92688,2.45166,-3.42850,20.1829,33.1707,35.0610,-19.54,20.00,22.48,3,S01
7120,-21.64358,3.33512,-3.04064,22.9878,18.2927,31.4024,-19.54,20.00,22.48,3,S01
7140,-19.17995,3.11246,-2.76051,20.7317,-3.5976,37.8049,-21.47,18.35,21.56,3,S01
7160,-16.37873,1.80523,-3.22738,14.5122,-18.4146,47.3171,-21.47,18.35,21.56,3,S01
7180,-13.10825,-0.00718,-1.28329,7.8659,-19.0244,49.2073,-21.47,18.35,21.56,3,S01
7200,-9.16500,-1.40540,-0.78530,3.0488,-26.4024,43.8415,-22.20,16.70,21.56,3,S01
7220,-5.55934,-1.89860,-0.33040,4.4512,-32.9268,27.9268,-22.20,16.70,21.56,3,S01
7240,-1.50116,-1.46286,-0.69671,-0.7927,-35.3659,1.2805,-22.20,16.70,21.56,3,S01
7260,2.08056,-0.43814,-1.59454,-5.7317,-34.5122,-19.0244,-22.20,16.70,21.56,3,S01
7280,2.95444,0.71347,-1.83396,-2.5610,-20.4268,-24.0854,-21.19,18.44,21.74,3,S01
7300,1.23541,0.99120,-2.11647,3.7805,1.4634,-14.3902,-21.19,18.44,21.74,3,S01
7320,-1.17076,1.13725,-2.54025,6.7683,18.7195,-0.4268,-21.19,18.44,21.74,3,S01
7340,-3.13640,1.37188,-2.96642,15.6098,18.5366,15.3659,-22.29,20.18,20.46,3,S01
7360,-5.51385,1.24977,-4.86502,30.9146,3.3537,27.1951,-22.29,20.18,20.46,3,S01
7380,-11.25035,1.15161,-4.46040,33.7805,-6.4634,32.0732,-22.29,20.18,20.46,3,S01
7400,-17.93736,-1.53229,-6.37815,43.1707,-25.3049,49.2073,-22.57,19.36,21.01,3,S01
7420,-20.41536,-1.04627,-8.26718,46.1585,-28.2317,49.0854,-22.57,19.36,21.01,3,S01
7440,-20.11848,1.78607,-6.06451,68.9634,-13.2317,33.9024,-22.57,19.36,21.01,3,S01
7460,-19.19910,2.65038,-4.56574,81.7073,-0.9146,14.2073,-22.57,19.36,21.01,3,S01
7480,-17.39388,0.76375,-4.63757,77.0122,5.4268,-4.2073,-25.05,17.16,14.77,3,S01
7500,-15.78737,-1.15879,-3.86185,75.0000,27.4390,-15.2439,-25.05,17.16,14.77,3,S01
7520,-13.41232,-2.43251,-2.91135,77.0122,40.4268,-21.1585,-25.05,17.16,14.77,3,S01
7540,-10.66138,-1.65918,-2.10450,90.8537,35.4268,-29.6341,-25.41,21.28,10.73,3,S01
7560,-7.13951,-0.22984,-1.88184,109.3293,22.4390,-33.7805,-25.41,21.28,10.73,3,S01
7580,-3.34470,0.85952,-1.47004,114.0244,6.0976,-28.3537,-25.41,21.28,10.73,3,S01
7600,-0.95050,2.00874,-1.24977,108.1707,-17.3780,-17.2561,-25.14,21.38,8.72,3,S01
7620,0.06225,2.45166,-0.81163,94.8171,-38.7195,1.4024,-25.14,21.38,8.72,3,S01
7640,0.22027,2.00874,-0.60094,67.5610,-52.2561,16.0366,-25.14,21.38,8.72,3,S01
7660,0.35913,0.48363,-0.50518,47.6220,-58.7805,19.0244,-25.14,21.38,8.72,3,S01
7680,0.53391,-0.73741,-1.74058,45.9146,-64.2073,12.2561,-25.96,19.91,8.62,3,S01
7700,0.22505,-0.84994,-4.13718,50.6098,-54.9390,5.4268,-25.96,19.91,8.62,3,S01
7720,-2.25534,1.24977,-4.51307,44.8171,-15.4878,3.5366,-25.96,19.91,8.62,3,S01
7740,-7.44118,4.33829,-1.64242,30.3049,25.7317,13.2927,-27.25,18.07,5.96,3,S01
7760,-11.98537,4.89614,-5.58567,22.7439,37.3780,33.4756,-27.25,18.07,5.96,3,S01
7780,-20.39620,1.84832,-5.46596,-1.2195,66.4024,42.1951,-27.25,18.07,5.96,3,S01
7800,-27.36572,0.76375,-3.39977,-6.0976,71.7683,40.0610,-27.98,16.24,4.86,3,S01
7820,-26.16384,2.39899,-3.16274,2.1341,41.5244,34.8171,-27.98,16.24,4.86,3,S01
7840,-21.05700,3.28724,-3.18668,4.2073,17.7439,27.6220,-27.98,16.24,4.86,3,S01
7860,-16.88870,3.02388,-3.39737,-3.1098,12.6220,28.2927,-27.98,16.24,4.86,3,S01
7880,-15.14572,2.48997,-1.64482,-7.8659,18.4146,34.3902,-28.72,14.77,4.04,3,S01
7900,-12.70842,2.25773,-0.97205,-15.3049,-5.1220,37.6829,-28.72,14.77,4.04,3,S01
7920,-3.73495,-1.23062,-2.04465,-13.9634,-49.0244,22.2561,-28.72,14.77,4.04,3,S01
7940,0.11492,-1.82199,-1.35991,-19.0854,-33.9024,3.5976,-28.90,15.60,5.87,3,S01
7960,2.55461,-2.48758,-1.15401,-30.1829,-31.8902,-6.3415,-28.90,15.60,5.87,3,S01
7980,2.77009,-1.91297,-1.53468,-21.6463,-35.4878,-13.4146,-28.90,15.60,5.87,3,S01
8000,1.37667,-0.26815,-1.86269,-3.4756,-25.4878,-17.6220,-28.44,16.88,6.06,3,S01
8020,-0.34716,1.92733,-3.20823,0.2439,-14.2683,-17.1341,-28.44,16.88,6.06,3,S01
8040,-2.54743,3.36385,-5.30555,-6.6463,-5.0000,-5.0000,-28.44,16.88,6.06,3,S01
8060,-5.78200,2.42054,-4.16831,-2.1951,12.5610,16.5854,-28.44,16.88,6.06,3,S01
8080,-11.25275,-0.18196,-5.17866,6.5854,13.0488,30.1220,-28.81,17.80,5.50,3,S01
8100,-17.50880,-1.88903,-6.28717,-16.0366,-3.2927,36.8902,-28.81,17.80,5.50,3,S01
8120,-21.59091,-1.31202,-6.25605,0.6707,-23.7805,43.1707,-28.81,17.80,5.50,3,S01
8140,-23.07053,0.70150,-5.53539,25.0610,-12.1341,19.9390,-28.90,17.61,4.86,3,S01
8160,-22.09609,0.60813,-3.97916,25.6707,2.0122,-10.7317,-28.90,17.61,4.86,3,S01
8180,-18.93095,-1.28090,-3.93128,28.2927,2.2561,-24.4512,-28.90,17.61,4.86,3,S01
8200,-15.94299,-2.63362,-2.86347,36.2805,14.2073,-30.7317,-27.80,18.62,1.74,3,S01
8220,-13.43387,-3.22260,-1.46286,62.2561,17.7439,-37.1341,-27.80,18.62,1.74,3,S01
8240,-10.21606,-2.63602,-0.82600,87.0732,1.7683,-47.5000,-27.80,18.62,1.74,3,S01
8260,-5.57131,-0.48842,-1.46765,102.9878,-26.8293,-51.0976,-27.80,18.62,1.74,3,S01
8280,-1.79805,2.50673,-2.48279,108.2317,-48.0488,-43.9024,-26.61,21.65,-1.10,3,S01
8300,0.67516,4.42209,-2.37744,87.6829,-49.8781,-22.1951,-26.61,21.65,-1.10,3,S01
8320,1.34315,5.19302,-2.02071,51.2805,-43.4756,4.8780,-26.61,21.65,-1.10,3,S01
8340,0.60094,3.83551,-2.05183,10.9146,-42.3171,25.5488,-27.25,20.46,0.00,3,S01
8360,-0.07422,1.76692,-3.34949,-17.9268,-50.6707,27.9268,-27.25,20.46,0.00,3,S01
8380,-0.52194,-0.08619,-6.18422,-25.4268,-56.9512,15.6707,-27.25,20.46,0.00,3,S01
8400,-2.59292,-0.75657,-7.31189,-16.5854,-28.7805,-4.9390,-26.61,20.92,0.55,3,S01
8420,-6.73968,0.23463,-3.94564,-2.0732,14.6341,-24.7561,-26.61,20.92,0.55,3,S01
8440,-10.27112,2.67193,-1.87466,0.1220,19.1463,-31.8902,-26.61,20.92,0.55,3,S01
8460,-12.58153,3.39737,-5.03261,-5.1829,9.7561,-19.3902,-26.61,20.92,0.55,3,S01
8480,-17.09699,0.74220,-4.93206,-19.5732,29.2683,3.7195,-26.61,20.83,0.18,3,S01
8500,-21.79921,0.01676,-2.81319,-24.0854,43.1098,12.2561,-26.61,20.83,0.18,3,S01
8520,-21.02827,1.52989,-2.33914,-21.2195,22.5000,10.1829,-26.61,20.83,0.18,3,S01
8540,-18.11932,1.85072,-1.57299,-16.4024,6.5244,17.0122,-27.61,19.63,0.46,3,S01
8560,-15.55034,1.28569,-0.79727,-16.9512,3.8415,25.7317,-27.61,19.63,0.46,3,S01
8580,-14.04199,0.51236,0.09816,-17.5000,1.4634,32.4390,-27.61,19.63,0.46,3,S01
8600,-12.09072,-0.38307,-0.25139,-20.7317,-8.4146,36.4024,-28.62,17.98,1.19,3,S01
8620,-9.45710,-0.58419,-0.01676,-19.7561,-13.4756,33.9634,-28.62,17.98,1.19,3,S01
8640,-6.85460,-0.32082,-0.22745,-16.7073,-20.9756,25.1220,-28.62,17.98,1.19,3,S01
8660,-3.84030,0.19632,0.16999,-15.1829,-24.8780,5.6707,-28.62,17.98,1.19,3,S01
8680,-1.24259,0.79248,-0.75896,-10.3659,-31.5244,-17.1341,-28.17,19.08,2.39,3,S01
8700,0.54109,0.56503,-2.35111,-2.8049,-35.2439,-29.8171,-28.17,19.08,2.39,3,S01
8720,0.75896,0.63686,-3.57933,4.3293,-27.8659,-28.7195,-28.17,19.08,2.39,3,S01
8740,-1.00317,1.00317,-3.62003,8.5976,-10.3659,-13.7805,-27.71,19.82,1.65,3,S01
8760,-3.67510,0.43335,-2.57377,7.6829,4.5732,5.2439,-27.71,19.82,1.65,3,S01
8780,-7.34541,0.69911,-4.00550,-0.7927,9.8171,13.9024,-27.71,19.82,1.65,3,S01
8800,-13.72356,0.37350,-4.08690,-14.8780,20.6707,25.3049,-29.17,18.35,1.19,3,S01
8820,-17.99721,-0.13886,-4.93924,-6.9512,20.3049,39.0244,-29.17,18.35,1.19,3,S01
8840,-19.04109,-0.32561,-4.24731,-0.9146,15.0000,32.3780,-29.17,18.35,1.19,3,S01
8860,-19.42416,-0.16759,-3.08373,3.5366,17.9268,10.9146,-29.17,18.35,1.19,3,S01
8880,-18.34677,-0.26815,-2.63841,11.8902,11.5854,-7.3171,-29.27,18.53,0.00,3,S01
8900,-15.83764,-1.24738,-2.12126,13.1098,4.0854,-18.7805,-29.27,18.53,0.00,3,S01
8920,-13.42429,-1.34075,-1.74298,19.4512,0.9146,-30.7317,-29.27,18.53,0.00,3,S01
8940,-10.88165,-1.01514,-1.69749,23.9024,1.3415,-38.5976,-27.61,20.18,-1.65,3,S01
8960,-8.16902,-0.41420,-1.12767,24.9390,5.1829,-40.9756,-27.61,20.18,-1.65,3,S01
8980,-5.08768,0.30885,-1.17555,25.4878,-0.1220,-39.2683,-27.61,20.18,-1.65,3,S01
9000,-2.96163,1.52989,-1.64242,23.6585,-5.1829,-35.5488,-26.88,22.11,-2.02,3,S01
9020,-2.23618,1.82438,-1.24020,15.9146,-2.1951,-23.2317,-26.88,22.11,-2.02,3,S01
9040,-2.02549,1.16837,-1.15640,7.6220,-3.9024,-7.8659,-26.88,22.11,-2.02,3,S01
9060,-2.37026,0.30646,-2.03986,1.0976,-12.1951,1.5854,-26.88,22.11,-2.02,3,S01
9080,-3.04303,0.05507,-3.50511,-4.5732,-18.5976,3.1098,-27.16,22.20,-1.19,3,S01
9100,-4.55617,0.27773,-4.65912,-2.7439,-14.0244,0.0000,-27.16,22.20,-1.19,3,S01
9120,-7.28077,0.99359,-3.83791,2.6829,-0.9756,-5.3049,-27.16,22.20,-1.19,3,S01
9140,-10.81700,2.04704,-2.44927,0.7927,1.8293,-8.7195,-26.70,22.48,-1.47,3,S01
9160,-12.97418,2.76530,-6.18662,-6.4024,2.7439,-10.8537,-26.70,22.48,-1.47,3,S01
9180,-16.25184,1.59933,-4.90811,-12.5000,22.8049,-7.1951,-26.70,22.48,-1.47,3,S01
9200,-18.15762,1.77410,-3.95283,-9.2683,23.4146,-2.7439,-25.23,21.65,-2.11,3,S01
9220,-17.32923,2.31759,-3.47159,-1.5854,12.6829,0.6098,-25.23,21.65,-2.11,3,S01
9240,-15.38753,2.02310,-3.70862,5.2439,2.1951,7.6829,-25.23,21.65,-2.11,3,S01
9260,-13.11783,0.89783,-3.36625,6.1585,-0.5488,14.9390,-25.23,21.65,-2.11,3,S01
9280,-10.78348,0.28491,-3.08852,3.0488,-0.7927,21.0366,-22.29,26.42,1.83,3,S01
9300,-7.26640,0.97205,-1.08936,-1.8293,0.3049,24.6341,-22.29,26.42,1.83,3,S01
9320,-5.85143,1.97043,-0.54348,-12.1951,-4.2683,21.6463,-22.29,26.42,1.83,3,S01
9340,-5.08528,2.94487,-0.22505,-25.7927,-9.6341,16.7683,-30.37,26.88,1.01,3,S01
9360,-4.09648,2.95444,0.13408,-43.5366,-11.7683,8.2317,-30.37,26.88,1.01,3,S01
9380,-3.32315,2.58813,-0.35434,-60.4878,-15.1220,-3.4146,-30.37,26.88,1.01,3,S01
9400,-3.83312,1.91536,-0.97683,-71.8293,-11.2805,-13.1707,-30.00,23.49,2.48,3,S01
9420,-5.54737,1.82917,-1.24498,-78.3537,0.0610,-23.1098,-30.00,23.49,2.48,3,S01
9440,-7.22570,2.45166,-1.58975,-86.7683,6.0976,-31.2195,-30.00,23.49,2.48,3,S01
9460,-7.23528,2.82276,-2.62644,-92.8049,-1.7683,-34.8171,-30.00,23.49,2.48,3,S01
9480,-6.10043,3.13880,-3.96001,-94.5122,-14.5732,-36.2805,-27.89,24.68,5.96,3,S01
9500,-5.63116,3.15077,-4.83868,-101.0976,-21.1585,-37.3780,-27.89,24.68,5.96,3,S01
9520,-5.95199,1.65200,-5.37259,-113.7805,-20.0000,-36.0366,-27.89,24.68,5.96,3,S01
9540,-7.60638,0.68474,-6.88333,-125.9756,-12.1341,-36.1585,-25.87,26.70,10.83,3,S01
9560,-12.12663,1.15161,-7.07965,-143.7805,5.4878,-31.6463,-25.87,26.70,10.83,3,S01
9580,-16.32127,2.39899,-6.57208,-153.0488,17.5610,-9.2073,-25.87,26.70,10.83,3,S01
9600,-17.83201,2.82037,-5.83706,-161.5854,18.2927,4.6341,-23.03,27.98,15.60,3,S01
9620,-19.07221,1.97043,-5.32710,-168.7195,22.7439,-4.9390,-23.03,27.98,15.60,3,S01
9640,-19.17277,1.03190,-5.03979,-170.4878,26.2805,-24.2683,-23.03,27.98,15.60,3,S01
9660,-17.65963,0.34477,-4.72376,-174.2683,21.8293,-42.5000,-23.03,27.98,15.60,3,S01
9680,-15.28458,0.04070,-3.83791,-174.8171,22.6220,-56.8293,-17.52,29.82,18.53,3,S01
9700,-12.05959,-0.02155,-2.80840,-172.8049,20.6098,-67.2561,-17.52,29.82,18.53,3,S01
9720,-8.41083,0.73023,-2.23858,-172.9268,9.9390,-79.1463,-17.52,29.82,18.53,3,S01
9740,-4.94642,1.32399,-2.12366,-175.0610,0.8537,-86.8293,-9.36,32.11,21.38,3,S01
9760,-2.04944,1.86748,-2.11647,-182.1342,0.1829,-87.8049,-9.36,32.11,21.38,3,S01
9780,-0.22266,2.16436,-2.01352,-192.4390,2.1951,-80.9756,-9.36,32.11,21.38,3,S01
9800,0.87867,1.77171,-2.88022,-203.1707,-0.1220,-66.3415,-1.56,32.02,23.39,3,S01
9820,1.30723,0.05986,-3.57454,-212.5610,-3.1707,-46.6463,-1.56,32.02,23.39,3,S01
9840,0.84036,-1.64960,-3.05979,-213.8415,-3.7805,-32.8049,-1.56,32.02,23.39,3,S01
9860,-0.01676,-2.20267,-2.27210,-205.7317,-4.8780,-30.9146,-1.56,32.02,23.39,3,S01
9880,-0.82839,-1.62087,-2.09014,-193.5366,-5.8537,-37.0122,4.13,31.10,24.22,3,S01
9900,-1.44131,-0.89304,-3.87382,-169.5732,-4.0854,-41.8902,4.13,31.10,24.22,3,S01
9920,-4.29759,-0.91219,-6.96952,-143.1707,14.4512,-40.3659,4.13,31.10,24.22,3,S01
9940,-10.29986,-0.31364,-3.92170,-119.6951,52.9878,-41.5854,8.72,31.74,21.74,3,S01
9960,-17.08981,2.87065,-1.63763,-99.2073,60.4878,-42.8659,8.72,31.74,21.74,3,S01
9980,-22.84547,5.26724,-2.23858,-102.0122,33.5976,-34.2683,8.72,31.74,21.74,3,S01
10000,-23.89174,4.10845,-3.80199,-113.2317,10.0610,-28.5976,11.83,30.92,21.28,3,S01
10020,-23.18545,3.62482,-3.51708,-118.2927,8.5366,-32.8659,11.83,30.92,21.28,3,S01
10040,-21.40416,4.27604,-4.05099,-117.9268,22.5000,-34.2073,11.83,30.92,21.28,3,S01
10060,-19.87187,5.05655,-2.41575,-124.3902,34.3293,-24.7561,11.83,30.92,21.28,3,S01
10080,-17.12333,4.70700,-2.80361,-142.7439,36.1585,-14.8780,15.14,30.83,17.52,3,S01
10100,-14.11861,3.34709,-2.14999,-155.1220,38.1707,-15.6707,15.14,30.83,17.52,3,S01
10120,-10.65180,1.70467,-1.23301,-162.8659,24.9390,-27.9268,15.14,30.83,17.52,3,S01
10140,-6.32069,0.49321,-0.95289,-164.5122,2.4390,-46.6463,19.91,30.46,15.50,3,S01
10160,-1.92973,-0.18675,-2.01592,-160.7317,-9.7561,-65.6707,19.91,30.46,15.50,3,S01
10180,0.82600,-0.85473,-2.48518,-155.7927,-0.7927,-76.5854,19.91,30.46,15.50,3,S01
10200,2.03986,-1.34315,-1.63524,-143.4756,13.2317,-74.6341,24.77,29.27,11.93,3,S01
10220,2.23379,-1.80523,-1.05345,-125.2439,19.1463,-67.3171,24.77,29.27,11.93,3,S01
10240,0.95768,-0.33279,-1.56102,-100.7317,24.9390,-60.2439,24.77,29.27,11.93,3,S01
10260,-0.88346,2.46842,-2.49715,-88.7195,30.8537,-53.2317,24.77,29.27,11.93,3,S01
10280,-3.41174,3.56736,-2.91374,-95.0610,30.6098,-39.3902,26.97,28.99,9.08,3,S01
10300,-6.25365,2.45166,-4.78840,-102.3781,23.9024,-14.2683,26.97,28.99,9.08,3,S01
10320,-10.43154,0.35434,-7.24725,-125.6098,26.0976,3.1098,26.97,28.99,9.08,3,S01
10340,-15.89032,-2.34632,-7.62074,-135.9146,21.2195,12.5000,26.97,30.73,5.96,3,S01
10360,-19.12728,-1.68552,-7.81467,-108.9634,7.2561,3.1707,26.97,30.73,5.96,3,S01
10380,-21.16474,1.48201,-5.76284,-86.5854,17.7439,-27.1951,26.97,30.73,5.96,3,S01
10400,-22.57732,3.08852,-4.75967,-94.0244,30.1829,-45.7317,28.90,28.26,0.55,3,S01
10420,-22.35227,1.12767,-4.90333,-110.8537,32.4390,-49.0854,28.90,28.26,0.55,3,S01
10440,-20.44169,-1.10612,-4.79798,-116.5244,37.1341,-52.1341,28.90,28.26,0.55,3,S01
10460,-17.53274,-2.32956,-3.68946,-104.0244,33.4756,-57.9878,28.90,28.26,0.55,3,S01
10480,-13.56794,-1.96085,-1.64721,-77.4390,11.2195,-71.1585,31.65,26.33,-1.28,3,S01
10500,-8.90404,-0.54348,-0.59855,-55.7317,-19.6341,-84.6341,31.65,26.33,-1.28,3,S01
10520,-3.58651,1.01993,-0.67516,-41.0366,-46.6463,-82.1951,31.65,26.33,-1.28,3,S01
10540,0.47884,2.31280,-0.95768,-40.9146,-54.1463,-61.0976,33.67,25.32,-0.37,3,S01
10560,1.14443,1.86748,-0.95050,-53.5366,-42.5610,-27.1951,33.67,25.32,-0.37,3,S01
10580,0.04070,1.06542,-0.39744,-69.3902,-34.6951,-3.4146,33.67,25.32,-0.37,3,S01
10600,-0.43335,-0.23463,-0.64883,-74.9390,-45.9756,0.3659,33.67,25.60,-0.73,3,S01
10620,-0.17238,-1.38624,-1.53708,-67.6829,-56.5854,-11.5244,33.67,25.60,-0.73,3,S01
10640,0.45729,-1.48201,-2.82276,-57.0122,-50.0000,-27.3171,33.67,25.60,-0.73,3,S01
10660,0.10534,-0.20590,-4.85544,-50.7927,-28.9024,-36.1585,33.67,25.60,-0.73,3,S01
10680,-5.73651,3.40695,-3.66073,-56.0366,10.1829,-15.2439,33.94,24.13,-2.39,3,S01
10700,-10.97263,3.50511,-4.69503,-58.7805,13.1098,4.3293,33.94,24.13,-2.39,3,S01
10720,-20.10651,1.87945,-5.88016,-65.9146,32.5000,18.9634,33.94,24.13,-2.39,3,S01
10740,-28.99139,0.28012,-4.82192,-66.2195,43.8415,37.1951,31.38,24.50,-5.60,3,S01
10760,-27.21489,2.99515,-3.73735,-50.9756,5.7927,36.7683,31.38,24.50,-5.60,3,S01
10780,-22.44325,5.11880,-4.59447,-44.3902,-26.9512,22.4390,31.38,24.50,-5.60,3,S01
10800,-19.80005,4.30238,-3.33991,-51.8902,-20.1220,23.4756,27.98,19.72,-7.71,3,S01
10820,-16.66125,2.67911,-1.88903,-60.4878,-14.8171,26.5854,27.98,19.72,-7.71,3,S01
10840,-11.05882,0.12689,-3.23935,-73.0488,-33.2927,25.6098,27.98,19.72,-7.71,3,S01
10860,-5.13077,-1.17555,-2.92571,-77.0122,-24.5732,6.1585,27.98,19.72,-7.71,3,S01
10880,0.53391,-1.38145,-1.64003,-86.5244,-6.4634,-21.1585,29.45,25.60,-7.43,3,S01
10900,3.18668,-2.51870,-1.52511,-85.2439,-7.9268,-33.4756,29.45,25.60,-7.43,3,S01
10920,2.40378,-1.94888,-0.80685,-60.5488,-11.4024,-40.9146,29.45,25.60,-7.43,3,S01
10940,0.36152,-0.21069,-0.89064,-41.7073,-11.6463,-45.9756,30.73,24.31,-8.35,3,S01
10960,-1.53468,0.53870,-1.05105,-32.1951,-13.8415,-41.7683,30.73,24.31,-8.35,3,S01
10980,-1.63285,-0.23942,-2.41096,-19.4512,-22.1341,-25.4268,30.73,24.31,-8.35,3,S01
11000,-0.58419,0.05507,-3.82833,-10.0610,-25.6707,-8.9024,30.55,25.23,-7.06,3,S01
11020,-2.22421,1.39821,-6.07170,4.9390,-19.9390,7.9268,30.55,25.23,-7.06,3,S01
11040,-7.58244,1.74537,-5.55455,17.3171,-7.4390,23.9024,30.55,25.23,-7.06,3,S01
11060,-15.19839,2.04944,-4.07972,27.2561,-10.6098,36.8293,30.55,25.23,-7.06,3,S01
11080,-22.30678,2.77009,-5.01825,24.2683,-16.5244,40.0000,29.36,27.34,-5.32,3,S01
11100,-26.32904,1.86269,-4.71179,1.9512,-3.7195,30.5488,29.36,27.34,-5.32,3,S01
11120,-26.43438,1.36709,-3.08134,-4.6951,18.2317,-6.6463,29.36,27.34,-5.32,3,S01
11140,-22.76168,-1.09415,-2.87544,-13.5976,34.5122,-34.8171,30.18,24.77,-7.25,3,S01
11160,-18.33001,-4.32872,-3.48117,-4.2073,46.8902,-42.3171,30.18,24.77,-7.25,3,S01
11180,-14.28141,-2.99036,-0.67038,35.1220,47.1951,-52.4390,30.18,24.77,-7.25,3,S01
11200,-9.42837,-2.39420,-0.12450,67.8659,18.2927,-58.2317,33.39,22.75,-5.14,3,S01
11220,-4.70700,1.14203,-1.08457,89.3293,-23.7805,-68.7195,33.39,22.75,-5.14,3,S01
11240,-0.59376,4.05578,-2.11169,84.4512,-54.7561,-56.2805,33.39,22.75,-5.14,3,S01
11260,0.90501,5.86101,-1.85551,67.3171,-57.0122,-19.1463,33.39,22.75,-5.14,3,S01
11280,0.67277,4.92727,-0.87628,35.7317,-45.9146,20.2439,33.58,24.40,-2.11,3,S01
11300,-0.01676,1.80283,-0.74460,0.9756,-45.3049,40.7317,33.58,24.40,-2.11,3,S01
11320,-0.34955,-1.61848,-2.11887,-18.7805,-54.4512,35.5488,33.58,24.40,-2.11,3,S01
11340,-0.25379,-1.98719,-3.42131,-12.9268,-55.9146,11.1585,32.94,24.77,-1.38,3,S01
11360,0.01915,-0.35195,-3.41413,-1.7073,-38.1098,-13.5976,32.94,24.77,-1.38,3,S01
11380,-1.03430,1.26414,-4.98473,4.0244,-9.8780,-23.2317,32.94,24.77,-1.38,3,S01
11400,-4.50828,2.67193,-4.99909,-3.5366,22.5000,-16.6463,33.94,23.94,-2.29,3,S01
11420,-10.56801,3.58412,-5.81552,-27.9268,33.6585,1.8902,33.94,23.94,-2.29,3,S01
11440,-21.60767,2.83713,-5.35822,-48.1707,35.7317,19.3902,33.94,23.94,-2.29,3,S01
11460,-29.45826,3.22738,-3.57694,-47.9268,35.6098,23.0488,33.94,23.94,-2.29,3,S01
11480,-27.11912,1.38145,-5.53539,-52.4390,0.0610,30.9146,31.74,24.68,-2.84,3,S01
11500,-22.68985,2.63602,-3.65595,-56.2805,6.3415,19.3902,31.74,24.68,-2.84,3,S01
11520,-18.94053,2.78206,-2.97599,-63.2317,8.9024,23.4146,31.74,24.68,-2.84,3,S01
11540,-16.12256,2.19788,-1.07979,-67.6829,11.3415,41.7683,30.00,24.22,-6.42,3,S01
11560,-11.79384,1.13246,-1.19710,-66.5854,-5.2439,52.8049,30.00,24.22,-6.42,3,S01
11580,-6.93121,-1.33357,-2.92093,-58.2317,-19.3902,45.9146,30.00,24.22,-6.42,3,S01
11600,-2.25294,-2.92571,-2.01831,-56.8293,-2.2561,16.6463,30.37,24.68,-6.70,3,S01
11620,1.49638,-3.85706,-0.84994,-62.4390,1.0366,-14.7561,30.37,24.68,-6.70,3,S01
11640,2.81319,-2.93290,-1.24020,-45.9146,-19.2073,-35.1829,30.37,24.68,-6.70,3,S01
11660,2.22900,-0.99838,-1.35751,-12.6220,-25.5488,-42.1341,30.37,24.68,-6.70,3,S01
11680,0.94810,0.76854,-1.95846,11.5854,-21.1585,-40.5488,32.57,22.75,-5.05,3,S01
11700,-0.50039,1.28329,-2.42533,23.8415,-16.5854,-29.1463,32.57,22.75,-5.05,3,S01
11720,-1.55384,1.14682,-2.01592,37.9878,-10.9756,-11.3415,32.57,22.75,-5.05,3,S01
11740,-3.67989,3.94564,-5.98790,42.6220,-11.2195,-1.2805,32.39,23.03,-3.39,3,S01
11760,-12.34450,4.92008,-3.64637,15.4878,-0.6098,31.1585,32.39,23.03,-3.39,3,S01
11780,-19.75695,-3.34949,-4.26886,12.0732,-26.8902,94.7561,32.39,23.03,-3.39,3,S01
11800,-21.55979,-3.51708,-7.06050,-3.9024,-58.9024,68.4756,30.64,24.95,-0.83,3,S01
11820,-21.76569,0.52912,-4.52265,40.3659,-23.9634,15.9756,30.64,24.95,-0.83,3,S01
11840,-20.44409,3.05500,-1.65439,52.5000,18.6585,-20.9146,30.64,24.95,-0.83,3,S01
11860,-17.80328,2.29365,-0.65362,29.4512,20.3659,-35.8537,30.64,24.95,-0.83,3,S01
11880,-14.68603,-0.10774,-0.84994,17.0732,17.3171,-37.5610,32.94,21.10,-1.93,3,S01
11900,-12.44027,-2.87783,-0.13886,23.2927,27.4390,-37.8659,32.94,21.10,-1.93,3,S01
11920,-9.49062,-2.01113,-0.34955,34.9390,16.5244,-46.8293,32.94,21.10,-1.93,3,S01
11940,-6.13634,1.07021,-1.35033,53.7195,-15.1829,-49.0244,34.59,19.54,1.28,3,S01
11960,-2.31280,3.21302,-1.58496,56.7683,-37.1951,-40.3659,34.59,19.54,1.28,3,S01
11980,0.72544,4.86262,-2.87304,42.8049,-56.2195,-22.2561,34.59,19.54,1.28,3,S01
12000,1.90818,3.81636,-3.47159,16.1585,-57.1341,4.2683,34.13,20.00,2.48,3,S01
12020,1.12527,1.22104,-2.90417,-13.2927,-44.0854,21.5244,34.13,20.00,2.48,3,S01
12040,-1.60651,0.46448,-3.07655,-46.8293,-22.8659,1.5244,34.13,20.00,2.48,3,S01
12060,-3.88818,0.05028,-9.38527,-52.4390,-0.9756,-12.5000,34.13,20.00,2.48,3,S01
12080,-13.90792,-0.24421,-4.36463,-55.9756,66.4634,-19.8171,34.59,18.53,0.09,3,S01
12100,-22.02187,3.67271,-3.91931,-44.4512,79.8781,-23.3537,34.59,18.53,0.09,3,S01
12120,-23.78400,2.30801,-4.71658,-55.1220,40.6707,-2.6829,34.59,18.53,0.09,3,S01
12140,-22.41452,1.29526,-2.85389,-60.4268,11.0976,9.8780,34.22,17.89,-2.39,3,S01
12160,-19.64682,1.59214,-3.05021,-56.2805,3.9634,-2.9878,34.22,17.89,-2.39,3,S01
12180,-16.31888,2.97839,-3.09810,-57.6220,3.5366,-4.0244,34.22,17.89,-2.39,3,S01
12200,-13.35486,3.23217,-2.20745,-67.9268,7.0122,19.7561,34.77,16.70,-5.87,3,S01
12220,-10.89362,2.55701,-1.16598,-70.2439,5.4268,43.2317,34.77,16.70,-5.87,3,S01
12240,-7.92720,0.82361,-1.57538,-68.2317,-10.0610,47.1951,34.77,16.70,-5.87,3,S01
12260,-5.19542,-1.94170,-2.39420,-64.2073,-15.7317,32.1341,34.77,16.70,-5.87,3,S01
12280,-2.02310,-3.27766,-1.53468,-62.1341,-4.2073,-3.3537,33.03,18.35,-6.51,3,S01
12300,1.26414,-2.43490,-0.21548,-53.6585,-5.2439,-35.1829,33.03,18.35,-6.51,3,S01
12320,2.45885,-0.64404,-1.18513,-34.6341,-20.7317,-43.8415,33.03,18.35,-6.51,3,S01
12340,1.91057,1.08936,-1.40540,-20.2439,-20.6098,-35.4268,34.77,16.42,-6.70,3,S01
12360,0.09577,1.25456,-1.82438,-11.8293,-16.9512,-16.0366,34.77,16.42,-6.70,3,S01
12380,-2.15718,2.33674,-5.30076,-7.8659,-11.9512,3.8415,34.77,16.42,-6.70,3,S01
12400,-9.12191,3.73256,-3.88818,-10.0000,14.4512,27.5610,33.30,17.71,-6.79,3,S01
12420,-17.90863,-1.64960,-3.67271,5.8537,5.0610,76.1585,33.30,17.71,-6.79,3,S01
12440,-20.48479,-2.87544,-5.78918,-22.6220,-29.3293,69.9390,33.30,17.71,-6.79,3,S01
12460,-20.55422,0.89543,-4.97036,0.4268,-21.9512,37.6220,33.30,17.71,-6.79,3,S01
12480,-19.60851,2.45406,-3.16753,16.8902,3.7195,2.1341,32.75,18.07,-6.06,3,S01
12500,-17.71709,0.84515,-2.91853,7.5610,6.4634,-23.3537,32.75,18.07,-6.06,3,S01
12520,-15.60062,-1.90818,-2.73897,3.2927,13.9634,-31.2195,32.75,18.07,-6.06,3,S01
12540,-13.00052,-3.47399,-1.63524,16.5854,32.4390,-29.3902,34.40,16.42,-6.97,3,S01
12560,-10.52730,-3.51948,-1.09894,40.4878,32.4390,-30.5488,34.40,16.42,-6.97,3,S01
12580,-8.37013,-1.54905,-0.65122,65.9756,14.3902,-40.0610,34.40,16.42,-6.97,3,S01
12600,-5.04458,1.25456,-0.43335,79.0244,-13.1707,-46.0976,37.16,14.40,-3.76,3,S01
12620,-1.51074,3.75171,-0.97683,71.8902,-36.7073,-39.6341,37.16,14.40,-3.76,3,S01
12640,0.64883,4.24253,-1.53468,52.2561,-45.8537,-11.7683,37.16,14.40,-3.76,3,S01
12660,1.40779,2.53067,-1.91536,26.9512,-44.4512,17.6829,37.16,14.40,-3.76,3,S01
12680,0.89783,0.58897,-2.20506,2.1951,-43.4756,27.6220,36.24,16.33,-2.20,3,S01
12700,0.10295,-0.07422,-2.73897,-12.0732,-42.1951,18.5366,36.24,16.33,-2.20,3,S01
12720,-1.20189,-0.09337,-3.38540,-18.1098,-26.4634,1.1585,36.24,16.33,-2.20,3,S01
12740,-4.18746,0.09337,-10.32140,-15.2439,9.0854,-18.0488,36.88,15.05,-3.49,3,S01
12760,-16.32846,0.45729,-3.08373,-16.8293,76.5244,-26.2805,36.88,15.05,-3.49,3,S01
12780,-24.51423,4.21858,-3.83312,-14.0854,57.0732,-27.6829,36.88,15.05,-3.49,3,S01
12800,-23.30037,3.37343,-3.85945,-34.4512,13.5976,-4.6951,36.15,14.59,-4.59,3,S01
12820,-20.48479,2.77727,-2.25773,-48.4146,-6.6463,3.9024,36.15,14.59,-4.59,3,S01
12840,-18.83040,2.71502,-2.66235,-56.6463,-12.0122,-1.3415,36.15,14.59,-4.59,3,S01
12860,-16.62773,2.68869,-2.43969,-61.0976,-5.3659,9.3293,36.15,14.59,-4.59,3,S01
12880,-14.75068,3.38301,-1.60651,-66.6463,4.8780,29.7561,34.68,14.31,-8.35,3,S01
12900,-12.36845,2.87544,-0.99120,-71.7683,6.0366,44.5122,34.68,14.31,-8.35,3,S01
12920,-9.03811,0.46208,-1.22104,-70.9146,-7.9878,45.9146,34.68,14.31,-8.35,3,S01
12940,-5.68144,-1.87227,-2.00634,-56.8293,-17.8049,35.2439,34.13,17.34,-8.90,3,S01
12960,-2.20267,-3.20105,-2.60010,-48.9024,-10.2439,12.0122,34.13,17.34,-8.90,3,S01
12980,0.91459,-2.48518,-1.39821,-46.2195,-2.2561,-16.8293,34.13,17.34,-8.90,3,S01
13000,1.86269,-0.99359,-1.55144,-33.7195,-11.0366,-32.0122,35.60,15.87,-9.54,3,S01
13020,1.51792,0.62489,-1.37667,-16.1585,-15.3049,-34.0244,35.60,15.87,-9.54,3,S01
13040,0.05267,1.32878,-1.10373,-0.4878,-15.5488,-23.3537,35.60,15.87,-9.54,3,S01
13060,-0.82839,1.68073,-3.69186,5.0000,-14.0854,-5.1829,35.60,15.87,-9.54,3,S01
13080,-4.89614,4.45082,-4.69264,-6.6463,3.2927,6.8902,35.32,16.42,-9.45,3,S01
13100,-12.61984,1.92254,-0.81642,4.1463,14.0244,47.4390,35.32,16.42,-9.45,3,S01
13120,-17.51119,-3.73974,-4.09887,8.1707,-25.2439,70.0000,35.32,16.42,-9.45,3,S01
13140,-19.29966,-2.36068,-5.01346,-14.5732,-36.2805,41.6463,33.58,18.90,-7.61,3,S01
13160,-19.90779,0.39025,-3.62961,23.4146,-15.8537,23.8415,33.58,18.90,-7.61,3,S01
13180,-19.72104,1.38624,-2.32477,30.1829,2.7439,6.4634,33.58,18.90,-7.61,3,S01
13200,-18.44014,0.54827,-2.61207,20.7927,11.5854,-9.1463,34.77,17.34,-7.71,3,S01
13220,-16.45056,-1.10373,-1.96564,15.7927,31.7073,-15.2439,34.77,17.34,-7.71,3,S01
13240,-13.81694,-2.54025,-1.00317,22.0122,48.2927,-15.7927,34.77,17.34,-7.71,3,S01
13260,-11.62864,-2.76051,-0.15802,36.6463,47.5610,-20.1220,34.77,17.34,-7.71,3,S01
13280,-9.31823,-2.00395,-0.51475,50.4878,25.4268,-30.1220,36.70,15.96,-6.61,3,S01
13300,-6.33506,-0.36871,-1.09654,66.8902,3.7805,-39.0244,36.70,15.96,-6.61,3,S01
13320,-3.09810,1.84593,-1.43173,72.5000,-12.9268,-39.3902,36.70,15.96,-6.61,3,S01
13340,-0.58419,3.30400,-1.62087,59.0854,-24.6951,-25.7317,37.61,15.78,-3.49,3,S01
13360,1.14443,3.23935,-1.82917,37.5610,-32.6220,-1.8293,37.61,15.78,-3.49,3,S01
13380,1.41258,1.45567,-2.31519,17.5000,-38.4146,20.4268,37.61,15.78,-3.49,3,S01
13400,0.68714,-0.03352,-2.56898,3.7805,-36.8902,27.3780,36.70,16.70,-2.94,3,S01
13420,-2.56898,-0.12689,-8.60716,-8.9024,0.9146,4.3902,36.70,16.70,-2.94,3,S01
13440,-11.96622,0.51954,-4.85544,-12.9268,67.9268,-6.4634,36.70,16.70,-2.94,3,S01
13460,-21.49993,4.73334,-3.23457,-1.6463,82.0732,-12.5000,36.70,16.70,-2.94,3,S01
13480,-23.22136,4.27126,-4.88657,-19.4512,42.7439,-9.6951,36.79,14.86,-4.77,3,S01
13500,-21.39937,2.64320,-3.39977,-38.2927,13.4756,3.4756,36.79,14.86,-4.77,3,S01
13520,-19.02672,1.30245,-3.05500,-43.2317,7.6220,4.7561,36.79,14.86,-4.77,3,S01
13540,-16.16326,1.81241,-3.35428,-47.0122,9.1463,9.0244,36.15,15.23,-6.24,3,S01
13560,-13.77863,2.70305,-2.25773,-54.5122,17.7439,27.3780,36.15,15.23,-6.24,3,S01
13580,-12.22479,3.05740,-1.12049,-45.9146,19.8780,45.6098,36.15,15.23,-6.24,3,S01
13600,-10.42196,2.36068,-0.58658,-36.8902,8.2927,46.5854,34.59,16.06,-8.99,3,S01
13620,-7.18739,-0.58419,-1.34075,-42.0732,-12.1341,35.3049,34.59,16.06,-8.99,3,S01
13640,-3.41653,-2.47082,-1.95367,-45.6098,-20.6707,9.0244,34.59,16.06,-8.99,3,S01
13660,0.18435,-2.63841,-0.63446,-43.5976,-15.0610,-20.8537,34.59,16.06,-8.99,3,S01
13680,2.38941,-1.43413,-0.09816,-32.6829,-16.3415,-39.1463,35.23,16.51,-8.81,3,S01
13700,2.28167,-0.00479,-0.79487,-15.2439,-17.1951,-41.0976,35.23,16.51,-8.81,3,S01
13720,1.29047,0.83079,-1.01514,-1.2195,-14.8171,-29.5122,35.23,16.51,-8.81,3,S01
13740,-0.15562,1.09654,-4.09169,6.6463,-14.2683,-9.1463,36.06,16.15,-7.98,3,S01
13760,-4.88417,5.26964,-8.37252,-3.4146,6.7683,6.6463,36.06,16.15,-7.98,3,S01
13780,-16.56069,2.96402,-1.02232,1.3415,26.0366,60.2439,36.06,16.15,-7.98,3,S01
13800,-22.45761,-3.92410,-4.16112,-0.4878,-32.6220,98.0488,33.12,19.82,-7.34,3,S01
13820,-22.00750,-2.01592,-5.16429,-22.6220,-54.5732,52.0122,33.12,19.82,-7.34,3,S01
13840,-20.73379,1.00317,-2.83474,14.1463,-27.2561,1.7073,33.12,19.82,-7.34,3,S01
13860,-18.47845,1.07260,-1.89621,15.4878,-11.3415,-31.0976,33.12,19.82,-7.34,3,S01
13880,-16.29015,-1.07260,-2.09493,11.9512,-3.0488,-44.8780,34.95,17.52,-6.88,3,S01
13900,-13.98214,-3.03585,-1.43892,16.0366,19.8171,-43.1098,34.95,17.52,-6.88,3,S01
13920,-11.46104,-3.54821,-2.18351,28.9634,29.0854,-37.9268,34.95,17.52,-6.88,3,S01
13940,-9.14585,-2.17872,-1.86987,48.4146,26.7073,-38.7195,36.79,16.06,-6.15,3,S01
13960,-6.61518,-0.27054,-1.30245,73.2927,5.8537,-38.2317,36.79,16.06,-6.15,3,S01
13980,-2.94487,1.76213,-2.30322,84.0244,-27.8049,-34.5732,36.79,16.06,-6.15,3,S01
14000,0.29688,3.70144,-3.16274,75.2439,-45.3049,-22.3780,37.61,16.24,-1.83,3,S01
14020,1.57299,3.39019,-2.84671,55.4878,-43.0488,2.9268,37.61,16.24,-1.83,3,S01
14040,1.25217,1.86987,-2.12366,35.3049,-40.6707,20.9756,37.61,16.24,-1.83,3,S01
14060,0.28491,0.90501,-2.60968,19.6341,-44.2073,19.3902,37.61,16.24,-1.83,3,S01
14080,-1.08936,0.44532,-2.95684,7.6220,-40.4268,7.7439,36.97,17.16,-0.46,3,S01
14100,-3.48117,-1.00556,-8.66462,7.1341,-24.6341,-6.5244,36.97,17.16,-0.46,3,S01
14120,-14.25747,1.36230,-4.26407,-17.1951,44.6951,-23.1707,36.97,17.16,-0.46,3,S01
14140,-24.41846,5.23612,-2.32956,-23.1707,68.6585,-28.2927,37.61,15.14,-2.66,3,S01
14160,-22.99391,3.73017,-2.98318,-41.5244,31.9512,-10.9146,37.61,15.14,-2.66,3,S01
14180,-19.23023,1.88903,-2.31519,-57.1341,11.4634,3.4756,37.61,15.14,-2.66,3,S01
14200,-16.67562,0.98881,-3.51708,-62.2561,2.5610,3.0488,36.42,16.06,-4.50,3,S01
14220,-15.44021,1.08457,-3.19387,-57.7439,5.4878,13.1707,36.42,16.06,-4.50,3,S01
14240,-13.78342,1.87227,-2.35111,-50.4268,11.4634,33.2927,36.42,16.06,-4.50,3,S01
14260,-11.66934,1.85311,-2.06620,-35.3049,3.5366,44.9390,36.42,16.06,-4.50,3,S01
14280,-9.03332,1.63524,-1.62087,-24.8780,-8.7805,40.0610,34.68,18.17,-5.05,3,S01
14300,-5.88016,0.69671,-2.05423,-26.7073,-24.0244,31.6463,34.68,18.17,-5.05,3,S01
14320,-2.28886,-0.61770,-2.00395,-38.5366,-29.3902,17.4390,34.68,18.17,-5.05,3,S01
14340,0.62010,-0.58658,-0.49560,-42.6220,-28.2927,-1.7683,34.50,17.16,-5.23,3,S01
14360,1.69749,-0.06704,-0.99599,-37.4390,-31.7073,-15.3049,34.50,17.16,-5.23,3,S01
14380,1.65679,1.24738,-2.24816,-36.2195,-28.5976,-25.0000,34.50,17.16,-5.23,3,S01
14400,0.54109,1.69749,-4.12521,-38.2927,-20.7927,-22.6220,34.95,17.71,-6.42,3,S01
14420,-3.21302,3.33991,-4.49152,-48.7195,2.3171,-14.0854,34.95,17.71,-6.42,3,S01
14440,-11.90637,2.08056,-1.41737,-43.6585,31.5244,17.6220,34.95,17.71,-6.42,3,S01
14460,-19.30205,-4.58250,-2.55222,-43.1707,11.0366,57.7439,34.95,17.71,-6.42,3,S01
14480,-19.47444,-4.19464,-5.77721,-49.1463,-20.4268,45.3659,32.57,20.64,-7.25,3,S01
14500,-18.43296,-1.10133,-3.49075,-7.0732,-2.6220,15.6098,32.57,20.64,-7.25,3,S01
14520,-18.04270,0.01915,-3.35428,16.7683,5.8537,-4.6951,32.57,20.64,-7.25,3,S01
14540,-16.88630,-1.02951,-3.68707,23.2317,1.0366,-15.5488,34.04,18.81,-6.51,3,S01
14560,-14.15213,-1.35512,-3.81875,30.3049,3.0488,-28.9024,34.04,18.81,-6.51,3,S01
14580,-11.53526,-0.95050,-3.13640,42.1951,11.7073,-37.9268,34.04,18.81,-6.51,3,S01
14600,-9.49062,-0.94810,-2.09014,46.8293,17.0122,-35.4268,35.41,17.61,-4.68,3,S01
14620,-7.56089,-0.16281,-0.82839,41.6463,10.2439,-30.7927,35.41,17.61,-4.68,3,S01
14640,-5.07331,1.62327,-0.22984,36.3415,-5.7927,-25.9146,35.41,17.61,-4.68,3,S01
14660,-2.74615,2.23858,0.34477,33.0488,-20.7317,-16.2805,35.41,17.61,-4.68,3,S01
14680,-0.99120,1.16598,0.78530,27.1341,-29.1463,-2.7439,35.69,18.26,-2.57,3,S01
14700,-0.02873,-0.41420,1.21625,14.5732,-32.1341,5.1829,35.69,18.26,-2.57,3,S01
14720,0.56982,-0.73741,0.67995,4.1463,-34.3293,4.6341,35.69,18.26,-2.57,3,S01
14740,0.01915,-0.04310,-1.90100,-6.1585,-23.2317,1.0366,35.60,18.72,-2.94,3,S01
14760,-2.57616,0.84036,-7.48667,-21.8902,8.6585,-1.4634,35.60,18.72,-2.94,3,S01
14780,-20.59971,4.17549,-4.17549,-0.2439,81.3415,-9.0244,35.60,18.72,-2.94,3,S01
14800,-20.70984,3.56975,-4.70939,-18.9024,52.8049,-12.9268,35.05,18.17,-4.86,3,S01
14820,-18.23664,1.64482,-4.17549,-32.1951,15.2439,-3.5366,35.05,18.17,-4.86,3,S01
14840,-16.27578,1.11809,-3.63679,-36.4634,1.8293,-0.3659,35.05,18.17,-4.86,3,S01
14860,-14.87996,1.23780,-3.06218,-30.7927,20.6098,10.7317,35.05,18.17,-4.86,3,S01
14880,-13.90552,2.55701,-2.86347,-29.2073,38.4756,26.4024,34.31,16.51,-6.51,3,S01
14900,-13.58709,3.37582,-2.67432,-28.1707,43.5976,44.1463,34.31,16.51,-6.51,3,S01
14920,-12.45464,2.62644,-1.50595,-26.4634,41.1585,48.9634,34.31,16.51,-6.51,3,S01
14940,-9.96467,1.62327,0.06225,-26.7073,34.0854,34.6341,32.57,18.72,-7.52,3,S01
14960,-6.55772,0.73502,1.28569,-27.5000,18.4756,16.5854,32.57,18.72,-7.52,3,S01
14980,-3.61764,-1.26653,1.55384,-33.7805,0.0000,6.1585,32.57,18.72,-7.52,3,S01
15000,-0.94810,-2.34392,1.80762,-35.9756,-10.4878,-5.2439,32.84,18.90,-7.80,3,S01
15020,0.31603,-1.35512,1.65918,-31.2805,-18.9024,-12.0122,32.84,18.90,-7.80,3,S01
15040,0.16281,-0.40701,1.58736,-27.6829,-25.0610,-10.1220,32.84,18.90,-7.80,3,S01
15060,0.15083,-0.36392,-1.64960,-25.1829,-30.5488,-5.5488,32.84,18.90,-7.80,3,S01
15080,-3.45962,6.05015,-7.03416,-45.4878,-23.2927,-5.8537,32.75,19.54,-7.98,3,S01
15100,-12.95981,5.38695,-1.71185,-50.1220,-2.4390,36.3415,32.75,19.54,-7.98,3,S01
15120,-17.84877,-3.16992,-2.66475,-8.2927,-40.4268,78.3537,32.75,19.54,-7.98,3,S01
15140,-18.74421,-4.93684,-8.61913,-37.8659,-65.8537,45.1829,30.92,23.58,-7.80,3,S01
15160,-18.70111,-0.63925,-7.09402,-0.6707,-41.5244,8.2317,30.92,23.58,-7.80,3,S01
15180,-17.38669,0.92177,-5.21936,55.4878,-14.7561,-4.9390,30.92,23.58,-7.80,3,S01
15200,-15.46894,1.63285,-5.96874,70.6707,2.9268,-10.7927,31.93,21.01,-6.42,3,S01
15220,-14.44182,1.46046,-5.86819,59.3902,17.1341,-7.5000,31.93,21.01,-6.42,3,S01
15240,-13.17050,0.93374,-4.26886,40.4878,26.5244,-6.1585,31.93,21.01,-6.42,3,S01
15260,-10.95347,0.20590,-2.30083,36.2195,27.0732,-13.1707,31.93,21.01,-6.42,3,S01
15280,-8.50899,-0.55306,0.07901,38.9634,13.9634,-25.1220,32.48,21.19,-5.50,3,S01
15300,-6.28717,-0.77093,0.24421,39.3293,-10.4878,-30.9756,32.48,21.19,-5.50,3,S01
15320,-4.50589,0.08380,0.57700,35.0000,-19.6341,-30.3049,32.48,21.19,-5.50,3,S01
15340,-3.67989,0.95768,2.23379,35.0000,-19.2683,-23.1098,33.30,20.55,-3.21,3,S01
15360,-2.89220,1.08457,2.68390,30.4268,-31.3415,-14.3902,33.30,20.55,-3.21,3,S01
15380,-1.30484,0.51236,1.46525,13.3537,-53.4756,-9.9390,33.30,20.55,-3.21,3,S01
15400,0.27054,0.55785,-1.13485,-6.7073,-71.0976,-12.6829,33.49,20.37,-1.28,3,S01
15420,0.05507,1.27372,-4.19943,-20.4878,-63.2927,-14.5122,33.49,20.37,-1.28,3,S01
15440,-2.94247,2.04465,-5.40371,-25.4268,-24.2073,-7.7439,33.49,20.37,-1.28,3,S01
15460,-9.68694,3.08852,-6.97431,-23.8415,29.8780,-4.2073,33.49,20.37,-1.28,3,S01
15480,-18.13129,4.81474,-5.61919,-39.8780,82.2561,-10.2439,33.21,19.27,-4.68,3,S01
15500,-21.86385,2.84431,-5.16669,-59.8171,79.6341,-10.1220,33.21,19.27,-4.68,3,S01
15520,-21.00433,2.49236,-4.39097,-54.2683,39.5122,-4.0244,33.21,19.27,-4.68,3,S01
15540,-19.14643,1.97282,-3.35667,-48.9634,14.0244,8.2317,32.66,17.98,-6.88,3,S01
15560,-16.63012,1.57060,-2.68390,-40.6098,11.2195,23.7195,32.66,17.98,-6.88,3,S01
15580,-14.37479,1.99198,-1.87227,-41.1585,12.0122,33.7195,32.66,17.98,-6.88,3,S01
15600,-12.24395,1.90818,-0.95289,-38.0488,10.0000,43.1707,30.46,20.46,-7.16,3,S01
15620,-9.56723,0.91937,-0.30885,-28.7805,8.0488,46.2195,30.46,20.46,-7.16,3,S01
15640,-6.24887,-0.39025,-0.03831,-21.1585,2.5610,42.2561,30.46,20.46,-7.16,3,S01
15660,-3.87861,-1.98958,-0.37350,-22.2561,-4.1463,33.1098,30.46,20.46,-7.16,3,S01
15680,-1.66636,-2.31759,0.60094,-27.5000,-5.1829,5.3049,29.72,20.92,-7.25,3,S01
15700,0.53870,-0.65362,0.89783,-24.2073,-14.0244,-24.2073,29.72,20.92,-7.25,3,S01
15720,1.40300,0.84036,-0.52672,-18.6585,-21.5854,-36.2805,29.72,20.92,-7.25,3,S01
15740,1.14682,2.09253,-3.09570,-27.6220,-11.8902,-36.2805,31.01,20.00,-7.71,3,S01
15760,-1.51314,4.96557,-7.88171,-43.3537,16.4024,-23.7805,31.01,20.00,-7.71,3,S01
15780,-10.38126,5.74848,-1.60890,-52.3171,60.6707,17.3171,31.01,20.00,-7.71,3,S01
15800,-17.35557,-3.21302,-2.98557,-14.8780,10.6098,82.5000,27.98,23.12,-8.53,3,S01
15820,-17.77934,-4.78601,-8.29351,-47.8049,-34.9390,63.5976,27.98,23.12,-8.53,3,S01
15840,-18.29649,1.39821,-6.49786,-12.1341,-6.6463,31.7073,27.98,23.12,-8.53,3,S01
15860,-18.11453,4.48913,-4.61363,38.4756,16.2195,15.4268,27.98,23.12,-8.53,3,S01
15880,-16.54393,4.06775,-4.22098,21.0976,15.0000,-7.0732,28.90,20.46,-10.09,3,S01
15900,-15.45457,1.41497,-3.82833,3.4756,12.2561,-24.3902,28.90,20.46,-10.09,3,S01
15920,-13.95101,-1.69988,-4.35505,-6.4634,13.4756,-28.1707,28.90,20.46,-10.09,3,S01
15940,-11.54963,-3.28724,-2.36787,5.9146,25.7317,-27.5610,30.73,20.73,-9.17,3,S01
15960,-9.14585,-2.99993,-1.25696,40.3659,15.9146,-35.3049,30.73,20.73,-9.17,3,S01
15980,-6.11000,-1.23301,-0.71587,68.9634,-9.2073,-44.8171,30.73,20.73,-9.17,3,S01
16000,-2.78446,0.98402,-0.96726,77.9268,-28.5366,-45.1220,32.39,19.91,-5.32,3,S01
16020,-0.55785,2.97120,-0.95050,65.2439,-31.3415,-28.6585,32.39,19.91,-5.32,3,S01
16040,-0.34955,3.02627,0.12450,41.0366,-26.4024,-0.1829,32.39,19.91,-5.32,3,S01
16060,-0.81642,1.69509,0.67038,18.9634,-34.2073,16.2195,32.39,19.91,-5.32,3,S01
16080,-0.72784,-0.00239,-0.22745,4.4512,-54.8171,13.5976,31.93,21.01,-3.67,3,S01
16100,-0.20111,-0.36631,-2.62165,-0.3659,-63.1098,0.3049,31.93,21.01,-3.67,3,S01
16120,-0.89304,0.05507,-7.20415,-4.5732,-41.8902,-11.1585,31.93,21.01,-3.67,3,S01
16140,-6.80911,1.48680,-8.32464,-12.7439,25.2439,-13.8415,32.29,19.82,-6.15,3,S01
16160,-26.39128,5.03501,-4.85784,-18.9024,77.1951,-3.1098,32.29,19.82,-6.15,3,S01
16180,-24.67464,3.33752,-4.29999,-33.1098,30.3659,5.1829,32.29,19.82,-6.15,3,S01
16200,-19.94849,2.31759,-4.46519,-31.3415,0.1829,-8.2927,31.65,19.27,-6.88,3,S01
16220,-16.05312,1.96564,-4.98233,-33.6585,-10.1829,-8.0488,31.65,19.27,-6.88,3,S01
16240,-14.20001,2.40857,-2.72700,-41.1585,-3.8415,15.5488,31.65,19.27,-6.88,3,S01
16260,-12.35169,2.69587,-1.47962,-44.6951,-4.6341,43.2317,31.65,19.27,-6.88,3,S01
16280,-10.44590,2.46842,-1.02711,-36.9512,-8.5366,54.3902,29.63,20.73,-8.26,3,S01
16300,-7.27837,0.20590,-1.06781,-37.0732,-16.4024,49.0244,29.63,20.73,-8.26,3,S01
16320,-3.14598,-2.61686,-2.08056,-48.7805,-30.0610,26.0366,29.63,20.73,-8.26,3,S01
16340,0.99120,-3.19147,-1.84593,-52.8049,-28.6585,-13.7195,28.90,21.19,-8.72,3,S01
16360,2.72939,-0.95050,-1.36948,-32.9878,-21.2805,-45.7317,28.90,21.19,-8.72,3,S01
16380,2.25534,0.95768,-1.45567,-13.1098,-18.0488,-49.6951,28.90,21.19,-8.72,3,S01
16400,0.69432,1.60651,-2.03986,-3.7195,-17.8659,-33.2317,30.55,20.09,-8.53,3,S01
16420,-1.08218,1.44370,-3.39737,2.4390,-11.0366,-8.8415,30.55,20.09,-8.53,3,S01
16440,-5.49230,3.06937,-4.38618,2.9878,5.0610,8.4146,30.55,20.09,-8.53,3,S01
16460,-14.20480,0.33040,-2.04465,14.3902,9.8780,48.9024,30.55,20.09,-8.53,3,S01
16480,-20.30283,-4.20182,-4.01986,24.7561,-28.9024,74.6951,28.44,22.20,-7.43,3,S01
16500,-21.01870,-0.82600,-5.76763,20.3049,-47.5610,46.7073,28.44,22.20,-7.43,3,S01
16520,-20.23100,2.34632,-3.81636,48.9024,-18.4756,15.6098,28.44,22.20,-7.43,3,S01
16540,-18.53112,2.58813,-2.66714,50.0610,2.6220,-13.8415,29.54,21.65,-6.15,3,S01
16560,-17.06587,0.42856,-2.88022,36.1585,9.4512,-31.4024,29.54,21.65,-6.15,3,S01
16580,-14.93024,-2.80122,-2.68390,32.2561,19.7561,-29.1463,29.54,21.65,-6.15,3,S01
16600,-12.49773,-3.97916,-1.07500,48.8415,23.5366,-25.6098,31.65,17.98,-6.33,3,S01
16620,-9.80426,-2.52109,-1.40779,74.0244,7.6220,-32.6829,31.65,17.98,-6.33,3,S01
16640,-6.99586,-0.74939,-1.01754,94.9390,-7.6220,-34.4512,31.65,17.98,-6.33,3,S01
16660,-3.42610,1.75974,-1.02232,100.9146,-25.9756,-31.5854,31.65,17.98,-6.33,3,S01
16680,-0.07422,3.82833,-2.11647,91.5244,-46.0366,-21.9512,32.66,19.36,-1.83,3,S01
16700,1.66636,4.58968,-2.73897,69.9390,-50.1220,-0.8537,32.66,19.36,-1.83,3,S01
16720,1.75256,2.65038,-2.50673,37.8049,-44.1463,19.3902,32.66,19.36,-1.83,3,S01
16740,0.99838,0.44772,-2.42533,14.3293,-42.1951,21.6463,32.02,20.55,-0.37,3,S01
16760,-0.25139,0.23942,-3.05740,6.0976,-36.2195,9.9390,32.02,20.55,-0.37,3,S01
16780,-1.96325,-0.46208,-4.07014,1.3415,-16.0976,-2.0122,32.02,20.55,-0.37,3,S01
16800,-7.76918,0.66080,-8.90164,-0.8537,24.8171,-15.4878,33.12,19.27,-2.39,3,S01
16820,-20.07538,3.98395,-3.44526,-8.5976,81.2195,-17.3780,33.12,19.27,-2.39,3,S01
16840,-25.38333,4.26886,-3.17950,-11.5244,62.8049,-5.5488,33.12,19.27,-2.39,3,S01
16860,-22.60366,3.09810,-2.72700,-29.2683,24.0244,8.9634,33.12,19.27,-2.39,3,S01
16880,-20.33874,2.27689,-2.23858,-39.2683,14.1463,3.1098,32.66,19.45,-3.49,3,S01
16900,-17.18798,2.59292,-2.61447,-47.8049,10.4268,-2.5000,32.66,19.45,-3.49,3,S01
16920,-13.95341,3.35907,-2.56180,-57.4390,11.8293,12.4390,32.66,19.45,-3.49,3,S01
16940,-11.70525,3.29682,-2.43969,-57.1341,19.6341,37.6829,31.47,18.17,-7.34,3,S01
16960,-10.53209,2.57377,-1.18034,-49.8781,24.3293,43.3537,31.47,18.17,-7.34,3,S01
16980,-7.48906,0.17238,-0.53151,-50.9146,12.2561,28.1707,31.47,18.17,-7.34,3,S01
17000,-3.97437,-2.50434,-1.85072,-53.6585,-12.2561,9.3902,30.64,20.73,-7.61,3,S01
17020,-0.79248,-2.85149,-1.75256,-44.5732,-17.5610,-12.4390,30.64,20.73,-7.61,3,S01
17040,1.04866,-1.73580,-1.22344,-26.0976,-13.4146,-29.2683,30.64,20.73,-7.61,3,S01
17060,1.52032,-0.35434,-1.02711,-10.9146,-13.2317,-35.7927,30.64,20.73,-7.61,3,S01
17080,0.88825,0.66319,-1.02711,-0.5488,-20.1829,-32.8659,32.11,19.91,-6.88,3,S01
17100,-0.25618,1.03430,-3.29682,0.5488,-23.9024,-19.2683,32.11,19.91,-6.88,3,S01
17120,-5.13796,4.11324,-5.30795,-8.1098,0.8537,-6.5244,32.11,19.91,-6.88,3,S01
17140,-14.94461,1.91297,-2.12845,-8.2317,23.2317,40.7927,30.55,22.11,-7.25,3,S01
17160,-19.60372,-3.63200,-4.76925,-14.2073,-20.2439,77.4390,30.55,22.11,-7.25,3,S01
17180,-18.90940,-0.45490,-5.68623,-30.3049,-34.6951,45.4268,30.55,22.11,-7.25,3,S01
17200,-18.40183,2.92571,-3.42610,4.6951,4.2073,16.3415,30.92,22.11,-8.07,3,S01
17220,-18.06425,3.14119,-2.08774,2.6829,27.6829,-8.2317,30.92,22.11,-8.07,3,S01
17240,-17.09699,0.57221,-2.37984,-14.0244,22.4390,-27.6220,30.92,22.11,-8.07,3,S01
17260,-14.75547,-2.33435,-2.85149,-17.3780,28.6585,-34.9390,30.92,22.11,-8.07,3,S01
17280,-11.43471,-3.43089,-1.83635,-7.7439,44.3902,-34.0244,32.39,19.08,-10.64,3,S01
17300,-9.05966,-1.75974,-1.47243,10.6707,33.7195,-35.2439,32.39,19.08,-10.64,3,S01
17320,-7.18500,0.10056,-0.68474,30.9146,13.4146,-31.5244,32.39,19.08,-10.64,3,S01
17340,-4.40054,1.09654,-0.85712,39.8780,-10.6098,-26.5244,33.76,19.91,-7.89,3,S01
17360,-1.17316,2.59531,-1.35512,34.4512,-32.9878,-23.2927,33.76,19.91,-7.89,3,S01
17380,0.73023,3.36625,-1.86987,17.1951,-44.3293,-10.6098,33.76,19.91,-7.89,3,S01
17400,0.90261,2.41336,-1.42455,-3.1707,-42.9878,6.9512,33.39,21.19,-7.34,3,S01
17420,0.43814,0.95529,-1.37667,-20.7927,-42.2561,13.9634,33.39,21.19,-7.34,3,S01
17440,-0.17478,0.08859,-2.82516,-35.4268,-40.0610,10.1220,33.39,21.19,-7.34,3,S01
17460,-2.19788,-0.75657,-9.04051,-43.7805,-15.5488,-0.0610,33.39,21.19,-7.34,3,S01
17480,-11.54484,0.14126,-5.26964,-45.0610,63.1707,-9.8171,33.39,19.91,-11.01,3,S01
17500,-21.97398,4.90811,-3.07655,-27.9268,88.3537,-15.3659,33.39,19.91,-11.01,3,S01
17520,-21.28206,2.36308,-4.02465,-58.2317,17.6220,-1.7683,33.39,19.91,-11.01,3,S01
17540,-19.61330,2.09014,-3.74453,-57.6220,10.3049,-6.5244,32.57,19.36,-12.75,3,S01
17560,-17.25022,2.95444,-3.75411,-61.6463,4.9390,-5.0610,32.57,19.36,-12.75,3,S01
17580,-15.39472,4.31435,-2.24816,-72.3781,-0.9146,11.5854,32.57,19.36,-12.75,3,S01
17600,-11.55442,2.29125,-1.35512,-90.1829,-16.4634,34.6341,29.63,20.28,-15.50,3,S01
17620,-8.08043,0.72784,-1.22823,-78.9024,-19.2073,32.6220,29.63,20.28,-15.50,3,S01
17640,-5.87537,-0.60573,-1.29766,-57.1951,0.4878,18.1707,29.63,20.28,-15.50,3,S01
17660,-3.69904,-1.85551,-0.79727,-56.5244,12.0122,0.5488,29.63,20.28,-15.50,3,S01
17680,-0.90261,-2.60250,-0.09577,-59.2073,-0.5488,-19.0854,29.17,20.73,-16.79,3,S01
17700,1.42934,-1.43413,-0.68714,-46.4024,-23.4756,-37.0122,29.17,20.73,-16.79,3,S01
17720,2.37984,0.88346,-1.50835,-29.8780,-30.7317,-44.1463,29.17,20.73,-16.79,3,S01
17740,1.14443,1.54665,-1.68312,-24.1463,-20.9146,-33.5366,30.18,20.09,-16.51,3,S01
17760,-0.43096,2.77967,-4.54659,-23.0488,-5.4878,-14.0244,30.18,20.09,-16.51,3,S01
17780,-5.58807,5.81312,-4.18985,-29.2073,19.2683,12.5000,30.18,20.09,-16.51,3,S01
17800,-15.86398,-0.36392,-1.47004,-1.8902,7.0732,76.1585,27.43,22.94,-15.96,3,S01
17820,-20.13763,-6.65109,-5.39892,-6.8293,-51.2195,97.9268,27.43,22.94,-15.96,3,S01
17840,-18.97166,-3.10767,-6.87136,-11.4024,-47.9268,58.6585,27.43,22.94,-15.96,3,S01
17860,-18.38507,0.99120,-3.44286,46.7073,-6.0976,24.3902,27.43,22.94,-15.96,3,S01
17880,-17.26938,1.83156,-2.98796,56.4634,11.3415,0.3659,28.17,23.94,-14.77,3,S01
17900,-15.62217,0.42377,-3.35907,50.4878,17.8049,-13.0488,28.17,23.94,-14.77,3,S01
17920,-14.37958,-1.67594,-3.04303,52.9878,34.2683,-18.2927,28.17,23.94,-14.77,3,S01
17940,-12.64138,-3.17711,-1.97282,69.7561,42.4390,-23.7805,31.56,18.17,-15.41,3,S01
17960,-10.99178,-2.96881,-1.77171,90.8537,28.8415,-35.9756,31.56,18.17,-15.41,3,S01
17980,-8.57124,-0.98641,-1.51074,105.7927,8.4756,-44.2073,31.56,18.17,-15.41,3,S01
18000,-5.53779,1.30005,-1.44370,104.6951,-13.6585,-44.4512,35.32,19.63,-10.83,3,S01
18020,-2.30322,2.97120,-1.98000,91.7073,-32.8049,-37.5000,35.32,19.63,-10.83,3,S01
18040,-0.12210,3.49793,-1.73819,75.5488,-41.2805,-22.5000,35.32,19.63,-10.83,3,S01
18060,0.99838,2.99515,-2.00155,56.5244,-47.8049,-7.3780,35.32,19.63,-10.83,3,S01
18080,0.95529,2.37505,-2.12605,33.4756,-51.7683,1.4024,35.60,20.55,-7.80,3,S01
18100,-0.27294,2.10211,-2.57616,15.1829,-47.2561,3.9024,35.60,20.55,-7.80,3,S01
18120,-1.86269,0.75657,-9.04529,7.3171,-27.9268,2.5610,35.60,20.55,-7.80,3,S01
18140,-10.83855,0.90022,-5.74130,-13.9634,31.7683,-3.9634,35.60,19.36,-9.27,3,S01
18160,-22.75449,5.68623,-3.47878,-8.4756,62.5000,-6.1585,35.60,19.36,-9.27,3,S01
18180,-24.39213,4.21140,-4.60166,-35.1220,44.0244,1.8902,35.60,19.36,-9.27,3,S01
18200,-21.19826,2.72221,-3.28006,-55.0000,15.7927,3.2927,34.50,19.08,-11.47,3,S01
18220,-18.84476,1.41018,-3.92170,-65.6707,-0.3659,-1.4024,34.50,19.08,-11.47,3,S01
18240,-16.32606,1.35272,-3.18189,-70.2439,-0.4878,6.7073,34.50,19.08,-11.47,3,S01
18260,-13.51766,2.26252,-2.45166,-65.3049,2.1951,22.9268,34.50,19.08,-11.47,3,S01
18280,-10.94629,3.21302,-1.50835,-53.9024,9.3902,31.0976,32.11,19.36,-14.40,3,S01
18300,-8.80587,2.15718,-1.16598,-47.9878,7.9878,27.1341,32.11,19.36,-14.40,3,S01
18320,-6.66067,0.43574,-1.26653,-41.3415,0.8537,13.9634,32.11,19.36,-14.40,3,S01
18340,-4.13957,-1.18752,-1.78847,-38.5366,-3.7805,-1.4024,31.28,19.91,-15.14,3,S01
18360,-0.67995,-1.94888,-0.61052,-32.4390,-10.4268,-18.7195,31.28,19.91,-15.14,3,S01
18380,1.90818,-1.46525,-1.37906,-10.4268,-28.6585,-34.2073,31.28,19.91,-15.14,3,S01
18400,2.45885,0.12929,-2.33435,9.0854,-33.9634,-40.5488,33.21,18.99,-14.13,3,S01
18420,1.35272,1.05105,-1.49398,15.3049,-22.5000,-29.1463,33.21,18.99,-14.13,3,S01
18440,0.05986,1.16837,-1.41737,14.5122,-13.2927,-7.6220,33.21,18.99,-14.13,3,S01
18460,-3.07416,3.23217,-4.07493,13.1707,-7.2561,6.2805,33.21,18.99,-14.13,3,S01
18480,-11.91594,4.02465,-2.37984,6.5244,18.6585,37.4390,32.02,20.09,-14.22,3,S01
18500,-20.46324,-3.15556,-4.19943,2.5610,2.7439,90.8537,32.02,20.09,-14.22,3,S01
18520,-21.07376,-2.44209,-4.94163,-19.8171,-24.7561,63.5366,32.02,20.09,-14.22,3,S01
18540,-20.12087,1.39103,-3.59130,11.7683,-12.7439,9.5732,31.56,21.56,-13.67,3,S01
18560,-18.89743,2.30562,-2.94726,13.3537,-5.3049,-17.5610,31.56,21.56,-13.67,3,S01
18580,-17.56147,1.28090,-3.02148,-1.4024,-0.7317,-23.1098,31.56,21.56,-13.67,3,S01
18600,-15.72751,-0.47645,-2.38463,-8.2317,19.6341,-26.8293,33.03,18.62,-16.15,3,S01
18620,-13.97256,-1.68073,-2.40617,-7.1951,34.3293,-33.5976,33.03,18.62,-16.15,3,S01
18640,-12.77786,-1.92015,-1.01993,2.4390,38.2927,-39.5122,33.03,18.62,-16.15,3,S01
18660,-10.60153,-1.38385,-0.59376,13.1707,17.5610,-43.7805,33.03,18.62,-16.15,3,S01
18680,-7.11317,-0.29449,-0.47166,27.6220,-10.4878,-44.9390,34.59,18.44,-14.50,3,S01
18700,-3.73017,1.30484,-0.83318,33.8415,-34.2073,-44.5122,34.59,18.44,-14.50,3,S01
18720,-0.38547,2.78206,-1.75016,24.2073,-48.5976,-39.3293,34.59,18.44,-14.50,3,S01
18740,1.16598,4.05578,-2.65278,6.5244,-48.5366,-28.3537,35.32,18.99,-13.21,3,S01
18760,0.91937,3.30400,-2.39899,-14.6341,-33.5976,-10.9756,35.32,18.99,-13.21,3,S01
18780,0.12929,1.72383,-2.02789,-37.2561,-22.3780,0.7927,35.32,18.99,-13.21,3,S01
18800,-0.52672,0.38547,-2.16196,-50.9756,-19.6341,2.7439,33.94,19.27,-14.59,3,S01
18820,-1.30005,-0.02394,-4.63278,-51.1585,-17.8049,-2.8659,33.94,19.27,-14.59,3,S01
18840,-3.52187,0.36392,-6.51702,-43.4756,2.8049,-9.6341,33.94,19.27,-14.59,3,S01
18860,-8.96150,2.10211,-5.33907,-47.0122,37.0122,-10.6098,33.94,19.27,-14.59,3,S01
18880,-19.37627,4.86262,-7.15627,-77.6220,51.1585,-3.9024,32.20,17.80,-18.99,3,S01
18900,-25.49346,6.20098,-4.26886,-112.1951,14.4512,-2.9878,32.20,17.80,-18.99,3,S01
18920,-21.33713,4.20661,-4.79319,-126.4634,-3.0488,-10.5488,32.20,17.80,-18.99,3,S01
18940,-18.79688,1.49638,-4.40533,-137.5610,-0.7317,-0.6707,28.35,18.07,-23.03,3,S01
18960,-17.07305,0.30646,-1.95367,-137.4390,9.2073,7.9878,28.35,18.07,-23.03,3,S01
18980,-13.87440,0.10534,-0.95050,-126.8902,3.2927,9.8780,28.35,18.07,-23.03,3,S01
19000,-9.89284,-0.22027,-0.66080,-115.0000,-1.5244,7.1341,24.40,19.27,-25.87,3,S01
19020,-5.20499,-0.33758,0.36871,-106.8902,1.9512,-5.5488,24.40,19.27,-25.87,3,S01
19040,-0.50518,-0.18196,0.61052,-98.9634,-1.6463,-25.0610,24.40,19.27,-25.87,3,S01
19060,3.59609,-0.46208,0.01197,-89.4512,-7.3780,-43.4756,24.40,19.27,-25.87,3,S01
19080,6.30872,0.41420,-2.49955,-43.7195,-32.8049,-21.9512,22.20,21.10,-27.52,3,S01
19100,3.02867,-2.80600,-3.57694,26.4634,-25.7317,10.9756,22.20,21.10,-27.52,3,S01
19120,-0.66080,-0.79966,-2.99515,-8.0488,29.9390,-18.1707,22.20,21.10,-27.52,3,S01
19140,-4.41730,-0.01197,-1.77410,-70.6098,52.3171,-28.4756,21.93,19.72,-28.53,3,S01
19160,-5.43244,2.60489,-1.64242,-85.7317,30.2439,-37.1341,21.93,19.72,-28.53,3,S01
19180,-5.93283,0.10534,-5.75087,-61.4634,0.2439,-18.4146,21.93,19.72,-28.53,3,S01
19200,-9.55287,0.85473,-6.15789,-65.4878,20.7317,-8.4146,20.92,19.91,-30.00,3,S01
19220,-17.23346,2.13563,-5.38456,-84.6951,34.2683,8.9634,20.92,19.91,-30.00,3,S01
19240,-23.08010,1.45089,-6.04536,-71.5854,19.4512,41.4024,20.92,19.91,-30.00,3,S01
19260,-24.16947,1.37188,-4.54180,-60.0610,16.5244,31.8293,20.92,19.91,-30.00,3,S01
19280,-22.62281,1.01754,-4.48434,-54.2683,10.8537,-2.5610,18.07,19.27,-30.92,3,S01
19300,-19.17037,0.51715,-4.16352,-50.1220,3.7195,-26.5854,18.07,19.27,-30.92,3,S01
19320,-15.03319,0.12450,-2.88262,-42.1341,2.6220,-36.6463,18.07,19.27,-30.92,3,S01
19340,-10.83376,-0.28491,-2.51631,-33.6585,-0.3659,-46.5244,18.53,18.17,-31.65,3,S01
19360,-6.98389,1.22344,-3.35428,-29.7561,-8.9024,-64.8171,18.53,18.17,-31.65,3,S01
19380,-2.71024,1.96564,-2.97120,-40.0000,-8.9024,-74.7561,18.53,18.17,-31.65,3,S01
19400,0.88825,3.42850,-1.92254,-56.9512,-5.9146,-75.7927,18.35,15.96,-32.20,3,S01
19420,2.56898,4.03902,-0.48842,-74.7561,4.6341,-59.6341,18.35,15.96,-32.20,3,S01
19440,1.66158,2.87065,1.37188,-95.6098,18.1707,-33.7195,18.35,15.96,-32.20,3,S01
19460,-0.50039,0.77333,2.77488,-110.5488,11.9512,-15.6707,18.35,15.96,-32.20,3,S01
19480,-1.93452,-1.08936,1.64003,-113.2927,-17.1951,-11.0976,13.21,14.86,-33.30,3,S01
19500,-2.52828,-0.83079,-1.92973,-119.6341,-43.1098,-13.5976,13.21,14.86,-33.30,3,S01
19520,-3.76129,0.33998,-3.97437,-124.2073,-39.1463,-12.2561,13.21,14.86,-33.30,3,S01
19540,-6.26323,1.15161,-3.77566,-100.9756,-23.8415,-7.8659,9.17,16.61,-33.49,3,S01
19560,-9.23444,3.35188,-5.86579,-85.0000,-19.2073,-11.1585,9.17,16.61,-33.49,3,S01
19580,-12.56716,4.37660,-11.83933,-84.8781,-4.0854,-19.7561,9.17,16.61,-33.49,3,S01
19600,-19.35473,5.10444,-8.10198,-70.6707,27.9878,-27.9878,7.25,15.41,-34.31,3,S01
19620,-21.54063,5.47075,-6.89291,-66.4634,23.8415,-24.6951,7.25,15.41,-34.31,3,S01
19640,-18.71548,4.90333,-6.13394,-80.2439,8.8415,-12.7439,7.25,15.41,-34.31,3,S01
19660,-15.90468,4.20661,-6.34224,-88.1098,-1.8902,-9.8171,7.25,15.41,-34.31,3,S01
19680,-15.39711,4.71658,-5.69820,-94.3902,4.8780,-8.8415,3.21,15.14,-33.76,3,S01
19700,-16.05791,6.27520,-4.84347,-111.9512,23.9024,-4.0244,3.21,15.14,-33.76,3,S01
19720,-17.84877,7.54652,-3.68228,-131.3415,37.8659,1.7683,3.21,15.14,-33.76,3,S01
19740,-17.69076,7.68060,-2.71502,-152.4390,29.9390,-5.1829,-4.77,13.58,-33.12,3,S01
19760,-15.00925,5.70059,-2.57137,-169.3902,10.5488,-26.5244,-4.77,13.58,-33.12,3,S01
19780,-11.01093,2.48997,-2.29125,-180.7317,0.1829,-49.9390,-4.77,13.58,-33.12,3,S01
19800,-6.45956,-0.40462,-1.42216,-181.7683,-1.3415,-68.1707,-10.64,15.05,-30.55,3,S01
19820,-2.06859,-1.26174,-1.20668,-173.7805,-4.5732,-81.8902,-10.64,15.05,-30.55,3,S01
19840,2.01352,-1.11091,-1.05105,-160.4878,-5.3659,-84.6951,-10.64,15.05,-30.55,3,S01
19860,4.10366,-0.63207,-1.39103,-148.9634,-3.7805,-80.6098,-10.64,15.05,-30.55,3,S01
19880,3.53624,-0.80445,-1.52032,-143.1098,4.8780,-75.2439,-14.22,16.51,-28.26,3,S01
19900,1.70707,-0.52433,-1.24259,-129.3902,13.4146,-77.0122,-14.22,16.51,-28.26,3,S01
19920,0.07661,0.78051,-1.86508,-111.2195,10.8537,-82.7439,-14.22,16.51,-28.26,3,S01
19940,-0.64643,2.09253,-3.28006,-105.8537,4.2683,-79.5732,-16.06,18.17,-26.06,3,S01
19960,-1.41497,1.70467,-4.91769,-111.8902,5.7317,-63.2317,-16.06,18.17,-26.06,3,S01
19980,-3.49075,0.89304,-6.55054,-120.2439,23.2927,-43.9024,-16.06,18.17,-26.06,3,S01
20000,-7.49864,1.26414,-6.15549,-135.6707,49.2683,-27.0122,-19.82,17.43,-23.39,3,S01
20020,-13.21120,2.74136,-5.69341,-136.0976,51.3415,-5.1220,-19.82,17.43,-23.39,3,S01
20040,-19.54866,2.84910,-6.70376,-121.7683,27.2561,21.8902,-19.82,17.43,-23.39,3,S01
20060,-23.06334,1.20907,-6.55532,-108.4146,15.2439,27.3780,-19.82,17.43,-23.39,3,S01
20080,-22.86463,1.97043,-6.44280,-98.5976,28.4756,-2.7439,-21.83,16.42,-21.47,3,S01
20100,-22.82392,2.12605,-6.14352,-86.7073,45.4268,-22.6220,-21.83,16.42,-21.47,3,S01
20120,-23.18784,1.28090,-4.92487,-80.1829,50.8537,-28.1098,-21.83,16.42,-21.47,3,S01
20140,-21.08574,0.46926,-4.52744,-77.5000,43.9024,-38.1707,-22.84,15.32,-21.10,3,S01
20160,-18.01397,0.53630,-3.18189,-73.9024,35.7317,-56.4024,-22.84,15.32,-21.10,3,S01
20180,-13.05798,-0.33998,-0.73023,-74.6341,17.5000,-82.9878,-22.84,15.32,-21.10,3,S01
20200,-7.03656,0.50039,-0.46926,-67.3781,-21.2805,-112.7439,-21.38,20.37,-17.89,3,S01
20220,-1.21625,2.65038,-1.62566,-57.5610,-48.8415,-117.9268,-21.38,20.37,-17.89,3,S01
20240,1.92254,2.71263,-1.98240,-54.8781,-39.5732,-82.1341,-21.38,20.37,-17.89,3,S01
20260,1.54665,2.02789,-0.48842,-67.3171,-12.3780,-34.7561,-21.38,20.37,-17.89,3,S01
20280,-1.61130,-0.95768,-0.44053,-81.5244,-17.9268,11.4024,-23.76,19.36,-15.41,3,S01
20300,-2.09972,-2.54264,-1.63285,-73.7805,-36.1585,-2.6220,-23.76,19.36,-15.41,3,S01
20320,-0.97205,-2.33195,-2.64559,-58.1707,-52.1951,-27.8659,-23.76,19.36,-15.41,3,S01
20340,0.43574,-0.46448,-3.29921,-44.5122,-52.3171,-44.8780,-23.49,21.65,-12.20,3,S01
20360,0.37589,2.06380,-3.94564,-41.9512,-35.0610,-43.8415,-23.49,21.65,-12.20,3,S01
20380,-1.75256,3.62003,-4.17070,-51.4024,-16.7073,-29.2683,-23.49,21.65,-12.20,3,S01
20400,-6.06451,4.29999,-3.84030,-64.9390,-4.1463,-12.0732,-24.22,21.83,-10.28,3,S01
20420,-13.89116,5.19781,-4.82192,-92.1951,12.6829,3.5976,-24.22,21.83,-10.28,3,S01
20440,-26.35058,4.87699,-5.52821,-113.8415,48.8415,30.4878,-24.22,21.83,-10.28,3,S01
20460,-30.57396,4.98233,-3.32315,-116.5244,40.8537,59.0854,-24.22,21.83,-10.28,3,S01
20480,-28.02413,7.47230,-4.52025,-116.4634,7.0122,53.3537,-28.17,17.98,-6.61,3,S01
20500,-24.33706,8.45871,-4.27365,-118.5976,33.7805,29.6951,-28.17,17.98,-6.61,3,S01
20520,-20.58774,7.04853,-2.55222,-117.6829,34.3293,26.0976,-28.17,17.98,-6.61,3,S01
20540,-15.46654,3.30879,-4.17070,-121.6463,2.8659,25.8537,-30.18,16.61,-3.58,3,S01
20560,-10.03649,-0.51236,-5.03022,-127.0122,-7.1341,4.6341,-30.18,16.61,-3.58,3,S01
20580,-3.81157,-2.32956,-4.12760,-127.5610,5.3049,-34.2683,-30.18,16.61,-3.58,3,S01
20600,1.24498,-3.56257,-2.95205,-115.6098,22.6220,-64.0244,-28.90,19.63,-0.46,3,S01
20620,3.05261,-3.62961,-1.24738,-101.6463,33.9024,-75.9756,-28.90,19.63,-0.46,3,S01
20640,1.94649,-2.70784,-0.47166,-80.9146,18.8415,-69.0244,-28.90,19.63,-0.46,3,S01
20660,0.71347,-0.70868,-0.46448,-64.0244,-8.6585,-64.3902,-28.90,19.63,-0.46,3,S01
20680,-0.42856,1.09176,-1.19231,-56.9512,-31.2195,-60.3049,-27.06,21.83,1.56,3,S01
20700,-1.38864,1.56820,-2.38941,-53.1098,-27.6829,-42.3780,-27.06,21.83,1.56,3,S01
20720,-2.09972,1.34794,-2.34632,-61.1585,-8.7805,-15.4878,-27.06,21.83,1.56,3,S01
20740,-4.47716,2.10450,-4.89135,-68.3537,-2.9268,7.8049,-26.33,21.74,3.67,3,S01
20760,-9.34218,1.97282,-7.12036,-69.5732,-1.0366,24.8171,-26.33,21.74,3.67,3,S01
20780,-16.08904,1.88184,-5.78918,-61.2195,-1.8293,30.0610,-26.33,21.74,3.67,3,S01
20800,-26.32185,1.70707,-5.94959,-43.1098,-8.4146,24.4512,-27.71,19.63,4.22,3,S01
20820,-31.30179,-1.70946,-4.54659,-30.9756,14.8780,5.4268,-27.71,19.63,4.22,3,S01
20840,-24.78717,-1.87466,-2.88741,-25.5488,38.5366,-40.7317,-27.71,19.63,4.22,3,S01
20860,-19.34994,-0.08619,-1.76453,3.6585,35.9756,-68.9634,-27.71,19.63,4.22,3,S01
20880,-14.66448,-0.22027,-1.36948,34.8780,17.1951,-69.9390,-26.61,21.01,1.65,3,S01
20900,-10.53209,0.52194,-1.59693,53.9634,-8.4146,-66.6463,-26.61,21.01,1.65,3,S01
20920,-6.58405,2.30322,-1.32399,48.0488,-22.6220,-61.8293,-26.61,21.01,1.65,3,S01
20940,-2.84192,3.17471,-0.94571,38.9634,-47.5610,-37.3780,-27.34,22.94,0.09,3,S01
20960,-0.03591,3.83551,-0.18675,32.3171,-78.2317,-3.7195,-27.34,22.94,0.09,3,S01
20980,1.80283,2.84431,-1.30723,26.2805,-99.5732,30.6707,-27.34,22.94,0.09,3,S01
21000,1.98240,1.25217,-3.37822,1.8293,-93.0488,45.1829,-30.73,20.55,2.66,3,S01
21020,0.64404,0.12210,-4.68785,-28.5366,-68.9634,37.5610,-30.73,20.55,2.66,3,S01
21040,-0.59137,-0.58897,-4.80037,-34.8171,-46.8293,16.3415,-30.73,20.55,2.66,3,S01
21060,-1.81720,-0.72544,-6.28239,-26.6463,-29.3293,-6.9512,-30.73,20.55,2.66,3,S01
21080,-3.93607,0.39265,-6.08845,-23.2927,-0.2439,-20.7927,-32.02,21.38,3.76,3,S01
21100,-7.12514,2.53067,-2.21224,-34.0244,20.4878,-19.8171,-32.02,21.38,3.76,3,S01
21120,-10.23282,4.61363,-4.44124,-53.0488,12.6829,-6.4634,-32.02,21.38,3.76,3,S01
21140,-15.96693,2.92332,-6.27041,-68.7805,32.5610,14.1463,-32.94,20.28,6.33,3,S01
21160,-25.40727,3.22260,-6.53856,-67.5000,73.9634,30.6098,-32.94,20.28,6.33,3,S01
21180,-27.40403,5.40611,-5.12120,-74.2073,74.4512,46.2805,-32.94,20.28,6.33,3,S01
21200,-21.95004,2.01592,-2.82276,-97.7439,40.3049,55.4268,-33.39,18.99,10.09,3,S01
21220,-16.88870,1.69509,-2.98318,-89.6341,-5.4878,32.8659,-33.39,18.99,10.09,3,S01
21240,-13.70441,1.08457,-1.61848,-69.1463,-24.5122,22.3780,-33.39,18.99,10.09,3,S01
21260,-9.55526,-0.39025,-2.03986,-63.7195,-37.2561,27.8659,-33.39,18.99,10.09,3,S01
21280,-5.59764,-2.55461,-4.32872,-62.5610,-47.0732,29.8780,-31.47,18.99,14.22,3,S01
21300,-1.11330,-4.32393,-2.67193,-62.4390,-36.0366,4.8171,-31.47,18.99,14.22,3,S01
21320,1.88424,-3.20584,-0.13408,-45.2439,-32.1951,-32.5610,-31.47,18.99,14.22,3,S01
21340,2.91614,-1.04387,-0.34955,-11.7683,-45.8537,-48.1707,-27.89,21.65,15.41,3,S01
21360,2.56898,1.36948,-3.17950,3.6585,-49.6341,-43.0488,-27.89,21.65,15.41,3,S01
21380,0.66319,3.67989,-5.44441,-7.8049,-32.5000,-30.3659,-27.89,21.65,15.41,3,S01
21400,-2.48518,3.91931,-4.73334,-15.8537,-7.8049,-4.1463,-25.87,22.11,15.05,3,S01
21420,-6.44519,3.15795,-2.05901,-2.3780,-4.1463,20.1220,-25.87,22.11,15.05,3,S01
21440,-12.06678,0.81642,-4.49631,1.9512,-16.8902,37.2561,-25.87,22.11,15.05,3,S01
21460,-17.99482,-2.45406,-5.09486,-19.3902,-12.8049,51.4024,-25.87,22.11,15.05,3,S01
21480,-22.23256,-2.13323,-5.59764,-1.0976,-13.9024,46.2805,-25.87,20.09,14.40,3,S01
21500,-23.08489,0.12450,-3.83551,32.5000,9.6951,15.7317,-25.87,20.09,14.40,3,S01
21520,-21.85906,-0.59137,-2.73657,43.5976,20.9146,-10.4878,-25.87,20.09,14.40,3,S01
21540,-18.64365,-1.83635,-2.84192,58.5366,15.5488,-24.0854,-25.05,21.56,10.37,3,S01
21560,-14.48731,-2.88501,-2.36547,79.5732,12.1951,-29.2073,-25.05,21.56,10.37,3,S01
21580,-10.79306,-1.55384,-1.66397,105.1220,4.4512,-38.7195,-25.05,21.56,10.37,3,S01
21600,-7.13233,0.69911,-1.54905,125.7317,-11.9512,-47.4390,-23.12,21.10,7.16,3,S01
21620,-3.37582,2.91135,-1.03190,121.4634,-25.6707,-44.5732,-23.12,21.10,7.16,3,S01
21640,-0.45011,4.12282,-1.35033,96.2805,-37.1951,-27.4390,-23.12,21.10,7.16,3,S01
21660,1.13964,3.41892,-2.15239,27.8049,-48.9024,20.9756,-23.12,21.10,7.16,3,S01
21680,0.22505,1.16119,-2.66714,-5.1220,-47.5610,28.4146,-24.22,20.92,6.88,3,S01
21700,-0.38786,-0.57221,-3.60567,-17.7439,-45.9146,19.6951,-24.22,20.92,6.88,3,S01
21720,-1.21865,-1.07979,-5.77960,-16.0976,-34.7561,1.5854,-24.22,20.92,6.88,3,S01
21740,-3.81636,-0.26336,-5.40611,-11.0366,-3.1707,-12.3780,-22.84,21.83,7.16,3,S01
21760,-8.07804,1.49398,-1.15879,-8.9634,23.2317,-14.0854,-22.84,21.83,7.16,3,S01
21780,-11.89918,4.40773,-5.83467,-22.8659,26.2805,-8.3537,-22.84,21.83,7.16,3,S01
21800,-20.02032,2.79164,-5.21218,-45.1220,62.3781,8.8415,-23.30,21.83,6.06,3,S01
21820,-28.30425,1.99198,-3.99113,-31.9512,74.2073,32.7439,-23.30,21.83,6.06,3,S01
21840,-27.45431,4.00550,-3.33752,-32.4390,59.8171,38.2927,-23.30,21.83,6.06,3,S01
21860,-23.65471,6.60800,-1.76453,-44.0854,45.1220,34.6341,-23.30,21.83,6.06,3,S01
21880,-18.27494,3.15556,0.14126,-60.6098,14.7561,48.2317,-24.95,12.66,3.21,3,S01
21900,-13.12262,0.60573,-1.57538,-63.4756,-24.6951,39.0854,-24.95,12.66,3.21,3,S01
21920,-8.70771,-0.33758,-2.32238,-50.0610,-33.1098,24.5122,-24.95,12.66,3.21,3,S01
21940,-5.04219,-2.26013,-2.73897,-36.0976,-22.9268,15.9756,-24.86,18.07,7.43,3,S01
21960,-0.59376,-3.41174,-1.83396,-33.9024,-5.3049,-7.5610,-24.86,18.07,7.43,3,S01
21980,2.73657,-2.64799,-0.60334,-30.3049,-1.7073,-37.2561,-24.86,18.07,7.43,3,S01
22000,2.98318,-1.65918,-0.72305,-12.8049,-11.0976,-47.0732,-22.75,20.18,7.06,3,S01
22020,1.88424,0.02155,-1.47722,11.4024,-17.5000,-45.4878,-22.75,20.18,7.06,3,S01
22040,-0.00958,1.91776,-2.87304,26.0976,-25.9146,-40.0000,-22.75,20.18,7.06,3,S01
22060,-1.57060,2.75812,-3.90015,23.7195,-23.3537,-27.5000,-22.75,20.18,7.06,3,S01
22080,-3.40216,2.76291,-3.27766,16.0976,-11.9512,-9.3293,-22.39,20.73,5.96,3,S01
22100,-6.19619,4.38378,-4.91530,12.8049,-7.9878,5.8537,-22.39,20.73,5.96,3,S01
22120,-13.86722,5.24091,-7.41245,-24.6951,8.7195,30.3659,-22.39,20.73,5.96,3,S01
22140,-22.31396,-1.29287,-6.39970,-38.7805,7.1341,79.8781,-23.85,18.81,6.33,3,S01
22160,-24.40170,-0.44293,-8.25281,-20.1829,-21.7073,65.1220,-23.85,18.81,6.33,3,S01
22180,-23.36741,1.51792,-5.64553,-0.4878,14.1463,16.3415,-23.85,18.81,6.33,3,S01
22200,-20.90856,1.79086,-2.81558,13.5976,36.4634,-17.5610,-23.67,19.27,3.67,3,S01
22220,-16.68998,0.25618,-2.37026,21.5854,23.4146,-30.1220,-23.67,19.27,3.67,3,S01
22240,-13.45541,-1.43892,-1.20428,31.4024,25.9756,-38.4756,-23.67,19.27,3.67,3,S01
22260,-10.46027,-1.98000,-0.69671,47.8659,26.7683,-48.0488,-23.67,19.27,3.67,3,S01
22280,-6.62954,-1.26174,-0.15083,59.6951,12.0732,-56.9512,-22.11,20.46,0.00,3,S01
22300,-3.17711,1.47722,-0.21787,64.5732,-13.1098,-63.2317,-22.11,20.46,0.00,3,S01
22320,-0.50757,4.02944,0.26576,61.8293,-31.4634,-50.4878,-22.11,20.46,0.00,3,S01
22340,0.72544,4.70221,0.28252,40.7317,-41.5244,-18.7805,-21.93,21.19,-0.73,3,S01
22360,0.68474,3.17950,-0.23224,0.1829,-44.8780,13.2927,-21.93,21.19,-0.73,3,S01
22380,0.43335,1.17795,-2.20267,-31.4024,-47.3781,26.5244,-21.93,21.19,-0.73,3,S01
22400,-0.12210,-0.20830,-3.68468,-43.6585,-42.1951,21.8293,-23.76,20.46,1.10,3,S01
22420,-0.59376,-1.30005,-4.05578,-44.8171,-30.4878,8.9024,-23.76,20.46,1.10,3,S01
22440,-1.79086,-1.73580,-7.05571,-37.9878,-13.5976,-6.8293,-23.76,20.46,1.10,3,S01
22460,-6.72531,-0.57461,-6.86178,-30.7317,30.0000,-16.2195,-23.76,20.46,1.10,3,S01
22480,-14.20001,1.54187,-5.43963,-30.8537,54.9390,-12.9878,-24.22,20.73,0.09,3,S01
22500,-21.88540,5.24809,-6.30633,-42.9268,50.4878,-13.9024,-24.22,20.73,0.09,3,S01
22520,-26.38171,5.06852,-4.44843,-45.3049,42.9878,-5.1829,-24.22,20.73,0.09,3,S01
22540,-23.27643,2.95923,-5.61919,-51.7683,18.2927,-3.7805,-25.14,19.82,1.83,3,S01
22560,-20.42493,1.46525,-4.70461,-63.1707,15.7317,-4.5732,-25.14,19.82,1.83,3,S01
22580,-18.62928,1.59693,-3.14119,-69.0854,17.4390,13.4146,-25.14,19.82,1.83,3,S01
22600,-16.09622,2.12605,-0.35674,-68.8415,11.5244,40.4268,-27.34,17.34,3.94,3,S01
22620,-12.47379,2.00155,0.05028,-63.2317,-24.5732,57.5610,-27.34,17.34,3.94,3,S01
22640,-8.23845,0.38068,-2.10450,-50.3659,-55.2439,56.3415,-27.34,17.34,3.94,3,S01
22660,-4.35984,-1.25217,-2.35111,-39.4512,-35.9756,30.1829,-27.34,17.34,3.94,3,S01
22680,-0.50996,-2.54264,-0.61052,-39.4512,-8.7805,-7.3171,-27.71,18.07,6.33,3,S01
22700,2.14042,-2.38223,-0.40701,-37.8659,-15.1829,-39.0854,-27.71,18.07,6.33,3,S01
22720,3.42371,-1.23780,-2.46842,-22.6220,-27.8049,-51.4634,-27.71,18.07,6.33,3,S01
22740,2.38702,0.23942,-2.13802,0.3659,-10.3659,-46.0976,-25.50,20.73,6.79,3,S01
22760,0.47884,1.66397,-1.91057,7.6220,4.3293,-32.6829,-25.50,20.73,6.79,3,S01
22780,-1.28329,1.81959,-2.91135,5.2439,5.3659,-8.9634,-25.50,20.73,6.79,3,S01
22800,-3.36864,1.48440,-4.03184,2.9878,11.8293,13.3537,-26.24,19.91,6.15,3,S01
22820,-7.82186,3.08852,-5.24330,4.2683,27.5000,25.3659,-26.24,19.91,6.15,3,S01
22840,-18.41859,3.74693,-3.80918,-25.1220,39.9390,51.0976,-26.24,19.91,6.15,3,S01
22860,-22.33790,-2.59053,-6.96473,-35.1829,-2.1341,95.6707,-26.24,19.91,6.15,3,S01
22880,-21.30361,-0.73023,-6.73489,-18.8415,-14.6951,66.5244,-28.62,17.61,6.97,3,S01
22900,-21.29403,1.05105,-2.66714,9.8171,20.6707,13.5976,-28.62,17.61,6.97,3,S01
22920,-18.69872,1.71185,-2.56180,22.1341,9.5732,-24.0854,-28.62,17.61,6.97,3,S01
22940,-15.08347,-0.15802,-3.24414,17.4390,0.2439,-36.6463,-25.41,17.61,5.60,3,S01
22960,-12.10030,-2.47800,-1.55623,28.7805,16.3415,-37.8659,-25.41,17.61,5.60,3,S01
22980,-9.37809,-2.63841,-1.73819,45.4268,17.7439,-42.7439,-25.41,17.61,5.60,3,S01
23000,-7.40048,-0.94332,-1.34315,56.4634,11.3415,-44.4512,-26.88,21.19,2.66,3,S01
23020,-4.93445,0.49799,-0.49321,59.6341,-2.4390,-42.5610,-26.88,21.19,2.66,3,S01
23040,-0.59137,3.82833,-0.71108,38.5976,-33.5976,-40.9146,-26.88,21.19,2.66,3,S01
23060,-0.04788,3.48117,-0.83079,19.6341,-37.0732,-26.4634,-26.88,21.19,2.66,3,S01
23080,-0.11492,2.35829,-1.41976,-1.6463,-41.2805,-12.3171,-26.06,22.48,3.49,3,S01
23100,-0.18675,1.45089,-3.13640,-28.9634,-43.5366,-4.6951,-26.06,22.48,3.49,3,S01
23120,-1.06063,0.55785,-5.30555,-52.0122,-28.4146,-2.4390,-26.06,22.48,3.49,3,S01
23140,-4.13239,0.38547,-5.85382,-56.8902,8.5976,-3.6585,-25.78,22.84,5.60,3,S01
23160,-9.84735,1.41497,-7.71651,-57.9268,50.1220,-7.9878,-25.78,22.84,5.60,3,S01
23180,-21.87343,4.25689,-4.44364,-67.1341,72.2561,-15.2439,-25.78,22.84,5.60,3,S01
23200,-27.57402,5.35583,-4.70700,-69.8171,44.4512,-16.0976,-25.14,23.94,6.06,3,S01
23220,-23.33389,3.99113,-4.10127,-77.8659,14.2683,-24.6951,-25.14,23.94,6.06,3,S01
23240,-18.75139,2.81798,-4.26407,-87.0122,-7.7439,-31.1585,-25.14,23.94,6.06,3,S01
23260,-15.74906,2.85389,-3.78284,-92.1951,-9.0854,-19.2073,-25.14,23.94,6.06,3,S01
23280,-13.67568,2.30801,-2.91614,-105.9756,-1.5854,10.9146,-23.94,22.02,9.17,3,S01
23300,-11.20965,2.18351,-1.78607,-100.4878,-0.6707,37.7439,-23.94,22.02,9.17,3,S01
23320,-8.53294,1.64242,-1.15879,-81.7683,-1.4024,38.5976,-23.94,22.02,9.17,3,S01
23340,-5.79636,0.43814,-1.25456,-67.6829,-0.4268,22.6220,-24.40,21.19,11.65,3,S01
23360,-3.29442,-1.21625,-1.96564,-60.6707,0.1220,2.0122,-24.40,21.19,11.65,3,S01
23380,-0.67038,-2.26252,-1.82678,-59.0244,-4.8780,-20.1829,-24.40,21.19,11.65,3,S01
23400,1.61848,-2.17154,-2.04225,-47.4390,-22.3780,-37.4390,-22.66,22.66,13.21,3,S01
23420,2.42293,-0.60094,-2.13563,-28.3537,-30.6098,-45.4268,-22.66,22.66,13.21,3,S01
23440,1.43652,1.55863,-1.85072,-22.4390,-21.2195,-42.5610,-22.66,22.66,13.21,3,S01
23460,-0.82600,2.48997,-2.19309,-22.9878,-12.6220,-23.9634,-22.66,22.66,13.21,3,S01
23480,-4.05578,0.96726,-4.59687,-10.0000,-3.1707,2.7439,-22.48,22.84,13.76,3,S01
23500,-10.90798,2.28646,-5.83228,-24.5732,22.8659,19.6341,-22.48,22.84,13.76,3,S01
23520,-18.95968,1.30005,-4.00550,-65.3659,23.8415,56.1585,-22.48,22.84,13.76,3,S01
23540,-21.34910,1.22823,-5.38456,-60.0000,-14.9390,77.9268,-24.22,21.56,16.33,3,S01
23560,-20.56859,2.58813,-4.82432,-56.4024,-10.5488,44.3293,-24.22,21.56,16.33,3,S01
23580,-19.04109,2.29365,-3.68707,-51.8293,11.6463,0.3049,-24.22,21.56,16.33,3,S01
23600,-17.42261,0.87388,-3.06458,-51.2805,14.2683,-26.4634,-22.11,22.57,16.61,3,S01
23620,-15.37078,-1.92733,-3.07416,-47.1951,16.5244,-33.5976,-22.11,22.57,16.61,3,S01
23640,-12.79940,-3.71820,-1.64482,-30.2439,29.7561,-33.6585,-22.11,22.57,16.61,3,S01
23660,-9.80665,-3.14598,-0.92895,-7.3780,31.9512,-42.6829,-22.11,22.57,16.61,3,S01
23680,-7.10599,-1.52271,-0.33040,19.4512,22.4390,-55.6707,-20.55,23.85,15.05,3,S01
23700,-4.17070,0.92656,-0.63925,32.3780,4.6341,-65.2439,-20.55,23.85,15.05,3,S01
23720,-1.96085,3.43329,-1.15161,27.1341,-7.9268,-62.9268,-20.55,23.85,15.05,3,S01
23740,-0.88585,4.16831,-0.62968,8.2927,-9.8171,-41.3415,-18.90,25.23,15.23,3,S01
23760,-0.61531,3.11007,-0.40941,-15.7317,-15.7927,-16.2195,-18.90,25.23,15.23,3,S01
23780,-0.32322,1.39103,-1.45807,-38.2317,-30.1829,-5.1829,-18.90,25.23,15.23,3,S01
23800,-0.22266,0.41899,-3.16992,-53.5976,-38.3537,-10.6098,-17.52,24.68,18.07,3,S01
23820,-1.74298,0.32322,-3.49314,-55.1829,-24.6951,-18.7195,-17.52,24.68,18.07,3,S01
23840,-5.10683,0.68953,-2.17154,-51.5854,-2.5000,-21.8293,-17.52,24.68,18.07,3,S01
23860,-9.41400,1.63045,-4.01508,-54.3902,5.3049,-20.2439,-17.52,24.68,18.07,3,S01
23880,-17.68597,2.08296,-4.68066,-64.9390,18.7195,-10.2439,-16.42,25.14,18.90,3,S01
23900,-25.94118,1.91536,-3.42850,-54.2073,25.0610,6.4024,-16.42,25.14,18.90,3,S01
23920,-25.24207,2.86107,-2.54264,-36.8902,10.6707,8.6585,-16.42,25.14,18.90,3,S01
23940,-20.50394,3.54821,-2.27928,-34.4512,-8.8415,6.6463,-16.88,23.94,19.72,3,S01
23960,-17.01559,3.51708,-4.12282,-41.7683,-14.5732,13.1098,-16.88,23.94,19.72,3,S01
23980,-16.32606,3.41892,-1.22823,-46.6463,10.3659,25.0000,-16.88,23.94,19.72,3,S01
24000,-15.02840,2.99754,-0.43574,-49.5122,15.4878,28.1098,-16.61,23.03,20.09,3,S01
24020,-11.47302,2.05901,-0.39744,-46.1585,0.3659,19.7561,-16.61,23.03,20.09,3,S01
24040,-6.56969,0.70150,-1.70228,-46.6463,-19.6341,6.0976,-16.61,23.03,20.09,3,S01
24060,-2.02310,-0.84276,-2.48518,-51.8902,-16.3415,-10.4878,-16.61,23.03,20.09,3,S01
24080,1.61609,-1.75734,-1.71425,-56.2195,-0.3049,-26.3415,-14.04,23.76,21.56,3,S01
24100,3.01909,-1.49638,-1.08457,-44.5122,3.1098,-33.0488,-14.04,23.76,21.56,3,S01
24120,2.52109,-0.38068,-1.32639,-24.2073,-0.7927,-31.7073,-14.04,23.76,21.56,3,S01
24140,1.13964,1.35033,-1.51314,-14.6341,-1.3415,-26.8293,-12.84,23.94,21.83,3,S01
24160,-0.31364,2.45166,-2.57137,-22.1951,-2.7439,-12.4390,-12.84,23.94,21.83,3,S01
24180,-2.69108,2.19309,-4.01508,-34.6951,3.4756,5.4268,-12.84,23.94,21.83,3,S01
24200,-7.62314,1.84832,-4.31196,-42.6829,15.0610,20.6098,-12.66,24.40,23.03,3,S01
24220,-14.59027,1.67594,-5.40371,-63.7195,15.6707,43.5366,-12.66,24.40,23.03,3,S01
24240,-18.81843,-0.57461,-5.95677,-79.4512,2.6829,69.3902,-12.66,24.40,23.03,3,S01
24260,-21.38022,1.60172,-5.49230,-66.2195,-4.5732,60.2439,-12.66,24.40,23.03,3,S01
24280,-22.06257,2.51391,-3.70383,-55.6707,14.2683,24.2073,-12.02,23.58,24.04,3,S01
24300,-21.19347,1.32399,-1.91536,-59.2683,20.7317,-4.4512,-12.02,23.58,24.04,3,S01
24320,-18.47606,-0.71587,-1.68552,-55.3659,5.1829,-18.2317,-12.02,23.58,24.04,3,S01
24340,-14.99010,-1.80762,-1.18034,-40.6707,4.0854,-28.9024,-10.09,24.13,23.94,3,S01
24360,-11.28148,-2.51391,-0.26097,-20.1829,11.0976,-41.8293,-10.09,24.13,23.94,3,S01
24380,-7.51779,-0.72305,-0.00479,5.7927,-0.8537,-62.3171,-10.09,24.13,23.94,3,S01
24400,-3.70862,2.08056,-0.13647,21.7073,-24.7561,-74.1463,-8.17,24.22,24.68,3,S01
24420,0.26576,3.61046,-0.95529,-7.0732,-28.1098,-35.7317,-8.17,24.22,24.68,3,S01
24440,-0.00718,3.47878,-1.50595,-44.6341,-24.2683,-9.2073,-8.17,24.22,24.68,3,S01
24460,-1.03669,2.35350,-2.17872,-76.0366,-27.6829,8.4146,-8.17,24.22,24.68,3,S01
24480,-1.77650,0.73502,-3.83551,-89.3293,-35.7317,11.7683,-6.70,23.03,26.70,3,S01
24500,-2.80840,-0.34477,-6.47871,-89.0854,-35.3049,1.2805,-6.70,23.03,26.70,3,S01
24520,-5.61440,-0.47884,-5.76284,-72.9878,-11.6463,-11.8293,-6.70,23.03,26.70,3,S01
24540,-9.17458,1.35991,-3.59609,-55.0610,8.5366,-23.9634,-4.04,23.39,27.61,3,S01
24560,-12.68209,4.23774,-7.39090,-62.3781,11.2805,-33.2317,-4.04,23.39,27.61,3,S01
24580,-17.98524,2.72700,-6.14592,-68.7805,29.3293,-18.1098,-4.04,23.39,27.61,3,S01
24600,-20.59013,3.72059,-5.20739,-61.5244,25.6098,1.1585,-2.75,23.94,27.43,3,S01
24620,-19.07221,4.14676,-4.72137,-57.9268,11.4634,15.5488,-2.75,23.94,27.43,3,S01
24640,-16.68759,4.05099,-4.04141,-58.2927,3.7805,25.7317,-2.75,23.94,27.43,3,S01
24660,-15.38993,3.86185,-2.99754,-57.6829,10.5488,32.9878,-2.75,23.94,27.43,3,S01
24680,-15.30134,4.48913,-1.79565,-54.1463,26.8293,38.1098,-2.75,21.65,26.51,3,S01
24700,-15.19839,5.23373,-1.48919,-57.3171,36.4024,41.4024,-2.75,21.65,26.51,3,S01
24720,-14.68843,3.70144,-0.75896,-66.5854,36.6463,46.5854,-2.75,21.65,26.51,3,S01
24740,-12.49534,1.55144,0.22027,-66.5244,23.4756,40.7927,-2.48,22.75,26.70,3,S01
24760,-9.51935,0.33279,1.04627,-66.2805,-3.4756,23.9634,-2.48,22.75,26.70,3,S01
24780,-5.72932,-0.99120,0.95289,-66.8293,-30.7317,10.7317,-2.48,22.75,26.70,3,S01
24800,-2.22182,-2.43969,0.18914,-66.0976,-45.0610,-0.1220,-0.92,20.83,28.44,3,S01
24820,0.48363,-2.75094,0.04070,-59.4512,-44.5122,-11.7073,-0.92,20.83,28.44,3,S01
24840,1.86029,-1.64482,0.25379,-50.6707,-36.8293,-20.8537,-0.92,20.83,28.44,3,S01
24860,2.20027,-0.37589,-0.18196,-45.4878,-28.3537,-22.5000,-0.92,20.83,28.44,3,S01
24880,1.68552,0.35913,-1.54665,-40.9146,-21.3415,-19.7561,0.00,20.09,28.44,3,S01
24900,0.82361,0.73502,-3.53384,-34.4512,-13.5366,-14.3902,0.00,20.09,28.44,3,S01
24920,-1.16837,1.90818,-4.48434,-36.4024,-0.6098,-8.8415,0.00,20.09,28.44,3,S01
24940,-5.62637,2.33674,-5.04458,-40.7317,11.9512,6.1585,-0.18,20.46,27.71,3,S01
24960,-12.20803,1.09415,-5.04219,-45.9146,5.0610,31.8902,-0.18,20.46,27.71,3,S01
24980,-19.14404,-0.27773,-5.84185,-46.4024,-20.3049,53.9024,-0.18,20.46,27.71,3,S01
25000,-23.39135,-2.94008,-8.42041,-24.8171,-36.2805,55.9146,-1.83,19.36,27.52,3,S01
25020,-22.29720,-1.77410,-6.35182,14.9390,-13.5976,24.5122,-1.83,19.36,27.52,3,S01
25040,-20.37705,0.03352,-3.92649,63.0488,6.2805,-3.4146,-1.83,19.36,27.52,3,S01
25060,-18.16241,1.99916,-2.58574,98.1098,11.3415,-16.7683,-1.83,19.36,27.52,3,S01
25080,-16.37634,3.33273,-2.87304,111.5854,11.3415,-17.6829,-3.49,19.17,24.50,3,S01
25100,-15.23670,2.81079,-2.28886,109.5122,19.9390,-10.6098,-3.49,19.17,24.50,3,S01
25120,-13.35725,1.24259,-1.38145,98.1098,21.7683,-8.5976,-3.49,19.17,24.50,3,S01
25140,-10.24958,-0.19393,-0.49560,86.9512,7.8659,-7.1341,-5.78,20.28,23.39,3,S01
25160,-6.07648,-0.95768,0.12929,80.6707,-15.2439,-1.5854,-5.78,20.28,23.39,3,S01
25180,-1.92973,-0.60094,-0.31364,75.9146,-37.0122,8.6585,-5.78,20.28,23.39,3,S01
25200,0.82361,0.39025,-0.99599,67.5000,-49.0854,23.4756,-7.25,18.26,24.50,3,S01
25220,1.51314,0.45969,-0.80445,56.7073,-49.2073,40.5488,-7.25,18.26,24.50,3,S01
25240,1.21625,-0.46926,-0.96486,46.4634,-45.8537,50.9756,-7.25,18.26,24.50,3,S01
25260,0.87149,-1.05105,-1.38385,36.5244,-42.9268,47.7439,-7.25,18.26,24.50,3,S01
25280,0.43096,-1.28569,-1.97043,28.7805,-36.7683,37.8659,-8.07,17.52,25.05,3,S01
25300,-0.29688,0.04788,-3.00712,27.5610,-22.1341,26.5854,-8.07,17.52,25.05,3,S01
25320,-2.33674,2.35589,-2.62405,20.3659,-2.3171,20.7927,-8.07,17.52,25.05,3,S01
25340,-5.53300,3.08613,-2.21703,17.7439,10.9146,29.2683,-9.45,19.08,24.31,3,S01
25360,-9.56484,2.05183,-5.70778,16.9512,24.6951,41.5854,-9.45,19.08,24.31,3,S01
25380,-17.98285,1.30484,-5.60004,12.3780,61.8902,45.1829,-9.45,19.08,24.31,3,S01
25400,-29.92752,2.55461,-3.67031,27.8659,80.1829,37.4390,-11.56,21.01,21.83,3,S01
25420,-29.65219,5.62637,-2.88262,25.9756,56.8293,24.0244,-11.56,21.01,21.83,3,S01
25440,-23.89413,5.55694,-2.86825,12.8659,21.8293,27.9268,-11.56,21.01,21.83,3,S01
25460,-19.73780,3.91452,-1.32160,17.0732,4.4512,32.1341,-11.56,21.01,21.83,3,S01
25480,-16.62773,2.15239,-2.03028,20.2439,-11.6463,29.8171,-12.29,19.45,22.02,3,S01
25500,-13.12262,0.27294,-2.04465,26.8902,-12.8659,23.5976,-12.29,19.45,22.02,3,S01
25520,-9.05248,-1.96085,-1.95846,45.4268,-14.3902,16.5854,-12.29,19.45,22.02,3,S01
25540,-5.06852,-2.61207,-0.95768,60.5488,-22.8049,-6.2195,-13.30,20.09,22.84,3,S01
25560,-0.66559,-2.02071,-0.55067,63.6585,-39.6951,-31.2195,-13.30,20.09,22.84,3,S01
25580,2.96642,0.51475,-1.08697,54.2073,-55.7927,-47.5000,-13.30,20.09,22.84,3,S01
25600,3.45483,1.83635,-1.92254,38.4146,-50.3049,-43.2927,-12.94,20.73,23.39,3,S01
25620,1.66397,1.99198,-1.13485,27.9878,-17.0122,-31.9512,-12.94,20.73,23.39,3,S01
25640,-0.35913,2.50194,-0.57221,25.6707,0.3659,-27.1951,-12.94,20.73,23.39,3,S01
25660,-2.36787,2.76530,-1.63524,30.3049,-8.9024,-13.4146,-12.94,20.73,23.39,3,S01
25680,-4.95360,1.31681,-2.87544,30.9146,-17.1951,8.5366,-14.77,21.65,23.30,3,S01
25700,-8.29351,-0.22984,-4.53222,29.8780,-17.7439,18.2927,-14.77,21.65,23.30,3,S01
25720,-13.72835,1.15640,-5.59046,22.4390,-17.2561,15.3049,-14.77,21.65,23.30,3,S01
25740,-18.18396,3.09331,-8.72447,-1.5244,-20.0000,36.6463,-15.32,23.39,24.59,3,S01
25760,-19.82878,3.90973,-5.95677,-9.0244,-3.9024,53.1707,-15.32,23.39,24.59,3,S01
25780,-19.34754,1.61369,-4.49392,-14.7561,20.1829,-5.1220,-15.32,23.39,24.59,3,S01
25800,-16.48408,0.15562,-5.01106,-13.0488,15.8537,-33.0488,-14.86,23.58,23.85,3,S01
25820,-13.41711,-0.59855,-3.79002,-3.9634,25.4268,-44.3902,-14.86,23.58,23.85,3,S01
25840,-10.61828,-1.13006,-2.54743,12.1951,31.9512,-49.0244,-14.86,23.58,23.85,3,S01
25860,-8.05649,-0.67756,-0.35674,30.1220,23.2317,-56.3415,-14.86,23.58,23.85,3,S01
25880,-4.97276,0.67995,-0.12210,40.9756,-0.6707,-60.0610,-14.40,25.23,22.29,3,S01
25900,-1.82199,2.11169,-0.02634,38.5366,-14.5122,-54.9390,-14.40,25.23,22.29,3,S01
25920,0.36631,2.43251,0.54588,29.0244,-13.9024,-39.5732,-14.40,25.23,22.29,3,S01
25940,0.61052,1.76932,0.57940,19.0244,-11.4634,-24.7561,-14.22,25.87,22.29,3,S01
25960,0.26097,1.49877,-0.27773,-2.3171,-11.6463,-22.1951,-14.22,25.87,22.29,3,S01
25980,-0.83318,1.21386,-1.84832,-20.2439,-13.5366,-21.5244,-14.22,25.87,22.29,3,S01
26000,-2.40138,1.00078,-3.91452,-29.5122,-12.3171,-21.3415,-12.75,26.24,23.30,3,S01
26020,-5.22415,1.04866,-4.07254,-26.3415,-1.8293,-22.6220,-12.75,26.24,23.30,3,S01
26040,-9.96467,2.61926,-3.78284,-28.1707,13.7195,-27.9878,-12.75,26.24,23.30,3,S01
26060,-15.20079,6.03099,-6.77799,-55.6098,31.9512,-36.2195,-12.75,26.24,23.30,3,S01
26080,-21.78245,5.07810,-5.30076,-71.0976,46.1585,-22.2561,-10.46,28.26,23.21,3,S01
26100,-24.80632,5.45399,-4.25210,-79.9390,32.8049,-6.4634,-10.46,28.26,23.21,3,S01
26120,-23.27882,6.88572,-4.64715,-94.8171,14.0854,-7.0122,-10.46,28.26,23.21,3,S01
26140,-19.76414,5.50188,-4.05817,-118.0488,-1.4634,-2.9268,-7.52,25.87,24.22,3,S01
26160,-15.81610,2.19548,-3.55778,-137.3780,-11.5854,3.9024,-7.52,25.87,24.22,3,S01
26180,-11.23120,-0.39265,-3.41653,-130.1829,-19.5732,2.6829,-7.52,25.87,24.22,3,S01
26200,-8.26478,0.16281,-2.25055,-94.8171,-11.1585,-5.0610,-5.14,26.15,26.42,3,S01
26220,-5.65510,1.42455,-0.59616,-75.3049,4.1463,-17.8659,-5.14,26.15,26.42,3,S01
26240,-2.88980,2.05662,0.49799,-81.1585,7.1951,-29.6951,-5.14,26.15,26.42,3,S01
26260,0.19632,1.08218,0.81403,-90.6707,-3.2317,-38.3537,-5.14,26.15,26.42,3,S01
26280,2.54025,-0.53151,-0.36871,-90.0610,-19.1463,-48.8415,-0.92,26.15,27.25,3,S01
26300,2.81079,-0.62728,-2.00634,-82.0122,-20.7317,-58.4146,-0.92,26.15,27.25,3,S01
26320,1.10852,0.28012,-2.42293,-70.6098,-2.8659,-59.3902,-0.92,26.15,27.25,3,S01
26340,-1.35751,2.10690,-2.34871,-65.0610,12.9268,-54.0854,2.94,27.06,27.06,3,S01
26360,-4.04141,2.94487,-2.67911,-64.7561,12.5610,-38.9024,2.94,27.06,27.06,3,S01
26380,-6.75404,0.69192,-6.33985,-56.8293,7.9878,-11.9512,2.94,27.06,27.06,3,S01
26400,-11.10670,-0.33519,-6.43083,-68.2927,26.5854,3.1098,4.50,29.27,26.51,3,S01
26420,-16.86236,1.30245,-4.86981,-95.0000,31.3415,22.2561,4.50,29.27,26.51,3,S01
26440,-20.22143,3.16992,-5.61919,-84.5122,11.2195,51.0976,4.50,29.27,26.51,3,S01
26460,-20.83913,3.74693,-4.54659,-77.4390,14.2073,44.0854,4.50,29.27,26.51,3,S01
26480,-21.13362,2.14281,-4.46040,-75.2439,17.0732,15.2439,5.50,29.45,26.61,3,S01
26500,-19.97004,0.15323,-4.93924,-72.7439,17.2561,-11.4024,5.50,29.45,26.61,3,S01
26520,-17.03235,-1.37667,-3.57215,-66.9512,20.4878,-25.6098,5.50,29.45,26.61,3,S01
26540,-13.15135,-1.72143,-2.64080,-56.0976,16.2805,-36.4634,8.72,29.27,24.95,3,S01
26560,-9.24401,-1.12527,-1.80283,-39.3293,8.5366,-51.0366,8.72,29.27,24.95,3,S01
26580,-5.46836,0.29209,-0.81882,-26.8902,-2.1951,-68.3537,8.72,29.27,24.95,3,S01
26600,-1.78368,1.84114,-1.06781,-25.2439,-15.8537,-79.7561,13.30,28.62,24.95,3,S01
26620,1.42455,3.10767,-0.56503,-33.8415,-15.2439,-76.2195,13.30,28.62,24.95,3,S01
26640,2.18112,2.70066,0.17478,-48.1098,-5.1829,-55.9756,13.30,28.62,24.95,3,S01
26660,1.13725,1.33836,1.16358,-68.2317,2.3780,-32.8659,13.30,28.62,24.95,3,S01
26680,-0.24181,0.65122,0.97444,-86.7073,-5.0610,-20.8537,16.61,28.81,23.12,3,S01
26700,-1.41258,0.58658,-0.62489,-100.7927,-21.7073,-21.0976,16.61,28.81,23.12,3,S01
26720,-2.49955,1.10133,-3.07416,-103.9634,-33.0488,-28.4146,16.61,28.81,23.12,3,S01
26740,-3.99832,1.37906,-5.39414,-90.0000,-26.1585,-34.3293,16.88,26.61,19.08,3,S01
26760,-7.19218,0.86910,-5.56412,-76.1585,-1.3415,-37.6220,16.88,26.61,19.08,3,S01
26780,-12.47618,1.97761,-7.53934,-73.3537,17.0732,-47.3781,16.88,26.61,19.08,3,S01
26800,-18.50957,4.73573,-3.29203,-63.0488,13.2927,-53.5366,23.39,25.50,19.27,3,S01
26820,-22.09848,6.06930,-2.94008,-75.7317,-9.4512,-36.0976,23.39,25.50,19.27,3,S01
26840,-21.12404,5.10444,-3.59609,-106.0976,-23.5976,-21.7683,23.39,25.50,19.27,3,S01
26860,-20.23579,5.04219,-3.98156,-118.7195,-28.5366,-21.5244,23.39,25.50,19.27,3,S01
26880,-20.41296,5.17387,-3.58651,-122.4390,-6.3415,-14.5732,27.25,25.23,19.45,3,S01
26900,-20.43451,5.97832,-2.06141,-128.1098,12.6220,2.3171,27.25,25.23,19.45,3,S01
26920,-18.16720,5.17626,-2.03028,-145.9756,2.2561,11.4024,27.25,25.23,19.45,3,S01
26940,-13.73075,4.37181,-2.49715,-153.4756,-10.4268,3.1098,29.63,24.50,16.24,3,S01
26960,-10.34295,2.98318,-2.86107,-151.0976,-3.2927,-13.9024,29.63,24.50,16.24,3,S01
26980,-7.38132,1.71664,-1.70467,-151.5244,14.8780,-32.4390,29.63,24.50,16.24,3,S01
27000,-4.13239,1.36470,-0.97923,-150.5488,15.3049,-45.1829,32.57,21.83,11.65,3,S01
27020,-0.47884,0.64404,-2.06859,-150.0610,4.0854,-48.9024,32.57,21.83,11.65,3,S01
27040,2.41096,-0.82600,-2.49955,-151.1585,-0.0610,-48.5976,32.57,21.83,11.65,3,S01
27060,3.15077,-2.51152,-3.20105,-144.2073,-7.8659,-44.7561,32.57,21.83,11.65,3,S01
27080,1.98719,-2.19309,-3.38301,-125.6707,-8.6585,-45.9756,35.23,20.00,8.44,3,S01
27100,0.52433,-0.32082,-2.83952,-107.1951,-3.7195,-52.7439,35.23,20.00,8.44,3,S01
27120,-0.63686,1.45089,-2.09253,-98.5976,-9.4512,-58.0488,35.23,20.00,8.44,3,S01
27140,-2.04944,1.98240,-3.76129,-91.0976,-18.9024,-54.1463,37.43,17.80,6.24,3,S01
27160,-13.28064,1.04148,-4.90572,-130.3049,61.2195,13.0488,37.43,17.80,6.24,3,S01
27180,-20.39381,-0.95289,-4.18028,-143.3537,55.4268,67.7439,37.43,17.80,6.24,3,S01
27200,-24.39213,-0.56982,-5.61680,-124.8781,19.3293,72.9268,35.50,21.19,0.28,3,S01
27220,-25.32826,0.64165,-3.01909,-91.7683,34.8171,31.2195,35.50,21.19,0.28,3,S01
27240,-21.99792,0.12689,-2.22900,-72.2561,26.3415,-16.3415,35.50,21.19,0.28,3,S01
27260,-17.85117,-1.07021,-2.87544,-58.9024,4.4512,-44.0244,35.50,15.87,0.28,3,S01
27280,-14.12818,-1.42934,-2.19309,-41.4634,4.8171,-55.0610,37.43,15.87,-4.22,3,S01
27300,-11.34612,-0.04549,-1.30005,-29.8171,7.6220,-57.5000,37.43,15.87,-4.22,3,S01
27320,-7.62793,1.84354,-1.24738,-27.9878,-6.0976,-54.7561,37.43,15.87,-4.22,3,S01
27340,-4.03662,2.58813,-0.97683,-33.7195,-20.5488,-48.7805,37.89,15.60,-2.66,3,S01
27360,-1.16119,2.01113,-0.90501,-44.8171,-32.0732,-39.8780,37.89,15.60,-2.66,3,S01
27380,0.08380,1.66636,-1.10612,-61.5244,-35.7927,-32.5000,37.89,15.60,-2.66,3,S01
27400,-0.11492,1.27850,-1.07739,-76.7073,-29.3293,-23.7805,38.07,14.86,-4.31,3,S01
27420,-0.78769,0.53630,-1.01754,-86.3415,-27.6829,-14.6951,38.07,14.86,-4.31,3,S01
27440,-1.31681,-0.19154,-1.80523,-87.4390,-36.2805,-10.7927,38.07,14.86,-4.31,3,S01
27460,-1.81720,-1.12049,-4.74291,-84.3902,-40.1220,-14.0854,38.07,14.68,-4.31,3,S01
27480,-5.13556,-0.55785,-8.28873,-82.1341,-13.4756,-22.6829,38.17,14.68,-6.61,3,S01
27500,-12.66293,1.16119,-4.31435,-68.9024,31.2195,-30.7317,38.17,14.68,-6.61,3,S01
27520,-18.54788,4.41730,-5.09247,-65.4878,38.1098,-42.3780,38.17,14.68,-6.61,3,S01
27540,-21.04024,2.98078,-6.50505,-80.4878,25.4268,-31.9512,38.35,12.94,-10.09,3,S01
27560,-20.34593,3.09570,-5.64553,-87.3171,4.1463,-15.3049,38.35,12.94,-10.09,3,S01
27580,-17.43458,3.62961,-5.29597,-89.8171,-11.1585,-13.1707,38.35,12.94,-10.09,3,S01
27600,-14.86799,3.68228,-4.72376,-92.1341,-12.8049,-6.3415,36.61,11.10,-14.31,3,S01
27620,-12.76110,3.20344,-3.64876,-99.4512,-11.5244,11.4024,36.61,11.10,-14.31,3,S01
27640,-11.35091,3.28245,-2.87544,-109.3902,-12.9878,25.5488,36.61,11.10,-14.31,3,S01
27660,-10.23521,3.14838,-2.02071,-113.0488,-12.1341,27.8659,36.61,14.13,-15.96,3,S01
27680,-8.48026,1.40779,-1.42694,-115.9146,-13.4756,22.9878,33.76,14.13,-15.96,3,S01
27700,-5.75806,-0.79487,-2.14281,-113.2317,-12.9878,15.7927,33.76,14.13,-15.96,3,S01
27720,-3.37582,-2.50912,-1.09176,-98.2927,0.5488,6.6463,33.76,14.13,-15.96,3,S01
27740,-1.13964,-3.40934,-0.27054,-78.9634,-0.2439,-4.5122,32.02,14.31,-18.44,3,S01
27760,0.86670,-3.18908,-0.52433,-59.1463,-15.1220,-15.0000,32.02,14.31,-18.44,3,S01
27780,1.64482,-1.42216,-1.96564,-46.6463,-24.9390,-20.9756,32.02,14.31,-18.44,3,S01
27800,0.84515,1.29526,-3.42371,-48.5366,-17.5610,-21.0976,32.29,14.22,-19.17,3,S01
27820,-2.87065,4.43167,-3.91931,-49.5122,-2.3780,-13.0488,32.29,14.22,-19.17,3,S01
27840,-10.65180,4.68785,-1.51074,-44.5732,7.0122,15.8537,32.29,14.22,-19.17,3,S01
27860,-15.61259,-1.12767,-3.41653,-63.0488,-14.6951,53.7195,29.72,17.61,-20.46,3,S01
27880,-17.95651,-2.46603,-5.13796,-99.3902,-33.9024,44.9390,29.72,17.61,-20.46,3,S01
27900,-18.70111,-0.22266,-5.88974,-69.6341,-33.4146,24.3293,29.72,17.61,-20.46,3,S01
27920,-19.01714,0.74460,-3.19387,-38.3537,-1.4024,7.9268,29.72,17.61,-20.46,3,S01
27940,-18.49042,-0.11492,-2.27210,-24.9390,8.4756,-4.8171,30.28,16.24,-21.38,3,S01
27960,-16.55351,-1.08936,-2.90896,-12.6220,1.7073,-15.7927,30.28,16.24,-21.38,3,S01
27980,-13.88876,-1.56581,-3.15556,3.3537,9.0244,-21.3415,30.28,16.24,-21.38,3,S01
28000,-10.80743,-1.66397,-2.09014,19.8780,23.1098,-23.2317,32.11,14.04,-20.73,3,S01
28020,-8.37492,-1.10373,-1.86748,37.8049,22.7439,-24.9390,32.11,14.04,-20.73,3,S01
28040,-6.32309,-0.11013,-1.59454,46.1585,13.5366,-27.1341,32.11,14.04,-20.73,3,S01
28060,-4.22816,1.16358,-1.34315,41.8902,1.6463,-26.4634,34.50,13.30,-18.99,3,S01
28080,-2.39420,1.77889,-1.10373,28.2317,-10.1220,-19.0244,34.50,13.30,-18.99,3,S01
28100,-1.18274,1.39821,-0.56264,17.3171,-21.7073,-8.6585,34.50,13.30,-18.99,3,S01
28120,-0.39744,1.17316,-0.19632,11.5244,-34.2683,-2.2561,34.50,13.30,-18.99,3,S01
28140,0.23942,0.94810,-0.61292,5.7927,-45.4268,-0.1829,35.41,14.68,-17.43,3,S01
28160,0.14365,0.38547,-1.96564,-6.2805,-47.5000,-3.4146,35.41,14.68,-17.43,3,S01
28180,-1.99198,-0.47405,-7.74045,-14.8780,-30.9756,-7.9268,35.41,14.68,-17.43,3,S01
28200,-9.87369,1.06063,-6.90248,-15.1829,37.3780,-11.2195,36.42,12.57,-18.62,3,S01
28220,-19.93652,4.67109,-1.19471,-0.9756,75.1220,-8.1098,36.42,12.57,-18.62,3,S01
28240,-21.60767,3.92410,-3.57933,-23.6585,38.1707,-4.6951,36.42,12.57,-18.62,3,S01
28260,-20.43690,1.92015,-3.99832,-45.9756,2.3171,-0.9756,35.87,12.57,-19.63,3,S01
28280,-19.33318,1.00078,-3.63919,-50.6707,-12.3780,0.0000,35.87,12.57,-19.63,3,S01
28300,-17.37951,1.49877,-4.04859,-54.0244,-8.7805,6.6463,35.87,12.57,-19.63,3,S01
28320,-15.53358,2.58574,-2.21703,-55.1829,-3.2927,18.3537,35.87,12.57,-19.63,3,S01
28340,-13.40753,3.41892,-1.82438,-57.0732,0.0000,27.3780,34.40,12.57,-22.02,3,S01
28360,-11.22402,2.98557,-1.19710,-57.0122,9.1463,26.4634,34.40,12.57,-22.02,3,S01
28380,-8.30549,1.90339,-0.74460,-50.9756,4.3293,10.9146,34.40,12.57,-22.02,3,S01
28400,-4.76446,1.09415,-2.18112,-41.1585,-16.2195,-11.4634,35.14,11.65,-22.84,3,S01
28420,-1.52511,1.12527,-2.73897,-38.3537,-18.1098,-33.9634,35.14,11.65,-22.84,3,S01
28440,1.18752,1.78847,-1.69988,-45.3049,-10.0610,-48.5366,35.14,11.65,-22.84,3,S01
28460,2.67193,2.03268,-1.64960,-51.4024,-16.0366,-46.3415,35.41,10.64,-24.50,3,S01
28480,2.51631,1.66397,-2.12126,-58.4146,-20.4878,-33.4146,35.41,10.64,-24.50,3,S01
28500,1.14443,1.49638,-2.31998,-65.7317,-15.3659,-23.9024,35.41,10.64,-24.50,3,S01
28520,-6.17704,2.56658,-5.52103,-46.8902,-2.9268,-12.3171,35.41,10.64,-24.50,3,S01
28540,-16.72829,3.59849,-4.50349,-63.2317,12.6220,19.8780,34.59,10.92,-27.06,3,S01
28560,-23.45839,-0.11971,-6.57208,-89.6951,-7.1951,70.2439,34.59,10.92,-27.06,3,S01
28580,-21.74414,1.50356,-7.69975,-102.0122,-26.0976,62.6220,34.59,10.92,-27.06,3,S01
28600,-19.79526,3.54342,-5.88016,-88.5366,5.8537,21.9512,30.37,14.13,-30.09,3,S01
28620,-16.87194,3.85227,-4.44603,-91.5854,34.2683,-17.6220,30.37,14.13,-30.09,3,S01
28640,-14.02523,2.70784,-3.48117,-109.6341,29.5122,-44.9390,30.37,14.13,-30.09,3,S01
28660,-11.31500,1.08457,-3.63919,-122.9878,24.2683,-57.1951,29.72,7.34,-34.40,3,S01
28680,-9.03572,0.00958,-2.28646,-125.9146,34.0854,-61.4634,29.72,7.34,-34.40,3,S01
28700,-6.81150,-0.03591,-1.12767,-127.3171,30.9146,-68.1098,29.72,7.34,-34.40,3,S01
28720,-4.47955,-0.03112,-0.04070,-119.9390,11.2805,-73.8415,29.72,7.34,-34.40,3,S01
28740,-1.70946,0.12450,0.67756,-104.8781,-13.5366,-76.2195,25.05,7.80,-38.17,3,S01
28760,1.07021,-0.28252,0.37589,-95.0000,-29.0854,-68.0488,25.05,7.80,-38.17,3,S01
28780,2.54025,-0.45490,0.11732,-99.5732,-29.0244,-57.2561,25.05,7.80,-38.17,3,S01
28800,2.43730,-0.08859,-1.47722,-102.9878,-28.3537,-47.8049,21.65,9.17,-40.37,3,S01
28820,0.57700,0.37828,-3.46202,-102.0732,-21.8902,-37.3171,21.65,9.17,-40.37,3,S01
28840,-3.41892,0.66080,-3.03345,-99.9390,-9.3293,-27.8049,21.65,9.17,-40.37,3,S01
28860,-8.74123,0.88825,-1.77171,-93.2317,-5.4268,-22.3171,17.06,10.09,-42.29,3,S01
28880,-15.46415,2.57137,-7.14190,-93.5366,5.4878,-30.4878,17.06,10.09,-42.29,3,S01
28900,-23.00349,2.70784,-5.26006,-104.6951,37.9268,-42.4390,17.06,10.09,-42.29,3,S01
28920,-22.98912,5.24570,-4.46758,-98.3537,9.8780,-36.4024,17.06,10.09,-42.29,3,S01
28940,-20.55183,6.08127,-4.92248,-104.8781,-7.0732,-27.8049,11.47,9.27,-43.30,3,S01
28960,-18.81124,5.96635,-4.69024,-117.5610,1.3415,-25.6707,11.47,9.27,-43.30,3,S01
28980,-17.27895,4.85784,-4.55138,-129.5122,-3.7195,-13.9634,11.47,9.27,-43.30,3,S01
29000,-15.80413,3.74214,-4.03662,-141.2195,2.0122,0.2439,2.75,7.06,-43.94,3,S01
29020,-13.90552,4.32153,-2.82037,-144.2683,5.6707,0.9756,2.75,7.06,-43.94,3,S01
29040,-11.03966,5.39174,-2.17872,-146.8902,0.4878,-10.0000,2.75,7.06,-43.94,3,S01
29060,-7.43400,4.79319,-2.08056,-153.7195,-4.3902,-20.6707,-5.96,6.79,-42.29,3,S01
29080,-3.60327,2.51391,-2.29365,-161.7073,-4.1463,-30.7317,-5.96,6.79,-42.29,3,S01
29100,-0.26576,0.51236,-2.63841,-163.7195,-1.0976,-42.3171,-5.96,6.79,-42.29,3,S01
29120,2.19788,-0.45729,-3.27048,-158.4146,-1.7073,-44.0854,-5.96,6.79,-42.29,3,S01
29140,3.24654,-0.85473,-4.04141,-150.7927,1.2805,-32.8659,-14.22,7.25,-39.27,3,S01
29160,2.78446,-1.06542,-3.79720,-145.3659,17.0732,-22.8049,-14.22,7.25,-39.27,3,S01
29180,1.29047,-0.66080,-2.87783,-143.7805,31.9512,-25.0610,-14.22,7.25,-39.27,3,S01
29200,-0.93134,-0.01676,-2.98318,-147.1951,33.5366,-31.2195,-21.38,6.88,-34.86,3,S01
29220,-3.92649,0.87867,-3.95522,-161.7073,34.4512,-34.6341,-21.38,6.88,-34.86,3,S01
29240,-8.63110,1.61369,-3.71341,-182.7439,45.7927,-28.4146,-21.38,6.88,-34.86,3,S01
