timestamp,ax,ay,az,gx,gy,gz,mx,my,mz,label,subject_id
0,-8.37492,-1.21386,0.45490,27.9878,-1.3415,15.3049,-25.78,17.71,-6.61,2,S02
20,-8.65265,-0.49560,0.55785,34.5732,7.8659,13.7805,-25.60,17.16,-8.07,2,S02
40,-9.15543,0.19393,0.73502,40.0000,14.3902,11.3415,-25.60,17.16,-8.07,2,S02
60,-9.32063,0.71826,0.76136,42.0122,15.7317,10.3659,-25.60,17.16,-8.07,2,S02
80,-9.12909,0.95529,0.77093,40.1829,16.8293,10.4268,-25.23,16.61,-10.00,2,S02
100,-8.91361,0.90501,0.75657,36.3415,18.5366,10.4268,-25.23,16.61,-10.00,2,S02
120,-8.84418,0.64643,0.94332,32.3780,18.8415,9.7561,-25.23,16.61,-10.00,2,S02
140,-8.97826,0.39025,1.21147,30.2439,17.0732,7.9878,-24.86,15.96,-11.47,2,S02
160,-9.18895,0.19393,1.34554,30.1829,14.3902,6.0976,-24.86,15.96,-11.47,2,S02
180,-9.33499,0.06943,1.12049,31.9512,13.4146,4.8780,-24.86,15.96,-11.47,2,S02
200,-9.28471,0.00958,0.81882,33.4756,14.3293,4.7561,-24.86,15.96,-11.47,2,S02
220,-9.20331,-0.06225,0.78769,34.0244,14.3293,4.3293,-24.31,15.69,-13.03,2,S02
240,-9.16261,-0.08380,0.89304,34.3902,12.4390,3.5366,-24.31,15.69,-13.03,2,S02
260,-9.12430,-0.01197,0.98162,34.7561,9.6951,3.2317,-24.31,15.69,-13.03,2,S02
280,-9.16261,0.24900,1.13246,33.7195,6.8902,2.9878,-23.49,15.60,-14.31,2,S02
300,-9.13388,0.51236,1.26414,31.7683,4.4512,1.5854,-23.49,15.60,-14.31,2,S02
320,-8.95192,0.75657,1.26653,30.7317,3.7195,-0.9756,-23.49,15.60,-14.31,2,S02
340,-8.84658,0.90740,1.31442,29.6341,4.5122,-3.7195,-22.75,15.50,-15.32,2,S02
360,-8.88249,0.86670,1.46765,27.7439,4.6951,-5.9756,-22.75,15.50,-15.32,2,S02
380,-8.96389,0.73741,1.59693,26.5244,3.9634,-7.3171,-22.75,15.50,-15.32,2,S02
400,-9.04051,0.70390,1.69031,25.4878,3.8415,-7.9268,-22.75,15.50,-15.32,2,S02
420,-9.07402,0.84276,1.67355,24.2683,3.6585,-8.4146,-21.74,15.78,-16.24,2,S02
440,-9.18655,1.02711,1.50835,22.4390,3.6585,-8.2317,-21.74,15.78,-16.24,2,S02
460,-9.19852,0.99359,1.34554,22.0122,5.2439,-6.8902,-21.74,15.78,-16.24,2,S02
480,-9.20331,0.89064,1.62087,22.9268,5.9756,-6.0976,-21.01,15.87,-17.25,2,S02
500,-9.33499,0.63686,2.40617,25.9756,3.1098,-6.0976,-21.01,15.87,-17.25,2,S02
520,-9.44752,0.38307,2.93050,30.7927,-1.4634,-5.1829,-21.01,15.87,-17.25,2,S02
540,-9.22965,0.28970,2.94726,35.9146,-2.5000,-3.6585,-19.72,15.96,-18.44,2,S02
560,-9.37809,0.21548,2.49476,40.5488,-0.1829,-4.2683,-19.72,15.96,-18.44,2,S02
580,-11.35570,0.35195,1.02472,44.4512,2.6220,-5.5488,-19.72,15.96,-18.44,2,S02
600,-14.32212,1.20668,-0.53391,43.5976,11.5854,3.2927,-19.72,15.96,-18.44,2,S02
620,-12.95024,0.96726,-0.97923,33.9024,26.7683,28.3537,-19.08,14.59,-19.91,2,S02
640,-10.18254,-0.04070,-1.04627,24.6341,27.3780,43.2927,-19.08,14.59,-19.91,2,S02
660,-8.18338,-0.93613,-1.47722,31.4024,22.1951,38.1098,-19.08,14.59,-19.91,2,S02
680,-8.54491,-0.12210,-1.64242,42.1341,17.6829,20.4878,-18.17,13.67,-21.47,2,S02
700,-10.19690,1.54187,-1.18992,37.5610,8.2927,4.3902,-18.17,13.67,-21.47,2,S02
720,-10.57758,1.90339,-0.83318,24.5732,1.1585,-1.5244,-18.17,13.67,-21.47,2,S02
740,-10.29986,1.50116,-0.66319,10.8537,-0.3049,-4.7561,-17.98,14.04,-21.38,2,S02
760,-10.29267,0.91937,-0.27533,-3.1707,-3.2927,-11.0976,-17.98,14.04,-21.38,2,S02
780,-10.07959,0.26576,0.09098,-10.7317,-10.2439,-17.2561,-17.98,14.04,-21.38,2,S02
800,-9.48104,-0.42856,0.27294,-12.2561,-18.3537,-20.8537,-17.98,14.04,-21.38,2,S02
820,-8.92080,-0.84755,0.28970,-10.1829,-22.2561,-22.4390,-17.43,15.32,-20.55,2,S02
840,-8.63349,-0.70150,0.15802,-7.0732,-21.4634,-23.1707,-17.43,15.32,-20.55,2,S02
860,-8.60476,-0.45969,0.25857,-5.3659,-17.9878,-22.4390,-17.43,15.32,-20.55,2,S02
880,-8.72208,-0.36152,0.44293,-4.2073,-14.5122,-20.3049,-16.97,16.24,-20.46,2,S02
900,-8.86812,-0.35434,0.59376,-3.6585,-13.2927,-16.8902,-16.97,16.24,-20.46,2,S02
920,-8.89685,-0.35195,0.57461,-3.5976,-13.1707,-12.8659,-16.97,16.24,-20.46,2,S02
940,-8.80827,-0.41899,0.67038,-3.7195,-11.7683,-9.3293,-16.70,16.79,-20.37,2,S02
960,-8.90643,-0.51954,0.89783,-2.6220,-10.5488,-7.5000,-16.70,16.79,-20.37,2,S02
980,-8.86333,-0.69432,1.07021,-0.3049,-9.5732,-6.1585,-16.70,16.79,-20.37,2,S02
1000,-8.75799,-0.77812,1.27132,1.4024,-7.3171,-4.9390,-16.70,16.79,-20.37,2,S02
1020,-8.74123,-0.65122,1.45328,1.7683,-4.0854,-4.5122,-16.42,16.88,-20.28,2,S02
1040,-8.70532,-0.56982,1.64721,2.2561,-1.1585,-3.7195,-16.42,16.88,-20.28,2,S02
1060,-8.68377,-0.53391,1.90339,3.1098,0.0000,-2.6220,-16.42,16.88,-20.28,2,S02
1080,-8.53294,-0.45490,2.09732,3.4146,-0.1829,-1.0976,-16.15,16.97,-20.46,2,S02
1100,-8.47547,-0.36631,2.31040,3.1707,0.1220,1.0976,-16.15,16.97,-20.46,2,S02
1120,-8.60955,-0.20111,2.47082,2.5610,0.1829,3.9024,-16.15,16.97,-20.46,2,S02
1140,-8.88009,-0.05267,2.44927,-0.1829,-1.2805,7.6220,-16.51,16.97,-20.37,2,S02
1160,-9.29429,-0.12689,2.32477,-4.2073,-5.6098,11.5244,-16.51,16.97,-20.37,2,S02
1180,-9.80426,-0.34716,2.15957,-13.1098,-21.6463,10.6098,-16.51,16.97,-20.37,2,S02
1200,-9.86890,-0.15802,2.78206,-18.6585,-30.6098,6.0976,-16.51,16.97,-20.37,2,S02
1220,-9.30866,0.06225,2.94726,-26.8293,-39.6951,3.7195,-17.16,17.80,-18.90,2,S02
1240,-9.27274,-0.08619,2.24337,-35.6098,-44.5732,2.6829,-17.16,17.80,-18.90,2,S02
1260,-11.25275,-0.93853,0.97444,-41.2805,-38.5366,-1.4634,-17.16,17.80,-18.90,2,S02
1280,-13.23036,-0.84994,0.64643,-39.3293,-27.9878,-11.4634,-17.89,18.90,-16.88,2,S02
1300,-12.81137,0.29209,-0.02873,-40.6707,-31.5854,-21.2805,-17.89,18.90,-16.88,2,S02
1320,-11.36528,1.45807,-0.64643,-50.7927,-38.4756,-20.0610,-17.89,18.90,-16.88,2,S02
1340,-10.01016,0.71826,-0.94810,-59.0854,-32.8659,-11.1585,-18.72,20.37,-14.95,2,S02
1360,-10.09156,-1.46286,0.31364,-52.4390,-18.3537,-6.1585,-18.72,20.37,-14.95,2,S02
1380,-10.64223,-2.76770,1.47483,-31.8902,-9.3902,-4.9390,-18.72,20.37,-14.95,2,S02
1400,-10.47224,-2.33674,1.65200,-10.4268,-6.7073,-0.1829,-18.72,20.37,-14.95,2,S02
1420,-9.70370,-1.13246,1.35272,7.3171,-5.0610,8.0488,-18.81,20.28,-15.14,2,S02
1440,-8.65504,-0.07661,0.82600,21.6463,-3.3537,15.5488,-18.81,20.28,-15.14,2,S02
1460,-7.92002,0.48363,0.52672,29.8171,0.9146,18.2317,-18.81,20.28,-15.14,2,S02
1480,-7.81467,0.63207,0.52433,32.3780,5.5488,16.7683,-18.35,19.82,-16.24,2,S02
1500,-8.09240,0.65362,0.54588,32.0732,9.3902,13.4756,-18.35,19.82,-16.24,2,S02
1520,-8.42759,0.81403,0.50518,27.8659,11.2805,10.9146,-18.35,19.82,-16.24,2,S02
1540,-8.71729,1.02711,0.77333,19.8780,9.5122,9.9390,-18.07,19.17,-16.97,2,S02
1560,-8.89925,1.21147,1.08457,13.0488,6.6463,9.3902,-18.07,19.17,-16.97,2,S02
1580,-9.09557,1.30005,1.24977,8.2927,4.8780,9.0244,-18.07,19.17,-16.97,2,S02
1600,-9.04529,1.12049,1.33118,4.9390,4.0244,8.8415,-18.07,19.17,-16.97,2,S02
1620,-8.92080,0.80685,1.52750,2.9878,3.2927,7.8049,-18.26,18.81,-17.16,2,S02
1640,-8.85136,0.48123,1.73101,3.8415,2.7439,5.8537,-18.26,18.81,-17.16,2,S02
1660,-8.90883,0.33279,1.85311,7.1341,3.7195,3.4756,-18.26,18.81,-17.16,2,S02
1680,-8.98304,0.37589,1.98240,10.0000,5.0000,2.0732,-17.80,18.90,-17.52,2,S02
1700,-8.93037,0.62489,2.02549,11.0976,5.0000,1.9512,-17.80,18.90,-17.52,2,S02
1720,-8.81066,0.88585,2.02071,10.7317,4.6341,2.3780,-17.80,18.90,-17.52,2,S02
1740,-8.70771,1.13485,2.05423,9.3902,4.4512,2.5610,-17.61,18.72,-17.89,2,S02
1760,-8.63828,1.29047,2.08296,7.3171,4.2683,2.1951,-17.61,18.72,-17.89,2,S02
1780,-8.63349,1.36709,2.13802,5.6707,4.3902,0.0000,-17.61,18.72,-17.89,2,S02
1800,-8.53533,1.32399,2.15478,5.0000,4.2073,-2.0732,-17.61,18.72,-17.89,2,S02
1820,-8.67659,1.25217,2.26491,4.0244,4.0244,-3.7805,-17.16,18.72,-18.17,2,S02
1840,-8.94234,1.36470,2.13323,2.2561,3.6585,-4.9390,-17.16,18.72,-18.17,2,S02
1860,-9.05966,1.43173,1.71185,-0.2439,4.2073,-4.7561,-17.16,18.72,-18.17,2,S02
1880,-9.16740,1.70467,1.41737,-3.4146,4.6341,-4.3293,-16.97,18.90,-18.17,2,S02
1900,-9.59835,1.50595,2.07098,-7.1951,2.3171,-2.6829,-16.97,18.90,-18.17,2,S02
1920,-9.65582,0.46687,3.14119,-0.3049,-2.2561,1.2805,-16.97,18.90,-18.17,2,S02
1940,-9.32302,-0.55306,3.96959,14.4512,-5.7927,4.5732,-16.33,18.99,-18.62,2,S02
1960,-8.80348,-0.58658,4.22337,27.9878,-8.1707,4.6341,-16.33,18.99,-18.62,2,S02
1980,-9.57202,0.11732,3.67031,38.1098,-9.2683,1.3415,-16.33,18.99,-18.62,2,S02
2000,-13.24951,1.67834,1.84593,43.4756,-6.3415,2.4390,-16.33,18.99,-18.62,2,S02
2020,-14.88954,2.92571,0.07422,40.4268,11.0976,24.6341,-15.41,18.35,-19.63,2,S02
2040,-11.74595,1.64242,0.06464,27.0122,23.2927,51.8293,-15.41,18.35,-19.63,2,S02
2060,-9.36612,0.23703,-0.45011,21.5854,15.5488,46.7073,-15.41,18.35,-19.63,2,S02
2080,-8.03255,-0.64165,-2.07338,35.9756,15.7317,23.2317,-15.14,17.25,-21.01,2,S02
2100,-8.42280,0.15323,-2.08774,39.8780,17.9268,1.3415,-15.14,17.25,-21.01,2,S02
2120,-9.74440,1.31202,-1.03190,27.1341,12.8049,-7.7439,-15.14,17.25,-21.01,2,S02
2140,-10.02213,1.60651,-0.34716,10.7317,5.8537,-6.4024,-14.77,17.34,-21.01,2,S02
2160,-9.94551,1.52032,-0.14126,-6.2805,2.5000,-5.9146,-14.77,17.34,-21.01,2,S02
2180,-10.12029,1.41737,0.31603,-21.1585,-0.1829,-11.4634,-14.77,17.34,-21.01,2,S02
2200,-9.75158,0.98641,0.36631,-29.0854,-6.1585,-18.6585,-14.77,17.34,-21.01,2,S02
2220,-9.09318,0.41899,0.30646,-33.3537,-8.5976,-22.1341,-15.05,17.98,-20.00,2,S02
2240,-8.68138,-0.03352,0.44532,-36.6463,-7.2561,-21.7073,-15.05,17.98,-20.00,2,S02
2260,-8.65743,-0.19632,0.69192,-38.4756,-5.1220,-20.1220,-15.05,17.98,-20.00,2,S02
2280,-8.70532,-0.05746,0.77572,-39.0854,-3.0488,-19.2683,-15.41,18.26,-19.17,2,S02
2300,-8.57603,-0.02155,0.82121,-38.3537,0.1829,-18.0488,-15.41,18.26,-19.17,2,S02
2320,-8.61194,-0.18435,0.87867,-34.6341,4.1463,-16.4024,-15.41,18.26,-19.17,2,S02
2340,-8.77236,-0.32561,1.06303,-30.6707,6.8293,-13.3537,-15.60,18.53,-18.99,2,S02
2360,-9.06445,-0.16999,1.16598,-28.3537,7.0732,-9.2683,-15.60,18.53,-18.99,2,S02
2380,-9.16261,0.18435,1.06063,-27.6829,7.2561,-6.0366,-15.60,18.53,-18.99,2,S02
2400,-9.08121,0.47884,0.91219,-29.2073,8.2317,-5.1829,-15.60,18.53,-18.99,2,S02
2420,-9.15782,0.74939,0.85234,-33.1098,9.0854,-5.9756,-16.15,18.44,-18.72,2,S02
2440,-9.21528,0.74460,1.00317,-38.3537,9.3902,-5.8537,-16.15,18.44,-18.72,2,S02
2460,-9.15303,0.42617,1.24498,-42.5610,8.1707,-4.7561,-16.15,18.44,-18.72,2,S02
2480,-9.06205,0.00479,1.43892,-44.4512,6.4024,-4.1463,-17.06,18.26,-17.61,2,S02
2500,-8.55448,-0.36152,1.56581,-46.5854,6.8902,-4.5732,-17.06,18.26,-17.61,2,S02
2520,-8.47547,-0.64165,1.57778,-46.5854,10.4878,-3.2317,-17.06,18.26,-17.61,2,S02
2540,-8.72208,-0.86191,1.69988,-45.2439,13.7195,-1.2195,-17.98,17.98,-16.97,2,S02
2560,-9.04769,-0.95768,1.86269,-42.3780,13.1098,0.6707,-17.98,17.98,-16.97,2,S02
2580,-9.21289,-1.20189,1.96085,-38.5976,9.4512,4.0854,-17.98,17.98,-16.97,2,S02
2600,-9.49301,-1.40061,2.06859,-33.4146,5.0610,6.3415,-17.98,17.98,-16.97,2,S02
2620,-9.47146,-1.47962,2.02789,-28.9634,-0.0610,4.8780,-18.53,17.89,-16.24,2,S02
2640,-9.41161,-0.98881,2.13323,-27.8659,-4.2683,0.7317,-18.53,17.89,-16.24,2,S02
2660,-9.28232,-0.05507,2.13084,-31.8293,-7.5000,-3.1707,-18.53,17.89,-16.24,2,S02
2680,-9.15064,0.66559,2.29125,-40.5488,-7.5000,-4.5122,-19.08,17.98,-15.23,2,S02
2700,-8.96150,0.64883,2.71981,-49.1463,-6.8902,-2.3780,-19.08,17.98,-15.23,2,S02
2720,-9.57681,0.00718,2.76530,-56.6463,-8.5366,0.1829,-19.08,17.98,-15.23,2,S02
2740,-11.77468,-1.63763,1.96325,-60.5488,-7.9878,-0.4268,-20.09,18.26,-13.76,2,S02
2760,-14.65491,-2.06620,0.33519,-47.4390,1.5244,-11.4634,-20.09,18.26,-13.76,2,S02
2780,-13.91271,-0.26576,-0.55785,-36.4024,5.9756,-22.4390,-20.09,18.26,-13.76,2,S02
2800,-12.26310,1.81959,-1.44370,-42.8049,-8.7805,-20.5488,-20.09,18.26,-13.76,2,S02
2820,-10.06044,2.08774,-2.51631,-53.8415,-16.8293,-7.5610,-20.28,19.08,-12.66,2,S02
2840,-9.34218,0.58658,-2.01592,-67.5610,-12.8659,2.1341,-20.28,19.08,-12.66,2,S02
2860,-9.74440,-1.13725,-0.55067,-69.9390,-5.6707,7.8049,-20.28,19.08,-12.66,2,S02
2880,-9.97185,-1.64721,0.42138,-59.9390,-2.6829,11.0976,-21.65,18.72,-11.10,2,S02
2900,-9.79947,-1.22344,0.60573,-46.6463,-5.6707,14.5122,-21.65,18.72,-11.10,2,S02
2920,-9.35415,-0.52912,0.28012,-31.7683,-9.0854,19.6341,-21.65,18.72,-11.10,2,S02
2940,-8.96389,-0.08380,0.05746,-20.3049,-9.2683,24.4512,-22.48,18.17,-10.55,2,S02
2960,-8.52096,0.10056,-0.16759,-15.4878,-8.3537,26.8293,-22.48,18.17,-10.55,2,S02
2980,-8.26957,0.08380,-0.20351,-12.7439,-7.2561,26.2195,-22.48,18.17,-10.55,2,S02
3000,-8.18099,-0.01915,-0.13168,-9.5122,-7.0732,23.7195,-22.48,18.17,-10.55,2,S02
3020,-8.40125,0.21308,-0.08140,-8.9634,-6.4634,21.0366,-22.94,17.61,-10.28,2,S02
3040,-8.80827,0.69911,0.01197,-12.3780,-4.7561,20.0000,-22.94,17.61,-10.28,2,S02
3060,-8.99980,1.05345,0.19872,-16.6463,-4.5732,20.0000,-22.94,17.61,-10.28,2,S02
3080,-9.06924,1.17795,0.38068,-18.9634,-5.6098,19.2683,-23.30,16.88,-9.72,2,S02
3100,-9.06205,1.07739,0.58179,-19.2073,-6.5854,17.2561,-23.30,16.88,-9.72,2,S02
3120,-9.04529,0.94092,0.81642,-18.2927,-7.0732,14.5732,-23.30,16.88,-9.72,2,S02
3140,-8.89925,0.70390,0.97205,-17.3780,-6.8293,12.2561,-23.03,17.16,-9.17,2,S02
3160,-8.76038,0.43574,1.12049,-15.6707,-4.5122,10.3659,-23.03,17.16,-9.17,2,S02
3180,-8.78433,0.35195,1.28808,-13.3537,-1.4634,8.9024,-23.03,17.16,-9.17,2,S02
3200,-8.77236,0.34716,1.33596,-10.8537,1.4024,8.3537,-23.03,17.16,-9.17,2,S02
3220,-8.82263,0.45969,1.44610,-8.2317,5.1829,7.8049,-23.49,17.34,-8.99,2,S02
3240,-9.08600,0.63686,1.56341,-5.6707,7.1341,6.4024,-23.49,17.34,-8.99,2,S02
3260,-9.10754,0.67995,1.67355,-2.0732,6.8293,5.0610,-23.49,17.34,-8.99,2,S02
3280,-8.89925,0.64883,1.77171,2.1341,5.4878,3.9634,-23.85,17.34,-9.63,2,S02
3300,-8.70053,0.63925,1.86269,5.3049,5.2439,2.8659,-23.85,17.34,-9.63,2,S02
3320,-8.71729,0.65122,1.86269,7.5610,5.5488,0.5488,-23.85,17.34,-9.63,2,S02
3340,-8.97586,0.86670,1.73819,9.3293,4.8171,-1.4024,-23.58,17.52,-10.28,2,S02
3360,-9.35893,1.07500,1.58975,8.5976,3.4756,-1.5854,-23.58,17.52,-10.28,2,S02
3380,-9.64624,1.06303,1.64960,9.6341,2.1951,-0.9756,-23.58,17.52,-10.28,2,S02
3400,-9.95270,0.98402,1.98958,12.9268,-1.9512,-0.6707,-23.58,17.52,-10.28,2,S02
3420,-9.92876,0.56264,2.71742,20.3049,-8.0488,-0.3049,-23.12,17.71,-10.83,2,S02
3440,-9.72285,0.12929,3.31358,32.6220,-13.2317,0.1220,-23.12,17.71,-10.83,2,S02
3460,-9.19852,0.05746,3.49075,43.5366,-15.6707,0.7317,-23.12,17.71,-10.83,2,S02
3480,-8.53533,0.36392,3.55778,51.7073,-15.3049,-0.0610,-21.83,18.44,-12.48,2,S02
3500,-8.51378,0.53151,3.25851,60.0000,-12.9878,-3.5976,-21.83,18.44,-12.48,2,S02
3520,-10.73799,0.89304,2.22182,66.7683,-10.3659,-6.4634,-21.83,18.44,-12.48,2,S02
3540,-14.35324,2.51631,-0.08380,70.0000,-2.2561,3.9024,-21.01,17.52,-14.68,2,S02
3560,-13.46738,2.69827,-1.61609,61.0366,15.3049,36.5244,-21.01,17.52,-14.68,2,S02
3580,-10.07720,1.21625,-2.37744,46.0976,17.3780,56.7683,-21.01,17.52,-14.68,2,S02
3600,-8.36774,0.15802,-3.10049,42.2561,6.7683,45.2439,-21.01,17.52,-14.68,2,S02
3620,-8.70532,0.99359,-3.36385,40.1220,3.6585,22.3780,-20.92,16.79,-15.96,2,S02
3640,-10.31183,2.20027,-2.52109,25.1220,2.5610,4.6341,-20.92,16.79,-15.96,2,S02
3660,-10.56082,2.14760,-1.44849,5.6707,-1.5854,-2.5610,-20.92,16.79,-15.96,2,S02
3680,-10.23521,1.74058,-0.84994,-11.8902,-7.2561,-8.1098,-21.01,17.52,-15.23,2,S02
3700,-9.73243,1.23062,-0.40462,-25.2439,-12.9878,-15.4878,-21.01,17.52,-15.23,2,S02
3720,-9.46428,0.58179,0.01676,-33.2927,-18.4146,-22.4390,-21.01,17.52,-15.23,2,S02
3740,-9.08600,0.05986,0.21308,-36.9512,-19.7561,-25.0610,-21.10,18.81,-13.76,2,S02
3760,-8.69335,-0.20111,0.33279,-39.0854,-16.4024,-24.5122,-21.10,18.81,-13.76,2,S02
3780,-8.42759,-0.28970,0.56982,-40.9146,-11.5854,-23.1707,-21.10,18.81,-13.76,2,S02
3800,-8.61434,-0.33519,0.77572,-37.2561,-2.0732,-18.3537,-21.10,18.81,-13.76,2,S02
3820,-8.82982,-0.24900,1.01275,-34.2683,4.2073,-14.2683,-20.92,19.36,-12.94,2,S02
3840,-8.97586,-0.16520,1.30245,-31.2195,6.9512,-10.5488,-20.92,19.36,-12.94,2,S02
3860,-9.04290,-0.15562,1.56581,-27.7439,6.1585,-8.0488,-20.92,19.36,-12.94,2,S02
3880,-8.99502,0.02155,1.62087,-25.0000,4.2073,-7.4390,-20.92,19.72,-12.66,2,S02
3900,-8.89446,0.22984,1.58257,-24.3293,4.1463,-7.6829,-20.92,19.72,-12.66,2,S02
3920,-8.91122,0.41659,1.64003,-24.8780,5.3659,-8.2317,-20.92,19.72,-12.66,2,S02
3940,-8.81306,0.37110,1.85790,-26.0366,5.5488,-7.1341,-21.19,19.91,-12.48,2,S02
3960,-8.67898,0.15802,2.17394,-26.3415,4.7561,-5.6098,-21.19,19.91,-12.48,2,S02
3980,-8.71729,-0.02634,2.53546,-25.3659,3.2927,-4.5732,-21.19,19.91,-12.48,2,S02
4000,-8.98783,-0.09337,2.87783,-24.2683,-1.1585,-2.6220,-21.19,19.91,-12.48,2,S02
4020,-9.21528,0.07183,3.01909,-25.3659,-8.8415,1.0976,-21.38,20.37,-11.93,2,S02
4040,-9.09318,0.30646,3.03585,-29.6951,-16.8293,5.1220,-21.38,20.37,-11.93,2,S02
4060,-8.93516,-0.09098,3.08134,-34.4512,-22.3171,6.2805,-21.38,20.37,-11.93,2,S02
4080,-9.34457,-0.87149,2.91853,-31.5854,-24.3293,2.5610,-22.11,20.92,-10.46,2,S02
4100,-9.61272,-1.32878,3.13880,-28.1707,-26.4024,-4.6341,-22.11,20.92,-10.46,2,S02
4120,-9.58638,-0.66319,3.72298,-29.2683,-32.0732,-12.8049,-22.11,20.92,-10.46,2,S02
4140,-9.19613,0.34955,3.29682,-33.8415,-40.3049,-17.0732,-21.93,22.48,-8.72,2,S02
4160,-10.52730,0.92895,2.47321,-45.2439,-39.4512,-17.9878,-21.93,22.48,-8.72,2,S02
4180,-13.36922,0.42856,1.63763,-49.6341,-30.6707,-21.6463,-21.93,22.48,-8.72,2,S02
4200,-13.61822,-0.20830,0.30167,-41.0366,-28.5366,-30.2439,-21.93,22.48,-8.72,2,S02
4220,-11.43950,-0.35674,-0.96726,-33.9634,-36.5854,-36.4634,-21.38,24.04,-6.70,2,S02
4240,-9.21289,-0.21548,-1.27850,-40.3659,-39.8780,-31.8293,-21.38,24.04,-6.70,2,S02
4260,-8.31027,-0.01197,-0.82839,-52.0732,-32.3171,-19.2073,-21.38,24.04,-6.70,2,S02
4280,-9.01896,-0.15802,0.27533,-55.1220,-19.2073,-6.2195,-21.65,24.95,-4.86,2,S02
4300,-9.50738,-0.74460,1.21386,-44.5732,-9.8171,6.2195,-21.65,24.95,-4.86,2,S02
4320,-9.60793,-1.06781,1.73101,-29.6341,-3.9024,13.7805,-21.65,24.95,-4.86,2,S02
4340,-9.31344,-0.86910,1.61609,-15.9756,-0.9146,15.7927,-22.48,24.50,-4.86,2,S02
4360,-8.77954,-0.46687,1.09894,-5.2439,2.4390,16.9512,-22.48,24.50,-4.86,2,S02
4380,-8.23845,-0.25139,0.74220,0.2439,9.5732,18.7805,-22.48,24.50,-4.86,2,S02
4400,-8.36534,-0.12929,0.63686,3.9024,17.9878,17.0122,-22.48,24.50,-4.86,2,S02
4420,-8.88728,0.15562,0.63446,6.5244,21.9512,13.3537,-22.94,24.04,-5.87,2,S02
4440,-9.39964,0.78769,0.71587,4.3293,22.3780,11.5244,-22.94,24.04,-5.87,2,S02
4460,-9.62230,1.61369,0.69432,-2.7439,22.4390,12.9878,-22.94,24.04,-5.87,2,S02
4480,-9.42118,1.82438,0.85712,-11.5854,21.2805,16.5854,-23.58,23.39,-6.42,2,S02
4500,-8.96868,1.28090,1.12527,-17.6220,17.8659,18.7805,-23.58,23.39,-6.42,2,S02
4520,-8.81306,0.63446,1.33357,-20.3659,15.8537,17.9268,-23.58,23.39,-6.42,2,S02
4540,-8.91601,0.41180,1.59933,-21.7683,17.0122,16.4634,-24.40,23.03,-6.33,2,S02
4560,-8.95431,0.67277,1.61130,-22.9268,18.8415,16.4024,-24.40,23.03,-6.33,2,S02
4580,-8.95192,1.06063,1.54426,-25.1220,21.2195,16.7683,-24.40,23.03,-6.33,2,S02
4600,-8.87052,1.16119,1.46525,-26.7683,22.8659,16.0976,-24.40,23.03,-6.33,2,S02
4620,-8.62391,0.83079,1.41737,-25.8537,23.5366,13.8415,-25.14,22.48,-6.33,2,S02
4640,-8.60716,0.56264,1.59693,-24.0244,23.2317,9.6951,-25.14,22.48,-6.33,2,S02
4660,-8.70532,0.51475,1.92733,-22.8049,20.6098,4.7561,-25.14,22.48,-6.33,2,S02
4680,-8.72687,0.50518,2.20027,-19.9390,16.6463,1.4024,-25.23,22.57,-6.42,2,S02
4700,-8.85136,0.51475,2.30083,-14.6341,14.0854,-0.7927,-25.23,22.57,-6.42,2,S02
4720,-9.15064,0.89783,2.10450,-10.6098,11.6463,-2.4390,-25.23,22.57,-6.42,2,S02
4740,-9.13867,1.72383,0.78769,-13.7195,7.9878,-2.6220,-25.60,22.84,-6.24,2,S02
4760,-9.42118,2.90417,-0.23224,-29.0244,7.0122,-1.5854,-25.60,22.84,-6.24,2,S02
4780,-10.66377,2.40617,1.38624,-41.1585,6.3415,3.2317,-25.60,22.84,-6.24,2,S02
4800,-11.09473,0.43096,3.68707,-27.1341,-1.0366,14.7561,-25.60,22.11,-6.24,2,S02
4820,-10.19212,-1.50356,4.43167,-0.8537,-8.2927,25.0000,-26.42,22.11,-5.78,2,S02
4840,-9.49780,-1.47243,4.13000,19.3293,-7.0732,24.3902,-26.42,22.11,-5.78,2,S02
4860,-10.74039,0.28970,2.78446,30.1829,-6.3415,17.3171,-26.42,22.11,-5.78,2,S02
4880,-12.24874,2.35111,1.04627,33.7195,-3.3537,18.4146,-26.61,21.74,-7.25,2,S02
4900,-12.15297,3.22738,-0.03112,32.6220,7.0122,29.8171,-26.61,21.74,-7.25,2,S02
4920,-10.41478,1.95846,-0.62249,29.8780,17.1951,39.4512,-26.61,21.74,-7.25,2,S02
4940,-8.95910,0.12450,-1.16837,28.3537,22.4390,36.7683,-27.43,20.46,-8.99,2,S02
4960,-8.18338,-0.73741,-1.92494,30.8537,22.3171,25.5488,-27.43,20.46,-8.99,2,S02
4980,-8.74602,-0.36631,-1.91297,29.4512,18.7195,13.8415,-27.43,20.46,-8.99,2,S02
5000,-9.84017,0.38307,-1.35033,18.3537,10.0610,6.3415,-27.52,20.28,-9.08,2,S02
5020,-10.22324,0.79248,-1.15401,1.5854,0.3049,4.9390,-27.52,20.28,-9.08,2,S02
5040,-10.59195,0.87388,-0.84276,-13.4146,-3.7195,3.1098,-27.52,20.28,-9.08,2,S02
5060,-10.65659,0.82361,-0.64883,-24.1463,-11.1585,-2.5610,-27.52,20.28,-9.08,2,S02
5080,-10.04607,0.78290,-0.66559,-34.3293,-20.5488,-9.0854,-27.71,21.01,-7.06,2,S02
5100,-8.68616,0.69192,-0.40941,-50.3049,-21.3415,-16.5854,-27.71,21.01,-7.06,2,S02
5120,-8.39647,0.41420,-0.23224,-51.1585,-15.7317,-16.6463,-27.71,21.01,-7.06,2,S02
5140,-8.33422,0.11492,0.21787,-48.8415,-8.5366,-15.3659,-27.61,21.83,-5.14,2,S02
5160,-8.42041,-0.02873,0.69432,-46.6463,-4.5122,-12.5610,-27.61,21.83,-5.14,2,S02
5180,-8.65265,-0.12450,0.98641,-44.6341,-3.1707,-9.2683,-27.61,21.83,-5.14,2,S02
5200,-8.80587,-0.21787,1.11570,-40.6098,-1.8293,-5.9146,-27.89,22.11,-3.76,2,S02
5220,-8.89207,-0.19632,1.06781,-36.1585,-0.4878,-3.8415,-27.89,22.11,-3.76,2,S02
5240,-9.00699,0.05028,0.98162,-33.7805,0.9756,-2.8659,-27.89,22.11,-3.76,2,S02
5260,-9.00220,0.17717,1.00078,-33.1707,2.5000,-2.0732,-27.89,22.11,-3.76,2,S02
5280,-9.02135,0.26336,1.22344,-32.6220,3.7195,-1.4634,-28.17,22.20,-2.94,2,S02
5300,-9.12670,0.34955,1.49877,-32.7439,4.0244,-1.0366,-28.17,22.20,-2.94,2,S02
5320,-9.16022,0.37589,1.69509,-33.3537,4.2683,-1.9512,-28.17,22.20,-2.94,2,S02
5340,-9.05008,0.27773,1.78847,-32.8659,5.0000,-4.2683,-28.26,22.48,-2.11,2,S02
5360,-8.89207,0.11253,1.85790,-31.3415,5.4878,-5.9146,-28.26,22.48,-2.11,2,S02
5380,-9.00220,0.03591,2.12605,-30.0000,4.8171,-5.8537,-28.26,22.48,-2.11,2,S02
5400,-9.20571,0.10774,2.39181,-30.3659,1.0366,-4.3293,-28.17,22.75,-1.19,2,S02
5420,-9.15782,0.34716,2.48039,-33.3537,-3.9024,-1.8902,-28.17,22.75,-1.19,2,S02
5440,-9.16500,0.56024,2.58095,-37.8659,-7.2561,0.3659,-28.17,22.75,-1.19,2,S02
5460,-9.19373,0.22505,2.46363,-39.8780,-9.6341,2.1951,-28.17,22.75,-1.19,2,S02
5480,-9.13627,-0.52672,1.97522,-34.2683,-9.1463,1.4024,-28.44,22.94,0.37,2,S02
5500,-9.51216,-0.66559,2.25773,-27.9268,-7.8659,-3.2927,-28.44,22.94,0.37,2,S02
5520,-9.84017,0.49799,2.99993,-32.6220,-14.6341,-10.7927,-28.44,22.94,0.37,2,S02
5540,-9.56005,1.73340,3.21062,-46.2805,-26.4634,-16.2195,-27.98,23.76,2.94,2,S02
5560,-9.80186,1.47243,2.92571,-57.2561,-29.6951,-15.5488,-27.98,23.76,2.94,2,S02
5580,-11.60230,-0.20830,2.08296,-57.6829,-22.5000,-14.2683,-27.98,23.76,2.94,2,S02
5600,-12.98376,-1.89381,1.22823,-47.3171,-11.8293,-19.0244,-27.16,24.77,4.59,2,S02
5620,-12.54801,-1.81480,0.43096,-35.4268,-7.8049,-29.8780,-27.16,24.77,4.59,2,S02
5640,-10.46266,-1.05584,-0.74460,-26.9512,-12.9268,-35.8537,-27.16,24.77,4.59,2,S02
5660,-8.52815,-0.45250,-1.68073,-31.2195,-17.3171,-31.0976,-27.16,24.77,4.59,2,S02
5680,-8.64067,-0.19872,-1.27611,-44.1463,-12.3171,-20.7927,-26.24,25.87,6.15,2,S02
5700,-9.53132,-0.45969,-0.36392,-50.1220,-6.6463,-7.0732,-26.24,25.87,6.15,2,S02
5720,-10.03889,-1.07021,0.35195,-44.2073,-2.9878,5.1829,-26.24,25.87,6.15,2,S02
5740,-10.03889,-1.69988,0.79009,-31.7073,-1.1585,11.9512,-26.61,25.32,7.16,2,S02
5760,-9.76595,-1.80523,0.61531,-17.2561,-4.6951,14.8780,-26.61,25.32,7.16,2,S02
5780,-9.23204,-1.30723,0.20830,-5.3659,-6.5244,19.1463,-26.61,25.32,7.16,2,S02
5800,-8.81545,-0.62489,0.20590,0.1829,-2.0122,22.5000,-27.52,24.40,7.06,2,S02
5820,-8.83460,-0.03831,0.34237,1.5854,2.8049,22.0732,-27.52,24.40,7.06,2,S02
5840,-8.85136,0.31603,0.44772,2.5610,4.5732,20.7927,-27.52,24.40,7.06,2,S02
5860,-8.85855,0.50039,0.69671,1.7073,4.2683,20.1220,-27.52,24.40,7.06,2,S02
5880,-8.82503,0.40941,0.93853,-0.0610,3.4756,19.5732,-28.35,23.76,6.97,2,S02
5900,-8.92080,0.40223,1.01514,-1.3415,4.4512,18.4756,-28.35,23.76,6.97,2,S02
5920,-8.88249,0.54109,1.09176,-4.7561,6.0366,17.8659,-28.35,23.76,6.97,2,S02
5940,-8.74841,0.79487,1.16598,-9.2073,6.7683,17.3171,-28.81,23.30,7.06,2,S02
5960,-8.65983,0.99120,1.19710,-12.6220,8.2317,16.5854,-28.81,23.30,7.06,2,S02
5980,-8.70771,0.93374,1.34794,-14.6341,10.4268,15.4268,-28.81,23.30,7.06,2,S02
6000,-8.75560,0.76375,1.48201,-15.3049,11.5244,13.6585,-28.99,23.03,7.16,2,S02
6020,-8.71250,0.61770,1.64242,-16.5244,12.3171,11.7073,-28.99,23.03,7.16,2,S02
6040,-8.57364,0.51236,1.82199,-17.8049,12.9878,9.6951,-28.99,23.03,7.16,2,S02
6060,-8.56645,0.42377,1.97761,-17.5610,13.6585,7.6829,-28.99,23.03,7.16,2,S02
6080,-8.74841,0.37110,2.21464,-15.6098,13.3537,5.6707,-29.08,23.12,7.25,2,S02
6100,-9.01656,0.42617,2.52588,-12.0122,10.7927,2.8049,-29.08,23.12,7.25,2,S02
6120,-9.20571,0.53630,2.75812,-7.3171,4.9390,0.2439,-29.08,23.12,7.25,2,S02
6140,-8.98065,0.72305,2.49476,-1.8293,-2.7439,-1.5854,-28.90,23.12,7.43,2,S02
6160,-9.02135,1.86269,1.07021,0.1220,-5.9756,-2.9878,-28.90,23.12,7.43,2,S02
6180,-9.67976,3.04782,0.18435,-8.9634,-1.0366,0.0610,-28.90,23.12,7.43,2,S02
6200,-10.80264,2.27928,2.00155,-13.5976,1.1585,8.1098,-29.45,22.39,7.71,2,S02
6220,-10.85292,0.13408,4.11563,3.1098,-9.3902,19.2073,-29.45,22.39,7.71,2,S02
6240,-9.71567,-2.02071,4.75488,22.1951,-24.0854,26.0366,-29.45,22.39,7.71,2,S02
6260,-10.60871,-1.90100,3.46202,38.8415,-28.3537,23.7805,-29.45,22.39,7.71,2,S02
6280,-13.26148,1.17076,0.70629,52.0732,-16.3415,26.4024,-30.73,20.64,5.96,2,S02
6300,-12.99333,2.64799,-0.33519,53.5366,0.0000,48.3537,-30.73,20.64,5.96,2,S02
6320,-10.12268,1.20428,-0.72065,53.4146,3.9634,67.6829,-30.73,20.64,5.96,2,S02
6340,-8.20972,-0.82600,-1.55144,60.7317,4.4512,60.9756,-32.29,18.26,3.21,2,S02
6360,-8.35576,-0.64643,-2.54743,65.2439,5.0610,37.2561,-32.29,18.26,3.21,2,S02
6380,-9.64624,1.20189,-2.37744,50.1829,3.4756,17.8659,-32.29,18.26,3.21,2,S02
6400,-10.68293,2.36308,-0.95289,4.2683,-1.4634,4.2683,-32.11,18.26,3.39,2,S02
6420,-10.95347,1.02711,0.00000,-9.0244,-8.9634,-4.2683,-32.11,18.26,3.39,2,S02
6440,-10.50097,-0.28491,0.44532,-14.3293,-20.8537,-14.9390,-32.11,18.26,3.39,2,S02
6460,-9.68694,-0.57461,0.43335,-17.8049,-27.0732,-23.7195,-32.11,18.26,3.39,2,S02
6480,-8.74362,-0.29209,0.35195,-21.2195,-26.0976,-28.1707,-31.19,19.17,4.77,2,S02
6500,-8.30549,0.23224,0.53630,-22.6220,-21.5244,-31.5244,-31.19,19.17,4.77,2,S02
6520,-8.18817,0.28491,0.70868,-20.1829,-14.7561,-32.4390,-31.19,19.17,4.77,2,S02
6540,-8.40365,0.12450,1.05105,-15.8537,-7.9268,-31.1585,-30.09,20.28,5.50,2,S02
6560,-8.69813,0.10534,1.23541,-13.8415,-5.0610,-27.4390,-30.09,20.28,5.50,2,S02
6580,-8.78672,0.10534,1.43652,-13.4756,-3.4756,-22.2561,-30.09,20.28,5.50,2,S02
6600,-8.70292,0.05028,1.58736,-12.3780,-2.2561,-17.1951,-29.54,20.83,5.78,2,S02
6620,-8.71011,0.05267,1.58257,-10.7927,-0.5488,-14.2683,-29.54,20.83,5.78,2,S02
6640,-8.73884,0.13647,1.55144,-8.7805,2.2561,-12.6220,-29.54,20.83,5.78,2,S02
6660,-8.82742,0.16759,1.62087,-6.9512,4.7561,-11.6463,-29.54,20.83,5.78,2,S02
6680,-8.93516,0.22027,1.78368,-5.3049,5.5488,-11.0976,-29.17,21.28,5.60,2,S02
6700,-8.78193,0.18914,1.96803,-3.4756,5.0610,-10.0000,-29.17,21.28,5.60,2,S02
6720,-8.59518,0.08619,2.15718,-1.7683,4.6341,-9.3293,-29.17,21.28,5.60,2,S02
6740,-8.43717,-0.02394,2.40617,-0.4268,5.1829,-8.0488,-28.90,21.74,5.41,2,S02
6760,-8.46590,-0.06943,2.64320,1.0976,5.9756,-5.9756,-28.90,21.74,5.41,2,S02
6780,-8.55209,-0.08140,2.71502,1.7073,6.0366,-2.8049,-28.90,21.74,5.41,2,S02
6800,-8.86812,-0.15562,2.68390,1.5854,6.8902,-1.1585,-28.81,21.47,4.95,2,S02
6820,-9.26796,-0.31125,2.51870,3.2927,6.7683,-2.1951,-28.81,21.47,4.95,2,S02
6840,-9.21528,-0.37828,1.95127,5.0000,4.2073,-3.3537,-28.81,21.47,4.95,2,S02
6860,-9.33020,-0.88825,1.75016,7.8659,3.1707,-4.3902,-28.81,21.47,4.95,2,S02
6880,-10.15620,-0.16281,2.55940,9.8780,-1.6463,-8.4756,-28.62,21.65,4.77,2,S02
6900,-10.19451,1.62566,3.24414,-1.9512,-13.9634,-12.8659,-28.62,21.65,4.77,2,S02
6920,-9.16022,3.06218,3.11486,-21.0976,-22.8659,-13.5976,-28.62,21.65,4.77,2,S02
6940,-8.10916,2.63841,3.34470,-40.1220,-20.6098,-11.4634,-27.89,21.83,7.06,2,S02
6960,-8.37731,0.66080,3.42131,-51.2805,-13.4756,-10.1829,-27.89,21.83,7.06,2,S02
6980,-10.74278,-1.56820,3.18908,-53.4756,-5.9756,-9.3293,-27.89,21.83,7.06,2,S02
7000,-13.62540,-3.24175,2.16196,-45.7317,-2.9878,-13.0488,-26.97,22.48,8.17,2,S02
7020,-14.06354,-2.68390,0.61531,-26.0976,-6.1585,-27.5610,-26.97,22.48,8.17,2,S02
7040,-12.13142,-1.35033,-0.68474,-10.3659,-19.6341,-38.9024,-26.97,22.48,8.17,2,S02
7060,-9.32063,-0.34237,-1.53229,-9.1463,-29.4512,-36.4634,-26.97,22.48,8.17,2,S02
7080,-7.94875,-0.20111,-1.45567,-19.4512,-24.6341,-27.6220,-25.96,23.21,9.27,2,S02
7100,-8.32943,-0.85952,-0.52912,-25.6707,-14.5122,-16.4634,-25.96,23.21,9.27,2,S02
7120,-9.09318,-2.09014,0.33519,-17.7439,-8.9634,-5.3049,-25.96,23.21,9.27,2,S02
7140,-9.93115,-2.60250,0.95289,-4.7561,-6.7683,2.8659,-26.06,22.75,9.27,2,S02
7160,-10.25915,-1.88903,1.08218,6.2805,-6.1585,9.6341,-26.06,22.75,9.27,2,S02
7180,-10.22324,-0.48363,0.71347,15.4878,-5.1220,15.0610,-26.06,22.75,9.27,2,S02
7200,-9.37330,0.05507,0.34477,22.5000,-3.2317,19.6951,-27.06,21.83,8.17,2,S02
7220,-8.89207,0.01437,0.18196,27.6220,0.2439,20.3659,-27.06,21.83,8.17,2,S02
7240,-8.79630,-0.10295,0.26576,28.1098,5.1220,19.5122,-27.06,21.83,8.17,2,S02
7260,-8.69813,-0.10774,0.61052,24.6341,7.9268,19.5732,-27.06,21.83,8.17,2,S02
7280,-8.63110,0.00239,0.96486,21.8293,7.7439,19.2073,-27.80,21.01,7.06,2,S02
7300,-8.83700,0.28252,1.13725,20.6098,6.6463,17.0122,-27.80,21.01,7.06,2,S02
7320,-8.96868,0.66319,1.18274,19.0244,6.4634,15.8537,-27.80,21.01,7.06,2,S02
7340,-8.86812,0.92177,1.13725,15.6707,6.8902,16.1585,-28.26,20.55,6.33,2,S02
7360,-8.76757,0.94332,1.19471,10.7927,7.3171,15.7927,-28.26,20.55,6.33,2,S02
7380,-8.65743,0.68474,1.33357,7.5610,8.7195,13.5366,-28.26,20.55,6.33,2,S02
7400,-8.57842,0.39983,1.46525,6.4634,10.7927,9.2073,-28.26,20.46,5.60,2,S02
7420,-8.76757,0.33758,1.64003,5.2439,12.7439,4.6341,-28.26,20.46,5.60,2,S02
7440,-8.92319,0.41659,1.77171,3.6585,14.0854,2.5000,-28.26,20.46,5.60,2,S02
7460,-8.88249,0.51715,1.78129,1.7683,15.1220,2.6220,-28.26,20.46,5.60,2,S02
7480,-8.70771,0.60573,1.70707,-0.4878,15.9146,2.6220,-28.35,20.28,5.14,2,S02
7500,-8.68377,0.65841,1.75974,-1.8902,17.5000,1.4634,-28.35,20.28,5.14,2,S02
7520,-8.86812,0.69432,1.90578,-1.8902,17.8659,-0.9756,-28.35,20.28,5.14,2,S02
7540,-9.21768,0.79487,1.91536,-1.3415,15.1220,-3.1707,-28.07,20.37,4.77,2,S02
7560,-9.54568,1.03430,1.69988,-1.8902,11.5854,-2.5610,-28.07,20.37,4.77,2,S02
7580,-9.80426,1.48440,1.37667,-5.5488,8.7805,0.7927,-28.07,20.37,4.77,2,S02
7600,-10.07720,1.51314,1.33118,-9.8780,5.9756,5.9756,-28.35,19.63,4.86,2,S02
7620,-10.15620,0.51236,2.25534,-5.1829,1.8902,10.8537,-28.35,19.63,4.86,2,S02
7640,-10.02931,-0.91698,3.49314,13.7805,-4.9390,13.1098,-28.35,19.63,4.86,2,S02
7660,-9.50977,-1.99198,4.36463,36.5854,-11.5244,12.6220,-28.35,19.63,4.86,2,S02
7680,-8.67898,-1.96325,4.53701,57.0732,-14.2073,10.4878,-28.62,19.17,2.48,2,S02
7700,-11.00615,0.81642,2.06380,84.5732,-10.7927,6.7073,-28.62,19.17,2.48,2,S02
7720,-12.28944,2.46124,0.42138,84.2073,2.8049,17.3780,-28.62,19.17,2.48,2,S02
7740,-12.43548,2.24097,-0.39265,73.0488,14.7561,35.1829,-28.99,17.89,-0.64,2,S02
7760,-10.62786,0.37350,-0.94810,64.2683,17.6829,49.3902,-28.99,17.89,-0.64,2,S02
7780,-8.54730,-1.22823,-1.93930,66.2195,18.9634,47.0122,-28.99,17.89,-0.64,2,S02
7800,-7.81707,-0.97444,-2.85628,72.9268,20.6707,28.4756,-29.27,16.33,-3.94,2,S02
7820,-9.31584,0.51236,-2.78446,68.2317,18.9024,10.2439,-29.27,16.33,-3.94,2,S02
7840,-10.91277,1.58496,-1.69509,50.2439,8.5976,1.7683,-29.27,16.33,-3.94,2,S02
7860,-10.98460,1.42216,-1.00796,35.4268,-2.8659,0.4878,-29.27,16.33,-3.94,2,S02
7880,-10.82658,0.94092,-0.61531,26.6463,-7.5610,-6.1585,-28.81,16.33,-4.86,2,S02
7900,-10.24000,0.81403,-0.53151,17.3171,-14.0854,-18.4756,-28.81,16.33,-4.86,2,S02
7920,-9.27753,0.99359,-0.69671,4.5122,-21.6463,-28.7805,-28.81,16.33,-4.86,2,S02
7940,-8.66462,1.18034,-0.54588,-7.1341,-23.5366,-34.0854,-27.80,17.71,-4.13,2,S02
7960,-8.32464,1.11570,-0.16999,-13.9024,-20.7317,-34.4512,-27.80,17.71,-4.13,2,S02
7980,-8.56885,0.67277,0.32322,-16.0366,-15.0610,-31.8902,-27.80,17.71,-4.13,2,S02
8000,-8.86333,0.12929,0.76375,-15.4878,-9.5732,-27.9268,-27.06,18.62,-3.58,2,S02
8020,-8.98544,-0.25139,0.97444,-13.9634,-7.1951,-23.5976,-27.06,18.62,-3.58,2,S02
8040,-8.88488,-0.42617,1.10373,-11.5854,-7.0732,-19.6951,-27.06,18.62,-3.58,2,S02
8060,-8.75320,-0.38547,1.18513,-8.1707,-7.8049,-16.5244,-27.06,18.62,-3.58,2,S02
8080,-8.71968,-0.12929,1.23541,-6.4024,-6.7683,-14.8171,-26.61,19.17,-3.39,2,S02
8100,-8.71968,0.12450,1.23541,-6.4634,-3.6585,-13.6585,-26.61,19.17,-3.39,2,S02
8120,-8.79630,0.29688,1.39582,-7.0122,0.3659,-12.6829,-26.61,19.17,-3.39,2,S02
8140,-9.08360,0.50039,1.56820,-7.9268,2.2561,-12.1341,-26.15,19.54,-3.49,2,S02
8160,-9.19613,0.65841,1.66158,-9.3902,1.7073,-11.7683,-26.15,19.54,-3.49,2,S02
8180,-8.93995,0.64643,1.80283,-11.6463,0.3659,-10.1829,-26.15,19.54,-3.49,2,S02
8200,-8.68856,0.41899,2.06620,-13.1707,-1.2805,-7.9268,-25.96,19.45,-2.94,2,S02
8220,-8.52575,0.09098,2.35111,-13.6585,-2.9878,-5.2439,-25.96,19.45,-2.94,2,S02
8240,-8.40365,-0.16041,2.54504,-13.7805,-4.4512,-1.5854,-25.96,19.45,-2.94,2,S02
8260,-8.56167,-0.30167,2.67911,-14.0244,-4.6951,1.9512,-25.96,19.45,-2.94,2,S02
8280,-8.91122,-0.16999,2.72221,-14.6341,-4.7561,3.9024,-26.06,19.27,-2.48,2,S02
8300,-9.08839,-0.77093,2.40378,-12.6220,-5.0000,5.0610,-26.06,19.27,-2.48,2,S02
8320,-9.41879,-2.18830,1.96803,2.0122,-4.3293,1.7073,-26.06,19.27,-2.48,2,S02
8340,-10.38365,-1.37667,2.63123,13.0488,-9.5122,-8.1707,-25.50,19.54,-2.66,2,S02
8360,-10.40281,1.20428,3.09331,-0.4878,-24.6341,-19.4512,-25.50,19.54,-2.66,2,S02
8380,-9.41400,3.48356,2.72221,-23.7805,-34.0854,-23.8415,-25.50,19.54,-2.66,2,S02
8400,-9.16022,3.06218,2.69108,-45.1220,-30.4268,-22.8659,-24.86,20.37,-0.09,2,S02
8420,-11.14980,0.43814,2.37505,-57.0122,-24.3293,-22.9268,-24.86,20.37,-0.09,2,S02
8440,-13.62301,-2.20985,1.60412,-56.0366,-22.8659,-25.9146,-24.86,20.37,-0.09,2,S02
8460,-12.88799,-2.64559,0.05986,-46.7683,-24.8780,-30.2439,-24.86,20.37,-0.09,2,S02
8480,-10.65420,-1.38385,-0.90740,-40.1829,-22.8049,-30.1829,-23.94,21.38,1.47,2,S02
8500,-8.89685,-0.39025,-1.38624,-40.6098,-18.9024,-24.5732,-23.94,21.38,1.47,2,S02
8520,-7.97269,-0.40941,-1.10373,-45.9146,-13.4756,-15.3049,-23.94,21.38,1.47,2,S02
8540,-8.60237,-0.96965,-0.01676,-47.9878,-6.5244,-6.0976,-23.85,21.47,2.75,2,S02
8560,-9.44991,-1.86269,0.92656,-37.8659,-3.2927,1.6463,-23.85,21.47,2.75,2,S02
8580,-9.82341,-2.22182,1.22344,-19.0244,-2.0122,6.5854,-23.85,21.47,2.75,2,S02
8600,-9.85693,-1.64003,0.95050,-3.4146,-2.5000,8.7195,-24.31,21.01,2.20,2,S02
8620,-9.71567,-0.73981,0.52672,4.4512,-3.7805,11.1585,-24.31,21.01,2.20,2,S02
8640,-9.35415,-0.12450,0.22266,6.4024,-2.9268,15.0610,-24.31,21.01,2.20,2,S02
8660,-9.00220,0.20830,0.17238,5.4268,0.9146,18.1098,-24.31,21.01,2.20,2,S02
8680,-8.79630,0.34477,0.29209,3.1707,4.6951,19.8780,-25.05,20.28,1.74,2,S02
8700,-8.87770,0.34716,0.64404,-0.3659,7.8659,20.3659,-25.05,20.28,1.74,2,S02
8720,-8.95910,0.21069,0.97683,-3.6585,8.7195,20.6098,-25.05,20.28,1.74,2,S02
8740,-9.05727,0.05267,1.12288,-4.0244,9.0244,20.7927,-25.41,19.54,1.47,2,S02
8760,-8.96150,-0.03112,1.18034,-3.8415,10.1829,21.3415,-25.41,19.54,1.47,2,S02
8780,-8.93277,0.16999,1.21386,-4.2073,12.1951,20.9756,-25.41,19.54,1.47,2,S02
8800,-8.79390,0.38068,1.14682,-4.8171,13.4146,19.8780,-25.78,18.81,1.01,2,S02
8820,-8.76996,0.61052,1.18034,-5.6098,13.7195,17.3780,-25.78,18.81,1.01,2,S02
8840,-8.83460,0.71347,1.35512,-7.5610,12.8049,14.3902,-25.78,18.81,1.01,2,S02
8860,-8.85136,0.67277,1.49398,-10.8537,10.7317,11.7683,-25.78,18.81,1.01,2,S02
8880,-8.75081,0.73023,1.56820,-14.8780,9.5122,9.6951,-25.87,18.62,1.10,2,S02
8900,-8.59997,0.82839,1.72143,-19.8780,9.0244,7.9268,-25.87,18.62,1.10,2,S02
8920,-8.52336,0.84755,1.92494,-23.9634,9.2683,5.9146,-25.87,18.62,1.10,2,S02
8940,-8.71968,0.70868,2.28886,-23.9634,9.8780,3.2927,-25.78,18.72,1.19,2,S02
8960,-8.95431,0.46208,2.62165,-18.4756,7.4390,0.9146,-25.78,18.72,1.19,2,S02
8980,-8.91601,0.16520,2.84431,-10.0610,2.6220,-0.4268,-25.78,18.72,1.19,2,S02
9000,-8.81066,0.52912,2.15718,-1.3415,-0.7927,-2.5610,-25.32,18.81,1.01,2,S02
9020,-10.34774,2.89938,1.10133,-15.2439,12.2561,-0.8537,-25.32,18.81,1.01,2,S02
9040,-11.54963,1.24738,3.34949,-3.2927,9.5122,7.0732,-25.32,18.81,1.01,2,S02
9060,-10.93432,-1.67834,4.52504,22.0732,-5.0610,18.6585,-25.32,18.81,1.01,2,S02
9080,-10.68532,-3.33752,3.80199,42.1951,-16.6463,21.7683,-25.60,17.98,0.00,2,S02
9100,-12.71082,-1.13006,1.32160,57.9268,-13.3537,19.9390,-25.60,17.98,0.00,2,S02
9120,-13.57273,1.66876,0.16999,62.1341,2.5610,32.8659,-25.60,17.98,0.00,2,S02
9140,-10.50097,1.65200,-0.26815,62.4390,11.8902,54.3902,-26.33,16.51,-2.75,2,S02
9160,-7.84101,0.04788,-1.02472,66.7073,14.3902,53.3537,-26.33,16.51,-2.75,2,S02
9180,-7.54174,-0.29688,-2.60250,71.3415,15.0000,29.7561,-26.33,16.51,-2.75,2,S02
9200,-9.07881,1.31202,-2.82276,55.6098,15.3659,6.2195,-25.96,16.33,-5.14,2,S02
9220,-10.38365,1.98240,-1.92254,28.9024,13.8415,-3.6585,-25.96,16.33,-5.14,2,S02
9240,-10.90319,1.35751,-0.73263,6.5854,7.3780,-6.1585,-25.96,16.33,-5.14,2,S02
9260,-10.59674,0.11732,0.06943,-5.4878,-1.7683,-7.8659,-25.96,16.33,-5.14,2,S02
9280,-10.23761,-0.97923,0.76375,-7.8049,-9.3293,-11.9512,-25.69,16.61,-4.77,2,S02
9300,-9.93594,-1.28569,0.78051,-7.1341,-18.5366,-19.1463,-25.69,16.61,-4.77,2,S02
9320,-9.24641,-0.94332,0.66319,-7.8659,-21.7683,-24.8780,-25.69,16.61,-4.77,2,S02
9340,-8.56645,-0.50518,0.53391,-7.3780,-18.9634,-28.5976,-24.68,17.98,-4.22,2,S02
9360,-8.43477,-0.20351,0.41899,-4.8780,-13.7195,-31.8902,-24.68,17.98,-4.22,2,S02
9380,-8.55688,-0.20111,0.56264,-2.2561,-8.7195,-32.5610,-24.68,17.98,-4.22,2,S02
9400,-8.76517,-0.21069,0.75896,-1.0976,-6.4634,-30.2439,-23.67,19.08,-4.59,2,S02
9420,-8.87291,-0.25139,0.87867,-1.0976,-5.8537,-25.5488,-23.67,19.08,-4.59,2,S02
9440,-8.85136,-0.31603,0.91698,-0.1829,-5.2439,-20.8537,-23.67,19.08,-4.59,2,S02
9460,-8.76996,-0.49799,0.88585,2.1951,-3.5366,-17.3171,-23.67,19.08,-4.59,2,S02
9480,-8.88488,-0.55067,0.94332,3.7805,-1.3415,-15.5488,-23.12,19.63,-5.14,2,S02
9500,-9.04529,-0.41420,1.00317,3.8415,-0.1829,-14.9390,-23.12,19.63,-5.14,2,S02
9520,-9.07881,-0.28252,1.07979,2.9878,0.6707,-14.3293,-23.12,19.63,-5.14,2,S02
9540,-9.13627,-0.20830,1.24020,2.0732,1.5244,-14.1463,-22.66,20.18,-5.41,2,S02
9560,-8.98065,-0.21069,1.48919,1.5244,1.3415,-13.2317,-22.66,20.18,-5.41,2,S02
9580,-8.63589,-0.32561,1.67834,1.0976,0.8537,-10.7927,-22.66,20.18,-5.41,2,S02
9600,-8.54969,-0.45969,1.84832,0.6707,2.1341,-8.2317,-22.20,20.37,-5.87,2,S02
9620,-8.48984,-0.50278,2.01831,0.4878,5.0000,-5.9756,-22.20,20.37,-5.87,2,S02
9640,-8.59518,-0.56503,2.20745,-0.3659,7.7439,-3.5366,-22.20,20.37,-5.87,2,S02
9660,-8.87291,-0.70390,2.40857,-1.6463,9.0244,-1.0366,-22.20,20.37,-5.87,2,S02
9680,-9.08360,-0.87628,2.34871,-2.0122,8.8415,1.7073,-22.39,20.37,-6.33,2,S02
9700,-9.22486,-0.89783,2.26970,-3.2317,8.2317,4.5122,-22.39,20.37,-6.33,2,S02
9720,-9.19134,-0.87628,1.97043,-4.8780,7.2561,6.0366,-22.39,20.37,-6.33,2,S02
9740,-9.39724,-1.34075,1.96085,-0.7317,6.7683,4.1463,-22.20,20.18,-6.79,2,S02
9760,-9.95270,-0.88825,2.68629,4.9390,1.8902,-2.8659,-22.20,20.18,-6.79,2,S02
9780,-10.08917,0.68953,3.06937,-0.4878,-9.5122,-10.9146,-22.20,20.18,-6.79,2,S02
9800,-9.34457,1.82678,2.97839,-15.7927,-16.9512,-12.6220,-22.11,21.10,-5.78,2,S02
9820,-8.98304,1.36230,2.99993,-31.9512,-17.1341,-8.1098,-22.11,21.10,-5.78,2,S02
9840,-10.64462,-0.56024,2.37505,-40.1829,-13.9634,-3.5366,-22.11,21.10,-5.78,2,S02
9860,-13.05319,-2.63123,0.47405,-38.2317,-7.7439,-5.1829,-22.11,21.10,-5.78,2,S02
9880,-13.32134,-2.78685,-0.71108,-31.3415,1.0976,-19.6951,-22.02,21.65,-5.32,2,S02
9900,-11.65258,-1.48201,-1.35272,-22.0732,-7.4390,-33.4146,-22.02,21.65,-5.32,2,S02
9920,-10.06522,0.02873,-1.10133,-23.7805,-25.4268,-31.8293,-22.02,21.65,-5.32,2,S02
9940,-9.86651,0.22984,-0.80924,-29.0854,-31.5244,-18.8415,-21.74,22.66,-4.13,2,S02
9960,-10.22085,-0.72544,-0.31364,-27.8659,-23.4756,-0.2439,-21.74,22.66,-4.13,2,S02
9980,-10.00297,-1.82917,0.32801,-16.5244,-10.9756,17.0732,-21.74,22.66,-4.13,2,S02
10000,-9.51456,-2.30083,0.65362,0.2439,-4.5732,25.5488,-22.57,21.83,-4.86,2,S02
10020,-8.96868,-1.87945,0.31364,14.3902,-7.1341,27.0732,-22.57,21.83,-4.86,2,S02
10040,-8.53294,-0.76854,-0.19872,21.1585,-7.7439,28.5366,-22.57,21.83,-4.86,2,S02
10060,-8.36534,0.24660,-0.27294,20.3049,-1.9512,29.7561,-22.57,21.83,-4.86,2,S02
10080,-8.44674,0.80445,-0.28491,15.7927,3.1098,28.7805,-23.30,21.19,-5.69,2,S02
10100,-8.55448,0.90261,-0.23224,10.7927,5.3049,26.4024,-23.30,21.19,-5.69,2,S02
10120,-8.72208,0.70629,0.02155,5.4878,4.8780,23.9024,-23.30,21.19,-5.69,2,S02
10140,-8.80109,0.43574,0.33758,-0.3049,3.5976,21.4024,-23.85,20.73,-5.60,2,S02
10160,-8.77236,0.33998,0.56264,-5.1829,3.9024,18.4146,-23.85,20.73,-5.60,2,S02
10180,-8.85615,0.40462,0.71587,-8.7805,6.0976,14.9390,-23.85,20.73,-5.60,2,S02
10200,-8.96629,0.36152,0.89064,-11.1585,7.9268,12.6220,-24.13,20.55,-5.87,2,S02
10220,-9.02375,0.23463,1.04627,-10.6098,8.1707,11.6463,-24.13,20.55,-5.87,2,S02
10240,-9.12430,0.17717,1.26653,-9.4512,7.2561,10.6707,-24.13,20.55,-5.87,2,S02
10260,-9.23204,0.11253,1.57060,-8.1707,5.9756,9.5732,-24.13,20.55,-5.87,2,S02
10280,-8.98783,0.12210,1.68073,-5.2439,5.6098,8.4756,-24.40,20.46,-6.33,2,S02
10300,-8.34140,0.45011,1.70707,-0.7317,7.0732,4.8780,-24.40,20.46,-6.33,2,S02
10320,-8.42998,0.60094,1.84354,0.7317,8.2927,4.0244,-24.40,20.46,-6.33,2,S02
10340,-8.78672,0.84515,2.01113,1.6463,8.2927,2.1341,-24.22,20.64,-6.88,2,S02
10360,-8.92798,0.96726,2.11169,3.2927,6.6463,0.3049,-24.22,20.64,-6.88,2,S02
10380,-8.93277,1.01993,1.77650,5.4878,3.5366,-1.2195,-24.22,20.64,-6.88,2,S02
10400,-9.23683,1.75974,0.79487,2.1341,0.8537,-2.5610,-24.04,20.92,-7.25,2,S02
10420,-9.85693,2.18830,0.74220,-9.6341,-0.0610,-0.9146,-24.04,20.92,-7.25,2,S02
10440,-10.76672,1.15640,2.48279,-11.2805,-4.3293,4.2073,-24.04,20.92,-7.25,2,S02
10460,-10.72602,-0.90501,3.89058,5.8537,-13.1098,12.0732,-24.04,20.92,-7.25,2,S02
10480,-10.90559,-2.81319,4.02705,26.0976,-17.9268,16.0976,-24.40,20.83,-7.52,2,S02
10500,-12.80659,-1.95606,1.85551,44.2683,-16.2195,18.2317,-24.40,20.83,-7.52,2,S02
10520,-13.82652,0.33998,-0.05507,52.0732,-1.8902,31.7683,-24.40,20.83,-7.52,2,S02
10540,-11.33415,1.06542,-0.86191,52.4390,10.3659,50.0610,-24.86,19.45,-9.91,2,S02
10560,-8.68616,0.61770,-2.07577,57.0122,12.5000,49.8781,-24.86,19.45,-9.91,2,S02
10580,-7.13951,0.11013,-3.77566,65.3049,13.5976,32.8659,-24.86,19.45,-9.91,2,S02
10600,-7.98227,0.97205,-3.75171,61.9512,16.9512,11.9512,-24.13,19.08,-12.57,2,S02
10620,-9.71088,1.51074,-1.98958,46.7683,17.1951,-0.7927,-24.13,19.08,-12.57,2,S02
10640,-10.83616,1.22583,-0.93374,32.6220,8.3537,-4.3293,-24.13,19.08,-12.57,2,S02
10660,-11.04924,0.71347,-0.38786,19.4512,2.1951,-6.8902,-24.13,19.08,-12.57,2,S02
10680,-10.67574,0.33519,-0.01915,12.1951,-4.2683,-15.1829,-23.67,19.54,-12.94,2,S02
10700,-9.92876,-0.10774,0.08859,10.6707,-14.8171,-25.2439,-23.67,19.54,-12.94,2,S02
10720,-9.10515,-0.22745,0.21787,11.0976,-19.2073,-30.6707,-23.67,19.54,-12.94,2,S02
10740,-8.70532,0.03352,0.37110,12.5000,-17.0122,-31.8902,-22.29,21.19,-13.12,2,S02
10760,-8.56645,0.14605,0.58419,13.4756,-12.9878,-31.9512,-22.29,21.19,-13.12,2,S02
10780,-8.62152,0.20590,0.62728,13.7195,-10.7927,-32.2561,-22.29,21.19,-13.12,2,S02
10800,-8.86333,0.46926,0.66559,11.0366,-9.7561,-31.0366,-21.10,22.20,-13.49,2,S02
10820,-8.90643,0.59376,0.78530,5.7317,-8.8415,-26.7073,-21.10,22.20,-13.49,2,S02
10840,-8.94713,0.46448,0.96965,-0.1220,-9.5732,-20.6098,-21.10,22.20,-13.49,2,S02
10860,-9.03572,0.13408,1.25456,-5.3659,-11.0976,-14.5732,-21.10,22.20,-13.49,2,S02
10880,-9.03572,-0.24900,1.50595,-8.1707,-12.9268,-10.5488,-21.01,22.94,-13.12,2,S02
10900,-8.97347,-0.47884,1.65918,-8.7805,-14.1463,-9.6951,-21.01,22.94,-13.12,2,S02
10920,-8.87770,-0.47405,1.77889,-8.1707,-14.7561,-10.1829,-21.01,22.94,-13.12,2,S02
10940,-8.72447,-0.43096,1.89860,-8.2927,-15.6707,-9.5732,-20.83,23.76,-12.57,2,S02
10960,-8.51139,-0.42138,2.08774,-8.8415,-15.7317,-7.8659,-20.83,23.76,-12.57,2,S02
10980,-8.34140,-0.46448,2.21464,-9.7561,-14.0854,-4.6951,-20.83,23.76,-12.57,2,S02
11000,-8.51857,-0.59137,2.42533,-11.7073,-11.0366,-0.8537,-21.19,24.13,-12.20,2,S02
11020,-8.62631,-0.96965,2.51870,-12.4390,-9.4512,3.1098,-21.19,24.13,-12.20,2,S02
11040,-8.82263,-1.81002,2.14520,-8.5976,-8.1098,5.6098,-21.19,24.13,-12.20,2,S02
11060,-9.69412,-3.32076,1.87466,5.6098,-5.0610,1.8902,-21.19,24.13,-12.20,2,S02
11080,-10.76912,-2.73897,2.61207,18.1098,-11.3415,-9.5732,-20.46,24.86,-12.66,2,S02
11100,-10.61110,0.08380,3.13880,9.3293,-29.8171,-21.6463,-20.46,24.86,-12.66,2,S02
11120,-9.02375,2.61207,3.08852,-7.5610,-41.3415,-21.8902,-20.46,24.86,-12.66,2,S02
11140,-8.46350,2.10211,3.09810,-24.2683,-40.1829,-13.9024,-20.28,26.33,-10.55,2,S02
11160,-11.52569,0.33998,2.89459,-37.1341,-33.6585,-10.4878,-20.28,26.33,-10.55,2,S02
11180,-14.18804,-0.39983,1.28090,-48.5976,-28.4146,-11.3415,-20.28,26.33,-10.55,2,S02
11200,-12.63899,-0.31843,-0.04070,-53.4146,-27.6829,-11.6463,-20.73,27.61,-8.72,2,S02
11220,-10.16817,0.17478,-0.76614,-47.2561,-33.1098,-12.8659,-20.73,27.61,-8.72,2,S02
11240,-7.85777,0.72544,-1.18513,-50.1220,-31.6463,-9.4512,-20.73,27.61,-8.72,2,S02
11260,-7.70454,0.96486,-0.74460,-59.8781,-18.3537,-6.4024,-20.73,27.61,-8.72,2,S02
11280,-8.75081,-0.20111,0.40701,-60.0000,-3.7805,-0.9756,-21.38,27.89,-7.25,2,S02
11300,-9.41400,-2.30322,1.47243,-41.5854,7.0122,8.1098,-21.38,27.89,-7.25,2,S02
11320,-9.81144,-3.46441,1.83875,-14.5732,12.5000,15.1220,-21.38,27.89,-7.25,2,S02
11340,-10.06762,-2.48758,1.53229,7.0122,13.5366,19.2073,-22.02,27.34,-8.72,2,S02
11360,-9.87369,-0.60094,0.91459,19.5122,12.0122,22.2561,-22.02,27.34,-8.72,2,S02
11380,-9.30626,0.84276,0.42138,25.6707,10.6098,23.7195,-22.02,27.34,-8.72,2,S02
11400,-8.72926,1.32399,0.33519,27.8659,9.1463,24.4512,-22.48,26.61,-9.91,2,S02
11420,-8.44674,1.27372,0.54348,24.8780,8.9024,24.7561,-22.48,26.61,-9.91,2,S02
11440,-8.57364,1.09894,0.87149,17.6829,10.0000,24.5732,-22.48,26.61,-9.91,2,S02
11460,-8.76278,1.04387,1.07739,9.9390,10.5488,24.6341,-22.48,26.61,-9.91,2,S02
11480,-8.84418,0.89064,1.22823,3.6585,11.2195,25.5488,-23.30,25.87,-10.46,2,S02
11500,-8.78433,0.68235,1.31681,0.1220,12.3780,25.4268,-23.30,25.87,-10.46,2,S02
11520,-8.88728,0.56024,1.36470,-0.7927,13.4756,22.6829,-23.30,25.87,-10.46,2,S02
11540,-8.98544,0.62728,1.57778,0.3049,14.5122,18.1707,-23.76,25.50,-11.10,2,S02
11560,-8.97586,0.76854,1.65679,2.2561,14.6951,13.2927,-23.76,25.50,-11.10,2,S02
11580,-8.91601,0.84276,1.66158,3.1098,15.6098,9.0244,-23.76,25.50,-11.10,2,S02
11600,-8.80109,0.56743,1.86748,3.7805,16.9512,2.6829,-23.67,25.41,-12.11,2,S02
11620,-8.68138,0.59137,2.00395,4.5122,16.3415,0.4878,-23.67,25.41,-12.11,2,S02
11640,-8.52575,0.82121,2.07098,5.4268,15.8537,-0.6707,-23.67,25.41,-12.11,2,S02
11660,-8.49702,1.26653,2.13563,5.1220,16.1585,-1.7683,-23.67,25.41,-12.11,2,S02
11680,-8.57842,1.61848,2.22421,3.3537,15.7317,-3.5976,-23.58,25.41,-12.94,2,S02
11700,-8.76038,1.67115,2.26013,2.6220,14.3293,-5.6098,-23.58,25.41,-12.94,2,S02
11720,-9.07402,1.70467,1.87945,2.8049,13.0488,-7.0122,-23.58,25.41,-12.94,2,S02
11740,-9.42358,1.67355,1.28329,0.9756,12.8659,-6.2805,-23.30,25.69,-13.67,2,S02
11760,-9.71567,1.85311,1.18513,-3.9024,12.5610,-3.5976,-23.30,25.69,-13.67,2,S02
11780,-10.29986,1.27611,2.36787,-6.5244,8.2317,0.6098,-23.30,25.69,-13.67,2,S02
11800,-10.49618,-0.04788,3.57933,5.6098,1.3415,6.4634,-23.39,25.87,-14.13,2,S02
11820,-10.78827,-1.40779,3.85466,26.3415,-2.8659,10.1220,-23.39,25.87,-14.13,2,S02
11840,-12.62223,-0.75178,2.09732,44.3293,-3.9024,12.6829,-23.39,25.87,-14.13,2,S02
11860,-13.63019,1.43652,0.26097,47.6220,4.3902,25.7927,-23.39,25.87,-14.13,2,S02
11880,-11.32697,1.75734,-0.25618,42.6220,18.2927,45.0000,-23.39,24.77,-16.42,2,S02
11900,-8.96150,0.37110,-0.54827,44.7561,22.1951,47.0122,-23.39,24.77,-16.42,2,S02
11920,-8.08282,-0.27533,-2.07577,57.8659,20.6098,30.4268,-23.39,24.77,-16.42,2,S02
11940,-8.89685,1.29526,-3.01191,56.6463,18.9634,10.7317,-22.75,24.04,-18.81,2,S02
11960,-10.08917,2.63123,-2.34153,30.9146,11.0366,-0.3659,-22.75,24.04,-18.81,2,S02
11980,-10.08677,2.18830,-1.62087,7.3780,2.4390,-2.8659,-22.75,24.04,-18.81,2,S02
12000,-10.12268,1.39582,-1.04866,-6.2195,-3.7195,-7.2561,-22.84,24.59,-18.17,2,S02
12020,-10.14423,0.75657,-0.60094,-15.6098,-12.0122,-13.9024,-22.84,24.59,-18.17,2,S02
12040,-9.91678,0.35195,-0.37350,-22.6220,-20.4878,-20.3049,-22.84,24.59,-18.17,2,S02
12060,-9.36372,0.07661,-0.26815,-27.7439,-24.1463,-24.7561,-22.84,24.59,-18.17,2,S02
12080,-8.66940,-0.03591,-0.20830,-28.4146,-22.0732,-27.8659,-22.66,26.06,-16.61,2,S02
12100,-8.33182,0.05507,-0.00239,-27.9878,-18.2317,-30.1220,-22.66,26.06,-16.61,2,S02
12120,-8.27197,-0.00958,0.30646,-27.1951,-13.7805,-29.8171,-22.66,26.06,-16.61,2,S02
12140,-8.48745,-0.19872,0.49799,-24.8171,-9.6951,-26.4634,-22.11,27.25,-15.96,2,S02
12160,-8.80587,-0.26815,0.67516,-22.6829,-7.4390,-22.2561,-22.11,27.25,-15.96,2,S02
12180,-8.87291,-0.18914,0.88825,-21.8293,-7.0732,-18.2317,-22.11,27.25,-15.96,2,S02
12200,-8.92798,-0.11971,1.08697,-21.2805,-7.5000,-15.2439,-22.02,27.98,-15.32,2,S02
12220,-8.95910,-0.07183,1.20668,-20.6098,-7.5610,-12.8049,-22.02,27.98,-15.32,2,S02
12240,-8.91361,-0.09337,1.31442,-21.3415,-6.8293,-10.6707,-22.02,27.98,-15.32,2,S02
12260,-8.88728,-0.10534,1.29766,-22.6220,-5.3659,-10.0000,-22.02,27.98,-15.32,2,S02
12280,-8.84418,-0.14126,1.37188,-23.6585,-3.0488,-9.8171,-22.20,28.53,-14.68,2,S02
12300,-8.79869,-0.40941,1.68312,-23.3537,-1.3415,-8.9024,-22.20,28.53,-14.68,2,S02
12320,-8.76757,-0.76854,2.04704,-20.6098,-1.1585,-7.5000,-22.20,28.53,-14.68,2,S02
12340,-8.66701,-1.01993,2.28167,-16.3415,-1.1585,-5.4268,-22.48,28.99,-14.40,2,S02
12360,-8.63110,-0.96486,2.47082,-12.8659,-0.9756,-3.5976,-22.48,28.99,-14.40,2,S02
12380,-8.86812,-0.57940,2.65996,-12.6829,-2.0732,-1.7683,-22.48,28.99,-14.40,2,S02
12400,-9.24641,-0.15083,2.69108,-15.4268,-4.2683,0.0610,-22.75,29.45,-14.13,2,S02
12420,-9.43555,-0.19154,2.58813,-16.7683,-3.9634,0.1220,-22.75,29.45,-14.13,2,S02
12440,-9.54089,-0.70150,2.46603,-14.5732,-3.5366,-3.1707,-22.75,29.45,-14.13,2,S02
12460,-9.84017,-0.31125,2.74376,-15.7317,-8.3537,-7.1951,-22.75,29.45,-14.13,2,S02
12480,-9.90242,0.96247,3.06697,-33.4146,-18.5976,-7.0732,-23.12,30.18,-12.66,2,S02
12500,-10.64941,1.27850,2.34153,-56.5244,-23.1707,-1.8293,-23.12,30.18,-12.66,2,S02
12520,-13.65653,0.41180,0.28970,-67.5000,-19.1463,0.4268,-23.12,30.18,-12.66,2,S02
12540,-14.66448,-0.36392,-0.76136,-62.7439,-10.7317,-8.7805,-23.85,31.10,-10.09,2,S02
12560,-12.41633,-0.27054,-1.47483,-57.0122,-23.5366,-26.6463,-23.85,31.10,-10.09,2,S02
12580,-9.67258,0.08859,-1.19710,-60.7927,-38.6585,-35.0610,-23.85,31.10,-10.09,2,S02
12600,-8.20972,0.21787,-0.94332,-69.6341,-38.1707,-27.6220,-23.85,32.57,-6.42,2,S02
12620,-8.65265,-0.37110,-0.44053,-75.4268,-30.9146,-14.3902,-23.85,32.57,-6.42,2,S02
12640,-9.28232,-1.10852,-0.12689,-69.3293,-18.8415,2.5610,-23.85,32.57,-6.42,2,S02
12660,-9.29908,-2.01831,0.31364,-52.5610,-4.9390,17.9878,-23.85,32.57,-6.42,2,S02
12680,-9.39485,-2.65038,0.57940,-26.8902,1.9512,23.9634,-25.23,31.74,-6.33,2,S02
12700,-9.12191,-2.64799,0.40462,-0.0610,0.7317,22.8049,-25.23,31.74,-6.33,2,S02
12720,-9.06924,-1.45089,0.21787,17.1341,-1.0976,18.4756,-25.23,31.74,-6.33,2,S02
12740,-9.22965,0.24421,0.25379,21.7073,-0.8537,15.4878,-25.50,31.38,-7.34,2,S02
12760,-8.97586,1.34075,0.09816,20.1220,-0.3049,16.5854,-25.50,31.38,-7.34,2,S02
12780,-8.42998,1.60172,-0.03591,15.0610,0.9756,19.2073,-25.50,31.38,-7.34,2,S02
12800,-8.31027,1.47004,0.13886,6.7073,3.9634,19.6951,-26.24,30.73,-7.61,2,S02
12820,-8.65265,1.20428,0.54588,-2.5000,7.3780,17.9878,-26.24,30.73,-7.61,2,S02
12840,-8.75799,0.76614,0.90261,-8.0488,9.5732,16.0976,-26.24,30.73,-7.61,2,S02
12860,-8.84658,0.32322,1.18034,-8.3537,10.4878,13.0488,-26.24,30.73,-7.61,2,S02
12880,-9.20810,0.26815,1.46286,-6.6463,10.6098,9.6341,-26.79,30.46,-7.89,2,S02
12900,-9.18895,0.24421,1.67834,-0.2439,8.2317,8.4146,-26.79,30.46,-7.89,2,S02
12920,-8.97826,0.12929,1.71904,5.7927,8.5366,6.8293,-26.79,30.46,-7.89,2,S02
12940,-8.86094,0.24421,1.68552,10.2439,8.4756,4.0854,-26.88,30.46,-8.72,2,S02
12960,-8.83939,0.53391,1.73101,11.2805,8.9634,2.0732,-26.88,30.46,-8.72,2,S02
12980,-8.99741,0.83079,1.84593,11.1585,9.0854,0.6707,-26.88,30.46,-8.72,2,S02
13000,-8.99980,1.10852,1.81720,11.5244,8.2317,-0.1829,-26.61,30.55,-9.63,2,S02
13020,-8.86812,1.06303,1.84832,12.8049,7.5610,-2.1951,-26.61,30.55,-9.63,2,S02
13040,-8.88009,0.96486,1.72861,15.8537,6.2805,-5.6707,-26.61,30.55,-9.63,2,S02
13060,-9.06205,1.06781,1.46286,16.2805,4.6951,-7.9878,-26.61,30.55,-9.63,2,S02
13080,-9.20092,1.29526,0.85952,14.2073,4.0854,-8.6585,-26.06,30.73,-10.46,2,S02
13100,-9.71567,2.05423,0.85952,5.0610,2.5610,-8.0488,-26.06,30.73,-10.46,2,S02
13120,-10.33577,2.02310,2.25534,-4.6341,-2.8049,-3.2317,-26.06,30.73,-10.46,2,S02
13140,-10.07959,0.89064,3.45483,0.6098,-10.9756,5.8537,-26.42,30.73,-10.18,2,S02
13160,-9.26556,-0.16281,4.06057,12.4390,-13.8415,12.3171,-26.42,30.73,-10.18,2,S02
13180,-9.43555,-0.29209,3.65116,22.3780,-13.6585,11.4634,-26.42,30.73,-10.18,2,S02
13200,-11.15698,1.02951,2.07817,29.4512,-8.2927,9.4512,-26.42,30.28,-11.10,2,S02
13220,-12.61984,2.84431,0.53870,25.1829,2.8049,17.4390,-26.42,30.28,-11.10,2,S02
13240,-12.22479,3.29921,-0.73981,13.9024,10.6098,33.2927,-26.42,30.28,-11.10,2,S02
13260,-10.37886,1.32399,-0.80206,9.3902,13.5366,41.0976,-26.42,30.28,-11.10,2,S02
13280,-9.24401,-0.77333,-1.14682,15.4878,9.5732,31.3415,-27.89,28.35,-12.11,2,S02
13300,-9.03572,-0.84755,-1.21386,19.3902,10.1220,16.5854,-27.89,28.35,-12.11,2,S02
13320,-9.44513,0.46687,-1.19471,9.2683,6.0976,6.7073,-27.89,28.35,-12.11,2,S02
13340,-9.29429,1.39103,-1.45089,-8.0488,0.8537,3.2927,-27.98,28.26,-12.02,2,S02
13360,-9.45949,1.76692,-1.47483,-27.0732,0.4878,2.8049,-27.98,28.26,-12.02,2,S02
13380,-9.96467,1.71904,-1.12767,-46.8902,-2.1341,0.7317,-27.98,28.26,-12.02,2,S02
13400,-9.92397,1.12767,-0.76854,-62.6220,-10.8537,-1.8293,-29.17,28.17,-9.27,2,S02
13420,-9.60554,0.33758,-0.45490,-71.0366,-15.3659,-6.4024,-29.17,28.17,-9.27,2,S02
13440,-9.28232,-0.28012,-0.12210,-73.9024,-12.9878,-11.6463,-29.17,28.17,-9.27,2,S02
13460,-8.90883,-0.52672,0.18196,-74.5732,-8.9024,-14.1463,-29.17,28.17,-9.27,2,S02
13480,-8.69813,-0.18196,0.36152,-77.6220,-5.5488,-14.5732,-29.63,28.62,-6.51,2,S02
13500,-8.62152,0.28970,0.43814,-82.0732,-2.6829,-13.4146,-29.63,28.62,-6.51,2,S02
13520,-8.71729,0.34237,0.53870,-84.1463,0.6098,-11.6463,-29.63,28.62,-6.51,2,S02
13540,-8.88728,0.02873,0.74939,-82.8659,4.4512,-9.6951,-30.09,28.81,-3.85,2,S02
13560,-9.00938,-0.23224,0.90740,-81.2805,6.7073,-8.0488,-30.09,28.81,-3.85,2,S02
13580,-8.97826,-0.20111,0.89543,-82.9268,7.0122,-6.4024,-30.09,28.81,-3.85,2,S02
13600,-8.93995,-0.03352,0.69432,-85.1220,8.5366,-5.0000,-30.64,28.81,-1.28,2,S02
13620,-9.05248,0.03112,0.63925,-85.6707,11.8902,-3.6585,-30.64,28.81,-1.28,2,S02
13640,-9.23204,-0.07901,0.81403,-85.4268,14.0854,-2.6220,-30.64,28.81,-1.28,2,S02
13660,-9.43076,-0.44532,1.14443,-83.1707,13.3537,-2.2561,-30.64,28.81,-1.28,2,S02
13680,-9.41161,-0.74939,1.38864,-78.1098,10.3049,-3.8415,-31.28,28.81,1.19,2,S02
13700,-9.08600,-0.86431,1.40300,-71.8902,6.7073,-5.8537,-31.28,28.81,1.19,2,S02
13720,-8.80348,-0.77333,1.40300,-66.8293,4.9390,-7.0122,-31.28,28.81,1.19,2,S02
13740,-8.92558,-0.64165,1.72143,-63.0488,5.0610,-6.6463,-31.28,28.99,3.30,2,S02
13760,-9.19373,-0.56503,2.14520,-58.8415,4.0244,-5.0000,-31.28,28.99,3.30,2,S02
13780,-9.28711,-0.42617,2.47800,-54.8781,0.0610,-2.2561,-31.28,28.99,3.30,2,S02
13800,-9.24401,-0.06943,2.62883,-53.9634,-4.0244,0.1220,-31.38,28.90,5.41,2,S02
13820,-9.03572,0.08380,2.43251,-55.0610,-6.0976,1.9512,-31.38,28.90,5.41,2,S02
13840,-8.99741,-0.34477,2.18112,-52.8659,-5.7927,2.9268,-31.38,28.90,5.41,2,S02
13860,-9.38048,-0.43574,2.49715,-47.3171,-6.0366,2.6220,-31.38,28.90,5.41,2,S02
13880,-9.75637,0.57221,3.30160,-51.5244,-11.2195,1.4634,-31.47,28.53,7.89,2,S02
13900,-9.41879,1.73819,3.43329,-65.0000,-16.5854,1.4634,-31.47,28.53,7.89,2,S02
13920,-9.81383,1.58975,2.89698,-77.0732,-13.7805,4.5122,-31.47,28.53,7.89,2,S02
13940,-12.30620,0.42617,1.06781,-79.7561,-5.4878,4.5122,-30.92,28.17,11.19,2,S02
13960,-13.44584,-1.59693,-0.54109,-68.2317,5.7927,-6.2195,-30.92,28.17,11.19,2,S02
13980,-12.74673,-1.71664,-1.40300,-55.4268,0.7317,-25.7927,-30.92,28.17,11.19,2,S02
14000,-11.07318,-0.78769,-1.76453,-55.1829,-16.8293,-37.3780,-28.72,29.17,13.94,2,S02
14020,-9.52892,-0.33279,-1.85790,-64.3293,-25.7317,-30.5488,-28.72,29.17,13.94,2,S02
14040,-9.32781,-0.99599,-1.54665,-70.1220,-22.1341,-13.2927,-28.72,29.17,13.94,2,S02
14060,-9.32542,-1.99198,-0.85473,-66.0366,-13.4146,6.4024,-28.72,29.17,13.94,2,S02
14080,-9.03811,-2.66714,-0.16520,-52.1341,-4.9390,19.7561,-28.90,27.89,15.69,2,S02
14100,-9.01178,-2.72460,0.22027,-32.6220,-1.8293,22.9878,-28.90,27.89,15.69,2,S02
14120,-9.02135,-2.33674,-0.05746,-12.6220,-6.3415,20.5488,-28.90,27.89,15.69,2,S02
14140,-9.17937,-1.27850,-0.38547,1.0976,-6.8902,19.6951,-29.45,26.97,15.41,2,S02
14160,-9.39245,0.02394,-0.37828,2.5610,-2.4390,21.9512,-29.45,26.97,15.41,2,S02
14180,-9.26556,0.77333,-0.35195,-2.5000,-0.2439,26.2805,-29.45,26.97,15.41,2,S02
14200,-8.88967,0.65841,-0.31125,-11.1585,0.9756,28.1098,-30.18,25.60,15.87,2,S02
14220,-8.82263,0.60813,-0.00718,-19.2073,2.8659,27.8049,-30.18,25.60,15.87,2,S02
14240,-8.63349,0.38786,0.37350,-26.3415,3.0488,26.8293,-30.18,25.60,15.87,2,S02
14260,-8.53772,0.18196,0.64643,-28.1098,5.1829,24.3293,-30.18,25.60,15.87,2,S02
14280,-8.83460,0.16520,0.90501,-27.0732,8.5976,20.7317,-30.28,24.77,16.79,2,S02
14300,-9.09797,0.20111,1.02472,-24.1463,9.0854,17.8049,-30.28,24.77,16.79,2,S02
14320,-9.17219,0.24181,1.07979,-19.9390,7.8659,15.9146,-30.28,24.77,16.79,2,S02
14340,-9.09557,0.18196,1.23062,-14.9390,7.9268,13.9024,-30.28,24.50,16.79,2,S02
14360,-8.95671,0.23463,1.38864,-10.6098,8.5366,10.8537,-30.28,24.50,16.79,2,S02
14380,-8.82742,0.40223,1.68791,-8.7195,8.7805,7.6220,-30.28,24.50,16.79,2,S02
14400,-8.76038,0.54827,1.95127,-7.8049,8.0488,5.3659,-30.18,24.50,16.70,2,S02
14420,-8.67898,0.62489,2.10211,-6.5854,7.1341,4.0854,-30.18,24.50,16.70,2,S02
14440,-8.53054,0.54348,2.18351,-4.1463,6.8902,3.0488,-30.18,24.50,16.70,2,S02
14460,-8.55688,0.61052,1.95127,-0.3659,6.5244,1.1585,-30.18,24.50,16.70,2,S02
14480,-8.88488,1.62566,0.70629,-3.4756,6.3415,-0.1829,-30.09,24.40,16.33,2,S02
14500,-9.65821,2.87783,0.11732,-20.3049,7.9878,2.5610,-30.09,24.40,16.33,2,S02
14520,-10.73560,2.28167,1.42455,-31.1585,5.4878,9.3293,-30.09,24.40,16.33,2,S02
14540,-10.85052,0.15802,3.31118,-17.4390,-3.3537,17.1341,-30.00,23.30,16.97,2,S02
14560,-9.90242,-2.00874,4.38857,6.4634,-10.6707,21.5244,-30.00,23.30,16.97,2,S02
14580,-9.52892,-2.84910,4.29041,28.8415,-13.5976,18.4146,-30.00,23.30,16.97,2,S02
14600,-11.70286,-1.17795,2.27449,49.2073,-11.5244,14.0854,-31.47,22.29,14.68,2,S02
14620,-13.52484,2.39181,-0.17717,57.1341,2.6829,24.3293,-31.47,22.29,14.68,2,S02
14640,-12.24634,2.69108,-1.09415,50.2439,16.0976,48.1098,-31.47,22.29,14.68,2,S02
14660,-9.61272,0.83558,-1.76932,46.7073,16.5244,58.7195,-31.47,22.29,14.68,2,S02
14680,-8.24563,-0.50518,-2.96642,53.7195,14.8171,49.1463,-33.67,19.63,11.74,2,S02
14700,-8.89446,0.43096,-3.43089,57.6829,12.6220,28.7805,-33.67,19.63,11.74,2,S02
14720,-10.16817,1.56341,-2.42054,46.8902,2.3780,11.7683,-33.67,19.63,11.74,2,S02
14740,-10.27831,1.49877,-1.34554,31.4634,-10.2439,4.0854,-34.13,19.72,10.28,2,S02
14760,-10.40041,1.27611,-0.85234,16.8902,-20.3049,-4.3902,-34.13,19.72,10.28,2,S02
14780,-10.40999,1.05824,-0.47166,6.7073,-28.5366,-13.5976,-34.13,19.72,10.28,2,S02
14800,-9.93594,0.46448,-0.24181,0.1829,-38.2317,-21.3415,-33.12,20.09,11.74,2,S02
14820,-8.90643,0.39504,-0.35195,-7.5610,-42.8049,-26.3415,-33.12,20.09,11.74,2,S02
14840,-8.44674,0.85473,-0.32801,-19.0244,-37.0732,-29.6341,-33.12,20.09,11.74,2,S02
14860,-8.26718,0.90022,0.04549,-27.7439,-26.0976,-29.9390,-33.12,20.09,11.74,2,S02
14880,-8.10198,0.52194,0.41659,-29.8780,-15.7927,-29.8171,-31.56,20.92,13.21,2,S02
14900,-8.00382,0.06943,0.74939,-30.0610,-7.5610,-29.4512,-31.56,20.92,13.21,2,S02
14920,-8.47547,-0.08619,0.94810,-30.5488,-1.4024,-28.9024,-31.56,20.92,13.21,2,S02
14940,-8.90643,-0.17717,1.13725,-30.2439,3.5976,-26.2805,-30.37,21.83,13.49,2,S02
14960,-8.89207,-0.27773,1.27132,-28.1707,6.4634,-22.3780,-30.37,21.83,13.49,2,S02
14980,-8.84897,-0.46926,1.21147,-25.1220,7.3780,-19.6951,-30.37,21.83,13.49,2,S02
15000,-8.90643,-0.56743,1.10852,-22.0732,8.5976,-18.0488,-29.72,22.66,13.49,2,S02
15020,-8.98783,-0.46687,1.07739,-19.2073,10.4878,-16.5244,-29.72,22.66,13.49,2,S02
15040,-8.98304,-0.38786,1.19471,-16.5244,12.5610,-14.8171,-29.72,22.66,13.49,2,S02
15060,-8.95671,-0.46448,1.37427,-12.8049,13.7195,-12.0122,-29.72,22.66,13.49,2,S02
15080,-8.94234,-0.47405,1.50356,-9.1463,13.2317,-9.1463,-29.27,23.21,13.12,2,S02
15100,-8.87531,-0.34716,1.52032,-7.9878,11.0366,-6.5244,-29.27,23.21,13.12,2,S02
15120,-8.92558,-0.20590,1.49877,-9.2073,8.3537,-3.7805,-29.27,23.21,13.12,2,S02
15140,-9.16740,-0.14365,1.55144,-11.7683,3.9024,-0.7317,-29.08,22.84,13.21,2,S02
15160,-9.44513,-0.67756,1.57299,-12.8659,-1.4024,2.7439,-29.08,22.84,13.21,2,S02
15180,-9.39964,-1.57538,1.05345,-4.6341,-3.7195,3.9024,-29.08,22.84,13.21,2,S02
15200,-9.94312,-1.42694,1.43173,3.4756,-4.2683,0.7927,-28.99,22.75,13.30,2,S02
15220,-10.63265,0.51715,2.47560,-2.8049,-14.1463,-8.4756,-28.99,22.75,13.30,2,S02
15240,-10.43393,2.69827,2.81798,-18.5976,-29.2073,-16.5244,-28.99,22.75,13.30,2,S02
15260,-9.35175,3.57694,2.72221,-36.2195,-34.7561,-15.7317,-28.99,22.75,13.30,2,S02
15280,-8.69574,2.12605,2.63602,-52.9878,-28.4756,-8.2927,-27.61,22.29,15.87,2,S02
15300,-9.84017,-0.39025,2.14042,-64.9390,-15.1220,-1.5854,-27.61,22.29,15.87,2,S02
15320,-12.46661,-2.41575,1.06063,-70.3659,-3.5976,-0.1829,-27.61,22.29,15.87,2,S02
15340,-13.33810,-3.05021,-0.23224,-61.3415,-0.9146,-7.3780,-26.33,22.66,17.25,2,S02
15360,-11.81299,-2.14281,-1.13006,-43.1098,-8.1707,-19.8780,-26.33,22.66,17.25,2,S02
15380,-9.56962,-1.01035,-1.65679,-31.5854,-17.9268,-25.9756,-26.33,22.66,17.25,2,S02
15400,-8.48026,-0.75178,-1.49638,-30.3659,-21.4634,-22.1341,-25.32,22.66,18.17,2,S02
15420,-9.06445,-1.62327,-0.94332,-28.1098,-18.4756,-10.8537,-25.32,22.66,18.17,2,S02
15440,-9.74919,-2.53307,-0.34237,-16.1585,-12.1341,1.2805,-25.32,22.66,18.17,2,S02
15460,-9.83778,-2.65756,0.26097,0.7317,-7.9878,9.6341,-25.32,22.66,18.17,2,S02
15480,-9.93115,-1.70946,0.27294,13.3537,-10.4878,13.2317,-26.15,21.56,17.61,2,S02
15500,-9.40442,0.31364,-0.11492,21.0366,-9.8780,21.8293,-26.15,21.56,17.61,2,S02
15520,-9.00220,0.28730,-0.05507,20.3049,-7.0122,24.3902,-26.15,21.56,17.61,2,S02
15540,-8.79390,-0.03352,0.22027,20.1220,-4.1463,23.9634,-27.52,20.46,16.79,2,S02
15560,-8.81066,-0.19872,0.56743,19.2683,-1.2805,22.6829,-27.52,20.46,16.79,2,S02
15580,-8.85615,-0.09337,0.84755,17.9878,1.2195,21.8902,-27.52,20.46,16.79,2,S02
15600,-8.72447,0.26576,0.84755,18.3537,3.1098,20.9756,-28.26,19.82,15.78,2,S02
15620,-8.76517,0.72784,0.90740,16.9512,4.6951,19.3293,-28.26,19.82,15.78,2,S02
15640,-8.81306,1.04387,1.02951,12.8049,5.9756,17.7439,-28.26,19.82,15.78,2,S02
15660,-8.66701,1.09176,1.05584,9.0244,8.0488,15.7317,-28.26,19.82,15.78,2,S02
15680,-8.60476,0.96726,1.14682,6.4634,11.5854,12.6829,-28.72,19.45,15.05,2,S02
15700,-8.68856,0.88107,1.30245,3.2317,14.2683,9.2073,-28.72,19.45,15.05,2,S02
15720,-8.71729,0.87149,1.44610,-0.9756,15.9756,6.7683,-28.72,19.45,15.05,2,S02
15740,-8.60955,0.91219,1.60412,-5.9146,17.0122,5.4268,-28.81,19.27,14.31,2,S02
15760,-8.61673,1.01754,1.78607,-11.5244,16.8902,3.8415,-28.81,19.27,14.31,2,S02
15780,-8.70771,1.08457,1.99676,-16.4024,15.4268,2.1951,-28.81,19.27,14.31,2,S02
15800,-8.83221,0.95768,2.23618,-18.4756,12.4390,1.0366,-28.53,19.45,14.40,2,S02
15820,-8.93277,0.73263,2.42772,-17.3780,9.2073,0.1829,-28.53,19.45,14.40,2,S02
15840,-9.04290,0.97683,1.70946,-15.4268,5.9146,-0.1829,-28.53,19.45,14.40,2,S02
15860,-9.25838,2.04225,0.21548,-22.8659,6.3415,1.0366,-28.53,19.45,14.40,2,S02
15880,-10.03410,1.77650,1.08697,-33.7805,10.8537,4.2683,-28.26,19.27,14.86,2,S02
15900,-10.97502,-0.05267,3.15077,-21.9512,5.3049,10.3659,-28.26,19.27,14.86,2,S02
15920,-10.62547,-2.27210,4.45082,3.1707,-7.0122,19.5122,-28.26,19.27,14.86,2,S02
15940,-9.03332,-3.28963,4.74291,28.7195,-13.1707,25.1220,-29.36,17.98,13.67,2,S02
15960,-8.56167,-2.20745,3.94564,50.5488,-13.8415,19.8780,-29.36,17.98,13.67,2,S02
15980,-11.31500,0.11253,2.22182,62.6220,-14.3902,10.4268,-29.36,17.98,13.67,2,S02
16000,-13.93186,3.14598,-0.01197,68.9024,-3.9634,16.3415,-30.83,17.06,10.46,2,S02
16020,-12.42591,3.27766,-0.98881,62.4390,13.0488,41.3415,-30.83,17.06,10.46,2,S02
16040,-9.75158,1.26893,-1.55144,45.6707,16.7683,55.9756,-30.83,17.06,10.46,2,S02
16060,-7.97030,-0.36392,-2.23379,35.6098,15.3659,48.4146,-30.83,17.06,10.46,2,S02
16080,-8.64786,-0.02155,-2.42772,34.3902,15.3049,27.8659,-32.11,15.05,8.62,2,S02
16100,-10.06044,1.13006,-1.63285,25.6707,10.6098,11.2805,-32.11,15.05,8.62,2,S02
16120,-10.37408,1.38385,-0.97683,11.5244,1.9512,5.1220,-32.11,15.05,8.62,2,S02
16140,-10.39084,0.88585,-0.41659,0.0000,-3.4146,-0.0610,-31.83,14.95,8.35,2,S02
16160,-10.44111,0.10534,0.13886,-6.5244,-7.9878,-8.4146,-31.83,14.95,8.35,2,S02
16180,-10.10593,-0.40701,0.18914,-10.8537,-17.0122,-17.4390,-31.83,14.95,8.35,2,S02
16200,-9.26556,-0.38307,-0.15562,-14.5732,-21.7073,-23.9634,-31.01,16.06,8.72,2,S02
16220,-8.59997,-0.02155,-0.29928,-18.1098,-17.2561,-27.6220,-31.01,16.06,8.72,2,S02
16240,-8.47308,0.21548,-0.08859,-20.1220,-10.1220,-29.0244,-31.01,16.06,8.72,2,S02
16260,-8.53533,0.19632,0.19393,-19.0244,-5.3659,-29.2073,-31.01,16.06,8.72,2,S02
16280,-8.55448,0.02634,0.40223,-16.4024,-2.9878,-28.9634,-30.00,17.06,9.17,2,S02
16300,-8.70532,-0.20830,0.52912,-12.9878,-0.5488,-28.4756,-30.00,17.06,9.17,2,S02
16320,-8.84658,-0.61531,0.83558,-7.4390,2.9268,-27.6829,-30.00,17.06,9.17,2,S02
16340,-8.91840,-0.98162,1.09894,-0.7317,3.5976,-26.4024,-29.17,18.17,8.44,2,S02
16360,-8.95431,-1.13006,1.17555,7.1951,1.8293,-25.0000,-29.17,18.17,8.44,2,S02
16380,-8.79869,-1.12288,1.16119,15.3049,0.4878,-22.5000,-29.17,18.17,8.44,2,S02
16400,-8.52575,-0.86431,1.09894,22.7439,1.5244,-19.5122,-28.81,18.99,6.79,2,S02
16420,-8.53054,-0.58658,1.20907,28.3537,3.7805,-17.4390,-28.81,18.99,6.79,2,S02
16440,-8.53533,-0.33040,1.25696,31.5244,6.2195,-15.6707,-28.81,18.99,6.79,2,S02
16460,-8.50181,-0.09577,1.28808,32.3780,9.8780,-13.4756,-28.81,18.99,6.79,2,S02
16480,-8.72447,0.10534,1.49638,30.0000,12.2561,-10.3659,-28.62,19.45,5.05,2,S02
16500,-9.01178,0.21308,1.76213,23.4146,10.0610,-6.2805,-28.62,19.45,5.05,2,S02
16520,-9.43794,0.15323,2.00155,14.1463,4.3902,-2.0122,-28.62,19.45,5.05,2,S02
16540,-9.58878,-0.40223,2.10450,6.8902,-0.6098,1.5854,-28.53,19.27,4.68,2,S02
16560,-9.32063,-1.13964,1.44610,7.0732,-1.7073,1.8902,-28.53,19.27,4.68,2,S02
16580,-9.67018,-1.20668,1.79565,10.0610,1.1585,-0.6098,-28.53,19.27,4.68,2,S02
16600,-10.46266,0.56743,2.98318,3.0488,-4.9390,-7.9878,-27.98,19.72,4.95,2,S02
16620,-10.28788,2.56658,2.97360,-14.0854,-18.6585,-13.4756,-27.98,19.72,4.95,2,S02
16640,-10.61589,2.14520,2.32477,-31.5244,-22.9878,-11.8902,-27.98,19.72,4.95,2,S02
16660,-12.51210,-0.73981,1.11091,-38.5366,-19.2683,-9.8780,-27.98,19.72,4.95,2,S02
16680,-13.86722,-3.06937,0.44293,-35.5488,-16.0976,-13.4756,-27.25,20.18,6.33,2,S02
16700,-12.63420,-2.58095,-0.58658,-29.3902,-19.9390,-21.5854,-27.25,20.18,6.33,2,S02
16720,-10.18015,-1.24498,-1.30245,-24.2683,-22.8659,-22.3780,-27.25,20.18,6.33,2,S02
16740,-8.67898,-0.52194,-1.80523,-21.0366,-21.4634,-17.9878,-26.42,20.73,6.97,2,S02
16760,-8.70532,-0.66798,-1.08697,-22.5610,-17.0122,-10.8537,-26.42,20.73,6.97,2,S02
16780,-9.00699,-1.03190,-0.38786,-20.2439,-17.7439,-0.5488,-26.42,20.73,6.97,2,S02
16800,-9.35654,-2.00155,0.28730,7.7439,-16.9512,11.4024,-26.70,20.18,6.88,2,S02
16820,-9.44991,-1.99676,0.15562,26.4024,-17.8049,12.6220,-26.70,20.18,6.88,2,S02
16840,-9.43794,-1.34315,-0.07422,38.1098,-16.5244,14.5732,-26.70,20.18,6.88,2,S02
16860,-9.37091,-0.36631,-0.07661,43.4756,-12.8049,15.8537,-26.70,20.18,6.88,2,S02
16880,-9.29429,0.35913,0.03591,46.2805,-9.8171,15.4878,-27.34,19.72,5.32,2,S02
16900,-9.13867,0.50757,0.23703,48.2927,-7.0732,14.6341,-27.34,19.72,5.32,2,S02
16920,-8.86812,0.31603,0.38068,49.0854,-4.1463,14.8780,-27.34,19.72,5.32,2,S02
16940,-8.75560,0.08619,0.56982,47.1951,-0.9756,15.6707,-27.71,19.27,3.39,2,S02
16960,-8.78193,0.20111,0.70150,45.0000,2.6829,15.6707,-27.71,19.27,3.39,2,S02
16980,-8.90164,0.56503,0.86670,43.0488,6.0976,14.4512,-27.71,19.27,3.39,2,S02
17000,-8.90404,0.77333,0.94332,41.2195,6.8293,12.5000,-27.89,19.08,1.65,2,S02
17020,-8.80827,0.81403,1.07739,39.5122,6.7683,9.3293,-27.89,19.08,1.65,2,S02
17040,-8.78672,0.79248,1.30963,36.3415,6.0366,5.6707,-27.89,19.08,1.65,2,S02
17060,-8.86573,0.83558,1.48201,31.8902,5.1220,2.8659,-27.89,19.08,1.65,2,S02
17080,-8.88488,0.88346,1.61130,27.9878,6.1585,1.5244,-27.61,19.17,0.18,2,S02
17100,-8.78911,0.88585,1.75734,24.0854,8.4146,0.8537,-27.61,19.17,0.18,2,S02
17120,-8.59279,0.95289,1.86269,19.7561,9.8780,-0.1829,-27.61,19.17,0.18,2,S02
17140,-8.59040,1.10133,2.03268,14.6341,11.7683,-1.4024,-27.25,19.17,-0.92,2,S02
17160,-8.79151,1.24020,2.29365,10.9146,12.4390,-2.9878,-27.25,19.17,-0.92,2,S02
17180,-8.83221,1.13964,2.41336,10.7927,10.7317,-3.4756,-27.25,19.17,-0.92,2,S02
17200,-8.98783,0.86431,2.40138,12.7439,8.2927,-3.8415,-26.88,19.54,-1.93,2,S02
17220,-9.22725,1.27850,1.62566,12.5610,5.0000,-3.8415,-26.88,19.54,-1.93,2,S02
17240,-9.54808,2.20745,0.96726,2.8049,2.3171,-1.5244,-26.88,19.54,-1.93,2,S02
17260,-10.07720,1.76692,2.19069,-3.9634,-0.9756,2.3780,-26.88,19.54,-1.93,2,S02
17280,-10.23761,0.22984,3.88100,9.5122,-8.7195,7.0122,-26.70,19.54,-2.02,2,S02
17300,-9.48343,-1.49638,4.71179,30.0000,-14.7561,11.5854,-26.70,19.54,-2.02,2,S02
17320,-9.38288,-1.84114,4.22337,47.3171,-15.3049,12.1341,-26.70,19.54,-2.02,2,S02
17340,-11.72441,0.01915,2.01352,60.0610,-10.1829,11.5854,-26.42,19.45,-4.31,2,S02
17360,-13.50090,2.48758,-0.13647,66.7683,5.8537,24.0854,-26.42,19.45,-4.31,2,S02
17380,-11.99256,1.96085,-1.12767,67.4390,20.1829,47.1951,-26.42,19.45,-4.31,2,S02
17400,-9.35175,-0.20590,-1.62087,64.7561,21.4634,57.5000,-27.16,16.97,-7.25,2,S02
17420,-7.82425,-1.51792,-2.25055,63.9634,16.7683,47.8049,-27.16,16.97,-7.25,2,S02
17440,-8.57603,-0.25857,-2.88022,60.0000,13.3537,28.8415,-27.16,16.97,-7.25,2,S02
17460,-9.80186,1.69988,-2.60250,42.9878,6.5854,14.2683,-27.16,16.97,-7.25,2,S02
17480,-10.53688,2.72221,-1.94170,18.5976,-3.9634,6.0976,-26.61,16.79,-8.35,2,S02
17500,-10.93192,2.24337,-0.96486,-2.7439,-8.4756,-1.5854,-26.61,16.79,-8.35,2,S02
17520,-10.65180,0.84755,-0.14365,-13.0488,-12.9268,-11.1585,-26.61,16.79,-8.35,2,S02
17540,-9.81383,-0.10534,0.17717,-17.5000,-18.9024,-21.8293,-25.78,18.07,-7.25,2,S02
17560,-8.97826,-0.12450,0.15323,-23.7195,-19.2073,-30.2439,-25.78,18.07,-7.25,2,S02
17580,-8.22648,0.20830,0.11732,-30.3659,-13.1098,-35.9146,-25.78,18.07,-7.25,2,S02
17600,-8.05649,0.36631,0.14126,-32.2561,-3.0488,-40.0000,-24.59,19.63,-6.61,2,S02
17620,-8.37971,0.17717,0.42856,-27.0122,7.3171,-41.8902,-24.59,19.63,-6.61,2,S02
17640,-8.76757,-0.16281,0.69192,-20.4878,11.6463,-41.1585,-24.59,19.63,-6.61,2,S02
17660,-8.96150,-0.42138,0.84276,-17.3780,10.7317,-37.2561,-24.59,19.63,-6.61,2,S02
17680,-9.02135,-0.48842,1.04627,-16.0976,8.5976,-31.4634,-23.58,20.83,-6.70,2,S02
17700,-8.92798,-0.54827,1.15401,-13.1098,6.3415,-25.4268,-23.58,20.83,-6.70,2,S02
17720,-8.86812,-0.68474,1.29766,-8.1098,4.9390,-20.7927,-23.58,20.83,-6.70,2,S02
17740,-8.82503,-0.66319,1.33836,-2.1951,4.5122,-17.9878,-22.75,21.38,-6.97,2,S02
17760,-8.67419,-0.49560,1.28808,3.2317,5.3049,-16.0976,-22.75,21.38,-6.97,2,S02
17780,-8.61434,-0.30167,1.38385,6.8293,7.8659,-14.9390,-22.75,21.38,-6.97,2,S02
17800,-8.59279,-0.17238,1.54665,8.8415,10.7927,-13.7805,-22.02,21.83,-7.89,2,S02
17820,-8.73165,-0.04549,1.72861,8.6585,12.2561,-11.5244,-22.02,21.83,-7.89,2,S02
17840,-8.99262,-0.01437,1.92973,5.6707,11.1585,-7.3171,-22.02,21.83,-7.89,2,S02
17860,-9.31105,-0.17717,2.20027,1.5244,7.9878,-1.8902,-22.02,21.83,-7.89,2,S02
17880,-9.55526,-0.75417,2.24816,-0.7927,3.7805,1.9512,-21.83,21.93,-7.89,2,S02
17900,-9.17458,-1.50595,1.31442,4.9390,2.9268,2.2561,-21.83,21.93,-7.89,2,S02
17920,-9.53132,-1.67594,1.17795,13.2317,5.6707,-2.4390,-21.83,21.93,-7.89,2,S02
17940,-10.60392,0.09816,2.55940,8.7805,-1.0976,-12.0122,-20.92,22.75,-7.71,2,S02
17960,-10.70926,2.32716,3.12922,-9.0854,-23.6585,-19.3293,-20.92,22.75,-7.71,2,S02
17980,-9.59117,2.71024,2.55461,-26.8902,-41.4634,-16.2195,-20.92,22.75,-7.71,2,S02
18000,-10.43872,0.71587,1.57299,-39.3293,-40.3049,-10.6098,-20.64,23.58,-5.32,2,S02
18020,-13.18487,-2.26970,0.20590,-42.5610,-26.9512,-8.4756,-20.64,23.58,-5.32,2,S02
18040,-13.30697,-3.54102,-0.65601,-37.0732,-17.6829,-14.2073,-20.64,23.58,-5.32,2,S02
18060,-11.63103,-2.39899,-1.64960,-20.4878,-19.0244,-25.3049,-20.64,23.58,-5.32,2,S02
18080,-9.68694,-0.84755,-1.77650,-9.3293,-23.1707,-29.7561,-19.36,24.86,-4.50,2,S02
18100,-9.44991,-0.48602,-0.85712,-10.9756,-30.6707,-15.6707,-19.36,24.86,-4.50,2,S02
18120,-9.94551,-1.28329,-0.37589,-5.4268,-24.6341,-0.4268,-19.36,24.86,-4.50,2,S02
18140,-9.83059,-1.95846,0.19393,7.9268,-18.2317,12.0122,-19.36,24.95,-3.76,2,S02
18160,-9.47864,-1.68791,0.27773,22.9878,-15.3659,17.4390,-19.36,24.95,-3.76,2,S02
18180,-9.10754,-0.78290,0.00000,31.2195,-12.6829,19.1463,-19.36,24.95,-3.76,2,S02
18200,-8.74362,0.16520,-0.17957,32.5000,-9.5122,20.3049,-19.82,24.59,-4.31,2,S02
18220,-8.60237,0.79966,-0.25618,29.9390,-6.2805,19.4512,-19.82,24.59,-4.31,2,S02
18240,-8.55448,1.07021,-0.09337,25.4268,-1.6463,17.0122,-19.82,24.59,-4.31,2,S02
18260,-8.79390,1.09176,0.35913,18.7195,3.1707,15.4268,-19.82,24.59,-4.31,2,S02
18280,-8.91601,0.90740,0.74460,11.0976,5.1220,16.0976,-20.00,24.13,-4.68,2,S02
18300,-8.89685,0.61770,0.92177,5.4878,5.2439,16.7683,-20.00,24.13,-4.68,2,S02
18320,-8.82503,0.44053,1.15879,1.2195,5.5488,16.2195,-20.00,24.13,-4.68,2,S02
18340,-8.92319,0.47166,1.38145,-2.9878,4.0244,15.1220,-20.37,24.04,-4.59,2,S02
18360,-9.04769,0.67756,1.56820,-5.6707,2.8049,15.4878,-20.37,24.04,-4.59,2,S02
18380,-9.10036,0.90501,1.72622,-7.6220,2.5610,16.7683,-20.37,24.04,-4.59,2,S02
18400,-9.04290,1.14682,1.77889,-10.5488,1.6463,17.0122,-20.83,23.85,-4.22,2,S02
18420,-8.73405,1.31442,1.79326,-13.9024,0.9756,15.6707,-20.83,23.85,-4.22,2,S02
18440,-8.26478,1.32639,1.85072,-17.3780,2.0122,13.5366,-20.83,23.85,-4.22,2,S02
18460,-8.11395,1.34315,2.06380,-21.3415,4.7561,11.0976,-20.83,23.85,-4.22,2,S02
18480,-8.46829,1.34075,2.55940,-24.6341,7.4390,8.7195,-21.10,23.76,-3.67,2,S02
18500,-8.70771,1.26414,2.95205,-24.5732,6.0976,6.0366,-21.10,23.76,-3.67,2,S02
18520,-8.63828,1.05105,2.77967,-20.9146,3.0488,3.9634,-21.10,23.76,-3.67,2,S02
18540,-8.71250,1.81241,1.14682,-21.5244,4.2073,2.2561,-21.01,23.85,-3.12,2,S02
18560,-9.46667,2.83713,0.47166,-34.8171,9.8780,3.9024,-21.01,23.85,-3.12,2,S02
18580,-10.68053,2.11647,2.55222,-39.2073,7.1951,10.1829,-21.01,23.85,-3.12,2,S02
18600,-10.64701,-0.15562,4.54898,-22.8049,-7.9268,20.6098,-21.65,23.58,-2.11,2,S02
18620,-9.21528,-2.03028,5.03740,-0.6707,-15.1220,27.1341,-21.65,23.58,-2.11,2,S02
18640,-8.99502,-1.93212,4.60644,17.3171,-14.0854,22.2561,-21.65,23.58,-2.11,2,S02
18660,-11.53766,0.11492,2.22661,33.2927,-11.6463,15.5488,-21.65,23.58,-2.11,2,S02
18680,-13.33570,2.37744,0.15323,44.5122,3.7805,26.8293,-21.83,23.39,-3.12,2,S02
18700,-11.89200,1.86269,-1.44131,48.1707,13.7805,51.0976,-21.83,23.39,-3.12,2,S02
18720,-9.56962,-0.68235,-2.12605,48.1707,14.3902,61.4024,-21.83,23.39,-3.12,2,S02
18740,-9.38048,-1.48919,-2.38702,46.9512,10.1220,49.2073,-23.12,21.47,-4.50,2,S02
18760,-10.33816,-0.18675,-2.35111,39.0854,-0.1829,30.6098,-23.12,21.47,-4.50,2,S02
18780,-10.67335,1.61848,-2.19548,25.0000,-11.3415,17.8049,-23.12,21.47,-4.50,2,S02
18800,-10.46506,2.46842,-1.55384,4.0854,-17.7439,9.0244,-23.30,21.65,-3.39,2,S02
18820,-10.52012,1.93452,-0.47884,-13.7805,-23.0488,-1.8902,-23.30,21.65,-3.39,2,S02
18840,-10.06283,0.66798,0.25857,-22.1341,-30.5488,-12.8659,-23.30,21.65,-3.39,2,S02
18860,-9.20092,-0.09577,0.53391,-26.0366,-34.0244,-22.2561,-23.30,21.65,-3.39,2,S02
18880,-8.47547,0.08380,0.49081,-32.0122,-31.3415,-27.9878,-22.48,22.84,-1.19,2,S02
18900,-8.09480,0.38307,0.66798,-38.7805,-23.4756,-30.0610,-22.48,22.84,-1.19,2,S02
18920,-7.96072,0.40701,0.94332,-38.5976,-14.7561,-30.9756,-22.48,22.84,-1.19,2,S02
18940,-8.20014,0.25618,1.23062,-34.2073,-8.5366,-30.3659,-21.65,23.76,0.00,2,S02
18960,-8.57603,0.05267,1.53468,-29.6951,-4.8780,-27.4390,-21.65,23.76,0.00,2,S02
18980,-8.61673,-0.12689,1.77650,-26.4634,-4.9390,-22.4390,-21.65,23.76,0.00,2,S02
19000,-8.70053,-0.14605,1.94649,-25.0610,-6.4024,-17.5610,-21.19,24.13,0.92,2,S02
19020,-8.66940,-0.07183,2.07098,-24.3293,-6.4634,-12.9268,-21.19,24.13,0.92,2,S02
19040,-8.60237,0.25379,2.13084,-25.7317,-5.5488,-9.2683,-21.19,24.13,0.92,2,S02
19060,-8.54730,0.50996,2.31759,-28.1707,-3.0488,-6.3415,-21.19,24.13,0.92,2,S02
19080,-8.50660,0.42856,2.65278,-29.0244,-0.1220,-4.1463,-21.01,24.50,1.83,2,S02
19100,-8.36774,0.08859,2.88980,-27.9268,2.0732,-2.8049,-21.01,24.50,1.83,2,S02
19120,-8.31267,-0.09816,3.06218,-26.8902,3.7195,-1.6463,-21.01,24.50,1.83,2,S02
19140,-8.42520,-0.04549,3.20584,-27.9268,4.5122,0.5488,-21.19,24.59,2.84,2,S02
19160,-8.56885,-0.01915,3.26090,-30.6098,4.5122,5.5488,-21.19,24.59,2.84,2,S02
19180,-9.05727,-0.09577,3.21781,-33.1707,5.4878,11.5854,-21.19,24.59,2.84,2,S02
19200,-9.10754,-1.21625,2.06859,-27.2561,7.6829,13.4756,-21.56,24.31,3.30,2,S02
19220,-9.64384,-2.41575,1.92973,-10.7927,8.4146,7.8049,-21.56,24.31,3.30,2,S02
19240,-10.91995,-0.97444,3.69904,-7.1341,-1.2805,-9.9390,-21.56,24.31,3.30,2,S02
19260,-10.76433,1.73819,4.37181,-17.5000,-23.8415,-27.4390,-21.56,24.31,3.30,2,S02
19280,-8.93516,2.21464,3.66552,-27.1341,-37.6220,-25.8537,-20.46,25.05,5.50,2,S02
19300,-9.59117,0.88346,3.49075,-39.4512,-26.4634,-19.0854,-20.46,25.05,5.50,2,S02
19320,-11.96143,-0.85712,2.52109,-48.2927,-10.7317,-16.4024,-20.46,25.05,5.50,2,S02
19340,-12.64857,-1.78368,1.45567,-45.3659,-5.3049,-19.8780,-19.91,25.23,6.97,2,S02
19360,-10.98939,-1.68552,-0.02155,-31.0976,-13.7805,-27.7439,-19.91,25.23,6.97,2,S02
19380,-9.06205,-0.82361,-0.96007,-25.3049,-20.7927,-32.3780,-19.91,25.23,6.97,2,S02
19400,-9.81862,0.59137,0.45969,-39.3293,-16.7073,-16.2195,-19.17,25.60,8.62,2,S02
19420,-10.08198,-0.24900,1.06303,-34.3902,-15.8537,1.2805,-19.17,25.60,8.62,2,S02
19440,-9.73722,-1.58496,1.46525,-16.1585,-9.6341,13.9024,-19.17,25.60,8.62,2,S02
19460,-9.66060,-1.85551,1.58496,3.1707,-4.6951,17.1951,-19.17,25.60,8.62,2,S02
19480,-9.33739,-1.03669,1.15640,14.8171,-2.1951,19.2073,-20.37,24.77,8.53,2,S02
19500,-8.88967,-0.03591,0.98641,20.7927,4.4512,22.1951,-20.37,24.77,8.53,2,S02
19520,-8.49223,0.58419,0.87388,24.3293,10.1220,22.5000,-20.37,24.77,8.53,2,S02
19540,-8.29591,0.88585,0.77333,25.3659,14.5732,20.3659,-21.56,24.22,7.43,2,S02
19560,-8.47547,1.14203,0.96965,21.2805,17.3780,17.8659,-21.56,24.22,7.43,2,S02
19580,-8.66222,1.18752,1.28569,14.1463,17.7439,16.7683,-21.56,24.22,7.43,2,S02
19600,-8.73884,1.10612,1.45328,8.5366,17.3171,16.7073,-22.39,23.58,6.79,2,S02
19620,-8.72926,0.93853,1.63045,4.5732,17.7439,15.9146,-22.39,23.58,6.79,2,S02
19640,-8.69574,0.78769,1.68312,1.5244,17.5000,14.4512,-22.39,23.58,6.79,2,S02
19660,-8.66940,0.74460,1.72622,-0.7927,17.9878,12.4390,-22.39,23.58,6.79,2,S02
19680,-8.73884,0.79966,1.76932,-2.0732,18.7195,9.6341,-22.84,23.39,6.33,2,S02
19700,-8.85855,0.84276,1.79565,-2.5610,19.2073,6.7073,-22.84,23.39,6.33,2,S02
19720,-8.87291,0.76614,1.77650,-2.3171,19.8780,4.5122,-22.84,23.39,6.33,2,S02
19740,-8.85376,0.66798,1.86748,-1.2195,20.7317,2.4390,-23.03,23.39,5.69,2,S02
19760,-8.73644,0.70629,1.97761,-0.0610,20.3049,0.4878,-23.03,23.39,5.69,2,S02
19780,-8.70292,0.85473,2.20506,-0.4878,18.4146,-0.9756,-23.03,23.39,5.69,2,S02
19800,-8.71250,0.93374,2.38463,-0.4268,15.6707,-2.0732,-23.12,23.76,5.23,2,S02
19820,-8.90164,0.93374,2.33435,1.3415,13.2317,-3.0488,-23.12,23.76,5.23,2,S02
19840,-8.99262,1.30963,1.54187,2.0732,12.2561,-2.9878,-23.12,23.76,5.23,2,S02
19860,-9.22965,2.18112,0.67038,-6.7073,12.2561,-1.1585,-23.12,23.76,5.23,2,S02
19880,-10.00058,1.96085,1.80044,-17.0122,11.5854,2.1341,-23.39,23.76,5.32,2,S02
19900,-10.74039,0.27773,4.06057,-6.4024,2.7439,7.5000,-23.39,23.76,5.32,2,S02
19920,-10.30943,-1.64482,5.01825,19.2683,-8.5976,13.5366,-23.39,23.76,5.32,2,S02
19940,-9.22246,-2.30083,4.97755,42.5000,-10.1220,14.5122,-24.13,23.12,4.50,2,S02
19960,-9.71088,-1.16119,3.69904,57.9878,-8.6585,8.9024,-24.13,23.12,4.50,2,S02
19980,-12.05720,1.14682,1.27611,65.9146,-5.0610,7.5000,-24.13,23.12,4.50,2,S02
20000,-13.02446,2.89698,-0.84515,69.5732,9.3293,21.0976,-25.23,22.20,1.74,2,S02
20020,-11.20008,2.22182,-1.99198,65.5488,25.2439,40.7317,-25.23,22.20,1.74,2,S02
20040,-9.07402,0.15802,-2.36547,59.1463,28.1098,46.7073,-25.23,22.20,1.74,2,S02
20060,-8.55688,-0.80685,-2.52109,56.5244,20.9146,37.3171,-25.23,22.20,1.74,2,S02
20080,-9.61751,0.35674,-2.23140,48.2317,7.3171,22.3171,-26.33,21.01,-0.18,2,S02
20100,-10.40999,1.86748,-1.84593,30.8537,-8.5976,12.5610,-26.33,21.01,-0.18,2,S02
20120,-10.55125,2.76530,-1.47962,7.5610,-16.5244,7.3780,-26.33,21.01,-0.18,2,S02
20140,-10.48900,2.37026,-0.74699,-12.7439,-17.9268,-0.4268,-26.42,20.92,1.10,2,S02
20160,-10.36929,1.11091,-0.20590,-23.5976,-23.5976,-10.9756,-26.42,20.92,1.10,2,S02
20180,-9.70849,0.24181,-0.04549,-29.5732,-30.4878,-20.0000,-26.42,20.92,1.10,2,S02
20200,-8.78193,-0.01197,-0.14126,-35.1829,-31.4024,-25.1220,-25.69,21.74,2.84,2,S02
20220,-8.19775,-0.08140,0.15562,-39.2683,-23.5366,-26.9512,-25.69,21.74,2.84,2,S02
20240,-8.01100,-0.22505,0.59376,-36.0366,-12.9268,-27.9268,-25.69,21.74,2.84,2,S02
20260,-8.30070,-0.27294,1.16119,-28.5976,-5.1829,-27.1951,-25.69,21.74,2.84,2,S02
20280,-8.57603,-0.10056,1.35512,-23.2317,-3.5366,-24.4512,-24.95,22.66,3.39,2,S02
20300,-8.75560,0.11253,1.42934,-20.7927,-3.7805,-20.6098,-24.95,22.66,3.39,2,S02
20320,-8.78193,0.18914,1.56102,-18.9634,-3.2317,-16.8902,-24.95,22.66,3.39,2,S02
20340,-8.75081,0.17957,1.72861,-16.9512,-2.3171,-14.4512,-24.59,23.03,3.76,2,S02
20360,-8.71968,0.14126,1.86269,-15.2439,-1.5854,-13.1098,-24.59,23.03,3.76,2,S02
20380,-8.59279,0.20830,1.90100,-14.0244,-0.7317,-12.1951,-24.59,23.03,3.76,2,S02
20400,-8.54730,0.37828,1.93452,-13.5366,1.2805,-11.2805,-24.31,23.30,3.94,2,S02
20420,-8.55688,0.52433,2.09253,-13.9634,4.0854,-10.3659,-24.31,23.30,3.94,2,S02
20440,-8.53772,0.49799,2.30801,-14.8171,6.8902,-9.0244,-24.31,23.30,3.94,2,S02
20460,-8.63589,0.30167,2.57616,-15.7317,8.4146,-6.8902,-24.31,23.30,3.94,2,S02
20480,-8.78193,0.12450,2.75573,-16.9512,7.0732,-3.3537,-24.40,23.39,4.13,2,S02
20500,-8.91122,0.00479,2.77249,-19.5122,4.2683,1.7683,-24.40,23.39,4.13,2,S02
20520,-9.18176,-0.34237,2.41096,-21.0976,2.6220,4.7561,-24.40,23.39,4.13,2,S02
20540,-9.50259,-1.51792,1.64960,-10.7317,3.8415,2.4390,-24.59,23.30,4.13,2,S02
20560,-10.46745,-1.57060,2.29843,6.5854,3.7195,-7.0732,-24.59,23.30,4.13,2,S02
20580,-11.03248,0.80924,3.69425,1.8902,-10.6098,-21.9512,-24.59,23.30,4.13,2,S02
20600,-9.75398,3.30639,3.34709,-19.7561,-32.6220,-27.8659,-23.49,24.04,6.42,2,S02
20620,-8.65265,3.64398,2.38463,-41.1585,-36.6463,-23.8415,-23.49,24.04,6.42,2,S02
20640,-10.21366,1.72861,1.93212,-58.2927,-22.9878,-20.4878,-23.49,24.04,6.42,2,S02
20660,-12.73715,-1.07979,0.90501,-67.1951,-13.9024,-20.4268,-23.49,24.04,6.42,2,S02
20680,-10.44830,-2.76530,-1.20668,-43.4146,-22.1951,-37.5610,-22.57,24.68,8.44,2,S02
20700,-9.48104,-1.54665,-0.76614,-37.4390,-21.4634,-40.9756,-22.57,24.68,8.44,2,S02
20720,-9.97903,-0.70629,-0.07183,-38.8415,-23.7195,-32.4390,-22.57,24.68,8.44,2,S02
20740,-10.15620,-0.86670,0.55306,-39.5732,-23.4756,-14.3293,-21.65,25.14,10.00,2,S02
20760,-9.76595,-1.68073,0.89543,-31.7073,-15.9146,3.5976,-21.65,25.14,10.00,2,S02
20780,-9.43316,-2.19788,1.05584,-16.2195,-6.9512,13.7805,-21.65,25.14,10.00,2,S02
20800,-8.99741,-2.08774,0.60813,-1.8293,-4.4512,17.6829,-22.66,24.40,9.82,2,S02
20820,-8.77954,-1.14682,0.34237,5.3049,1.2805,20.8537,-22.66,24.40,9.82,2,S02
20840,-8.93277,0.13408,0.34716,5.5488,7.3171,22.8659,-22.66,24.40,9.82,2,S02
20860,-8.99502,0.93134,0.47645,2.9268,8.1098,23.7195,-22.66,24.40,9.82,2,S02
20880,-8.78433,1.00796,0.67277,0.4268,8.0488,23.7195,-23.76,23.76,9.27,2,S02
20900,-8.71729,0.71587,0.91698,-3.2927,8.7195,22.6829,-23.76,23.76,9.27,2,S02
20920,-8.75560,0.31843,1.17076,-7.5000,9.9390,22.0122,-23.76,23.76,9.27,2,S02
20940,-8.57364,0.09337,1.35033,-11.1585,10.7317,21.4024,-24.31,23.12,9.08,2,S02
20960,-8.60237,0.18196,1.51792,-13.5366,11.6463,19.3293,-24.31,23.12,9.08,2,S02
20980,-8.69095,0.44532,1.64482,-14.3293,13.4146,17.4390,-24.31,23.12,9.08,2,S02
21000,-8.73644,0.65841,1.72861,-14.5122,14.2073,15.8537,-24.77,22.66,9.17,2,S02
21020,-8.74362,0.75657,1.78847,-14.8171,13.4146,13.5366,-24.77,22.66,9.17,2,S02
21040,-8.59758,0.76614,1.89142,-15.8537,11.8293,10.6707,-24.77,22.66,9.17,2,S02
21060,-8.30309,0.68235,1.97282,-17.1951,11.6463,7.6220,-24.77,22.66,9.17,2,S02
21080,-8.29591,0.54588,2.18830,-16.7683,14.0244,4.3293,-24.95,22.57,9.08,2,S02
21100,-8.60237,0.33040,2.51631,-13.2317,14.8780,1.5244,-24.95,22.57,9.08,2,S02
21120,-8.83700,0.09816,2.77009,-7.0732,11.4634,-0.6098,-24.95,22.57,9.08,2,S02
21140,-9.18416,0.33040,2.68869,-0.3049,6.5854,-2.8659,-24.95,22.94,8.90,2,S02
21160,-9.34936,1.75734,1.00317,0.9756,3.4146,-2.2561,-24.95,22.94,8.90,2,S02
21180,-10.15860,3.38301,-0.08619,-12.3780,8.1707,3.2317,-24.95,22.94,8.90,2,S02
21200,-11.67892,2.01113,2.14999,-11.6463,12.3780,12.9268,-25.50,22.39,8.72,2,S02
21220,-11.83693,-0.79009,4.07254,14.0244,-2.7439,25.6098,-25.50,22.39,8.72,2,S02
21240,-10.91995,-3.28006,3.98635,33.2927,-22.1951,32.2561,-25.50,22.39,8.72,2,S02
21260,-13.16093,-2.09972,2.16915,50.1829,-25.5488,29.4512,-25.50,22.39,8.72,2,S02
21280,-13.42668,0.32322,0.10056,66.2805,-11.0976,40.1829,-27.34,20.92,6.97,2,S02
21300,-10.38126,1.02232,-0.63446,68.7195,2.9878,56.6463,-27.34,20.92,6.97,2,S02
21320,-7.37654,0.51715,-1.24977,64.5122,3.5976,53.2927,-27.34,20.92,6.97,2,S02
21340,-6.40210,-0.04310,-2.56180,68.4146,4.4512,32.0732,-28.90,19.45,4.13,2,S02
21360,-8.11395,0.92656,-2.85628,63.4146,12.5610,10.4268,-28.90,19.45,4.13,2,S02
21380,-10.30704,1.94888,-1.81002,40.4878,15.8537,0.9146,-28.90,19.45,4.13,2,S02
21400,-11.46823,1.89381,-0.56982,12.1341,7.3171,-0.4878,-28.90,19.63,3.85,2,S02
21420,-11.14261,0.70150,0.35674,-9.9390,-4.2073,-0.6707,-28.90,19.63,3.85,2,S02
21440,-10.69011,-0.53630,0.88107,-19.0244,-14.2683,-5.7317,-28.90,19.63,3.85,2,S02
21460,-9.90960,-1.03669,0.90261,-19.6341,-24.6951,-12.7439,-28.90,19.63,3.85,2,S02
21480,-9.04051,-0.91459,0.62728,-19.0854,-30.1220,-18.9024,-28.44,20.00,5.41,2,S02
21500,-8.56645,-0.36871,0.65601,-19.9390,-25.9756,-23.1707,-28.44,20.00,5.41,2,S02
21520,-8.52336,-0.14126,0.79487,-18.5366,-18.3537,-25.3049,-28.44,20.00,5.41,2,S02
21540,-8.56885,-0.29449,1.22823,-13.4146,-12.2561,-26.1585,-27.71,20.83,5.87,2,S02
21560,-8.68138,-0.26815,1.64721,-9.6951,-10.7927,-25.4878,-27.71,20.83,5.87,2,S02
21580,-8.78911,0.07901,1.68791,-10.2439,-13.4756,-22.8659,-27.71,20.83,5.87,2,S02
21600,-8.79390,0.43814,1.44370,-10.9146,-16.7683,-19.4512,-27.06,21.38,6.24,2,S02
21620,-8.75560,0.38307,1.45089,-10.0000,-15.6707,-16.4024,-27.06,21.38,6.24,2,S02
21640,-8.70771,-0.07183,1.62566,-7.6220,-10.3049,-15.3049,-27.06,21.38,6.24,2,S02
21660,-8.69095,-0.46208,1.95127,-4.6341,-5.2439,-15.4268,-27.06,21.38,6.24,2,S02
21680,-8.58561,-0.52194,2.12366,-0.1829,-3.6585,-15.2439,-26.79,22.11,6.24,2,S02
21700,-8.46350,-0.34955,2.17154,4.1463,-3.6585,-14.8780,-26.79,22.11,6.24,2,S02
21720,-8.44914,-0.08859,2.24816,6.8902,-1.3415,-14.8780,-26.79,22.11,6.24,2,S02
21740,-8.48984,0.15323,2.30801,6.8902,1.7683,-13.1707,-26.51,22.39,5.50,2,S02
21760,-8.51139,0.28252,2.41814,4.3902,4.5122,-10.0610,-26.51,22.39,5.50,2,S02
21780,-8.62631,0.18914,2.63123,1.7683,7.4390,-7.1341,-26.51,22.39,5.50,2,S02
21800,-8.75081,0.15323,2.80600,-1.5854,8.5366,-4.5122,-26.51,22.57,5.32,2,S02
21820,-8.87531,-0.17957,2.77009,-5.3659,7.5610,-1.7073,-26.51,22.57,5.32,2,S02
21840,-9.08360,-0.66798,2.62165,-5.0610,6.2805,0.4268,-26.51,22.57,5.32,2,S02
21860,-9.07163,-1.27850,2.07338,-4.0244,4.8780,2.8659,-26.51,22.57,5.32,2,S02
21880,-9.66300,-1.39821,2.35350,0.6707,4.2073,2.9268,-26.61,22.48,4.95,2,S02
21900,-10.30943,0.29688,3.35428,-4.8171,-5.7927,-1.7073,-26.61,22.48,4.95,2,S02
21920,-9.88326,2.49955,3.43329,-22.3780,-19.6341,-4.3293,-26.61,22.48,4.95,2,S02
21940,-8.77954,3.49314,3.22020,-44.0244,-22.8049,-0.4878,-26.61,22.11,7.43,2,S02
21960,-8.70053,1.91776,3.31118,-62.6220,-14.6341,5.2439,-26.61,22.11,7.43,2,S02
21980,-14.06833,-3.62003,1.86508,-67.6220,-1.0976,-3.7195,-26.61,22.11,7.43,2,S02
22000,-13.28542,-3.90973,0.34237,-48.0488,-7.0732,-23.4146,-25.87,22.66,9.17,2,S02
22020,-10.64941,-2.80361,-0.69192,-29.2073,-16.4634,-32.7439,-25.87,22.66,9.17,2,S02
22040,-8.79869,-1.69031,-1.21865,-24.6341,-14.8780,-27.8659,-25.87,22.66,9.17,2,S02
22060,-8.56645,-1.08457,-0.75178,-30.3659,-9.5122,-16.4634,-25.87,22.66,9.17,2,S02
22080,-9.36851,-1.21865,-0.04549,-27.9878,-5.5488,-2.5610,-25.41,23.12,9.82,2,S02
22100,-9.67258,-1.91057,0.53630,-12.3171,0.8537,10.6707,-25.41,23.12,9.82,2,S02
22120,-9.70609,-2.55222,0.94092,7.9268,4.7561,17.0732,-25.41,23.12,9.82,2,S02
22140,-9.53610,-2.44927,0.63207,27.6829,0.0610,16.9512,-26.42,22.39,8.62,2,S02
22160,-9.06205,-1.52511,0.27054,41.1585,-1.5854,15.6098,-26.42,22.39,8.62,2,S02
22180,-9.05727,-0.28252,0.25379,46.5854,2.9878,13.5976,-26.42,22.39,8.62,2,S02
22200,-9.17937,0.91459,0.14126,46.2195,4.3293,12.6829,-27.16,21.93,6.51,2,S02
22220,-9.40682,1.39582,0.24660,42.0732,3.4146,14.5122,-27.16,21.93,6.51,2,S02
22240,-9.08600,1.15161,0.45969,36.1585,1.2805,17.6829,-27.16,21.93,6.51,2,S02
22260,-8.55688,0.67516,0.77093,29.7561,0.8537,19.0244,-27.16,21.93,6.51,2,S02
22280,-8.41083,0.38307,1.14443,25.4878,3.4756,16.4024,-27.98,21.38,5.41,2,S02
22300,-8.50181,0.40701,1.40540,23.3537,6.5854,12.1951,-27.98,21.38,5.41,2,S02
22320,-8.71729,0.48842,1.68312,22.1341,9.6341,8.9024,-27.98,21.38,5.41,2,S02
22340,-8.72447,0.41420,1.71664,22.0122,11.1585,7.0732,-28.26,21.38,4.13,2,S02
22360,-8.73644,0.34237,1.71185,22.1341,13.4756,5.0610,-28.26,21.38,4.13,2,S02
22380,-8.93995,0.41659,1.74298,21.3415,15.4268,2.4390,-28.26,21.38,4.13,2,S02
22400,-8.94713,0.51236,1.75734,19.7561,16.0976,0.9146,-28.26,21.47,2.75,2,S02
22420,-8.76038,0.53391,1.85311,17.1341,16.0366,0.2439,-28.26,21.47,2.75,2,S02
22440,-8.65983,0.48123,2.03268,14.3293,15.4878,-0.2439,-28.26,21.47,2.75,2,S02
22460,-8.85376,0.44293,2.35111,12.7439,14.2683,-1.2195,-28.26,21.47,2.75,2,S02
22480,-9.02614,0.46448,2.66954,13.5366,11.3415,-2.3780,-28.17,21.56,1.74,2,S02
22500,-8.91122,0.35674,2.71024,17.2561,6.0366,-2.9878,-28.17,21.56,1.74,2,S02
22520,-8.71011,0.31364,2.20267,22.6220,1.7683,-5.1220,-28.17,21.56,1.74,2,S02
22540,-8.91122,1.50595,0.77812,21.2805,1.5244,-6.7073,-28.07,21.74,0.73,2,S02
22560,-9.66779,2.47560,0.60813,4.6341,6.5854,-2.4390,-28.07,21.74,0.73,2,S02
22580,-11.00615,1.44131,2.90177,0.9756,8.5366,7.6220,-28.07,21.74,0.73,2,S02
22600,-11.34612,-0.41899,4.60166,22.0732,-2.4390,21.2805,-28.62,20.83,-0.09,2,S02
22620,-9.44991,-2.21703,4.61841,45.3659,-11.9512,29.9390,-28.62,20.83,-0.09,2,S02
22640,-9.90002,-1.99916,3.40695,63.2317,-12.5610,21.9512,-28.62,20.83,-0.09,2,S02
22660,-13.16811,0.23942,1.06542,76.3415,-8.2317,12.4390,-28.62,20.83,-0.09,2,S02
22680,-13.20402,1.60412,-0.40223,83.5976,8.5976,22.7439,-28.72,20.09,-3.58,2,S02
22700,-11.05164,1.28329,-1.05345,84.3902,23.4146,33.4756,-28.72,20.09,-3.58,2,S02
22720,-9.16740,0.25618,-1.86029,83.1707,25.6707,30.4878,-28.72,20.09,-3.58,2,S02
22740,-7.78594,-0.43335,-3.05500,86.7683,22.7439,20.8537,-28.44,18.90,-7.71,2,S02
22760,-7.92241,0.03112,-2.96402,85.7317,19.0244,10.5488,-28.44,18.90,-7.71,2,S02
22780,-9.29669,1.13006,-1.82438,71.4634,6.8293,5.0000,-28.44,18.90,-7.71,2,S02
22800,-10.24479,1.80044,-1.19950,50.5488,-11.0366,3.7195,-27.98,19.17,-8.90,2,S02
22820,-10.45548,1.65679,-0.88346,32.9268,-17.3171,1.8293,-27.98,19.17,-8.90,2,S02
22840,-10.41957,1.26414,-0.45250,20.1220,-17.8049,-5.4878,-27.98,19.17,-8.90,2,S02
22860,-9.92876,1.00078,-0.26815,8.7805,-23.9024,-13.9634,-27.98,19.17,-8.90,2,S02
22880,-9.21768,0.87388,-0.21787,-2.6220,-29.2073,-17.2561,-27.52,20.18,-8.35,2,S02
22900,-8.86573,0.87388,-0.02634,-10.8537,-28.4146,-18.9634,-27.52,20.18,-8.35,2,S02
22920,-8.72447,0.66080,0.17238,-14.0244,-25.4878,-20.3659,-27.52,20.18,-8.35,2,S02
22940,-8.68138,0.47166,0.49081,-14.8171,-22.7439,-22.8659,-26.88,21.01,-7.43,2,S02
22960,-8.60476,0.42856,0.74699,-17.8659,-21.7073,-25.3049,-26.88,21.01,-7.43,2,S02
22980,-8.46590,0.37110,0.89783,-20.7927,-18.9634,-25.6098,-26.88,21.01,-7.43,2,S02
23000,-8.40844,0.25139,1.12767,-20.6098,-13.6585,-22.9268,-26.42,22.11,-6.79,2,S02
23020,-8.47547,0.05267,1.37427,-18.2317,-7.6220,-18.2927,-26.42,22.11,-6.79,2,S02
23040,-8.73884,0.05746,1.49159,-16.7073,-3.5366,-14.8780,-26.42,22.11,-6.79,2,S02
23060,-8.85855,0.20830,1.60651,-17.2561,-1.0976,-12.4390,-26.42,22.11,-6.79,2,S02
23080,-8.78433,0.38786,1.69270,-17.5610,0.6707,-10.7927,-26.33,22.29,-6.51,2,S02
23100,-8.69813,0.42138,1.87466,-16.9512,2.5610,-9.1463,-26.33,22.29,-6.51,2,S02
23120,-8.67659,0.39744,2.09253,-16.5854,4.1463,-7.7439,-26.33,22.29,-6.51,2,S02
23140,-8.52336,0.40462,2.14281,-17.5000,5.8537,-6.5854,-26.24,22.57,-6.61,2,S02
23160,-8.40604,0.33279,2.18351,-18.9634,9.2683,-5.0610,-26.24,22.57,-6.61,2,S02
23180,-8.66222,0.25139,2.34871,-20.6098,12.4390,-2.7439,-26.24,22.57,-6.61,2,S02
23200,-8.99502,0.21787,2.41096,-23.2927,12.0732,2.1341,-26.61,21.93,-6.15,2,S02
23220,-9.18416,0.05267,2.40857,-25.1829,11.3415,8.5976,-26.61,21.93,-6.15,2,S02
23240,-9.39485,-0.40223,2.19788,-21.2805,12.6829,11.1585,-26.61,21.93,-6.15,2,S02
23260,-9.70849,-1.20428,1.82917,-12.4390,13.1098,6.7683,-26.61,21.93,-6.15,2,S02
23280,-10.41238,1.27132,3.20344,-13.9024,-9.1463,-15.6098,-26.51,22.02,-6.42,2,S02
23300,-9.55765,2.83234,2.83952,-33.0488,-20.6098,-20.6707,-26.51,22.02,-6.42,2,S02
23320,-9.58878,2.14999,2.55222,-50.0000,-18.4146,-19.6951,-26.51,22.02,-6.42,2,S02
23340,-11.59512,0.20590,1.93930,-61.0366,-13.5976,-17.9268,-26.42,22.94,-4.22,2,S02
23360,-13.35007,-2.16915,1.00078,-63.8415,-11.6463,-19.2683,-26.42,22.94,-4.22,2,S02
23380,-12.89756,-2.95444,0.07901,-53.6585,-12.9268,-29.0244,-26.42,22.94,-4.22,2,S02
23400,-10.72842,-2.10211,-0.90501,-40.8537,-19.3293,-35.3659,-25.78,24.22,-2.57,2,S02
23420,-8.78193,-0.56982,-1.51792,-42.1951,-24.5122,-34.0244,-25.78,24.22,-2.57,2,S02
23440,-8.26239,-0.05267,-1.46765,-51.0976,-22.5000,-26.0366,-25.78,24.22,-2.57,2,S02
23460,-9.19613,-0.58897,-0.75657,-55.9146,-19.4512,-12.9268,-25.78,24.22,-2.57,2,S02
23480,-9.72046,-1.89381,0.00239,-47.6220,-16.4634,1.2805,-25.78,24.59,-0.83,2,S02
23500,-10.02213,-2.90896,0.59376,-25.3049,-10.8537,10.1829,-25.78,24.59,-0.83,2,S02
23520,-10.12508,-2.73657,0.51475,-0.6098,-8.9634,13.6585,-25.78,24.59,-0.83,2,S02
23540,-9.84256,-1.33357,0.09577,15.3659,-7.8659,17.0122,-26.33,24.04,-1.47,2,S02
23560,-9.49780,-0.01676,-0.02155,21.9512,-4.2073,20.7927,-26.33,24.04,-1.47,2,S02
23580,-9.04529,0.60813,-0.03112,23.1098,-3.5976,22.8659,-26.33,24.04,-1.47,2,S02
23600,-8.68856,0.54348,0.13647,22.3780,-3.1707,22.5610,-26.88,23.30,-2.48,2,S02
23620,-8.46590,0.24660,0.57940,19.6951,-0.4268,21.0976,-26.88,23.30,-2.48,2,S02
23640,-8.35816,-0.03112,1.02951,16.3415,2.6220,19.4512,-26.88,23.30,-2.48,2,S02
23660,-8.40365,-0.07422,1.22823,14.4512,5.7317,17.5000,-26.88,23.30,-2.48,2,S02
23680,-8.57364,0.13408,1.30484,13.5976,8.6585,15.0000,-27.34,22.84,-3.39,2,S02
23700,-8.69574,0.29209,1.43892,12.8049,10.3659,12.3780,-27.34,22.84,-3.39,2,S02
23720,-8.84418,0.32561,1.59214,12.8049,10.6707,9.5732,-27.34,22.84,-3.39,2,S02
23740,-8.85855,0.18914,1.64242,14.5122,10.5488,7.0732,-27.34,22.57,-4.31,2,S02
23760,-8.89207,0.00958,1.78129,16.5854,11.1585,4.5732,-27.34,22.57,-4.31,2,S02
23780,-8.84897,-0.10774,1.93930,18.5366,11.6463,2.4390,-27.34,22.57,-4.31,2,S02
23800,-8.64546,-0.15083,2.01113,20.7317,12.2561,0.6707,-26.97,22.57,-5.87,2,S02
23820,-8.53294,-0.07661,2.07817,22.9268,13.1707,-1.0976,-26.97,22.57,-5.87,2,S02
23840,-8.58321,0.06225,2.02310,25.5488,12.4390,-3.5976,-26.97,22.57,-5.87,2,S02
23860,-9.15543,0.29209,2.15239,27.7439,11.5244,-6.2805,-26.97,22.57,-5.87,2,S02
23880,-9.16500,0.58658,1.96803,29.7561,8.5366,-6.8293,-26.42,22.75,-7.52,2,S02
23900,-9.18655,1.40300,0.99120,27.1951,4.4512,-6.2805,-26.42,22.75,-7.52,2,S02
23920,-9.87369,2.35350,0.35913,18.1098,5.4268,-2.9878,-26.42,22.75,-7.52,2,S02
23940,-10.93192,2.03747,1.33357,11.2805,4.7561,5.0610,-26.33,22.48,-8.35,2,S02
23960,-11.06600,0.35434,3.08134,20.7317,-5.1829,16.4634,-26.33,22.48,-8.35,2,S02
23980,-9.62708,-1.55384,3.96719,38.1098,-17.9268,24.0244,-26.33,22.48,-8.35,2,S02
24000,-8.71250,-2.51631,4.00550,56.4634,-20.6098,19.8780,-25.96,22.11,-10.28,2,S02
24020,-11.18571,-1.95846,2.86825,77.0732,-15.3659,10.6098,-25.96,22.11,-10.28,2,S02
24040,-13.92707,0.75657,0.76614,90.8537,-6.0976,16.8902,-25.96,22.11,-10.28,2,S02
24060,-11.92073,1.34315,-0.17717,88.1098,11.5854,42.0732,-25.96,22.11,-10.28,2,S02
24080,-9.34457,0.87628,-0.89304,76.9512,15.1829,49.6341,-25.60,20.00,-13.94,2,S02
24100,-7.87692,0.36152,-2.66954,74.2683,12.7439,33.1098,-25.60,20.00,-13.94,2,S02
24120,-7.87692,0.46687,-3.75171,74.5122,18.5976,8.3537,-25.60,20.00,-13.94,2,S02
24140,-9.09318,0.55306,-2.67672,68.9024,22.3171,-7.2561,-23.67,20.18,-16.79,2,S02
24160,-9.99819,0.21787,-0.88825,58.5976,14.0854,-10.1220,-23.67,20.18,-16.79,2,S02
24180,-10.42675,-0.31843,0.03352,51.0366,0.6707,-8.0488,-23.67,20.18,-16.79,2,S02
24200,-10.45308,-0.67038,0.41180,48.4756,-4.3293,-9.0854,-22.20,20.83,-17.98,2,S02
24220,-10.29028,-0.29209,0.30885,44.8780,-9.9390,-14.8171,-22.20,20.83,-17.98,2,S02
24240,-9.45231,0.52672,-0.10774,38.4146,-14.9390,-20.9146,-22.20,20.83,-17.98,2,S02
24260,-8.80827,0.91459,-0.04788,33.1098,-12.8659,-25.3049,-22.20,20.83,-17.98,2,S02
24280,-8.68616,0.66798,0.17478,32.1341,-7.9268,-28.4146,-20.28,21.93,-18.99,2,S02
24300,-8.86333,0.29928,0.33519,31.2805,-4.5732,-30.3049,-20.28,21.93,-18.99,2,S02
24320,-9.00938,0.13886,0.49081,26.9512,-1.2195,-31.5854,-20.28,21.93,-18.99,2,S02
24340,-8.96868,0.05028,0.61052,21.2805,2.5000,-32.6220,-18.35,22.57,-19.82,2,S02
24360,-8.94234,-0.03591,0.68235,17.0122,5.3049,-33.2927,-18.35,22.57,-19.82,2,S02
24380,-8.93037,-0.15562,0.71108,14.2683,5.1220,-31.7683,-18.35,22.57,-19.82,2,S02
24400,-8.93516,-0.28970,0.86431,12.3780,4.3293,-28.8415,-16.97,23.12,-20.55,2,S02
24420,-8.92080,-0.47645,0.96965,10.5488,3.8415,-25.9146,-16.97,23.12,-20.55,2,S02
24440,-8.89207,-0.61770,1.07260,9.7561,4.2073,-23.7195,-16.97,23.12,-20.55,2,S02
24460,-8.80587,-0.68235,1.24498,9.6341,5.4878,-21.6463,-16.97,23.12,-20.55,2,S02
24480,-8.69095,-0.73263,1.37667,9.9390,7.8659,-19.6341,-15.96,23.21,-21.19,2,S02
24500,-8.54491,-0.73263,1.51074,10.2439,11.2195,-17.1341,-15.96,23.21,-21.19,2,S02
24520,-8.45632,-0.65601,1.62806,9.3293,14.0854,-13.4146,-15.96,23.21,-21.19,2,S02
24540,-8.81784,-0.48602,1.86987,5.6098,15.3659,-8.7195,-15.60,22.84,-22.11,2,S02
24560,-9.46907,-0.33279,2.12845,-0.4878,13.5366,-3.5366,-15.60,22.84,-22.11,2,S02
24580,-9.83778,-0.41659,2.61447,-16.3415,0.1829,5.7317,-15.60,22.84,-22.11,2,S02
24600,-9.68215,-0.64643,2.33914,-22.4390,-6.3415,4.8780,-16.33,22.84,-21.47,2,S02
24620,-9.65582,-1.20907,2.33435,-24.3293,-9.8780,0.7317,-16.33,22.84,-21.47,2,S02
24640,-10.19930,-0.97205,3.18429,-27.0732,-14.6341,-5.9146,-16.33,22.84,-21.47,2,S02
24660,-10.14663,0.03591,3.47878,-35.3049,-25.6098,-10.6707,-16.33,22.84,-21.47,2,S02
24680,-9.96946,-0.10056,2.50912,-44.8171,-32.5000,-9.4512,-16.97,23.85,-20.09,2,S02
24700,-11.84651,-1.40540,0.67516,-48.6585,-29.0854,-6.5244,-16.97,23.85,-20.09,2,S02
24720,-13.58949,-2.43969,-1.02711,-47.2561,-21.2805,-10.0610,-16.97,23.85,-20.09,2,S02
24740,-12.75391,-1.41497,-1.76213,-43.4756,-20.3049,-21.8293,-17.43,25.05,-18.72,2,S02
24760,-11.53766,0.19872,-1.57538,-39.4512,-33.7805,-32.2561,-17.43,25.05,-18.72,2,S02
24780,-10.58955,0.90501,-1.40300,-38.7195,-46.5854,-29.6951,-17.43,25.05,-18.72,2,S02
24800,-9.80665,0.25379,-1.14443,-38.5366,-43.6585,-16.0976,-17.43,26.88,-16.61,2,S02
24820,-9.68933,-0.97683,-0.35913,-33.9024,-29.6951,1.5854,-17.43,26.88,-16.61,2,S02
24840,-9.27035,-1.95606,0.13408,-20.3659,-15.5488,17.3171,-17.43,26.88,-16.61,2,S02
24860,-8.87770,-2.04944,0.34716,-2.3780,-4.1463,25.1220,-17.43,26.88,-16.61,2,S02
24880,-8.48026,-1.34554,0.00000,12.2561,0.3049,26.4634,-18.17,26.15,-16.97,2,S02
24900,-8.24563,-0.40941,-0.43335,20.6098,2.3171,27.3780,-18.17,26.15,-16.97,2,S02
24920,-8.30309,0.16520,-0.48363,23.0488,3.3537,27.7439,-18.17,26.15,-16.97,2,S02
24940,-8.40844,0.23703,-0.34716,23.5366,2.8049,25.9146,-18.17,25.50,-17.61,2,S02
24960,-8.70292,0.29928,-0.32082,23.3537,0.8537,22.8659,-18.17,25.50,-17.61,2,S02
24980,-9.10515,0.53391,-0.22505,19.7561,-1.8293,20.9756,-18.17,25.50,-17.61,2,S02
25000,-9.22486,0.72544,-0.04788,14.0244,-4.9390,20.8537,-18.35,25.32,-17.80,2,S02
25020,-9.05008,0.84276,0.26815,7.5000,-8.4146,20.3049,-18.35,25.32,-17.80,2,S02
25040,-8.91122,0.69671,0.58179,1.4024,-12.3171,18.5366,-18.35,25.32,-17.80,2,S02
25060,-8.79630,0.44772,0.89304,-1.6463,-13.1098,16.6463,-18.35,25.32,-17.80,2,S02
25080,-8.67659,0.22505,1.09654,-2.5000,-9.8780,15.2439,-18.90,25.41,-17.34,2,S02
25100,-8.78672,0.09098,1.27372,-1.8293,-4.0244,14.0854,-18.90,25.41,-17.34,2,S02
25120,-8.92558,0.11013,1.49398,0.8537,0.7317,12.3780,-18.90,25.41,-17.34,2,S02
25140,-8.84658,0.29449,1.64003,4.0244,2.1951,9.3902,-18.90,25.14,-17.71,2,S02
25160,-8.54969,0.52672,1.77650,6.0366,2.9268,5.9756,-18.90,25.14,-17.71,2,S02
25180,-8.38928,0.76854,1.84593,6.6463,4.2683,3.2317,-18.90,25.14,-17.71,2,S02
25200,-8.57603,0.90022,2.00155,6.0366,6.2805,0.4878,-18.53,24.95,-18.17,2,S02
25220,-8.76996,1.20907,1.75495,4.4512,6.8902,-2.4390,-18.53,24.95,-18.17,2,S02
25240,-8.97347,2.47321,0.32561,-6.4024,6.7683,-3.4756,-18.53,24.95,-18.17,2,S02
25260,-9.65821,3.11246,0.39025,-26.8293,10.0610,-1.2805,-18.53,24.95,-18.17,2,S02
25280,-10.57040,1.81480,2.22661,-29.3902,6.7073,3.0488,-19.08,24.86,-17.89,2,S02
25300,-10.50097,-0.88107,3.88579,-8.0488,-3.0488,8.5366,-19.08,24.86,-17.89,2,S02
25320,-9.62469,-3.21781,4.55617,18.1707,-7.7439,10.7317,-19.08,24.86,-17.89,2,S02
25340,-8.48505,-3.26809,4.46519,39.2683,-7.8659,7.3780,-17.89,24.95,-18.81,2,S02
25360,-8.98065,-1.35512,3.45004,55.0000,-8.2317,-1.0366,-17.89,24.95,-18.81,2,S02
25380,-12.51928,1.22823,1.69031,60.9756,-10.4878,-4.5122,-17.89,24.95,-18.81,2,S02
25400,-14.37000,3.29921,-0.16041,66.0976,0.4878,13.0488,-16.61,24.22,-20.64,2,S02
25420,-12.02608,2.82037,-1.57299,57.0122,17.9268,39.6951,-16.61,24.22,-20.64,2,S02
25440,-9.34218,1.23541,-2.06859,34.0244,18.2317,45.4268,-16.61,24.22,-20.64,2,S02
25460,-7.88889,-0.27533,-2.45406,26.3415,11.6463,31.7683,-16.61,24.22,-20.64,2,S02
25480,-8.89207,0.01676,-2.18830,27.5610,6.3415,13.2317,-16.51,23.39,-21.47,2,S02
25500,-10.24958,1.13246,-1.28808,21.1585,0.6098,2.3780,-16.51,23.39,-21.47,2,S02
25520,-10.42675,1.61369,-0.94810,7.1341,-5.6098,-0.0610,-16.51,23.39,-21.47,2,S02
25540,-10.10114,1.45328,-0.45969,-8.9024,-7.5000,-3.1707,-16.61,23.76,-20.83,2,S02
25560,-9.91678,0.75178,0.16281,-17.2561,-12.9268,-10.5488,-16.61,23.76,-20.83,2,S02
25580,-9.51456,-0.02634,0.36152,-18.9634,-20.6707,-16.9512,-16.61,23.76,-20.83,2,S02
25600,-9.03332,-0.19632,0.28970,-20.6098,-21.4024,-20.1829,-15.96,24.86,-19.82,2,S02
25620,-8.61434,0.08859,0.31364,-24.0244,-16.6463,-22.1951,-15.96,24.86,-19.82,2,S02
25640,-8.54012,0.37110,0.68474,-26.5244,-11.9512,-23.5366,-15.96,24.86,-19.82,2,S02
25660,-8.61194,0.36152,0.87388,-25.6707,-9.3293,-23.9634,-15.96,24.86,-19.82,2,S02
25680,-8.72208,0.16520,0.99838,-23.3537,-6.7073,-23.6585,-15.60,25.60,-19.27,2,S02
25700,-8.80348,-0.07183,1.16837,-21.7683,-5.0000,-20.8537,-15.60,25.60,-19.27,2,S02
25720,-8.80827,-0.24660,1.46046,-20.0610,-2.9878,-16.7073,-15.60,25.60,-19.27,2,S02
25740,-8.76278,-0.28252,1.62806,-17.6220,-2.3780,-12.4390,-15.32,25.69,-18.99,2,S02
25760,-8.66701,-0.21548,1.65200,-14.3902,-2.3780,-9.0854,-15.32,25.69,-18.99,2,S02
25780,-8.61673,-0.14126,1.68791,-11.3415,-1.2195,-7.0732,-15.32,25.69,-18.99,2,S02
25800,-8.70053,0.00479,1.88184,-9.5122,0.3659,-5.9756,-15.23,25.78,-18.99,2,S02
25820,-8.70771,0.12210,2.14520,-8.9024,1.3415,-4.6951,-15.23,25.78,-18.99,2,S02
25840,-8.44674,0.09337,2.31519,-8.1098,1.9512,-3.1098,-15.23,25.78,-18.99,2,S02
25860,-8.20014,-0.02634,2.33195,-6.8902,3.7195,-2.3780,-15.23,25.78,-18.99,2,S02
25880,-8.82742,-0.21069,2.62405,-6.6463,8.2927,0.0610,-15.23,25.50,-19.17,2,S02
25900,-9.22725,-0.08619,2.65996,-8.7805,6.8293,4.6341,-15.23,25.50,-19.17,2,S02
25920,-9.47146,-0.06225,2.38223,-11.2805,5.4268,7.5000,-15.23,25.50,-19.17,2,S02
25940,-9.72046,-0.59137,2.14999,-10.0610,4.2683,3.7805,-15.60,25.32,-18.99,2,S02
25960,-10.17536,-0.56264,2.54025,-5.5488,0.2439,-6.8293,-15.60,25.32,-18.99,2,S02
25980,-10.03170,0.33758,3.24893,-10.4878,-11.5854,-18.2927,-15.60,25.32,-18.99,2,S02
26000,-9.11951,1.06303,3.46202,-23.3537,-23.1707,-22.1341,-14.95,26.24,-17.89,2,S02
26020,-8.89685,0.67277,3.22020,-34.2073,-23.7195,-18.7805,-14.95,26.24,-17.89,2,S02
26040,-10.98939,-0.29209,2.64799,-39.5122,-16.3415,-14.8171,-14.95,26.24,-17.89,2,S02
26060,-13.00052,-1.64242,1.13725,-37.0732,-10.1220,-14.9390,-14.95,26.24,-17.89,2,S02
26080,-13.05798,-1.51792,-0.09816,-28.2927,-4.3902,-24.0244,-15.23,26.79,-16.88,2,S02
26100,-11.41077,-0.11732,-0.72784,-24.9390,-9.3293,-32.4390,-15.23,26.79,-16.88,2,S02
26120,-9.95509,1.16358,-1.19710,-35.3049,-19.2073,-28.0488,-15.23,26.79,-16.88,2,S02
26140,-9.92157,0.68235,-0.99599,-46.8902,-19.4512,-14.5122,-15.14,27.61,-15.50,2,S02
26160,-10.35253,-1.01514,0.04788,-45.9756,-10.3659,1.0366,-15.14,27.61,-15.50,2,S02
26180,-10.54646,-2.00155,0.83318,-32.6220,-2.0732,12.6829,-15.14,27.61,-15.50,2,S02
26200,-10.11311,-1.68312,0.94332,-16.0976,2.6220,19.0854,-16.24,27.06,-15.50,2,S02
26220,-9.23444,-0.78051,0.30885,-3.7805,2.7439,21.9512,-16.24,27.06,-15.50,2,S02
26240,-8.21211,-0.07183,-0.32561,1.2805,6.4024,24.6341,-16.24,27.06,-15.50,2,S02
26260,-7.65426,0.22027,-0.63207,-0.0610,13.5366,24.7561,-16.24,27.06,-15.50,2,S02
26280,-7.78834,0.33279,-0.66319,-4.0244,18.0488,22.5610,-16.97,26.24,-16.33,2,S02
26300,-8.35098,0.37110,-0.38307,-8.2927,19.0244,19.7561,-16.97,26.24,-16.33,2,S02
26320,-8.95192,0.57940,0.01437,-12.8049,16.8902,17.9268,-16.97,26.24,-16.33,2,S02
26340,-9.07402,0.81403,0.17238,-18.1707,12.8049,17.0122,-17.71,25.32,-16.33,2,S02
26360,-9.12191,1.00796,0.25139,-23.8415,10.1220,15.9756,-17.71,25.32,-16.33,2,S02
26380,-9.18176,0.88825,0.49081,-28.4756,7.7439,15.2439,-17.71,25.32,-16.33,2,S02
26400,-9.10754,0.71347,0.75417,-31.7683,5.5488,14.8171,-18.81,24.77,-15.60,2,S02
26420,-9.07881,0.64883,1.01993,-34.3293,5.0000,14.3293,-18.81,24.77,-15.60,2,S02
26440,-8.96150,0.54588,1.11570,-33.9024,6.6463,14.2683,-18.81,24.77,-15.60,2,S02
26460,-8.84179,0.40701,1.14682,-30.7317,9.4512,13.2317,-18.81,24.77,-15.60,2,S02
26480,-8.85136,0.37589,1.42455,-27.9878,11.4634,10.1829,-19.63,24.31,-15.32,2,S02
26500,-8.80827,0.36631,1.81720,-25.4878,11.3415,6.4634,-19.63,24.31,-15.32,2,S02
26520,-8.72447,0.39025,2.17154,-20.9756,9.4512,3.2317,-19.63,24.31,-15.32,2,S02
26540,-8.65504,0.44772,2.36308,-14.5122,6.5244,0.8537,-19.72,24.22,-15.32,2,S02
26560,-8.47308,0.48602,2.49236,-7.8659,2.8049,-1.1585,-19.72,24.22,-15.32,2,S02
26580,-8.44914,0.70629,1.99198,-1.4634,-0.3049,-4.5122,-19.72,24.22,-15.32,2,S02
26600,-8.71489,2.45166,-0.02155,-7.3171,-0.1220,-8.0488,-19.36,24.40,-15.05,2,S02
26620,-9.82102,3.45483,0.03112,-31.1585,5.9756,-6.9512,-19.36,24.40,-15.05,2,S02
26640,-11.43710,1.88903,2.74854,-31.4024,6.1585,1.2195,-19.36,24.40,-15.05,2,S02
26660,-11.36767,-0.99599,4.35505,-1.1585,-5.2439,14.8171,-19.36,24.40,-15.05,2,S02
26680,-9.75158,-3.08852,4.35266,27.2561,-12.7439,21.0366,-19.45,24.04,-15.32,2,S02
26700,-11.04685,-2.22421,2.94726,43.5976,-16.4634,13.8415,-19.45,24.04,-15.32,2,S02
26720,-14.02284,0.73741,-0.06464,53.4756,-12.7439,13.5366,-19.45,24.04,-15.32,2,S02
26740,-12.39239,2.03268,-1.50116,56.2195,11.8902,35.1829,-18.90,22.75,-17.34,2,S02
26760,-9.44991,1.12049,-1.99676,51.4634,29.5122,49.7561,-18.90,22.75,-17.34,2,S02
26780,-7.40287,-0.32561,-2.75333,46.7073,27.6829,44.8171,-18.90,22.75,-17.34,2,S02
26800,-7.91762,0.13168,-3.59370,42.1951,21.1585,27.8659,-18.62,21.83,-18.72,2,S02
26820,-10.03170,1.57538,-2.74615,24.6951,11.5854,11.7073,-18.62,21.83,-18.72,2,S02
26840,-10.88404,1.88424,-1.51553,3.6585,-2.4390,4.5122,-18.62,21.83,-18.72,2,S02
26860,-10.67096,1.39343,-0.80685,-12.2561,-9.8780,-0.8537,-18.62,21.83,-18.72,2,S02
26880,-10.46984,0.55545,-0.06225,-21.8902,-10.0610,-10.0000,-18.72,22.29,-17.61,2,S02
26900,-9.90960,0.00479,0.09816,-27.1951,-16.5244,-19.1463,-18.72,22.29,-17.61,2,S02
26920,-9.16979,0.02155,-0.02873,-33.1098,-23.1707,-24.7561,-18.72,22.29,-17.61,2,S02
26940,-8.61913,0.12929,0.06704,-40.0610,-23.1098,-25.7927,-18.44,23.58,-15.96,2,S02
26960,-8.42041,0.21308,0.27294,-42.5000,-19.3902,-25.2439,-18.44,23.58,-15.96,2,S02
26980,-8.42041,-0.05028,0.55067,-38.0488,-13.6585,-23.2927,-18.44,23.58,-15.96,2,S02
27000,-8.67659,-0.32082,0.78769,-30.9146,-9.3902,-21.2195,-18.17,24.13,-15.41,2,S02
27020,-8.80109,-0.37350,0.93613,-27.1341,-7.5000,-18.8415,-18.17,24.13,-15.41,2,S02
27040,-8.65025,-0.28252,0.99359,-26.8902,-6.3415,-15.6098,-18.17,24.13,-15.41,2,S02
27060,-8.68377,-0.11492,1.16598,-26.1585,-4.6951,-12.5000,-18.17,24.13,-15.41,2,S02
27080,-8.89685,0.02394,1.30963,-24.4512,-4.0244,-9.2073,-18.17,24.68,-14.95,2,S02
27100,-8.90883,0.10295,1.35991,-23.4146,-3.4756,-6.3415,-18.17,24.68,-14.95,2,S02
27120,-8.86573,0.13647,1.42694,-24.0244,-2.3780,-4.8171,-18.17,24.68,-14.95,2,S02
27140,-8.86812,0.14365,1.48680,-25.4268,-1.2805,-4.0854,-18.44,24.77,-14.31,2,S02
27160,-8.78672,0.16041,1.61369,-26.8293,-0.2439,-3.4756,-18.44,24.77,-14.31,2,S02
27180,-8.66940,0.20830,1.78847,-28.6585,0.6707,-2.3780,-18.44,24.77,-14.31,2,S02
27200,-8.60955,-0.16520,2.14281,-31.5244,3.5366,1.0366,-19.08,24.68,-13.58,2,S02
27220,-8.95910,-0.29449,2.36787,-33.1707,4.2683,4.3902,-19.08,24.68,-13.58,2,S02
27240,-9.43794,-0.16999,2.37984,-36.3415,2.7439,6.8902,-19.08,24.68,-13.58,2,S02
27260,-9.36612,-0.15562,1.83875,-38.7195,0.7317,6.5854,-19.08,24.68,-13.58,2,S02
27280,-9.41400,-0.98881,1.50356,-34.7561,1.0366,3.9634,-20.00,24.59,-12.84,2,S02
27300,-10.09156,-1.22104,2.16436,-23.8415,-1.2805,-2.9268,-20.00,24.59,-12.84,2,S02
27320,-10.40281,0.21787,3.15556,-26.2805,-13.7805,-12.1341,-20.00,24.59,-12.84,2,S02
27340,-9.78031,1.68791,3.14598,-42.5610,-26.7073,-15.4878,-19.82,25.32,-11.47,2,S02
27360,-10.48900,1.79086,2.59531,-59.3902,-27.3780,-12.7439,-19.82,25.32,-11.47,2,S02
27380,-12.71321,0.40462,1.11091,-67.1951,-20.2439,-11.2195,-19.82,25.32,-11.47,2,S02
27400,-12.96700,-0.93134,-0.32082,-64.5122,-9.6341,-17.3780,-20.28,26.15,-9.63,2,S02
27420,-11.21444,-1.12767,-1.30484,-57.3171,-7.2561,-27.4390,-20.28,26.15,-9.63,2,S02
27440,-9.24401,-0.77572,-1.60651,-54.3293,-10.5488,-30.4878,-20.28,26.15,-9.63,2,S02
27460,-8.70771,-0.34716,-1.55384,-60.5488,-13.9634,-26.6463,-20.28,26.15,-9.63,2,S02
27480,-9.23922,-0.46687,-0.87388,-68.1098,-12.0122,-15.7317,-20.09,27.16,-7.61,2,S02
27500,-9.49780,-1.18034,-0.51475,-68.5976,-7.9268,-0.9756,-20.09,27.16,-7.61,2,S02
27520,-9.63427,-2.00155,0.01915,-57.7439,0.4268,11.1585,-20.09,27.16,-7.61,2,S02
27540,-9.60075,-2.50434,0.21308,-35.7317,4.4512,17.3171,-21.47,26.61,-6.88,2,S02
27560,-9.52892,-1.96325,-0.05507,-15.7317,2.1341,20.0610,-21.47,26.61,-6.88,2,S02
27580,-9.70849,-0.66080,0.04310,-7.5000,0.4878,22.0732,-21.47,26.61,-6.88,2,S02
27600,-9.65821,0.59376,0.09577,-6.9512,-1.8902,23.9024,-22.11,26.06,-6.97,2,S02
27620,-9.15303,1.32160,-0.02634,-8.8415,-2.3171,26.7683,-22.11,26.06,-6.97,2,S02
27640,-8.69095,1.37427,0.04549,-12.9268,-0.8537,28.6585,-22.11,26.06,-6.97,2,S02
27660,-8.66462,1.04866,0.29449,-18.7805,1.2195,28.7195,-22.11,26.06,-6.97,2,S02
27680,-8.72447,0.57221,0.67995,-23.5976,4.8171,27.9268,-23.39,25.14,-6.51,2,S02
27700,-8.66222,0.31364,0.83079,-24.7561,7.9878,25.8537,-23.39,25.14,-6.51,2,S02
27720,-8.64786,0.40941,0.91937,-24.2683,11.0366,22.6829,-23.39,25.14,-6.51,2,S02
27740,-8.93995,0.66559,1.19231,-23.9634,12.5000,19.5122,-24.13,24.59,-6.33,2,S02
27760,-9.03572,0.69671,1.26174,-22.6220,11.1585,17.7439,-24.13,24.59,-6.33,2,S02
27780,-8.93037,0.53630,1.27850,-20.4878,10.0610,15.9146,-24.13,24.59,-6.33,2,S02
27800,-8.79151,0.29209,1.49398,-18.5976,9.6341,12.7439,-24.50,24.13,-6.15,2,S02
27820,-8.70532,0.16520,1.71425,-16.4024,8.8415,8.9634,-24.50,24.13,-6.15,2,S02
27840,-8.68138,0.21308,1.96803,-15.0610,8.1707,5.9146,-24.50,24.13,-6.15,2,S02
27860,-8.73644,0.39025,2.23858,-13.7195,6.7073,3.9024,-24.50,24.13,-6.15,2,S02
27880,-8.71250,0.61052,2.30322,-11.1585,3.9024,2.5000,-24.68,24.13,-6.24,2,S02
27900,-8.67659,0.74939,2.35829,-8.2927,1.9512,1.1585,-24.68,24.13,-6.24,2,S02
27920,-8.68138,0.97923,2.21703,-5.3049,0.4878,-0.9756,-24.68,24.13,-6.24,2,S02
27940,-8.91840,1.86748,0.89543,-7.8049,0.3049,-3.1098,-24.59,24.31,-6.15,2,S02
27960,-9.72285,2.79643,0.81163,-22.8049,3.7195,-2.6220,-24.59,24.31,-6.15,2,S02
27980,-10.95347,1.69031,2.91135,-25.7317,0.6707,2.6829,-24.59,24.31,-6.15,2,S02
28000,-11.25275,-0.78769,4.55138,-5.1220,-9.9390,13.6585,-25.14,24.13,-5.87,2,S02
28020,-10.21845,-2.74376,4.57771,17.6829,-16.6463,22.6829,-25.14,24.13,-5.87,2,S02
28040,-10.87925,-1.88424,3.08134,32.6220,-19.3293,22.6220,-25.14,24.13,-5.87,2,S02
28060,-13.03882,1.30723,0.03352,44.4512,-13.1098,25.0000,-25.14,24.13,-5.87,2,S02
28080,-12.35887,2.61207,-1.38864,54.2073,9.2073,43.4146,-25.60,22.75,-7.61,2,S02
28100,-9.48583,1.23301,-2.17394,56.1585,15.1829,58.0488,-25.60,22.75,-7.61,2,S02
28120,-8.51139,0.02873,-2.28167,51.7073,8.7805,50.0000,-25.60,22.75,-7.61,2,S02
28140,-9.59835,0.99599,-2.72221,40.7927,1.2805,31.7073,-26.15,21.65,-8.81,2,S02
28160,-10.59434,2.67911,-2.70305,20.0610,-4.8780,18.4146,-26.15,21.65,-8.81,2,S02
28180,-10.61828,3.39498,-2.30562,-5.4878,-11.3415,8.4756,-26.15,21.65,-8.81,2,S02
28200,-10.48421,2.70066,-1.50116,-31.9512,-16.7683,-2.5610,-26.24,22.29,-6.42,2,S02
28220,-10.21127,1.18992,-0.79487,-50.7927,-24.9390,-12.4390,-26.24,22.29,-6.42,2,S02
28240,-9.63906,-0.28012,-0.23463,-59.2683,-32.6220,-18.4146,-26.24,22.29,-6.42,2,S02
28260,-9.06445,-0.98162,0.15083,-60.0000,-33.1098,-21.5854,-26.24,22.29,-6.42,2,S02
28280,-8.38928,-0.92177,0.31364,-57.5610,-25.2439,-22.7439,-25.96,23.39,-3.76,2,S02
28300,-8.10916,-0.25379,0.62249,-57.1341,-14.9390,-22.3780,-25.96,23.39,-3.76,2,S02
28320,-8.16183,0.29928,0.82361,-55.5488,-8.2317,-20.7317,-25.96,23.39,-3.76,2,S02
28340,-8.41562,0.42377,0.97683,-51.2805,-3.4146,-18.4146,-25.50,24.04,-2.48,2,S02
28360,-8.63828,0.31364,1.01754,-46.9512,0.6098,-15.3049,-25.50,24.04,-2.48,2,S02
28380,-8.65504,0.19632,1.21386,-45.0610,3.4146,-11.0976,-25.50,24.04,-2.48,2,S02
28400,-8.60476,0.15323,1.51074,-45.4268,4.4512,-6.8293,-25.69,24.22,-1.38,2,S02
28420,-8.69574,0.00000,1.87227,-43.4756,5.0610,-3.9024,-25.69,24.22,-1.38,2,S02
28440,-8.79151,-0.17957,2.12845,-37.3171,5.1829,-2.7439,-25.69,24.22,-1.38,2,S02
28460,-8.83460,-0.15323,2.25773,-30.7317,5.9146,-2.8659,-25.69,24.22,-1.38,2,S02
28480,-8.72687,-0.03831,2.33674,-25.7317,7.5000,-3.9024,-25.69,24.50,-1.01,2,S02
28500,-8.80827,0.26336,2.31998,-18.1707,6.4024,-8.1098,-25.69,24.50,-1.01,2,S02
28520,-8.83221,0.42138,2.29604,-16.9512,2.9878,-7.6220,-25.69,24.50,-1.01,2,S02
28540,-8.72926,0.49081,2.39181,-18.1098,0.3659,-4.6951,-25.32,24.68,-0.55,2,S02
28560,-8.86094,0.42377,2.41336,-20.0000,-0.7317,0.4268,-25.32,24.68,-0.55,2,S02
28580,-9.43076,0.32082,2.29125,-20.4268,-2.6220,3.7195,-25.32,24.68,-0.55,2,S02
28600,-9.73243,0.08859,1.79805,-17.5000,-8.2317,0.9146,-25.41,24.68,0.18,2,S02
28620,-9.82580,0.09098,1.74537,-13.2317,-14.6341,-3.9024,-25.41,24.68,0.18,2,S02
28640,-9.91918,1.22823,2.60250,-19.5122,-21.4634,-9.6341,-25.41,24.68,0.18,2,S02
28660,-9.44752,2.73657,2.91374,-35.5488,-27.3171,-12.1951,-25.41,24.68,0.18,2,S02
28680,-9.15782,2.91374,2.56898,-54.0244,-25.3049,-11.1585,-25.05,25.14,2.20,2,S02
28700,-10.78109,1.68552,1.84593,-68.9634,-14.6341,-11.7073,-25.05,25.14,2.20,2,S02
28720,-12.66054,-0.39025,0.43814,-76.0976,-6.8293,-16.0976,-25.05,25.14,2.20,2,S02
28740,-12.35169,-1.87466,-0.58419,-70.3659,-8.3537,-26.0366,-24.04,26.06,4.59,2,S02
28760,-10.31183,-2.06380,-1.50595,-63.0488,-15.1829,-32.8049,-24.04,26.06,4.59,2,S02
28780,-9.11233,-1.37427,-1.00556,-66.4634,-13.7195,-33.1707,-24.04,26.06,4.59,2,S02
28800,-9.57920,-0.94571,-0.30885,-72.0122,-15.0610,-26.2805,-22.84,26.79,6.97,2,S02
28820,-10.43872,-1.09894,0.37589,-74.3902,-17.6829,-10.5488,-22.84,26.79,6.97,2,S02
28840,-10.51055,-1.85072,0.60573,-66.8902,-12.8049,9.0244,-22.84,26.79,6.97,2,S02
28860,-9.93594,-2.67432,0.79009,-47.8659,-2.5000,22.8659,-22.84,26.79,6.97,2,S02
28880,-9.08121,-2.99515,0.30646,-23.1707,-0.1829,26.7073,-23.76,25.78,7.89,2,S02
28900,-8.81545,-2.37265,0.01915,-4.1463,4.1463,26.0366,-23.76,25.78,7.89,2,S02
28920,-9.14825,-0.86431,0.53630,4.1463,11.9512,24.7561,-23.76,25.78,7.89,2,S02
28940,-9.09078,0.41180,0.75657,6.0366,14.5122,24.5732,-24.68,25.32,6.79,2,S02
28960,-8.76757,0.94571,0.81642,5.3049,14.1463,24.7561,-24.68,25.32,6.79,2,S02
28980,-8.54969,0.94092,0.92895,1.7683,12.3171,25.2439,-24.68,25.32,6.79,2,S02
29000,-8.52096,0.47166,1.22583,-4.1463,12.1341,26.1585,-25.60,24.40,6.42,2,S02
29020,-8.44196,-0.23942,1.50116,-9.3293,13.9634,26.4634,-25.60,24.40,6.42,2,S02
29040,-8.57364,-0.53151,1.63285,-11.2195,17.0122,23.5366,-25.60,24.40,6.42,2,S02
29060,-8.66940,-0.50996,1.76453,-10.1220,18.8415,18.9634,-25.60,24.40,6.42,2,S02
29080,-8.70292,-0.32801,1.89381,-5.6707,18.3537,14.3293,-26.06,23.94,6.24,2,S02
29100,-8.77236,-0.16520,1.87466,0.7317,15.9756,10.4878,-26.06,23.94,6.24,2,S02
29120,-8.88009,-0.00479,1.73340,5.9146,13.9634,7.8049,-26.06,23.94,6.24,2,S02
29140,-8.90643,0.21069,1.54905,8.5976,13.7805,5.4268,-26.24,23.94,5.50,2,S02
29160,-8.89207,0.45490,1.49398,8.6585,14.2073,3.4146,-26.24,23.94,5.50,2,S02
29180,-8.94474,0.83558,1.62087,6.3415,14.1463,0.9756,-26.24,23.94,5.50,2,S02
29200,-8.77954,1.23062,1.54665,2.8049,13.3537,-0.6707,-26.06,24.22,5.05,2,S02
29220,-8.83939,1.58257,1.48680,-3.2927,13.4146,-0.4878,-26.06,24.22,5.05,2,S02
29240,-9.12670,1.68791,1.41258,-10.6707,12.8659,1.4634,-26.06,24.22,5.05,2,S02
29260,-9.48822,1.64482,1.07739,-16.8902,11.0976,5.0000,-26.06,24.22,5.05,2,S02
29280,-9.66779,1.64003,0.81882,-23.7805,10.1220,9.5732,-26.24,23.94,5.50,2,S02
29300,-9.97903,1.16837,1.53947,-28.7805,8.5976,14.1463,-26.24,23.94,5.50,2,S02
29320,-10.13466,0.10056,2.80361,-21.6463,3.1098,18.9024,-26.24,23.94,5.50,2,S02
29340,-9.86172,-1.07260,3.63919,-3.5976,-3.9024,22.4390,-26.97,23.12,5.60,2,S02
29360,-9.20092,-1.75734,3.97437,17.3171,-8.1098,22.1341,-26.97,23.12,5.60,2,S02
29380,-9.62469,-1.49398,3.38061,37.6220,-11.4634,17.2561,-26.97,23.12,5.60,2,S02
29400,-11.73159,0.07422,1.01754,53.1707,-12.6220,14.0854,-27.61,22.48,3.67,2,S02
29420,-12.95742,2.39420,-1.25456,56.4024,2.5000,24.2073,-27.61,22.48,3.67,2,S02
29440,-11.38204,2.46124,-2.09014,47.8049,22.6829,44.5122,-27.61,22.48,3.67,2,S02
29460,-9.27514,0.48842,-1.94888,47.1341,30.0610,53.6585,-27.61,22.48,3.67,2,S02
29480,-8.96868,-0.64883,-2.22661,55.7927,23.7195,43.8415,-29.17,20.46,1.10,2,S02
29500,-10.39323,1.42455,-2.77488,49.6341,11.4024,26.0976,-29.17,20.46,1.10,2,S02
29520,-10.85052,3.59609,-2.77249,22.3171,-1.0366,13.4146,-29.17,20.46,1.10,2,S02
29540,-10.30943,3.63919,-2.17154,-7.3780,-7.8049,4.7561,-29.17,20.37,2.02,2,S02
29560,-10.17536,2.45406,-1.29287,-26.6463,-10.9756,-5.2439,-29.17,20.37,2.02,2,S02
29580,-9.97185,0.81642,-0.42138,-34.0244,-14.4512,-15.0610,-29.17,20.37,2.02,2,S02
29600,-9.41400,-0.44053,0.21787,-35.1829,-17.4390,-24.4512,-28.07,21.56,3.58,2,S02
29620,-8.66222,-0.93134,0.40223,-34.5122,-20.1220,-31.0976,-28.07,21.56,3.58,2,S02
29640,-8.24324,-0.80206,0.43335,-32.8049,-20.2439,-32.8659,-28.07,21.56,3.58,2,S02
