timestamp,ax,ay,az,gx,gy,gz,mx,my,mz,label,subject_id
0,-8.44914,0.59137,4.37660,-2.8049,-10.7317,5.6098,15.23,28.81,-10.00,0,S02
20,-8.45632,0.64883,4.44124,-2.9878,-13.1098,5.7317,14.95,28.62,-9.82,0,S02
40,-8.33661,0.73263,4.57053,-2.9878,-13.9024,6.9512,14.95,28.62,-9.82,0,S02
60,-8.10677,0.70390,4.52504,-4.0854,-12.3780,8.7805,14.95,28.62,-9.82,0,S02
80,-8.25281,0.59616,4.38857,-5.8537,-10.0000,8.6585,14.59,28.44,-9.27,0,S02
100,-8.54251,0.41899,4.36463,-6.1585,-8.9024,7.5000,14.59,28.44,-9.27,0,S02
120,-8.54251,0.40701,4.48673,-4.5732,-10.8537,6.4024,14.59,28.44,-9.27,0,S02
140,-8.29830,0.64404,4.62560,-2.9268,-13.3537,5.9756,14.31,28.81,-8.44,0,S02
160,-8.08761,0.77572,4.61123,-3.4756,-14.3902,5.4268,14.31,28.81,-8.44,0,S02
180,-8.17859,0.74699,4.58729,-3.4756,-12.9878,3.9634,14.31,28.81,-8.44,0,S02
200,-8.31506,0.67995,4.72137,-1.8902,-11.3415,2.9878,14.31,28.81,-8.44,0,S02
220,-8.24324,0.73741,4.75728,-0.0610,-11.5244,2.6220,14.13,29.08,-7.98,0,S02
240,-8.10437,0.94092,4.72137,-0.3049,-11.9512,1.9512,14.13,29.08,-7.98,0,S02
260,-8.08043,0.94810,4.70700,-2.2561,-11.8902,1.8902,14.13,29.08,-7.98,0,S02
280,-8.15465,0.70150,4.76686,-2.9878,-10.2439,2.6829,14.13,29.17,-7.61,0,S02
300,-8.04691,0.51236,4.97755,-2.2561,-7.0732,3.2317,14.13,29.17,-7.61,0,S02
320,-7.83383,0.35913,5.06134,-0.3659,-4.3293,2.5000,14.13,29.17,-7.61,0,S02
340,-7.90805,0.21308,5.03740,2.6829,-3.4146,-0.3659,14.22,29.17,-7.25,0,S02
360,-8.09958,0.08859,5.14514,5.7317,-5.1220,-4.2683,14.22,29.17,-7.25,0,S02
380,-7.94396,0.29209,5.37498,8.9634,-7.6220,-7.6829,14.22,29.17,-7.25,0,S02
400,-7.52737,0.72544,5.32470,12.3171,-5.4878,-8.5976,14.22,29.17,-7.25,0,S02
420,-7.67102,1.06781,5.03022,12.5000,-0.9146,-8.6585,14.95,29.08,-6.79,0,S02
440,-8.12832,1.12767,5.06374,8.2927,0.3049,-7.2561,14.95,29.08,-6.79,0,S02
460,-7.74045,0.90740,5.27682,2.0732,-2.1951,-2.6220,14.95,29.08,-6.79,0,S02
480,-7.45794,0.52672,5.38217,-3.7805,-3.2317,1.2805,15.32,29.45,-6.61,0,S02
500,-7.88171,0.22027,5.29119,-4.8171,-2.6829,1.6463,15.32,29.45,-6.61,0,S02
520,-8.22887,0.35913,5.20260,-3.4756,-5.6098,1.0976,15.32,29.45,-6.61,0,S02
540,-7.87932,0.82361,5.20739,-6.7683,-10.9756,3.2927,15.23,29.45,-6.33,0,S02
560,-7.52737,0.97683,5.03740,-12.1341,-13.4146,6.0976,15.23,29.45,-6.33,0,S02
580,-7.86735,0.86431,4.85305,-13.6585,-9.4512,7.1341,15.23,29.45,-6.33,0,S02
600,-8.32703,0.71826,4.74770,-11.8293,-5.0000,8.4756,15.23,29.45,-6.33,0,S02
620,-8.15226,0.79009,4.89375,-13.3537,-4.8780,12.1341,14.59,29.54,-6.42,0,S02
640,-7.79313,0.91698,4.99909,-17.8659,-5.8537,14.3293,14.59,29.54,-6.42,0,S02
660,-7.80270,0.96965,5.00867,-19.3293,-3.6585,13.7195,14.59,29.54,-6.42,0,S02
680,-8.02536,0.75657,5.06613,-17.7439,0.6098,12.3780,14.13,29.82,-6.79,0,S02
700,-8.11634,0.52194,5.09486,-15.5488,2.7439,12.0732,14.13,29.82,-6.79,0,S02
720,-8.22169,0.36871,5.03022,-15.6707,-0.3659,11.6463,14.13,29.82,-6.79,0,S02
740,-8.11634,0.61770,4.94642,-17.4390,-5.7927,11.1585,13.39,29.91,-6.88,0,S02
760,-7.94636,1.05105,4.75488,-19.6341,-5.9146,11.5854,13.39,29.91,-6.88,0,S02
780,-8.07085,1.20428,4.72615,-22.0122,-1.0366,14.5122,13.39,29.91,-6.88,0,S02
800,-8.24324,0.78769,4.98473,-22.1341,2.5610,17.9878,13.39,29.91,-6.88,0,S02
820,-8.04931,0.05267,5.28640,-19.5732,2.3171,19.3293,12.39,30.18,-7.43,0,S02
840,-7.74524,-0.23942,5.28400,-16.9512,-0.2439,17.6220,12.39,30.18,-7.43,0,S02
860,-7.75003,-0.03112,5.22654,-19.1463,-2.5000,14.2683,12.39,30.18,-7.43,0,S02
880,-8.00860,0.35195,5.12120,-21.2195,-3.8415,10.3659,11.93,30.55,-7.43,0,S02
900,-8.02058,0.70150,5.17626,-19.3902,-6.0366,6.8902,11.93,30.55,-7.43,0,S02
920,-7.78594,0.97683,5.54497,-14.8171,-10.9756,5.9146,11.93,30.55,-7.43,0,S02
940,-7.24246,1.53229,5.82030,-9.6341,-17.2561,8.4146,11.74,30.83,-6.61,0,S02
960,-7.19218,1.72861,5.70299,-5.6098,-19.4512,8.2927,11.74,30.83,-6.61,0,S02
980,-7.45794,1.45328,5.71017,-3.4146,-19.1463,5.3659,11.74,30.83,-6.61,0,S02
1000,-7.49625,1.25456,5.80355,0.4878,-18.8415,2.0732,11.74,30.83,-6.61,0,S02
1020,-7.24725,1.41018,5.57370,5.0000,-17.9878,-0.1220,12.02,31.01,-5.96,0,S02
1040,-7.40527,1.45328,5.30076,6.4024,-14.2073,-1.9512,12.02,31.01,-5.96,0,S02
1060,-7.80749,1.27850,5.28400,6.6463,-9.5732,-4.6341,12.02,31.01,-5.96,0,S02
1080,-7.78594,1.06303,5.41808,7.8049,-6.3415,-7.1341,12.48,31.01,-5.60,0,S02
1100,-7.59680,0.99838,5.39414,9.1463,-4.6951,-8.0488,12.48,31.01,-5.60,0,S02
1120,-7.56807,0.91698,5.31034,8.9024,-3.3537,-7.8049,12.48,31.01,-5.60,0,S02
1140,-7.66863,0.84994,5.42047,7.2561,-1.2195,-6.7073,13.03,31.10,-5.69,0,S02
1160,-7.78834,0.71826,5.43963,4.3293,-1.8293,-4.9390,13.03,31.10,-5.69,0,S02
1180,-7.56807,0.54348,5.78439,0.0610,-4.4512,-4.4512,13.03,31.10,-5.69,0,S02
1200,-7.28556,0.81163,5.92804,-0.4268,-6.2195,-4.5732,13.03,31.10,-5.69,0,S02
1220,-7.34781,1.10852,5.79636,-0.3049,-6.8902,-4.8171,13.30,31.19,-5.50,0,S02
1240,-7.55371,1.17795,5.61919,-0.9146,-5.4878,-4.3293,13.30,31.19,-5.50,0,S02
1260,-7.66863,1.07500,5.66229,-1.8902,-5.0000,-2.8659,13.30,31.19,-5.50,0,S02
1280,-7.62553,0.95289,5.75327,-2.0732,-6.2805,-0.6098,13.39,31.28,-5.50,0,S02
1300,-7.58722,0.89543,5.69581,-1.8293,-7.6220,1.4634,13.39,31.28,-5.50,0,S02
1320,-7.61117,0.90261,5.57610,-3.1098,-7.7439,2.5610,13.39,31.28,-5.50,0,S02
1340,-7.79313,0.86431,5.55694,-4.7561,-7.3780,2.5610,13.21,31.56,-5.23,0,S02
1360,-7.97509,0.83079,5.65989,-5.8537,-8.6585,3.0488,13.21,31.56,-5.23,0,S02
1380,-7.96790,0.81882,5.53300,-6.0366,-11.3415,4.6341,13.21,31.56,-5.23,0,S02
1400,-7.60877,0.82600,5.41808,-4.2683,-11.5854,5.5488,13.21,31.56,-5.23,0,S02
1420,-7.17303,0.84515,5.45878,-2.8659,-8.4756,4.5732,12.94,31.65,-4.68,0,S02
1440,-7.19936,0.92416,5.58567,-3.7195,-5.3049,1.8293,12.94,31.65,-4.68,0,S02
1460,-7.44357,0.99838,5.70059,-5.3659,-4.2073,-0.0610,12.94,31.65,-4.68,0,S02
1480,-7.57525,1.05584,5.70299,-5.8537,-5.3659,-0.1829,13.03,31.56,-4.68,0,S02
1500,-7.57286,1.17076,5.61440,-5.8537,-7.6829,-0.2439,13.03,31.56,-4.68,0,S02
1520,-7.57047,1.17316,5.56412,-4.9390,-8.6585,-0.6707,13.03,31.56,-4.68,0,S02
1540,-7.68299,1.10852,5.54976,-2.8049,-8.8415,-1.5854,13.21,31.65,-4.31,0,S02
1560,-7.58483,1.00317,5.66229,-1.5244,-9.2073,-1.1585,13.21,31.65,-4.31,0,S02
1580,-7.43160,0.89543,5.74608,-1.4634,-9.5732,-0.1829,13.21,31.65,-4.31,0,S02
1600,-7.35020,0.80924,5.83946,-2.0122,-9.3902,0.3049,13.21,31.65,-4.31,0,S02
1620,-7.21373,0.82839,6.03818,-3.1707,-8.7805,0.7927,13.30,31.65,-3.85,0,S02
1640,-7.00065,0.89064,6.23450,-4.3902,-7.8049,1.1585,13.30,31.65,-3.85,0,S02
1660,-6.89051,0.91937,6.29196,-5.0000,-5.8537,0.9146,13.30,31.65,-3.85,0,S02
1680,-7.00065,0.92895,6.19141,-4.7561,-3.8415,0.0610,13.21,31.74,-3.76,0,S02
1700,-7.13951,0.93853,6.15310,-4.6951,-3.7805,-0.2439,13.21,31.74,-3.76,0,S02
1720,-7.10360,1.02472,6.17943,-5.0610,-5.0610,0.0610,13.21,31.74,-3.76,0,S02
1740,-7.06050,1.12527,6.10761,-5.2439,-5.8537,0.4268,13.21,31.93,-3.58,0,S02
1760,-7.18261,1.11091,6.02381,-4.6951,-5.5488,0.4878,13.21,31.93,-3.58,0,S02
1780,-7.31429,1.02711,5.98072,-4.2683,-4.8171,0.7317,13.21,31.93,-3.58,0,S02
1800,-7.29274,0.99599,5.97832,-4.6951,-4.5122,1.4024,13.21,31.93,-3.58,0,S02
1820,-7.17782,0.98402,5.95917,-5.9146,-3.5366,1.8902,13.12,31.83,-3.30,0,S02
1840,-7.18500,0.97205,5.88974,-6.3415,-0.7927,1.5244,13.12,31.83,-3.30,0,S02
1860,-7.33105,0.91219,5.81312,-6.5854,2.8049,0.6707,13.12,31.83,-3.30,0,S02
1880,-7.43400,0.85473,5.80355,-7.1341,5.1220,0.1829,13.12,31.83,-3.85,0,S02
1900,-7.37414,0.82121,5.91128,-7.8049,5.4268,0.4878,13.12,31.83,-3.85,0,S02
1920,-7.26161,0.86670,6.04536,-7.8049,5.0000,0.8537,13.12,31.83,-3.85,0,S02
1940,-7.22331,0.91219,6.04057,-6.9512,4.3902,0.9146,13.03,31.74,-4.13,0,S02
1960,-7.35499,0.89304,5.85143,-6.0976,3.2317,0.7317,13.03,31.74,-4.13,0,S02
1980,-7.62793,0.90740,5.70538,-5.1220,1.1585,0.3659,13.03,31.74,-4.13,0,S02
2000,-7.70215,0.91937,5.64074,-4.3293,-1.7683,0.6098,13.03,31.74,-4.13,0,S02
2020,-7.60159,0.89064,5.66947,-4.0244,-4.3902,1.4024,13.12,31.65,-3.85,0,S02
2040,-7.51061,0.88107,5.71017,-3.8415,-5.6707,1.7683,13.12,31.65,-3.85,0,S02
2060,-7.48427,0.92416,5.74848,-3.5976,-6.2805,1.4024,13.12,31.65,-3.85,0,S02
2080,-7.40048,0.96965,5.83228,-3.3537,-6.8293,1.0366,13.03,31.93,-3.67,0,S02
2100,-7.22810,1.00317,5.96156,-3.4146,-6.4634,1.2195,13.03,31.93,-3.67,0,S02
2120,-7.07247,0.98641,6.08367,-4.0244,-4.8780,1.8293,13.03,31.93,-3.67,0,S02
2140,-7.03656,0.94810,6.20338,-4.9390,-2.8049,1.7073,13.12,31.74,-3.67,0,S02
2160,-7.05571,0.89064,6.20577,-5.3049,-1.7073,0.9756,13.12,31.74,-3.67,0,S02
2180,-7.05811,0.87628,6.20817,-4.2683,-1.2195,0.0000,13.12,31.74,-3.67,0,S02
2200,-7.01980,0.88825,6.19380,-2.6829,-0.9756,-0.6707,13.12,31.74,-3.67,0,S02
2220,-7.07726,0.94571,6.14113,-1.5244,-1.2805,-1.4024,13.21,31.74,-3.67,0,S02
2240,-7.12514,0.99838,6.10282,-1.2195,-1.7073,-1.9512,13.21,31.74,-3.67,0,S02
2260,-7.18979,0.99599,6.04775,-0.8537,-1.7683,-2.4390,13.21,31.74,-3.67,0,S02
2280,-7.25922,0.97683,6.00705,-0.1220,-1.5244,-2.3780,13.39,31.65,-3.67,0,S02
2300,-7.19697,0.93853,6.00705,-0.4268,-1.0366,-1.6463,13.39,31.65,-3.67,0,S02
2320,-7.19936,0.90740,5.96156,-1.5244,0.4268,-1.4024,13.39,31.65,-3.67,0,S02
2340,-7.42203,0.86670,5.84185,-1.8293,1.4024,-2.1951,13.58,31.56,-3.85,0,S02
2360,-7.50582,0.89064,5.79397,-1.8902,0.6098,-1.9512,13.58,31.56,-3.85,0,S02
2380,-7.41484,0.89543,5.77960,-2.7439,0.1220,-0.4878,13.58,31.56,-3.85,0,S02
2400,-7.39808,0.89783,5.77960,-3.9634,0.7927,0.3049,13.58,31.47,-3.94,0,S02
2420,-7.46273,0.89064,5.77242,-4.8780,1.3415,0.5488,13.67,31.47,-3.94,0,S02
2440,-7.51061,0.87628,5.77003,-4.9390,1.1585,0.7927,13.67,31.47,-3.94,0,S02
2460,-7.43400,0.87149,5.81312,-4.8780,0.5488,1.6463,13.67,31.47,-3.94,0,S02
2480,-7.37654,0.90740,5.85382,-5.4268,0.0610,2.3780,13.49,31.28,-3.94,0,S02
2500,-7.38372,0.91937,5.84664,-6.1585,-0.4878,2.5610,13.49,31.28,-3.94,0,S02
2520,-7.36696,0.92895,5.88016,-6.2805,-1.0366,2.4390,13.49,31.28,-3.94,0,S02
2540,-7.27598,0.96247,5.93762,-5.7317,-1.4634,2.2561,13.39,31.38,-3.67,0,S02
2560,-7.23767,1.07260,5.92804,-5.1220,-1.3415,2.0122,13.39,31.38,-3.67,0,S02
2580,-7.33105,1.02711,5.92804,-5.0610,-1.2195,1.3415,13.39,31.38,-3.67,0,S02
2600,-7.29034,0.97444,5.93044,-4.3902,-1.4024,1.3415,13.39,31.38,-3.76,0,S02
2620,-7.24964,0.99120,5.91368,-3.5366,-0.8537,1.1585,13.39,31.38,-3.76,0,S02
2640,-7.30232,0.99359,5.93283,-3.5976,0.0610,0.7927,13.39,31.38,-3.76,0,S02
2660,-7.32865,0.95289,5.94001,-4.1463,0.6098,0.6707,13.39,31.38,-3.76,0,S02
2680,-7.25204,0.95529,5.93044,-4.0854,0.7927,0.5488,13.39,31.38,-3.67,0,S02
2700,-7.24485,0.97205,5.88974,-3.2317,0.7317,0.0610,13.39,31.38,-3.67,0,S02
2720,-7.36217,0.97923,5.88974,-2.6220,0.6098,0.2439,13.39,31.38,-3.67,0,S02
2740,-7.54174,0.94332,5.90650,-3.3537,-0.9756,1.3415,13.12,31.28,-3.67,0,S02
2760,-7.33105,0.92656,5.92086,-4.2073,-1.8902,1.8902,13.12,31.28,-3.67,0,S02
2780,-7.15387,0.97923,5.92804,-4.1463,0.1220,1.1585,13.12,31.28,-3.67,0,S02
2800,-7.28077,1.02232,5.89692,-3.7195,2.3171,0.0000,13.21,31.19,-3.76,0,S02
2820,-7.42442,1.00317,5.89452,-3.5366,1.7683,-0.3049,13.21,31.19,-3.76,0,S02
2840,-7.36456,0.96007,5.90171,-3.4756,0.3049,0.1220,13.21,31.19,-3.76,0,S02
2860,-7.29513,0.95289,5.88974,-3.5366,-0.0610,0.4268,13.21,31.19,-3.76,0,S02
2880,-7.34302,0.97683,5.88016,-3.4756,0.6707,0.4878,13.21,31.38,-3.76,0,S02
2900,-7.39808,0.98881,5.84425,-3.2927,0.9146,0.4268,13.21,31.38,-3.76,0,S02
2920,-7.42681,0.95529,5.80594,-3.0488,0.2439,0.2439,13.21,31.38,-3.76,0,S02
2940,-7.41245,0.93134,5.79876,-3.0488,-0.6098,0.2439,13.39,31.19,-3.94,0,S02
2960,-7.36217,0.95529,5.82749,-3.3537,-0.7927,0.4878,13.39,31.19,-3.94,0,S02
2980,-7.39090,0.99120,5.82270,-3.5366,-0.5488,0.6098,13.39,31.19,-3.94,0,S02
3000,-7.43160,1.01754,5.80833,-3.5366,-0.4878,0.6098,13.49,31.28,-3.94,0,S02
3020,-7.41245,0.97683,5.80594,-3.4756,-0.6098,0.6098,13.49,31.28,-3.94,0,S02
3040,-7.42442,0.96486,5.79397,-3.2317,-1.0976,0.5488,13.49,31.28,-3.94,0,S02
3060,-7.41005,0.99359,5.79876,-3.4146,-2.1341,0.5488,13.49,31.28,-3.94,0,S02
3080,-7.44118,1.00317,5.81312,-3.4146,-2.9878,0.6707,13.49,31.19,-3.85,0,S02
3100,-7.46033,0.92416,5.82749,-3.1707,-4.9390,1.2195,13.49,31.19,-3.85,0,S02
3120,-7.38851,0.92177,5.78679,-2.9268,-7.6220,2.0732,13.49,31.19,-3.85,0,S02
3140,-7.28316,0.98881,5.80355,-3.4756,-6.5854,1.8902,13.49,31.28,-3.58,0,S02
3160,-7.30232,1.01275,5.83228,-4.2683,-3.7805,1.0976,13.49,31.28,-3.58,0,S02
3180,-7.33105,1.01275,5.82270,-4.5122,-2.5000,0.8537,13.49,31.28,-3.58,0,S02
3200,-7.34781,1.02711,5.85143,-4.3293,-2.5000,0.8537,13.39,31.38,-3.58,0,S02
3220,-7.24964,1.01993,5.77003,-4.4512,-2.7439,0.6098,13.39,31.38,-3.58,0,S02
3240,-7.37654,0.98402,5.96396,-5.4268,0.3049,-0.0610,13.39,31.38,-3.58,0,S02
3260,-7.45794,0.97923,5.88734,-5.1220,-0.4878,-0.1220,13.39,31.38,-3.58,0,S02
3280,-7.39569,0.98402,5.88255,-4.6341,-3.7805,0.5488,13.30,31.38,-3.49,0,S02
3300,-7.27119,0.97683,5.88255,-4.3293,-4.9390,1.2195,13.30,31.38,-3.49,0,S02
3320,-7.25443,0.95529,5.88734,-4.6951,-4.3902,1.5854,13.30,31.38,-3.49,0,S02
3340,-7.33823,0.98641,5.90650,-5.0610,-4.5732,1.5854,13.49,31.38,-3.39,0,S02
3360,-7.45315,1.03908,5.92325,-4.6341,-6.8902,2.0732,13.49,31.38,-3.39,0,S02
3380,-7.38132,1.06542,6.00226,-3.9024,-10.4878,3.0488,13.49,31.38,-3.39,0,S02
3400,-7.14430,1.00556,6.07648,-3.7805,-13.1707,4.2073,13.21,31.47,-2.94,0,S02
3420,-7.08444,0.95050,6.09803,-4.0854,-13.1098,4.7561,13.21,31.47,-2.94,0,S02
3440,-7.16585,1.01754,6.12437,-4.0854,-10.8537,3.8415,13.21,31.47,-2.94,0,S02
3460,-7.08684,1.05824,6.02142,-3.9634,-8.7195,3.4756,13.21,31.47,-2.94,0,S02
3480,-6.93600,1.13964,5.89931,-4.6951,-4.5122,2.8049,13.21,31.47,-2.84,0,S02
3500,-7.01980,1.12288,5.96396,-6.2195,2.9268,0.4878,13.21,31.47,-2.84,0,S02
3520,-7.18739,1.06781,6.04057,-7.2561,7.4390,-1.1585,13.21,31.47,-2.84,0,S02
3540,-7.25204,1.06063,6.05015,-6.8293,6.5854,-1.8293,13.30,31.38,-3.30,0,S02
3560,-7.34781,1.03669,5.99269,-5.7927,3.9024,-1.7073,13.30,31.38,-3.30,0,S02
3580,-7.38611,1.01275,5.93044,-5.0610,2.5610,-1.5244,13.30,31.38,-3.30,0,S02
3600,-7.36456,0.98402,5.89931,-4.7561,2.1341,-1.2195,13.30,31.38,-3.39,0,S02
3620,-7.30471,1.01035,5.88016,-4.3293,1.5854,-1.5244,13.30,31.38,-3.39,0,S02
3640,-7.35259,0.99599,5.91368,-3.9024,1.4634,-1.8293,13.30,31.38,-3.39,0,S02
3660,-7.41245,1.00078,5.91607,-3.4146,1.5854,-1.8902,13.30,31.38,-3.39,0,S02
3680,-7.37654,0.93613,5.90889,-3.2927,0.5488,-1.5244,13.67,31.19,-3.49,0,S02
3700,-7.29992,0.92895,5.94241,-3.3537,-0.4268,-1.4634,13.67,31.19,-3.49,0,S02
3720,-7.14669,0.94810,5.93523,-3.2927,-1.1585,-1.6463,13.67,31.19,-3.49,0,S02
3740,-7.16106,0.94332,5.96156,-3.5976,-1.6463,-0.7317,13.67,31.19,-3.39,0,S02
3760,-7.23049,0.92656,5.98311,-4.4512,-1.5854,0.6707,13.67,31.19,-3.39,0,S02
3780,-7.25204,0.94332,5.98311,-4.8780,-0.6098,1.9512,13.67,31.19,-3.39,0,S02
3800,-7.24007,0.97683,5.91368,-4.4512,0.3049,2.8659,13.49,31.19,-3.58,0,S02
3820,-7.24964,0.95768,5.86819,-4.5122,0.1829,3.5366,13.49,31.19,-3.58,0,S02
3840,-7.35499,0.91937,5.90889,-5.7317,-0.5488,4.3293,13.49,31.19,-3.58,0,S02
3860,-7.41005,0.92416,5.97353,-6.8293,-1.0366,4.7561,13.49,31.19,-3.58,0,S02
3880,-7.40048,1.00317,5.93523,-6.9512,-1.7073,4.2683,13.39,31.28,-3.67,0,S02
3900,-7.28795,1.12527,5.90171,-6.6463,-1.0976,3.1707,13.39,31.28,-3.67,0,S02
3920,-7.27119,1.18992,5.89692,-6.5854,0.4268,1.5854,13.39,31.28,-3.67,0,S02
3940,-7.33583,1.13964,5.89452,-6.0976,1.0976,0.3049,13.49,31.28,-3.85,0,S02
3960,-7.35020,1.06303,5.87298,-5.0610,0.8537,-0.1829,13.49,31.28,-3.85,0,S02
3980,-7.26161,1.00796,5.67186,-4.8780,1.5244,-0.4878,13.49,31.28,-3.85,0,S02
4000,-7.62793,0.92416,5.97114,-4.4512,2.1951,0.1220,13.49,31.19,-3.94,0,S02
4020,-7.47709,1.00796,5.87537,-3.1707,-4.0244,-1.0976,13.49,31.19,-3.94,0,S02
4040,-7.35020,0.98641,5.85143,-3.0488,-6.0366,-1.6463,13.49,31.19,-3.94,0,S02
4060,-7.25683,0.95050,5.88974,-3.4146,-5.0610,-1.4634,13.49,31.19,-3.94,0,S02
4080,-7.26401,0.95768,5.90889,-3.7195,-3.4756,-1.0976,13.58,31.19,-3.85,0,S02
4100,-7.35499,0.95050,5.92086,-3.1098,-3.4146,-1.0366,13.58,31.19,-3.85,0,S02
4120,-7.30950,0.93134,5.92565,-2.5000,-4.1463,-0.5488,13.58,31.19,-3.85,0,S02
4140,-7.26401,0.91459,5.94001,-2.7439,-4.2683,-0.1829,13.58,31.38,-3.94,0,S02
4160,-7.28795,0.89783,5.96396,-3.1098,-3.5976,-0.0610,13.58,31.38,-3.94,0,S02
4180,-7.29753,0.89543,5.95917,-3.0488,-3.2927,0.0610,13.58,31.38,-3.94,0,S02
4200,-7.26640,0.93853,5.97832,-3.0488,-3.2927,0.1829,13.49,31.56,-3.76,0,S02
4220,-7.23767,1.01035,6.01184,-3.3537,-3.5976,0.1829,13.49,31.56,-3.76,0,S02
4240,-7.22810,1.07021,6.00945,-3.3537,-4.2073,0.0000,13.49,31.56,-3.76,0,S02
4260,-7.19697,1.06303,6.01184,-3.4146,-4.4512,0.2439,13.49,31.56,-3.76,0,S02
4280,-7.18979,1.03669,6.01902,-3.7195,-4.0244,0.4878,13.21,31.74,-3.67,0,S02
4300,-7.21134,1.00317,6.01184,-4.0244,-3.3537,0.5488,13.21,31.74,-3.67,0,S02
4320,-7.25204,0.95289,5.97353,-3.9024,-2.9268,0.6707,13.21,31.74,-3.67,0,S02
4340,-7.23528,0.95050,5.99029,-4.0854,-2.2561,0.8537,13.30,31.74,-3.58,0,S02
4360,-7.20894,0.98402,6.02142,-4.8171,-1.2805,0.9756,13.30,31.74,-3.58,0,S02
4380,-7.20894,1.02711,6.02142,-5.0610,-0.1829,0.7927,13.30,31.74,-3.58,0,S02
4400,-7.27837,1.06781,6.00945,-4.3902,1.0976,0.2439,13.39,31.74,-3.58,0,S02
4420,-7.32386,1.04627,5.98790,-3.2317,2.0122,-0.1220,13.39,31.74,-3.58,0,S02
4440,-7.25683,1.00078,6.00466,-2.6220,2.5000,0.3659,13.39,31.74,-3.58,0,S02
4460,-7.18979,0.98641,6.01423,-2.5610,2.8659,0.7927,13.39,31.74,-3.58,0,S02
4480,-7.26880,0.94810,5.98072,-2.3171,3.3537,0.4268,13.21,31.65,-3.76,0,S02
4500,-7.28795,0.90740,5.93523,-2.1951,3.1707,0.1829,13.21,31.65,-3.76,0,S02
4520,-7.25204,0.95289,5.93283,-2.3780,3.1707,0.4878,13.21,31.65,-3.76,0,S02
4540,-7.31668,0.96965,5.82509,-2.6220,3.4146,0.6098,13.30,31.56,-3.94,0,S02
4560,-7.47230,0.97444,5.78679,-2.9268,3.1707,0.3049,13.30,31.56,-3.94,0,S02
4580,-7.54652,0.99120,5.77481,-3.5976,0.9146,0.3659,13.30,31.56,-3.94,0,S02
4600,-7.45315,1.06781,5.76524,-4.1463,-2.4390,0.7927,13.30,31.65,-3.85,0,S02
4620,-7.34781,1.10612,5.80115,-4.3902,-4.0244,1.0976,13.30,31.65,-3.85,0,S02
4640,-7.33105,1.07739,5.83467,-4.2683,-3.6585,1.0366,13.30,31.65,-3.85,0,S02
4660,-7.31668,1.01035,5.86340,-4.2073,-2.9268,0.8537,13.30,31.65,-3.85,0,S02
4680,-7.33344,0.99599,5.88734,-3.9634,-2.5610,0.6098,13.30,31.65,-3.76,0,S02
4700,-7.35738,0.97205,5.90889,-3.6585,-2.6829,0.6707,13.30,31.65,-3.76,0,S02
4720,-7.32386,0.90261,5.89931,-3.5976,-2.6220,1.1585,13.30,31.65,-3.76,0,S02
4740,-7.33583,0.87628,5.87537,-3.6585,-2.5610,1.3415,13.30,31.65,-3.76,0,S02
4760,-7.35020,0.93853,5.88974,-3.7805,-2.6220,1.3415,13.30,31.65,-3.76,0,S02
4780,-7.32386,1.02711,5.89452,-3.9024,-3.0488,1.4024,13.30,31.65,-3.76,0,S02
4800,-7.31668,1.03430,5.87058,-3.9634,-3.2317,1.7073,13.30,31.74,-3.67,0,S02
4820,-7.33344,0.99838,5.88255,-4.3902,-2.9268,1.8902,13.30,31.74,-3.67,0,S02
4840,-7.32865,0.96486,5.92565,-4.8780,-2.5610,2.2561,13.30,31.74,-3.67,0,S02
4860,-7.26880,0.96486,5.96635,-5.2439,-2.1341,2.5610,13.30,31.74,-3.67,0,S02
4880,-7.21373,0.97205,5.97593,-5.1829,-1.4024,2.5000,13.12,31.83,-3.76,0,S02
4900,-7.25443,1.02232,5.98311,-5.0610,-0.4268,2.0732,13.12,31.83,-3.76,0,S02
4920,-7.26640,1.07260,5.98790,-5.1829,-0.3659,1.8902,13.12,31.83,-3.76,0,S02
4940,-7.26161,1.15401,5.98072,-5.1220,-1.1585,1.9512,13.03,31.83,-3.76,0,S02
4960,-7.20655,1.21625,5.98072,-5.1220,-1.9512,1.9512,13.03,31.83,-3.76,0,S02
4980,-7.19936,1.16598,5.97114,-5.1220,-2.9268,1.0976,13.03,31.83,-3.76,0,S02
5000,-7.23049,1.09176,5.98311,-4.8171,-3.5976,-0.3049,13.12,31.74,-3.67,0,S02
5020,-7.25683,1.09894,5.96874,-3.9024,-3.5366,-1.1585,13.12,31.74,-3.67,0,S02
5040,-7.28316,1.12527,5.90889,-2.9268,-3.1098,-1.4024,13.12,31.74,-3.67,0,S02
5060,-7.31668,1.10373,5.86579,-3.0488,-2.9268,-1.0976,13.12,31.74,-3.67,0,S02
5080,-7.37893,1.04148,5.85861,-4.0854,-3.1707,-0.7927,13.30,31.83,-3.58,0,S02
5100,-7.41245,1.00556,5.82988,-4.6341,-3.7195,-0.6098,13.30,31.83,-3.58,0,S02
5120,-7.36935,1.01035,5.82030,-4.6951,-4.0244,-0.3049,13.30,31.83,-3.58,0,S02
5140,-7.31189,1.04148,5.84903,-4.7561,-3.5366,-0.2439,13.30,31.83,-3.49,0,S02
5160,-7.31429,1.04866,5.90171,-4.7561,-2.8049,-0.3049,13.30,31.83,-3.49,0,S02
5180,-7.31189,1.03669,5.92565,-4.5122,-2.8659,-0.3049,13.30,31.83,-3.49,0,S02
5200,-7.28795,1.03908,5.93762,-4.1463,-3.2317,0.0000,13.21,31.83,-3.49,0,S02
5220,-7.23288,1.03430,5.96874,-4.1463,-3.4756,0.3659,13.21,31.83,-3.49,0,S02
5240,-7.22331,0.99120,6.02860,-4.4512,-3.4756,0.7317,13.21,31.83,-3.49,0,S02
5260,-7.17303,0.93374,6.08367,-4.5122,-2.6220,0.9756,13.21,31.83,-3.49,0,S02
5280,-7.14430,0.90261,6.11479,-4.4512,-1.6463,1.0976,13.21,31.83,-3.39,0,S02
5300,-7.16585,0.87149,6.11000,-4.3902,-1.4024,1.0976,13.21,31.83,-3.39,0,S02
5320,-7.18500,0.87628,6.09085,-4.8780,-1.4634,1.0976,13.21,31.83,-3.39,0,S02
5340,-7.24485,0.93374,6.05015,-5.3659,-1.2195,1.0976,13.21,31.74,-3.49,0,S02
5360,-7.25443,0.98402,5.99987,-5.3659,-0.7317,1.2195,13.21,31.74,-3.49,0,S02
5380,-7.25204,1.03190,5.99987,-4.8780,0.1829,1.3415,13.21,31.74,-3.49,0,S02
5400,-7.30232,1.04387,5.96874,-4.4512,0.0610,1.4024,13.21,31.93,-3.39,0,S02
5420,-7.24964,1.07260,5.91847,-4.7561,-2.0732,1.6463,13.21,31.93,-3.39,0,S02
5440,-7.23767,1.05824,5.93762,-4.6951,-1.8902,1.5244,13.21,31.93,-3.39,0,S02
5460,-7.22331,1.06303,5.99508,-4.4512,-1.5854,1.4634,13.21,31.93,-3.39,0,S02
5480,-7.21612,1.06542,5.98550,-4.2073,-1.5854,1.2805,13.12,31.93,-3.49,0,S02
5500,-7.21612,1.03430,5.94480,-4.2073,-1.2805,0.9146,13.12,31.93,-3.49,0,S02
5520,-7.20894,1.02711,5.96874,-4.4512,-1.0366,0.5488,13.12,31.93,-3.49,0,S02
5540,-7.21373,1.05345,6.00945,-4.8171,-0.9756,0.3659,13.21,31.83,-3.49,0,S02
5560,-7.22810,1.08457,6.01184,-4.6951,-0.9756,0.2439,13.21,31.83,-3.49,0,S02
5580,-7.24725,1.04627,5.97593,-4.4512,-0.8537,0.1220,13.21,31.83,-3.49,0,S02
5600,-7.25443,1.00078,5.96396,-4.6341,-0.7927,0.1829,13.21,31.74,-3.49,0,S02
5620,-7.25204,0.99120,5.98790,-5.2439,-0.5488,0.2439,13.21,31.74,-3.49,0,S02
5640,-7.26401,1.03430,5.99987,-5.4878,-0.4268,0.1220,13.21,31.74,-3.49,0,S02
5660,-7.24725,1.05345,5.99748,-5.1220,-0.6098,0.0000,13.21,31.74,-3.49,0,S02
5680,-7.23528,1.03190,5.99029,-4.5732,-0.7927,0.0000,13.21,31.83,-3.58,0,S02
5700,-7.20894,1.02472,6.03818,-4.5122,-0.8537,0.0610,13.21,31.83,-3.58,0,S02
5720,-7.20415,1.01514,6.03818,-4.8171,-0.7317,0.1220,13.21,31.83,-3.58,0,S02
5740,-7.24964,0.97923,6.01423,-4.8780,-0.3049,0.1220,13.30,31.65,-3.58,0,S02
5760,-7.28556,0.96965,5.96635,-4.7561,0.0000,0.0000,13.30,31.65,-3.58,0,S02
5780,-7.29034,0.99120,5.97353,-4.6341,0.1220,0.0610,13.30,31.65,-3.58,0,S02
5800,-7.25443,0.98641,6.00466,-4.7561,0.3049,0.1220,13.30,31.74,-3.67,0,S02
5820,-7.26161,0.98641,5.99987,-4.5732,0.7317,0.1220,13.30,31.74,-3.67,0,S02
5840,-7.28316,0.99359,5.96874,-4.3902,1.7683,0.2439,13.30,31.74,-3.67,0,S02
5860,-7.29992,0.98641,5.94480,-4.2683,3.3537,0.3659,13.30,31.74,-3.67,0,S02
5880,-7.34062,0.96726,5.92086,-4.2683,4.3902,0.3049,13.21,31.74,-3.85,0,S02
5900,-7.34781,0.95289,5.91128,-4.1463,4.8780,0.4268,13.21,31.74,-3.85,0,S02
5920,-7.35738,0.98162,5.90410,-3.9024,4.9390,0.6707,13.21,31.74,-3.85,0,S02
5940,-7.42681,0.98402,5.85861,-3.6585,3.9024,0.8537,13.21,31.74,-4.13,0,S02
5960,-7.45315,0.95050,5.79876,-3.5366,1.4634,1.0366,13.21,31.74,-4.13,0,S02
5980,-7.47709,0.97923,5.79876,-3.7195,-0.6098,1.3415,13.21,31.74,-4.13,0,S02
6000,-7.45315,1.00078,5.82030,-4.2683,-1.4634,1.7683,13.21,31.74,-4.04,0,S02
6020,-7.36935,1.01035,5.74369,-4.5732,-1.7073,1.9512,13.21,31.74,-4.04,0,S02
6040,-7.34541,0.97683,5.71496,-4.2073,-0.7927,1.2805,13.21,31.74,-4.04,0,S02
6060,-7.35259,0.93374,5.77721,-3.8415,-0.1829,0.6098,13.21,31.74,-4.04,0,S02
6080,-7.34541,0.98162,5.84664,-3.9024,-0.3659,0.4878,13.21,31.65,-4.04,0,S02
6100,-7.36456,0.99838,5.84425,-4.2073,-1.0976,0.6098,13.21,31.65,-4.04,0,S02
6120,-7.37175,0.98881,5.83228,-4.3902,-2.2561,0.7927,13.21,31.65,-4.04,0,S02
6140,-7.35499,0.97683,5.86579,-4.3902,-3.5366,0.9146,13.21,31.74,-3.85,0,S02
6160,-7.31907,1.02232,5.90889,-4.3293,-4.4512,1.0976,13.21,31.74,-3.85,0,S02
6180,-7.33583,1.03908,5.87777,-4.3293,-4.7561,1.1585,13.21,31.74,-3.85,0,S02
6200,-7.37414,1.02711,5.83946,-4.2683,-4.8171,0.9756,13.30,31.65,-3.85,0,S02
6220,-7.33344,1.01275,5.87537,-4.2683,-4.8171,0.8537,13.30,31.65,-3.85,0,S02
6240,-7.31907,1.03669,5.94001,-4.1463,-4.3293,0.7317,13.30,31.65,-3.85,0,S02
6260,-7.29513,1.06063,5.94720,-4.0854,-4.6951,0.9146,13.30,31.65,-3.85,0,S02
6280,-7.25204,1.03908,5.92325,-4.2683,-5.0610,1.1585,13.12,31.74,-3.67,0,S02
6300,-7.24725,1.00796,5.94959,-4.5732,-4.6951,1.0976,13.12,31.74,-3.67,0,S02
6320,-7.23767,0.97923,5.98072,-4.8780,-4.4512,1.0976,13.12,31.74,-3.67,0,S02
6340,-7.20415,1.02232,6.05015,-5.3049,-4.3902,1.3415,13.21,31.83,-3.58,0,S02
6360,-7.21612,1.01993,6.00226,-5.5488,-4.2073,1.4024,13.21,31.83,-3.58,0,S02
6380,-7.29992,1.00078,5.92804,-5.4268,-3.7195,0.9146,13.21,31.83,-3.58,0,S02
6400,-7.30710,1.01993,5.93044,-5.3049,-3.6585,0.4878,13.12,31.83,-3.58,0,S02
6420,-7.24485,1.06063,5.97832,-5.0000,-3.9024,0.4268,13.12,31.83,-3.58,0,S02
6440,-7.23049,1.08457,5.98550,-4.5122,-3.9024,0.2439,13.12,31.83,-3.58,0,S02
6460,-7.25443,1.03908,5.97832,-3.9024,-3.5976,-0.1220,13.12,31.83,-3.58,0,S02
6480,-7.25922,0.99838,5.99029,-3.5366,-3.4756,-0.4268,13.21,31.74,-3.39,0,S02
6500,-7.24485,0.99120,6.01663,-3.3537,-3.3537,-0.6707,13.21,31.74,-3.39,0,S02
6520,-7.24725,0.99838,5.99269,-3.2927,-3.2317,-0.4268,13.21,31.74,-3.39,0,S02
6540,-7.27837,0.97683,5.94959,-3.3537,-2.9878,-0.3659,13.21,31.83,-3.30,0,S02
6560,-7.28795,0.93853,5.95199,-3.5976,-2.8659,-0.4268,13.21,31.83,-3.30,0,S02
6580,-7.27358,0.95050,6.02142,-3.9024,-3.1098,-0.3659,13.21,31.83,-3.30,0,S02
6600,-7.18979,0.99359,6.10761,-4.3902,-3.6585,0.0000,13.30,31.83,-3.30,0,S02
6620,-7.08205,1.00796,6.10043,-4.9390,-3.7805,0.4878,13.30,31.83,-3.30,0,S02
6640,-7.07008,1.00556,6.09803,-5.3659,-3.1098,0.4268,13.30,31.83,-3.30,0,S02
6660,-7.13472,1.01514,6.07888,-5.2439,-2.3171,0.0000,13.30,31.83,-3.30,0,S02
6680,-7.18739,1.02951,6.07648,-4.5732,-1.7073,-0.2439,13.39,31.83,-3.21,0,S02
6700,-7.18979,1.02472,6.05972,-4.0244,-1.1585,-0.2439,13.39,31.83,-3.21,0,S02
6720,-7.20176,1.00317,5.99748,-3.8415,-0.4268,-0.1829,13.39,31.83,-3.21,0,S02
6740,-7.25922,0.96486,5.96156,-4.0854,0.4878,-0.3049,13.39,31.74,-3.30,0,S02
6760,-7.28795,0.93374,5.96874,-4.2683,0.8537,-0.3049,13.39,31.74,-3.30,0,S02
6780,-7.26401,0.94332,5.98072,-4.2073,0.7927,-0.1829,13.39,31.74,-3.30,0,S02
6800,-7.24725,0.98402,5.97114,-4.0244,0.7317,0.1220,13.39,31.74,-3.39,0,S02
6820,-7.27837,0.91937,5.97832,-4.5122,0.3049,0.5488,13.39,31.74,-3.39,0,S02
6840,-7.24485,0.91219,6.02142,-4.8171,0.0000,0.7317,13.39,31.74,-3.39,0,S02
6860,-7.23767,0.94571,6.02860,-4.8171,0.0000,0.8537,13.39,31.74,-3.39,0,S02
6880,-7.25443,0.95529,5.99987,-4.7561,0.1829,1.0366,13.39,31.65,-3.49,0,S02
6900,-7.28077,0.95768,5.97353,-4.8780,0.1829,1.2805,13.39,31.65,-3.49,0,S02
6920,-7.25204,0.96007,5.99987,-5.1829,0.1220,1.6463,13.39,31.65,-3.49,0,S02
6940,-7.22091,0.97923,6.02621,-5.4878,0.1220,1.8293,13.30,31.83,-3.58,0,S02
6960,-7.25683,0.99120,5.97832,-5.2439,0.4878,1.8293,13.30,31.83,-3.58,0,S02
6980,-7.29274,0.99838,5.95677,-5.0610,0.7317,1.7073,13.30,31.83,-3.58,0,S02
7000,-7.28316,0.99599,5.96635,-5.1220,0.4878,1.6463,13.21,31.74,-3.67,0,S02
7020,-7.26880,1.00317,5.99748,-5.1220,0.0610,1.6463,13.21,31.74,-3.67,0,S02
7040,-7.26880,1.02232,6.02381,-4.8780,-0.0610,1.6463,13.21,31.74,-3.67,0,S02
7060,-7.31668,1.02472,5.98072,-4.5122,-0.1829,1.6463,13.21,31.74,-3.67,0,S02
7080,-7.29992,1.00317,5.94001,-4.3902,-0.8537,1.7073,13.21,31.74,-3.67,0,S02
7100,-7.24246,1.00078,5.97353,-4.5732,-1.4024,1.5854,13.21,31.74,-3.67,0,S02
7120,-7.24485,1.02711,5.99987,-4.5122,-1.3415,1.4634,13.21,31.74,-3.67,0,S02
7140,-7.25204,1.05105,5.97593,-4.3902,-1.4024,1.5854,13.12,31.65,-3.67,0,S02
7160,-7.28077,1.02711,5.93523,-4.3293,-1.4634,1.6463,13.12,31.65,-3.67,0,S02
7180,-7.26640,1.00078,5.93523,-4.2683,-1.3415,1.3415,13.12,31.65,-3.67,0,S02
7200,-7.26401,1.01514,5.95438,-4.2683,-1.0976,1.0976,13.12,31.74,-3.67,0,S02
7220,-7.27119,1.00796,5.94720,-4.3293,-0.7927,0.8537,13.12,31.74,-3.67,0,S02
7240,-7.29753,0.98162,5.90650,-4.2683,-0.4878,0.5488,13.12,31.74,-3.67,0,S02
7260,-7.31907,0.96486,5.89452,-3.9634,-0.2439,0.4268,13.12,31.74,-3.67,0,S02
7280,-7.31189,0.97683,5.94720,-3.7195,-0.0610,0.5488,13.21,31.65,-3.76,0,S02
7300,-7.29753,0.96965,5.96874,-3.7805,-0.3049,0.7317,13.21,31.65,-3.76,0,S02
7320,-7.29034,0.95289,5.94480,-4.0244,-0.6098,0.6707,13.21,31.65,-3.76,0,S02
7340,-7.31429,0.97205,5.90889,-4.0244,-0.8537,0.4268,13.21,31.65,-3.67,0,S02
7360,-7.33344,0.98402,5.90410,-3.7805,-0.8537,0.3659,13.21,31.65,-3.67,0,S02
7380,-7.30950,1.00556,5.93044,-3.5976,-0.7927,0.5488,13.21,31.65,-3.67,0,S02
7400,-7.28795,1.01514,5.94720,-3.9024,-0.7927,0.7317,13.12,31.74,-3.76,0,S02
7420,-7.28077,1.02232,5.95917,-4.4512,-0.8537,0.7317,13.12,31.74,-3.76,0,S02
7440,-7.29034,1.02711,5.92086,-4.6341,-0.6707,0.8537,13.12,31.74,-3.76,0,S02
7460,-7.28077,1.04387,5.93762,-4.6951,0.1220,0.9146,13.12,31.74,-3.76,0,S02
7480,-7.28556,1.04387,5.91847,-4.7561,0.6098,0.8537,13.12,31.74,-3.85,0,S02
7500,-7.30950,1.02232,5.89692,-4.7561,0.9146,0.7317,13.12,31.74,-3.85,0,S02
7520,-7.30950,1.00796,5.91368,-4.5122,1.1585,0.5488,13.12,31.74,-3.85,0,S02
7540,-7.29513,1.00317,5.93523,-4.0854,1.2195,0.3049,13.12,31.74,-3.94,0,S02
7560,-7.26640,1.01035,5.94241,-3.7195,1.0366,0.3049,13.12,31.74,-3.94,0,S02
7580,-7.30232,0.99838,5.91847,-3.6585,0.9146,0.2439,13.12,31.74,-3.94,0,S02
7600,-7.32865,0.98162,5.91128,-3.9634,0.7927,0.0610,13.30,31.65,-3.94,0,S02
7620,-7.33583,0.99359,5.89452,-3.8415,0.7317,-0.1829,13.30,31.65,-3.94,0,S02
7640,-7.34302,1.00317,5.86819,-3.4146,0.9756,0.0000,13.30,31.65,-3.94,0,S02
7660,-7.37175,0.98881,5.85861,-3.4146,1.2195,0.3659,13.30,31.65,-3.94,0,S02
7680,-7.40527,0.96007,5.87298,-3.9024,1.0366,0.6098,13.21,31.74,-4.13,0,S02
7700,-7.39329,0.96247,5.85861,-4.3902,0.3049,0.5488,13.21,31.74,-4.13,0,S02
7720,-7.36456,1.00317,5.84903,-4.5122,-0.1829,0.5488,13.21,31.74,-4.13,0,S02
7740,-7.35259,1.00317,5.82270,-4.3293,-0.4268,0.9146,13.21,31.74,-4.22,0,S02
7760,-7.37893,1.00078,5.83706,-4.5122,-0.6707,1.1585,13.21,31.74,-4.22,0,S02
7780,-7.42442,1.01754,5.84903,-4.8171,-1.0366,1.0366,13.21,31.74,-4.22,0,S02
7800,-7.39329,1.02472,5.85143,-4.8780,-1.4634,0.7317,13.21,31.65,-4.13,0,S02
7820,-7.39569,1.01993,5.83706,-4.3902,-1.3415,0.8537,13.21,31.65,-4.13,0,S02
7840,-7.41724,1.01754,5.81791,-3.9024,-1.3415,1.0976,13.21,31.65,-4.13,0,S02
7860,-7.37893,1.02951,5.84664,-4.2073,-2.0732,1.0976,13.21,31.65,-4.13,0,S02
7880,-7.32865,1.02711,5.90650,-4.8171,-2.6829,0.9756,13.21,31.74,-4.04,0,S02
7900,-7.30710,1.02711,5.90410,-5.0000,-2.5610,0.9756,13.21,31.74,-4.04,0,S02
7920,-7.30471,1.01275,5.88255,-4.6341,-2.0732,1.2195,13.21,31.74,-4.04,0,S02
7940,-7.35738,0.97205,5.86340,-4.5732,-1.7683,1.4024,13.12,31.65,-4.13,0,S02
7960,-7.40048,0.94810,5.84425,-5.0610,-2.3171,1.4024,13.12,31.65,-4.13,0,S02
7980,-7.38132,0.98641,5.82749,-5.6707,-3.3537,1.5244,13.12,31.65,-4.13,0,S02
8000,-7.34781,1.03908,5.82988,-5.7927,-3.4756,1.5854,13.03,31.74,-3.94,0,S02
8020,-7.33344,1.04627,5.82749,-5.4268,-2.6829,1.4634,13.03,31.74,-3.94,0,S02
8040,-7.34062,1.03190,5.83467,-5.0610,-1.5854,1.1585,13.03,31.74,-3.94,0,S02
8060,-7.32865,1.01035,5.87777,-5.0000,-0.8537,0.8537,13.03,31.74,-3.94,0,S02
8080,-7.32147,1.00796,5.91607,-5.0610,-0.6098,0.7317,13.12,31.65,-4.04,0,S02
8100,-7.33583,1.01993,5.92565,-4.8780,-0.9146,0.7927,13.12,31.65,-4.04,0,S02
8120,-7.30710,1.00556,5.91128,-4.6951,-1.1585,0.8537,13.12,31.65,-4.04,0,S02
8140,-7.29753,0.99359,5.89931,-4.6951,-1.1585,0.7317,13.03,31.74,-3.94,0,S02
8160,-7.32865,1.01514,5.89213,-4.8780,-1.0366,0.4878,13.03,31.74,-3.94,0,S02
8180,-7.36456,1.03190,5.86579,-4.8171,-1.1585,0.4268,13.03,31.74,-3.94,0,S02
8200,-7.36935,1.00556,5.83467,-4.5732,-1.2805,0.5488,13.03,31.65,-4.13,0,S02
8220,-7.36935,0.97683,5.84903,-4.4512,-1.2195,0.6098,13.03,31.65,-4.13,0,S02
8240,-7.36935,0.99599,5.86101,-4.5732,-1.5244,0.4268,13.03,31.65,-4.13,0,S02
8260,-7.35020,0.99838,5.85382,-4.4512,-1.6463,0.4268,13.03,31.65,-4.13,0,S02
8280,-7.33105,0.98162,5.84903,-4.2073,-1.4024,0.4268,13.12,31.65,-4.04,0,S02
8300,-7.32386,0.95289,5.88255,-4.0854,-1.2805,0.4878,13.12,31.65,-4.04,0,S02
8320,-7.34302,0.96247,5.90410,-4.1463,-1.4634,0.6098,13.12,31.65,-4.04,0,S02
8340,-7.35978,0.97923,5.88495,-4.3293,-1.7073,0.7317,13.12,31.65,-4.04,0,S02
8360,-7.35978,0.97683,5.85143,-4.3293,-1.4634,0.6098,13.12,31.65,-4.04,0,S02
8380,-7.35499,0.96726,5.85143,-4.2683,-1.0366,0.5488,13.12,31.65,-4.04,0,S02
8400,-7.34781,0.98881,5.86819,-4.3293,-1.0976,0.6707,13.12,31.65,-3.94,0,S02
8420,-7.34062,1.01993,5.88255,-4.4512,-1.5244,0.8537,13.12,31.65,-3.94,0,S02
8440,-7.32865,0.99838,5.86579,-4.5122,-1.5854,1.0366,13.12,31.65,-3.94,0,S02
8460,-7.31189,0.99120,5.84903,-4.5122,-1.1585,0.9756,13.12,31.65,-3.94,0,S02
8480,-7.34781,0.99838,5.87058,-4.5122,-0.7927,0.7927,13.12,31.74,-4.04,0,S02
8500,-7.35738,1.02472,5.92086,-4.6951,-1.0366,0.7927,13.12,31.74,-4.04,0,S02
8520,-7.34781,1.03669,5.91368,-4.5122,-1.3415,0.9146,13.12,31.74,-4.04,0,S02
8540,-7.37654,1.01993,5.85861,-4.2073,-1.1585,1.0366,13.03,31.65,-4.04,0,S02
8560,-7.35020,0.99599,5.84664,-4.1463,-1.4634,0.9756,13.03,31.65,-4.04,0,S02
8580,-7.31429,1.00317,5.87298,-4.4512,-1.8902,1.0366,13.03,31.65,-4.04,0,S02
8600,-7.32386,1.02951,5.89692,-4.6951,-1.9512,0.9756,13.21,31.65,-4.04,0,S02
8620,-7.34062,1.05105,5.87777,-4.6951,-1.8902,0.9146,13.21,31.65,-4.04,0,S02
8640,-7.34781,1.01514,5.85143,-4.6341,-1.6463,0.9756,13.21,31.65,-4.04,0,S02
8660,-7.34541,0.99838,5.84903,-4.6951,-1.5244,0.9146,13.21,31.65,-4.04,0,S02
8680,-7.34062,1.01514,5.86340,-4.8171,-1.5854,0.7927,13.12,31.74,-4.04,0,S02
8700,-7.34302,1.03190,5.87537,-4.7561,-1.6463,0.6707,13.12,31.74,-4.04,0,S02
8720,-7.34302,1.02951,5.85143,-4.6341,-1.5854,0.7317,13.12,31.74,-4.04,0,S02
8740,-7.35499,0.99120,5.82749,-4.5122,-1.3415,0.7317,13.03,31.65,-4.04,0,S02
8760,-7.34781,0.95768,5.85382,-4.5122,-1.2195,0.6707,13.03,31.65,-4.04,0,S02
8780,-7.33344,0.96965,5.88734,-4.5732,-1.3415,0.6098,13.03,31.65,-4.04,0,S02
8800,-7.34781,1.01514,5.88016,-4.6341,-1.7073,0.5488,13.03,31.74,-4.04,0,S02
8820,-7.35978,1.02232,5.84903,-4.3902,-1.6463,0.5488,13.03,31.74,-4.04,0,S02
8840,-7.33583,0.98162,5.84903,-4.3293,-1.3415,0.6098,13.03,31.74,-4.04,0,S02
8860,-7.31189,0.96726,5.87777,-4.3293,-1.2805,0.5488,13.03,31.74,-4.04,0,S02
8880,-7.31668,1.01754,5.91607,-4.3902,-1.4634,0.3659,13.03,31.65,-4.13,0,S02
8900,-7.34302,1.03190,5.88734,-4.3902,-1.7073,0.4268,13.03,31.65,-4.13,0,S02
8920,-7.33583,1.00078,5.86819,-4.2073,-1.5244,0.4878,13.03,31.65,-4.13,0,S02
8940,-7.31668,0.96965,5.85382,-4.0854,-1.4024,0.5488,13.03,31.74,-3.94,0,S02
8960,-7.31668,0.99120,5.89931,-4.0244,-1.4024,0.4878,13.03,31.74,-3.94,0,S02
8980,-7.33344,1.00796,5.91847,-4.2073,-1.5854,0.4878,13.03,31.74,-3.94,0,S02
9000,-7.36696,1.00556,5.86819,-4.3902,-1.5244,0.5488,13.03,31.74,-4.04,0,S02
9020,-7.37414,0.98402,5.83946,-4.5732,-1.0976,0.6098,13.03,31.74,-4.04,0,S02
9040,-7.35020,0.98402,5.83706,-4.3902,-1.0366,0.6707,13.03,31.74,-4.04,0,S02
9060,-7.33344,1.01275,5.88495,-4.2073,-0.9756,0.7317,13.03,31.74,-4.04,0,S02
9080,-7.36217,1.02472,5.88255,-4.2073,-1.0366,0.7927,13.03,31.65,-3.94,0,S02
9100,-7.37414,1.01514,5.84664,-4.3902,-1.2195,0.9146,13.03,31.65,-3.94,0,S02
9120,-7.35978,1.00317,5.83706,-4.5122,-1.5854,0.9756,13.03,31.65,-3.94,0,S02
9140,-7.33583,0.99838,5.85143,-4.3293,-2.0732,0.7927,13.12,31.74,-4.04,0,S02
9160,-7.31429,1.03430,5.90889,-4.3902,-2.5000,0.6707,13.12,31.74,-4.04,0,S02
9180,-7.35020,1.02232,5.91607,-4.8171,-2.7439,0.6098,13.12,31.74,-4.04,0,S02
9200,-7.39090,1.01035,5.88255,-5.0610,-3.1098,0.6707,13.03,31.74,-3.94,0,S02
9220,-7.35738,0.99838,5.88255,-4.8171,-3.0488,0.7927,13.03,31.74,-3.94,0,S02
9240,-7.33823,1.00078,5.91368,-4.2073,-2.6220,0.8537,13.03,31.74,-3.94,0,S02
9260,-7.32865,1.00078,5.91368,-4.1463,-2.9878,0.9756,13.03,31.74,-3.94,0,S02
9280,-7.32386,0.99599,5.90171,-4.4512,-3.1098,0.9146,13.03,31.74,-3.85,0,S02
9300,-7.29992,0.97923,5.90410,-4.5732,-2.6220,0.7927,13.03,31.74,-3.85,0,S02
9320,-7.27358,0.99359,5.91847,-4.3902,-2.1341,0.7927,13.03,31.74,-3.85,0,S02
9340,-7.27119,1.00796,5.95438,-4.3902,-2.0122,0.7927,13.12,31.74,-3.76,0,S02
9360,-7.29513,1.00317,5.91847,-4.5732,-2.1951,0.8537,13.12,31.74,-3.76,0,S02
9380,-7.29513,0.98162,5.89452,-4.8780,-2.2561,0.7927,13.12,31.74,-3.76,0,S02
9400,-7.30471,0.97683,5.90650,-4.9390,-2.3171,0.7927,13.12,31.74,-3.85,0,S02
9420,-7.29992,1.00078,5.93762,-4.7561,-2.3171,0.7317,13.12,31.74,-3.85,0,S02
9440,-7.30232,1.01035,5.94959,-4.8171,-2.3780,0.7317,13.12,31.74,-3.85,0,S02
9460,-7.33583,1.01993,5.91607,-5.0610,-2.1951,0.4878,13.12,31.74,-3.85,0,S02
9480,-7.32147,1.01275,5.89213,-5.0000,-1.8293,0.3049,13.03,31.74,-3.85,0,S02
9500,-7.30710,1.02472,5.90410,-4.5732,-1.4024,0.1829,13.03,31.74,-3.85,0,S02
9520,-7.30232,1.02951,5.95199,-4.2073,-1.3415,0.1829,13.03,31.74,-3.85,0,S02
9540,-7.29753,1.01514,5.94001,-3.9634,-1.5244,0.1829,13.12,31.74,-3.85,0,S02
9560,-7.28556,0.96726,5.91368,-3.8415,-1.4024,0.1220,13.12,31.74,-3.85,0,S02
9580,-7.29034,0.94571,5.92325,-3.8415,-1.3415,0.1829,13.12,31.74,-3.85,0,S02
9600,-7.29992,0.96726,5.95677,-4.0244,-1.4024,0.2439,13.03,31.74,-3.85,0,S02
9620,-7.31429,0.97683,5.94720,-4.2073,-1.7073,0.3659,13.03,31.74,-3.85,0,S02
9640,-7.30232,0.96007,5.90171,-4.4512,-1.1585,0.4878,13.03,31.74,-3.85,0,S02
9660,-7.30232,0.98162,5.93044,-4.5732,-0.9146,0.5488,13.03,31.74,-3.85,0,S02
9680,-7.30471,1.00556,5.94480,-4.5732,-1.0366,0.6098,13.12,31.65,-3.76,0,S02
9700,-7.31429,1.00078,5.91128,-4.6951,-1.1585,0.6707,13.12,31.65,-3.76,0,S02
9720,-7.29753,0.97923,5.88974,-4.7561,-0.8537,0.6707,13.12,31.65,-3.76,0,S02
9740,-7.29274,0.97683,5.92086,-4.8171,-0.7927,0.7317,13.03,31.74,-3.94,0,S02
9760,-7.30232,0.99599,5.97353,-4.8171,-1.0366,0.7317,13.03,31.74,-3.94,0,S02
9780,-7.29513,1.00078,5.95677,-4.8171,-1.4024,0.7317,13.03,31.74,-3.94,0,S02
9800,-7.30950,0.99599,5.91128,-5.0610,-1.4634,0.7317,12.94,31.65,-3.85,0,S02
9820,-7.31668,0.97444,5.88974,-5.0610,-1.2805,0.7927,12.94,31.65,-3.85,0,S02
9840,-7.28077,0.97923,5.88974,-5.0000,-1.4634,0.7317,12.94,31.65,-3.85,0,S02
9860,-7.27837,1.01035,5.94720,-5.0610,-1.5244,0.5488,12.94,31.65,-3.85,0,S02
9880,-7.34062,1.01993,5.93283,-4.9390,-1.5854,0.4268,13.12,31.65,-3.85,0,S02
9900,-7.32865,0.98881,5.91847,-4.5122,-1.2805,0.6707,13.12,31.65,-3.85,0,S02
9920,-7.34062,0.95529,5.89931,-4.1463,-0.9756,0.7927,13.12,31.65,-3.85,0,S02
9940,-7.32386,0.96965,5.93044,-4.1463,-1.7073,0.6707,13.03,31.74,-3.76,0,S02
9960,-7.28795,1.00796,5.94241,-4.4512,-2.5610,0.6098,13.03,31.74,-3.76,0,S02
9980,-7.29513,0.99599,5.92086,-4.5122,-2.5610,0.6098,13.03,31.74,-3.76,0,S02
10000,-7.28795,0.96726,5.92325,-4.3902,-2.0732,0.6707,13.03,31.74,-3.85,0,S02
10020,-7.27598,0.96486,5.93283,-4.2073,-1.8902,0.6707,13.03,31.74,-3.85,0,S02
10040,-7.27837,0.97205,5.94241,-4.2683,-1.8902,0.6707,13.03,31.74,-3.85,0,S02
10060,-7.29753,0.97205,5.95917,-4.5122,-1.8293,0.7317,13.03,31.74,-3.85,0,S02
10080,-7.31429,0.96726,5.92804,-4.5122,-1.5854,0.7927,13.03,31.65,-3.76,0,S02
10100,-7.29513,0.93853,5.90410,-4.3293,-1.2805,0.7927,13.03,31.65,-3.76,0,S02
10120,-7.28556,0.93853,5.91368,-4.1463,-1.3415,0.7317,13.03,31.65,-3.76,0,S02
10140,-7.30710,0.95768,5.94959,-4.4512,-1.4024,0.7927,13.03,31.74,-3.76,0,S02
10160,-7.34541,0.97444,5.94001,-4.7561,-1.4634,0.7317,13.03,31.74,-3.76,0,S02
10180,-7.33105,0.96726,5.93283,-4.6951,-1.4634,0.8537,13.03,31.74,-3.76,0,S02
10200,-7.29034,0.97683,5.92804,-4.2683,-1.5244,0.9146,13.03,31.74,-3.76,0,S02
10220,-7.26161,1.00796,5.96156,-4.2073,-1.5244,0.8537,13.03,31.74,-3.76,0,S02
10240,-7.27119,0.99599,5.97353,-4.5732,-1.5244,0.7927,13.03,31.74,-3.76,0,S02
10260,-7.29034,0.99120,5.96156,-4.6951,-1.4024,0.7317,13.03,31.74,-3.76,0,S02
10280,-7.27837,0.98402,5.94241,-4.5732,-1.4024,0.5488,13.03,31.74,-3.85,0,S02
10300,-7.25922,0.99359,5.95199,-4.2683,-1.5244,0.4878,13.03,31.74,-3.85,0,S02
10320,-7.25443,0.99599,5.97593,-4.1463,-1.5244,0.5488,13.03,31.74,-3.85,0,S02
10340,-7.30950,0.95050,5.96635,-4.2683,-1.7073,0.6707,13.03,31.65,-3.76,0,S02
10360,-7.34062,0.89064,5.93762,-4.3902,-2.3171,0.9756,13.03,31.65,-3.76,0,S02
10380,-7.30232,0.90022,5.93762,-4.7561,-3.7805,1.5244,13.03,31.65,-3.76,0,S02
10400,-7.26640,0.96007,5.95677,-5.1829,-5.1220,2.0122,13.03,31.93,-3.58,0,S02
10420,-7.25443,1.03190,5.97593,-5.1829,-5.4878,2.1341,13.03,31.93,-3.58,0,S02
10440,-7.26880,1.02711,5.99508,-5.0610,-4.6951,1.9512,13.03,31.93,-3.58,0,S02
10460,-7.28795,0.99838,5.97832,-4.6951,-3.5366,1.6463,13.03,31.93,-3.58,0,S02
10480,-7.27119,0.97444,5.97593,-4.4512,-2.5000,1.4634,12.94,31.83,-3.49,0,S02
10500,-7.24725,0.97923,5.99508,-4.3902,-2.0122,1.4024,12.94,31.83,-3.49,0,S02
10520,-7.23288,0.99120,5.99987,-4.6341,-1.7073,1.4634,12.94,31.83,-3.49,0,S02
10540,-7.24725,1.00078,6.00226,-5.0000,-1.5244,1.2805,12.94,31.74,-3.58,0,S02
10560,-7.22810,1.01754,5.99987,-5.0000,-1.5854,1.2195,12.94,31.74,-3.58,0,S02
10580,-7.25683,1.00796,5.98790,-4.6951,-1.4024,1.2805,12.94,31.74,-3.58,0,S02
10600,-7.27119,0.98881,5.99029,-4.5732,-1.4024,1.4634,12.84,31.74,-3.58,0,S02
10620,-7.25922,1.01993,6.00945,-5.0000,-1.4634,1.4634,12.84,31.74,-3.58,0,S02
10640,-7.29034,1.04148,6.00226,-4.9390,-1.5244,1.1585,12.84,31.74,-3.58,0,S02
10660,-7.27598,1.02951,5.97593,-4.2683,-2.0122,1.2195,12.84,31.74,-3.58,0,S02
10680,-7.23767,0.99599,5.96635,-3.9024,-2.2561,1.4634,12.75,31.93,-3.39,0,S02
10700,-7.21373,0.96247,5.98311,-4.3902,-2.0732,1.4634,12.75,31.93,-3.39,0,S02
10720,-7.22331,0.98162,5.99987,-4.8780,-2.1341,1.0976,12.75,31.93,-3.39,0,S02
10740,-7.23288,1.03190,5.98550,-4.6341,-2.0732,0.7927,12.84,31.83,-3.49,0,S02
10760,-7.23528,1.01275,5.97593,-4.0854,-1.7683,0.8537,12.84,31.83,-3.49,0,S02
10780,-7.22570,0.97444,5.98790,-3.9024,-1.4634,1.0976,12.84,31.83,-3.49,0,S02
10800,-7.22810,0.97444,6.00705,-4.3293,-1.4024,0.9756,12.75,31.83,-3.58,0,S02
10820,-7.23049,1.02711,6.01184,-4.5122,-1.5854,0.6098,12.75,31.83,-3.58,0,S02
10840,-7.24485,1.03190,5.99029,-4.1463,-1.6463,0.6098,12.75,31.83,-3.58,0,S02
10860,-7.24725,0.99838,5.99269,-3.8415,-1.5854,0.9756,12.75,31.83,-3.58,0,S02
10880,-7.23767,0.97444,5.99987,-4.0244,-1.6463,1.1585,12.84,31.83,-3.30,0,S02
10900,-7.21852,1.00556,6.03818,-4.4512,-2.1341,0.8537,12.84,31.83,-3.30,0,S02
10920,-7.21612,1.04387,6.05494,-4.6951,-2.5000,0.6098,12.84,31.83,-3.30,0,S02
10940,-7.22331,1.08218,6.02621,-4.5122,-2.4390,0.4268,12.84,31.93,-3.49,0,S02
10960,-7.21134,1.03908,6.01184,-4.0854,-1.9512,0.4878,12.84,31.93,-3.49,0,S02
10980,-7.21134,0.98881,6.00705,-3.8415,-1.7073,0.4878,12.84,31.93,-3.49,0,S02
11000,-7.20894,0.97444,6.02621,-4.0854,-1.7683,0.4878,12.75,31.83,-3.49,0,S02
11020,-7.22091,1.01275,6.03339,-4.5122,-1.7683,0.4268,12.75,31.83,-3.49,0,S02
11040,-7.20894,0.98881,6.01423,-4.2683,-1.4024,0.7317,12.75,31.83,-3.49,0,S02
11060,-7.20415,0.99359,6.00226,-4.5122,-1.1585,0.7927,12.75,31.83,-3.49,0,S02
11080,-7.22331,1.01754,6.02621,-5.0000,-1.1585,0.6098,12.94,31.93,-3.49,0,S02
11100,-7.22331,1.03669,6.02621,-4.8780,-1.0366,0.4878,12.94,31.93,-3.49,0,S02
11120,-7.23767,1.03190,6.00466,-4.5122,-0.6707,0.7317,12.94,31.93,-3.49,0,S02
11140,-7.22570,0.98641,6.00226,-4.4512,-0.4268,0.9146,12.75,31.83,-3.39,0,S02
11160,-7.21134,0.98162,6.03578,-4.6951,-0.4268,0.7927,12.75,31.83,-3.39,0,S02
11180,-7.21373,1.01754,6.05015,-4.8780,-0.5488,0.4878,12.75,31.83,-3.39,0,S02
11200,-7.26161,1.04148,6.04057,-4.6951,-0.6707,0.4268,12.84,31.93,-3.49,0,S02
11220,-7.27119,1.01993,5.98790,-4.2073,-0.8537,0.7317,12.84,31.93,-3.49,0,S02
11240,-7.26640,0.97923,5.95917,-3.9634,-1.4024,0.9146,12.84,31.93,-3.49,0,S02
11260,-7.26161,0.98881,5.97353,-4.0854,-1.9512,0.7927,12.84,31.93,-3.49,0,S02
11280,-7.26401,0.99120,5.99029,-4.3902,-2.1951,0.6707,12.75,31.83,-3.49,0,S02
11300,-7.22091,1.00078,5.98790,-4.3902,-1.9512,0.6707,12.75,31.83,-3.49,0,S02
11320,-7.22331,1.00796,5.99269,-4.2683,-1.2805,0.5488,12.75,31.83,-3.49,0,S02
11340,-7.24246,0.99838,6.01902,-4.1463,-0.9146,0.4878,12.84,31.93,-3.39,0,S02
11360,-7.22570,1.01275,6.06451,-4.2683,-0.8537,0.4878,12.84,31.93,-3.39,0,S02
11380,-7.22810,1.02472,6.07170,-4.3902,-0.7927,0.4878,12.84,31.93,-3.39,0,S02
11400,-7.21612,1.02711,6.04536,-4.0854,-1.2195,0.6098,12.75,31.74,-3.49,0,S02
11420,-7.18979,1.01275,6.01902,-3.7805,-1.5854,0.7317,12.75,31.74,-3.49,0,S02
11440,-7.18979,1.00317,6.01663,-3.8415,-1.4634,0.6098,12.75,31.74,-3.49,0,S02
11460,-7.19458,0.98881,6.02621,-4.0854,-1.4024,0.4268,12.75,31.74,-3.49,0,S02
11480,-7.21373,0.99838,6.02381,-4.1463,-1.2805,0.3659,12.84,31.93,-3.58,0,S02
11500,-7.24246,0.99120,5.99029,-4.2683,-0.7317,0.4878,12.84,31.93,-3.58,0,S02
11520,-7.26640,0.99120,5.93044,-4.1463,0.1220,0.4268,12.84,31.93,-3.58,0,S02
11540,-7.24485,0.99838,5.95677,-4.0854,0.9146,0.3659,12.84,31.83,-3.58,0,S02
11560,-7.25683,0.99838,5.98311,-4.0854,1.2195,0.4878,12.84,31.83,-3.58,0,S02
11580,-7.27119,0.99599,5.97593,-4.1463,1.3415,0.5488,12.84,31.83,-3.58,0,S02
11600,-7.28795,0.98402,5.96874,-4.3902,1.4634,0.6707,12.84,31.83,-3.76,0,S02
11620,-7.28077,0.97205,5.94959,-4.4512,1.6463,0.6707,12.84,31.83,-3.76,0,S02
11640,-7.27358,1.00317,5.97593,-4.3902,1.7683,0.7927,12.84,31.83,-3.76,0,S02
11660,-7.28795,1.03669,5.99029,-4.3902,1.2805,0.9146,12.84,31.83,-3.76,0,S02
11680,-7.29034,1.04148,5.94959,-4.3293,0.6707,1.0366,12.84,31.83,-3.76,0,S02
11700,-7.29992,1.02232,5.91368,-4.2073,0.3659,0.9146,12.84,31.83,-3.76,0,S02
11720,-7.34302,1.02472,5.93283,-4.1463,0.1829,0.7927,12.84,31.83,-3.76,0,S02
11740,-7.36935,1.03430,5.91847,-4.0244,-0.7317,0.9146,12.94,31.74,-3.76,0,S02
11760,-7.30471,0.99838,5.86819,-3.9024,-1.8293,0.9756,12.94,31.74,-3.76,0,S02
11780,-7.26401,0.98402,5.87298,-4.0244,-1.7073,0.7927,12.94,31.74,-3.76,0,S02
11800,-7.28077,1.00317,5.93283,-4.3902,-0.9146,0.4878,12.84,31.65,-3.94,0,S02
11820,-7.30232,1.02711,5.97114,-4.5122,-0.9146,0.3659,12.84,31.65,-3.94,0,S02
11840,-7.28795,1.01754,5.93523,-4.2683,-1.1585,0.4268,12.84,31.65,-3.94,0,S02
11860,-7.27598,0.99599,5.90171,-4.1463,-0.7317,0.4268,12.84,31.65,-3.94,0,S02
11880,-7.25683,0.99599,5.90650,-4.2073,-0.0610,0.3659,12.84,31.83,-3.94,0,S02
11900,-7.25683,1.01275,5.96396,-4.3902,0.2439,0.2439,12.84,31.83,-3.94,0,S02
11920,-7.27837,1.02472,5.99029,-4.3902,0.0610,0.2439,12.84,31.83,-3.94,0,S02
11940,-7.30471,1.03190,5.95199,-4.2073,-0.1829,0.2439,12.84,31.74,-3.85,0,S02
11960,-7.30950,1.01514,5.90410,-4.0854,0.0610,0.1829,12.84,31.74,-3.85,0,S02
11980,-7.30710,0.99838,5.88734,-3.8415,0.6707,0.2439,12.84,31.74,-3.85,0,S02
12000,-7.31429,1.00078,5.93044,-3.8415,1.1585,0.4268,12.94,31.74,-4.04,0,S02
12020,-7.35259,0.99359,5.93044,-4.1463,1.0366,0.6098,12.94,31.74,-4.04,0,S02
12040,-7.34541,0.99599,5.87298,-4.3293,0.7317,0.6098,12.94,31.74,-4.04,0,S02
12060,-7.32147,0.98641,5.84185,-4.3293,1.0366,0.4878,12.94,31.74,-4.04,0,S02
12080,-7.34062,0.99599,5.85143,-4.2683,1.2805,0.5488,12.84,31.65,-4.13,0,S02
12100,-7.38611,1.01754,5.88974,-4.6951,0.4268,0.7927,12.84,31.65,-4.13,0,S02
12120,-7.35738,1.04387,5.88974,-5.1220,-0.5488,0.9146,12.84,31.65,-4.13,0,S02
12140,-7.30710,1.02711,5.88734,-5.0000,-0.3659,0.7927,12.84,31.83,-4.13,0,S02
12160,-7.32626,1.00317,5.88016,-4.2073,0.5488,0.6707,12.84,31.83,-4.13,0,S02
12180,-7.34781,0.98881,5.89692,-3.4756,0.7317,0.8537,12.84,31.83,-4.13,0,S02
12200,-7.34541,0.96965,5.88734,-3.5976,0.1220,0.9146,12.84,31.74,-4.22,0,S02
12220,-7.34541,0.97205,5.85622,-4.2073,0.0610,0.8537,12.84,31.74,-4.22,0,S02
12240,-7.34781,0.98881,5.82988,-4.4512,0.8537,0.7317,12.84,31.74,-4.22,0,S02
12260,-7.36935,1.01514,5.82270,-4.1463,1.7683,0.9146,12.84,31.74,-4.22,0,S02
12280,-7.38372,1.00078,5.83228,-4.1463,1.8293,1.2805,12.84,31.65,-4.40,0,S02
12300,-7.41245,1.00078,5.82270,-4.5732,1.0366,1.4024,12.84,31.65,-4.40,0,S02
12320,-7.41245,1.02232,5.79876,-4.6951,0.4268,1.0976,12.84,31.65,-4.40,0,S02
12340,-7.39569,1.03430,5.77242,-4.5732,0.4878,0.9146,12.75,31.74,-4.50,0,S02
12360,-7.39808,1.06542,5.77242,-4.4512,0.9756,0.9756,12.75,31.74,-4.50,0,S02
12380,-7.43878,1.06063,5.80355,-4.6341,1.0976,1.0976,12.75,31.74,-4.50,0,S02
12400,-7.44597,1.04148,5.78439,-4.6341,0.9146,0.9756,12.75,31.74,-4.50,0,S02
12420,-7.43160,1.03669,5.74848,-4.3902,0.6098,0.6098,12.75,31.74,-4.50,0,S02
12440,-7.41005,1.05345,5.78679,-3.7195,0.3049,0.6707,12.75,31.74,-4.50,0,S02
12460,-7.41005,1.01993,5.78918,-4.2683,-0.2439,0.6098,12.75,31.74,-4.50,0,S02
12480,-7.42681,1.02711,5.77003,-4.5122,-0.7317,0.3659,12.84,31.56,-4.50,0,S02
12500,-7.45794,1.02951,5.73651,-4.2683,-0.5488,0.1220,12.84,31.56,-4.50,0,S02
12520,-7.45076,1.03669,5.75327,-3.7805,-0.0610,0.3049,12.84,31.56,-4.50,0,S02
12540,-7.38611,1.01275,5.78679,-3.5366,-0.1220,0.6098,12.75,31.65,-4.59,0,S02
12560,-7.36696,0.96247,5.81073,-3.7195,-0.2439,0.6098,12.75,31.65,-4.59,0,S02
12580,-7.40527,0.96965,5.79636,-4.0244,-0.1829,0.4878,12.75,31.65,-4.59,0,S02
12600,-7.45315,1.01275,5.75327,-4.0854,0.0000,0.4878,12.84,31.56,-4.68,0,S02
12620,-7.46991,1.01754,5.74369,-3.7805,0.3659,1.0366,12.84,31.56,-4.68,0,S02
12640,-7.44836,0.96247,5.74369,-3.5366,0.2439,1.5854,12.84,31.56,-4.68,0,S02
12660,-7.43160,0.94571,5.75566,-3.9024,-0.2439,1.8293,12.84,31.56,-4.68,0,S02
12680,-7.46033,0.99838,5.73411,-4.5122,-0.6707,1.7073,12.84,31.65,-4.77,0,S02
12700,-7.46512,1.03908,5.71017,-4.6341,-0.6098,1.7683,12.84,31.65,-4.77,0,S02
12720,-7.47230,1.03430,5.67665,-4.5732,-0.1829,2.1341,12.84,31.65,-4.77,0,S02
12740,-7.47230,1.02232,5.67665,-5.0610,-0.1829,2.1951,12.57,31.65,-4.77,0,S02
12760,-7.46033,1.07021,5.69102,-5.6707,-0.9146,2.0122,12.57,31.65,-4.77,0,S02
12780,-7.45794,1.10373,5.68144,-5.5488,-1.1585,1.6463,12.57,31.65,-4.77,0,S02
12800,-7.47230,1.10133,5.67665,-4.9390,-0.7317,1.6463,12.66,31.56,-4.77,0,S02
12820,-7.47230,1.09894,5.71017,-4.3293,-0.3049,1.7073,12.66,31.56,-4.77,0,S02
12840,-7.40048,1.10852,5.80355,-4.0244,-0.4878,1.4634,12.66,31.56,-4.77,0,S02
12860,-7.35978,1.11570,5.84903,-3.4146,-0.8537,0.9146,12.66,31.56,-4.77,0,S02
12880,-7.43639,1.08936,5.77721,-2.6220,-0.4268,0.4878,12.66,31.65,-4.77,0,S02
12900,-7.45554,1.01514,5.70778,-2.4390,0.0000,0.4878,12.66,31.65,-4.77,0,S02
12920,-7.43160,0.99359,5.70059,-3.1707,-0.1829,0.6098,12.66,31.65,-4.77,0,S02
12940,-7.45554,1.01993,5.71496,-4.3902,-0.6098,0.6707,12.66,31.65,-4.77,0,S02
12960,-7.49864,1.04387,5.69102,-5.0610,-0.6098,0.6707,12.66,31.65,-4.77,0,S02
12980,-7.55610,1.04627,5.63356,-4.8780,-0.4878,0.9146,12.66,31.65,-4.77,0,S02
13000,-7.53455,1.02951,5.58567,-4.2683,-0.5488,1.2805,12.57,31.56,-4.86,0,S02
13020,-7.47470,1.03430,5.62637,-4.6341,-0.6098,1.4634,12.57,31.56,-4.86,0,S02
13040,-7.51061,1.09176,5.68384,-5.6098,-0.7927,1.3415,12.57,31.56,-4.86,0,S02
13060,-7.53216,1.12049,5.65750,-5.6098,-0.9756,1.4634,12.57,31.56,-4.86,0,S02
13080,-7.50822,1.08936,5.64553,-4.8780,-0.6707,1.7683,12.66,31.65,-4.86,0,S02
13100,-7.45554,1.04148,5.64074,-4.2683,-0.2439,1.8293,12.66,31.65,-4.86,0,S02
13120,-7.45554,1.00796,5.71017,-4.3902,-0.1829,1.7683,12.66,31.65,-4.86,0,S02
13140,-7.51061,1.05345,5.74130,-5.1829,-1.4634,1.7073,12.48,31.65,-5.05,0,S02
13160,-7.49625,1.10373,5.70778,-5.6098,-2.8659,1.8293,12.48,31.65,-5.05,0,S02
13180,-7.45076,1.11091,5.66229,-5.7927,-2.9878,1.8902,12.48,31.65,-5.05,0,S02
13200,-7.43400,1.10133,5.67186,-5.6098,-2.2561,1.7683,12.39,31.65,-4.77,0,S02
13220,-7.43639,1.09415,5.71735,-5.4878,-1.5244,1.5244,12.39,31.65,-4.77,0,S02
13240,-7.47709,1.09654,5.70778,-5.3659,-1.3415,1.2195,12.39,31.65,-4.77,0,S02
13260,-7.47949,1.09894,5.67905,-5.0610,-0.9756,0.9756,12.39,31.65,-4.77,0,S02
13280,-7.45554,1.06063,5.66947,-4.6341,-0.6707,0.7317,12.48,31.65,-4.77,0,S02
13300,-7.42921,1.05584,5.73890,-4.2683,-0.5488,0.4878,12.48,31.65,-4.77,0,S02
13320,-7.45315,1.05824,5.77242,-4.2683,-0.8537,0.3659,12.48,31.65,-4.77,0,S02
13340,-7.47230,1.07739,5.74369,-4.3293,-1.6463,0.2439,12.48,31.65,-4.86,0,S02
13360,-7.48427,1.05824,5.69581,-4.2683,-2.3171,0.2439,12.48,31.65,-4.86,0,S02
13380,-7.46273,1.03908,5.67186,-3.8415,-2.5610,0.2439,12.48,31.65,-4.86,0,S02
13400,-7.46991,1.03908,5.71496,-3.3537,-2.4390,0.1829,12.57,31.65,-4.77,0,S02
13420,-7.54652,1.01035,5.74369,-3.2927,-2.3780,0.1829,12.57,31.65,-4.77,0,S02
13440,-7.52737,0.97683,5.70778,-3.5366,-1.8293,0.2439,12.57,31.65,-4.77,0,S02
13460,-7.44836,1.00796,5.67665,-3.8415,-1.1585,0.1220,12.57,31.65,-4.77,0,S02
13480,-7.39808,1.06063,5.66468,-4.2073,-0.7927,-0.3049,12.57,31.56,-4.86,0,S02
13500,-7.42921,1.10373,5.71017,-4.7561,-0.8537,-0.6707,12.57,31.56,-4.86,0,S02
13520,-7.43400,1.15640,5.72214,-4.7561,-1.7683,-0.7317,12.57,31.56,-4.86,0,S02
13540,-7.43878,1.16837,5.70299,-4.2073,-2.1951,-0.7317,12.66,31.65,-4.86,0,S02
13560,-7.49385,1.14682,5.68623,-3.5366,-2.1341,-0.8537,12.66,31.65,-4.86,0,S02
13580,-7.51061,1.10133,5.69820,-3.1098,-2.3171,-0.8537,12.66,31.65,-4.86,0,S02
13600,-7.52498,1.04627,5.71735,-2.8049,-2.9268,-0.9146,12.66,31.74,-4.68,0,S02
13620,-7.50582,1.00796,5.68144,-2.4390,-3.7195,-0.8537,12.66,31.74,-4.68,0,S02
13640,-7.45554,0.98162,5.63595,-2.4390,-3.9024,-0.9756,12.66,31.74,-4.68,0,S02
13660,-7.41963,0.99120,5.68623,-2.9268,-3.2927,-1.0366,12.66,31.74,-4.68,0,S02
13680,-7.40048,0.97683,5.78918,-3.4756,-2.5610,-0.7317,12.84,31.65,-4.59,0,S02
13700,-7.44118,0.97444,5.79157,-3.8415,-2.3171,-0.4268,12.84,31.65,-4.59,0,S02
13720,-7.45315,0.99599,5.75327,-4.3293,-1.8293,-0.1829,12.84,31.65,-4.59,0,S02
13740,-7.39808,0.99120,5.72932,-4.6341,-0.7927,-0.1220,12.75,31.65,-4.68,0,S02
13760,-7.35978,1.02951,5.75806,-4.7561,0.1220,-0.3049,12.75,31.65,-4.68,0,S02
13780,-7.37654,1.11570,5.81791,-4.8171,0.1829,-0.6098,12.75,31.65,-4.68,0,S02
13800,-7.42442,1.12288,5.78439,-4.5732,-0.5488,-0.8537,12.75,31.56,-4.77,0,S02
13820,-7.46991,1.06542,5.71735,-3.9634,-0.6098,-0.8537,12.75,31.56,-4.77,0,S02
13840,-7.49625,1.01035,5.71257,-3.7195,-1.2805,-0.2439,12.75,31.56,-4.77,0,S02
13860,-7.52737,1.03190,5.70538,-3.7805,-2.0732,-0.1829,12.75,31.56,-4.77,0,S02
13880,-7.53455,1.00796,5.65510,-3.5366,-2.1341,-0.0610,12.94,31.56,-4.68,0,S02
13900,-7.53455,0.95768,5.60722,-3.7195,-1.4634,0.1829,12.94,31.56,-4.68,0,S02
13920,-7.52258,0.95768,5.63834,-3.9024,-1.0976,0.2439,12.94,31.56,-4.68,0,S02
13940,-7.51300,0.98402,5.69581,-3.9024,-1.2195,0.1829,12.94,31.56,-4.77,0,S02
13960,-7.54892,0.99359,5.71496,-3.7805,-1.8902,0.3659,12.94,31.56,-4.77,0,S02
13980,-7.55610,0.99120,5.67665,-3.8415,-2.6829,0.7927,12.94,31.56,-4.77,0,S02
14000,-7.49146,0.97683,5.65510,-4.0244,-3.1707,1.1585,13.03,31.56,-4.68,0,S02
14020,-7.43639,0.99599,5.69581,-4.3902,-3.3537,1.2195,13.03,31.56,-4.68,0,S02
14040,-7.43878,1.04148,5.75327,-4.7561,-3.3537,1.2805,13.03,31.56,-4.68,0,S02
14060,-7.46033,1.07021,5.74848,-4.6951,-3.5366,1.4634,13.03,31.56,-4.68,0,S02
14080,-7.43400,1.04148,5.74130,-4.6341,-3.3537,1.5854,12.84,31.65,-4.40,0,S02
14100,-7.39090,1.01514,5.73651,-4.5732,-2.9268,1.5244,12.84,31.65,-4.40,0,S02
14120,-7.34541,1.02711,5.80594,-4.6341,-2.4390,1.3415,12.84,31.65,-4.40,0,S02
14140,-7.37175,1.06063,5.84903,-4.8171,-2.1951,1.0976,12.94,31.65,-4.59,0,S02
14160,-7.40527,1.08218,5.80594,-4.7561,-2.0122,0.9146,12.94,31.65,-4.59,0,S02
14180,-7.36935,1.06303,5.80115,-4.5122,-1.2195,0.7927,12.94,31.65,-4.59,0,S02
14200,-7.35499,1.07500,5.82509,-4.2683,-0.6098,0.6707,12.84,31.65,-4.68,0,S02
14220,-7.39569,1.07021,5.84425,-4.2683,-0.6098,0.4878,12.84,31.65,-4.68,0,S02
14240,-7.42921,1.07260,5.79636,-4.1463,-1.4024,0.4878,12.84,31.65,-4.68,0,S02
14260,-7.42442,1.01514,5.72932,-4.0854,-1.7073,0.7317,12.84,31.65,-4.68,0,S02
14280,-7.43160,0.96726,5.70299,-4.2683,-1.5244,0.8537,12.84,31.65,-4.40,0,S02
14300,-7.41484,0.98641,5.72932,-4.7561,-1.3415,0.6707,12.84,31.65,-4.40,0,S02
14320,-7.48188,1.04387,5.74848,-5.0000,-1.2805,0.2439,12.84,31.65,-4.40,0,S02
14340,-7.53455,1.06063,5.70538,-4.6341,-1.2805,0.1220,12.84,31.65,-4.59,0,S02
14360,-7.50103,1.02232,5.72693,-4.0854,-0.7927,0.3659,12.84,31.65,-4.59,0,S02
14380,-7.45554,0.99359,5.74608,-3.7195,-0.4878,0.4878,12.84,31.65,-4.59,0,S02
14400,-7.40527,0.99599,5.76045,-3.7195,-1.1585,0.3659,12.94,31.65,-4.59,0,S02
14420,-7.39090,1.03669,5.78679,-3.9634,-2.1951,0.3659,12.94,31.65,-4.59,0,S02
14440,-7.41484,1.03430,5.78200,-4.5732,-2.5610,0.7317,12.94,31.65,-4.59,0,S02
14460,-7.41005,1.01754,5.77481,-4.8171,-2.0732,0.9756,12.94,31.56,-4.50,0,S02
14480,-7.40527,1.01035,5.75566,-4.3902,-1.5854,0.9756,12.84,31.56,-4.50,0,S02
14500,-7.45554,1.02232,5.73651,-4.0244,-1.4634,0.7927,12.84,31.56,-4.50,0,S02
14520,-7.48906,1.04387,5.73411,-4.1463,-1.8902,0.7927,12.84,31.56,-4.50,0,S02
14540,-7.48906,1.03430,5.71017,-4.5732,-2.1951,0.9146,12.84,31.65,-4.59,0,S02
14560,-7.44597,1.02472,5.69581,-4.6951,-1.7683,0.9146,12.84,31.65,-4.59,0,S02
14580,-7.41484,1.01993,5.70778,-4.5732,-1.3415,0.7317,12.84,31.65,-4.59,0,S02
14600,-7.44836,1.04627,5.77003,-4.3902,-1.2195,0.6098,12.84,31.65,-4.59,0,S02
14620,-7.46512,1.03669,5.80355,-4.5732,-1.8293,0.8537,12.84,31.65,-4.59,0,S02
14640,-7.44118,1.03190,5.77721,-4.6341,-2.4390,1.1585,12.84,31.65,-4.59,0,S02
14660,-7.39808,1.01514,5.76045,-4.4512,-2.4390,1.0976,12.84,31.65,-4.59,0,S02
14680,-7.38611,1.01035,5.75087,-4.1463,-2.1951,0.7927,12.84,31.65,-4.59,0,S02
14700,-7.39569,1.04387,5.79876,-4.1463,-1.8902,0.6098,12.84,31.65,-4.59,0,S02
14720,-7.42442,1.04148,5.80355,-4.4512,-2.0122,0.6707,12.84,31.65,-4.59,0,S02
14740,-7.41245,1.04387,5.78679,-4.6951,-1.9512,0.6098,12.84,31.65,-4.50,0,S02
14760,-7.38611,1.02232,5.78679,-4.4512,-1.5854,0.5488,12.84,31.65,-4.50,0,S02
14780,-7.37893,1.01993,5.80115,-4.0854,-1.1585,0.4268,12.84,31.65,-4.50,0,S02
14800,-7.40287,1.02472,5.81073,-3.9024,-1.2195,0.4268,12.84,31.65,-4.50,0,S02
14820,-7.44118,1.03908,5.76763,-4.1463,-1.5244,0.6098,12.84,31.65,-4.50,0,S02
14840,-7.46751,1.05584,5.72454,-4.5122,-1.6463,0.7317,12.84,31.65,-4.50,0,S02
14860,-7.44597,1.06063,5.71735,-4.4512,-1.8902,0.6098,12.84,31.56,-4.31,0,S02
14880,-7.40048,1.04627,5.76045,-4.2683,-2.3171,0.3659,12.84,31.56,-4.31,0,S02
14900,-7.41963,1.05824,5.79876,-4.5122,-2.6829,0.3049,12.84,31.56,-4.31,0,S02
14920,-7.42203,1.03430,5.77721,-4.6341,-2.6220,0.2439,12.84,31.56,-4.31,0,S02
14940,-7.41005,0.99120,5.76524,-4.6951,-2.1951,0.2439,12.84,31.65,-4.50,0,S02
14960,-7.38132,0.99599,5.80594,-4.5732,-1.8293,0.0610,12.84,31.65,-4.50,0,S02
14980,-7.35738,1.02951,5.84903,-4.5122,-1.7073,-0.0610,12.84,31.65,-4.50,0,S02
15000,-7.38132,1.04866,5.82030,-4.5732,-1.7683,0.0000,12.94,31.56,-4.40,0,S02
15020,-7.41484,1.03430,5.78679,-4.3293,-1.2805,0.0610,12.94,31.56,-4.40,0,S02
15040,-7.38132,0.99359,5.76524,-4.0244,-0.4268,0.0000,12.94,31.56,-4.40,0,S02
15060,-7.37175,0.99120,5.79636,-3.9024,0.3049,-0.0610,13.03,31.56,-4.59,0,S02
15080,-7.41724,1.00317,5.81791,-4.0854,0.5488,-0.1829,13.03,31.56,-4.59,0,S02
15100,-7.44597,1.01754,5.79876,-4.0244,0.4268,-0.1829,13.03,31.56,-4.59,0,S02
15120,-7.43160,1.00317,5.77481,-3.7805,0.3659,0.0000,13.03,31.56,-4.59,0,S02
15140,-7.40766,0.97205,5.77481,-3.5976,0.3049,0.1220,13.03,31.65,-4.59,0,S02
15160,-7.41245,0.96486,5.77960,-3.7195,0.0610,0.1220,13.03,31.65,-4.59,0,S02
15180,-7.46273,0.97683,5.77242,-4.0244,-0.1829,0.1220,13.03,31.65,-4.59,0,S02
15200,-7.51540,0.98881,5.72693,-4.0854,-0.4878,0.3659,13.03,31.56,-4.68,0,S02
15220,-7.54174,0.98402,5.70059,-4.3293,-0.7927,0.7927,13.03,31.56,-4.68,0,S02
15240,-7.43400,1.01275,5.76524,-5.3049,-2.1951,1.3415,13.03,31.56,-4.68,0,S02
15260,-7.45794,1.03190,5.78679,-5.1829,-2.8049,1.3415,13.03,31.65,-4.40,0,S02
15280,-7.44357,1.05824,5.75566,-4.8171,-3.8415,1.4634,13.03,31.65,-4.40,0,S02
15300,-7.40766,1.04387,5.73172,-4.7561,-4.1463,1.7073,13.03,31.65,-4.40,0,S02
15320,-7.40527,1.01514,5.75087,-4.7561,-3.3537,1.7073,13.03,31.65,-4.40,0,S02
15340,-7.37893,0.99120,5.80115,-4.6341,-2.4390,1.4634,12.94,31.65,-4.50,0,S02
15360,-7.38611,0.98641,5.82030,-4.7561,-2.0122,1.2805,12.94,31.65,-4.50,0,S02
15380,-7.40527,1.02472,5.79636,-4.8171,-1.7073,1.0366,12.94,31.65,-4.50,0,S02
15400,-7.37654,1.01754,5.77481,-4.7561,-1.0976,1.0976,12.84,31.56,-4.50,0,S02
15420,-7.36217,1.00078,5.79636,-4.8171,-0.3659,1.0976,12.84,31.56,-4.50,0,S02
15440,-7.35499,0.99599,5.82270,-4.8171,0.0000,1.0366,12.84,31.56,-4.50,0,S02
15460,-7.39090,1.03669,5.81073,-4.8780,-0.1220,0.7927,12.84,31.56,-4.50,0,S02
15480,-7.41245,1.04387,5.79157,-4.7561,0.0000,0.7317,12.84,31.56,-4.50,0,S02
15500,-7.42921,1.02951,5.78200,-4.6341,0.3049,0.7927,12.84,31.56,-4.50,0,S02
15520,-7.43639,1.01754,5.77242,-4.4512,-0.0610,0.8537,12.84,31.56,-4.50,0,S02
15540,-7.45076,1.04627,5.76763,-4.4512,-0.7927,0.7317,12.94,31.74,-4.59,0,S02
15560,-7.47709,1.06542,5.74369,-4.6341,-1.2195,0.5488,12.94,31.74,-4.59,0,S02
15580,-7.46273,1.06063,5.71975,-4.5122,-0.9756,0.5488,12.94,31.74,-4.59,0,S02
15600,-7.44836,1.01993,5.72932,-4.3293,-0.7317,0.4878,12.84,31.65,-4.59,0,S02
15620,-7.45315,1.01275,5.75566,-3.8415,-1.1585,0.3049,12.84,31.65,-4.59,0,S02
15640,-7.43639,1.00796,5.78918,-3.7805,-2.0122,0.0610,12.84,31.65,-4.59,0,S02
15660,-7.42442,1.03430,5.77481,-4.1463,-2.6829,0.1220,12.94,31.56,-4.50,0,S02
15680,-7.42203,1.04866,5.75327,-4.5122,-2.6220,0.2439,12.94,31.56,-4.50,0,S02
15700,-7.44357,1.05345,5.73411,-4.3293,-2.0732,0.2439,12.94,31.56,-4.50,0,S02
15720,-7.44118,1.02232,5.74130,-3.9024,-1.5854,0.0610,12.94,31.56,-4.50,0,S02
15740,-7.42203,0.98881,5.77242,-3.5366,-1.4024,0.0610,12.94,31.65,-4.50,0,S02
15760,-7.40287,0.97444,5.79636,-3.6585,-1.6463,0.1829,12.94,31.65,-4.50,0,S02
15780,-7.39808,0.98881,5.80115,-4.0854,-1.8293,0.1829,12.94,31.65,-4.50,0,S02
15800,-7.38851,1.00078,5.79397,-4.3293,-1.7073,0.1220,12.94,31.65,-4.59,0,S02
15820,-7.40766,1.01754,5.79876,-4.2683,-1.4634,0.1829,12.94,31.65,-4.59,0,S02
15840,-7.42921,1.02232,5.77960,-4.4512,-1.3415,0.4878,12.94,31.65,-4.59,0,S02
15860,-7.44118,1.02711,5.73651,-4.5732,-1.2195,0.6707,12.94,31.56,-4.50,0,S02
15880,-7.42442,1.00078,5.73411,-4.6341,-0.6707,0.5488,12.94,31.56,-4.50,0,S02
15900,-7.42442,1.00317,5.74848,-4.5732,-0.4878,0.3659,12.94,31.56,-4.50,0,S02
15920,-7.43878,1.02472,5.77960,-4.4512,-0.7317,0.4268,12.94,31.56,-4.50,0,S02
15940,-7.43400,1.01993,5.77960,-4.5122,-1.4634,0.6707,12.94,31.56,-4.50,0,S02
15960,-7.40527,0.98641,5.76284,-4.6341,-1.7073,0.7317,12.94,31.56,-4.50,0,S02
15980,-7.41484,0.99599,5.75087,-4.7561,-1.7073,0.6707,12.94,31.56,-4.50,0,S02
16000,-7.42921,1.01993,5.74608,-4.7561,-1.8902,0.4878,13.03,31.56,-4.50,0,S02
16020,-7.45554,1.03190,5.74848,-4.5122,-1.9512,0.4268,13.03,31.56,-4.50,0,S02
16040,-7.44118,0.99359,5.74369,-4.3293,-1.8293,0.6098,13.03,31.56,-4.50,0,S02
16060,-7.44118,0.97444,5.74130,-4.2683,-1.4024,0.4878,13.03,31.65,-4.59,0,S02
16080,-7.44118,0.96486,5.75566,-4.3293,-0.8537,0.2439,13.03,31.65,-4.59,0,S02
16100,-7.41963,1.00078,5.78679,-4.2683,-0.9146,0.1829,13.03,31.65,-4.59,0,S02
16120,-7.44357,1.03908,5.81552,-4.2683,-1.0976,0.3049,13.03,31.65,-4.59,0,S02
16140,-7.45076,1.03190,5.81073,-4.2073,-1.7073,0.6098,12.94,31.56,-4.50,0,S02
16160,-7.39808,1.00556,5.78439,-4.1463,-2.3780,0.8537,12.94,31.56,-4.50,0,S02
16180,-7.37893,0.97683,5.78200,-4.0244,-2.3171,0.8537,12.94,31.56,-4.50,0,S02
16200,-7.39569,0.98402,5.80594,-4.0854,-2.0122,0.4878,13.03,31.65,-4.50,0,S02
16220,-7.40766,1.01514,5.80833,-4.2073,-2.2561,0.4878,13.03,31.65,-4.50,0,S02
16240,-7.43160,1.00317,5.78200,-4.3293,-2.5000,0.6098,13.03,31.65,-4.50,0,S02
16260,-7.43400,0.96965,5.72932,-4.4512,-2.1951,0.7317,13.03,31.56,-4.40,0,S02
16280,-7.41963,0.96007,5.72214,-4.5732,-1.5244,0.6707,13.03,31.56,-4.40,0,S02
16300,-7.41724,0.99599,5.75566,-4.5122,-1.0976,0.5488,13.03,31.56,-4.40,0,S02
16320,-7.42203,1.02232,5.79157,-4.5732,-1.1585,0.6098,13.03,31.56,-4.40,0,S02
16340,-7.42442,1.01993,5.79157,-4.7561,-1.4634,0.7317,12.94,31.56,-4.50,0,S02
16360,-7.41724,0.98881,5.77721,-4.5122,-0.9756,0.7927,12.94,31.56,-4.50,0,S02
16380,-7.40287,0.95289,5.76045,-4.3293,-0.3659,0.7317,12.94,31.56,-4.50,0,S02
16400,-7.41245,0.98162,5.78679,-4.3902,-0.4268,0.6707,13.03,31.65,-4.40,0,S02
16420,-7.42203,1.01993,5.81073,-4.6341,-1.1585,0.7317,13.03,31.65,-4.40,0,S02
16440,-7.41245,1.02711,5.80594,-4.6951,-1.6463,0.8537,13.03,31.65,-4.40,0,S02
16460,-7.39329,0.99599,5.78679,-4.5122,-1.4634,0.9146,13.03,31.56,-4.50,0,S02
16480,-7.41724,0.98402,5.77242,-4.0854,-1.2805,0.7927,13.03,31.56,-4.50,0,S02
16500,-7.43400,1.01035,5.78918,-3.9024,-1.3415,0.6098,13.03,31.56,-4.50,0,S02
16520,-7.44357,1.00796,5.76763,-4.0854,-2.0122,0.6707,13.03,31.56,-4.50,0,S02
16540,-7.42203,0.99838,5.73172,-4.5732,-2.5000,0.8537,13.03,31.65,-4.50,0,S02
16560,-7.39090,0.97444,5.72693,-4.7561,-2.1341,0.9756,13.03,31.65,-4.50,0,S02
16580,-7.39808,0.94092,5.74608,-4.0244,-1.5244,0.6098,13.03,31.65,-4.50,0,S02
16600,-7.41963,0.96726,5.80833,-2.9268,-1.0976,0.2439,12.94,31.65,-4.50,0,S02
16620,-7.44357,0.96486,5.83228,-3.5976,-2.3780,0.1829,12.94,31.65,-4.50,0,S02
16640,-7.42681,0.99838,5.80355,-3.9024,-2.9268,0.2439,12.94,31.65,-4.50,0,S02
16660,-7.39569,1.03908,5.83467,-3.6585,-2.7439,0.3049,13.03,31.65,-4.31,0,S02
16680,-7.40048,1.06542,5.81791,-3.1707,-2.2561,0.3659,13.03,31.65,-4.31,0,S02
16700,-7.43160,1.06063,5.78918,-2.9878,-1.6463,0.3659,13.03,31.65,-4.31,0,S02
16720,-7.44357,1.00796,5.74369,-3.1707,-0.9146,0.2439,13.03,31.65,-4.31,0,S02
16740,-7.42203,0.97444,5.75087,-3.1707,-0.0610,0.1220,13.03,31.56,-4.31,0,S02
16760,-7.38372,0.99120,5.79876,-3.1707,0.5488,0.2439,13.03,31.56,-4.31,0,S02
16780,-7.37893,1.01035,5.81552,-3.2927,0.4878,0.4268,13.03,31.56,-4.31,0,S02
16800,-7.42442,1.02951,5.80594,-3.4756,0.1829,0.5488,13.12,31.65,-4.59,0,S02
16820,-7.44118,1.03430,5.78439,-3.9634,-0.3659,0.6098,13.12,31.65,-4.59,0,S02
16840,-7.40287,1.03908,5.77481,-4.0854,-0.8537,0.9146,13.12,31.65,-4.59,0,S02
16860,-7.40048,1.03430,5.76284,-3.8415,-0.7317,1.2195,12.94,31.65,-4.40,0,S02
16880,-7.40287,1.02711,5.73651,-3.6585,-0.5488,1.1585,12.94,31.65,-4.40,0,S02
16900,-7.41963,1.02472,5.75327,-4.0854,-0.7317,0.8537,12.94,31.65,-4.40,0,S02
16920,-7.48427,1.04387,5.75806,-4.2683,-0.9756,0.4268,12.94,31.65,-4.40,0,S02
16940,-7.48188,1.04387,5.73411,-3.8415,-1.0976,0.6098,13.03,31.65,-4.59,0,S02
16960,-7.47230,1.02232,5.71735,-3.7195,-0.9146,1.1585,13.03,31.65,-4.59,0,S02
16980,-7.45794,1.01275,5.73651,-4.1463,-1.0976,1.4634,13.03,31.65,-4.59,0,S02
17000,-7.43639,1.05105,5.74369,-4.5732,-1.8902,1.2195,13.12,31.65,-4.50,0,S02
17020,-7.42681,1.07500,5.75327,-4.6341,-2.2561,0.9146,13.12,31.65,-4.50,0,S02
17040,-7.40287,1.04148,5.76284,-4.3902,-2.1341,1.0976,13.12,31.65,-4.50,0,S02
17060,-7.34062,1.00796,5.77721,-4.1463,-1.7683,1.2805,13.03,31.65,-4.50,0,S02
17080,-7.32626,1.00078,5.81073,-4.3902,-1.3415,1.1585,13.03,31.65,-4.50,0,S02
17100,-7.37414,1.03190,5.83228,-4.6341,-0.9756,0.7927,13.03,31.65,-4.50,0,S02
17120,-7.42921,1.02951,5.80355,-4.8171,-0.4878,0.9146,13.03,31.65,-4.50,0,S02
17140,-7.43639,1.01275,5.76763,-4.8171,0.0000,1.2805,13.03,31.65,-4.50,0,S02
17160,-7.40766,1.00078,5.76045,-5.0610,0.4268,1.4024,13.03,31.65,-4.50,0,S02
17180,-7.42442,1.03190,5.75806,-5.4268,0.6098,1.1585,13.03,31.65,-4.50,0,S02
17200,-7.50103,1.06063,5.73411,-5.4268,0.7927,0.9146,12.94,31.56,-4.68,0,S02
17220,-7.52976,1.04627,5.69341,-4.9390,0.8537,0.9146,12.94,31.56,-4.68,0,S02
17240,-7.49625,1.03430,5.66947,-4.4512,0.4878,1.0366,12.94,31.56,-4.68,0,S02
17260,-7.46751,1.04866,5.70299,-4.5122,-0.1220,0.9146,12.94,31.56,-4.77,0,S02
17280,-7.48188,1.06063,5.70778,-4.5732,-0.9756,0.7317,12.94,31.56,-4.77,0,S02
17300,-7.48667,1.03190,5.69102,-4.3293,-1.3415,0.6098,12.94,31.56,-4.77,0,S02
17320,-7.46273,1.00796,5.68623,-4.1463,-1.2805,0.6098,12.94,31.56,-4.77,0,S02
17340,-7.44118,1.00078,5.70299,-3.9024,-1.4024,0.6707,12.94,31.56,-4.59,0,S02
17360,-7.43639,1.00796,5.77721,-4.0244,-1.7073,0.6098,12.94,31.56,-4.59,0,S02
17380,-7.44118,1.02232,5.76763,-4.2073,-2.4390,0.6098,12.94,31.56,-4.59,0,S02
17400,-7.44118,1.02232,5.72454,-4.2073,-2.4390,0.6707,12.94,31.65,-4.59,0,S02
17420,-7.44597,0.97205,5.71257,-4.1463,-1.6463,0.7927,12.94,31.65,-4.59,0,S02
17440,-7.44118,0.98402,5.76045,-3.9634,-1.2805,0.6707,12.94,31.65,-4.59,0,S02
17460,-7.41245,1.02711,5.80833,-4.2073,-1.5854,0.4268,12.94,31.56,-4.59,0,S02
17480,-7.40287,1.06063,5.78439,-4.5732,-1.7683,0.3659,12.94,31.56,-4.59,0,S02
17500,-7.41484,1.07021,5.76524,-4.6951,-1.1585,0.4878,12.94,31.56,-4.59,0,S02
17520,-7.40048,1.05345,5.75806,-4.5732,-0.4268,0.5488,12.94,31.56,-4.59,0,S02
17540,-7.39808,1.05345,5.75566,-4.3902,0.1220,0.3049,13.03,31.47,-4.68,0,S02
17560,-7.44118,1.07021,5.76045,-4.3902,0.5488,0.1220,13.03,31.47,-4.68,0,S02
17580,-7.51540,1.07021,5.72454,-4.6341,0.7927,0.1220,13.03,31.47,-4.68,0,S02
17600,-7.50103,1.06542,5.69820,-4.4512,0.9756,0.2439,13.12,31.47,-4.77,0,S02
17620,-7.45794,1.04387,5.67186,-3.9634,1.0366,0.2439,13.12,31.47,-4.77,0,S02
17640,-7.47949,1.03190,5.68623,-3.7195,0.7317,0.1220,13.12,31.47,-4.77,0,S02
17660,-7.55371,1.02711,5.68384,-3.7805,-0.1829,0.1220,13.03,31.56,-4.77,0,S02
17680,-7.57047,1.00796,5.63834,-3.7805,-1.3415,0.4268,13.03,31.56,-4.77,0,S02
17700,-7.51540,0.97923,5.61440,-3.8415,-1.7683,0.7317,13.03,31.56,-4.77,0,S02
17720,-7.48427,0.96965,5.62398,-3.9024,-1.4634,0.8537,13.03,31.56,-4.77,0,S02
17740,-7.47470,0.98162,5.66708,-4.2073,-1.2195,0.8537,12.94,31.56,-4.77,0,S02
17760,-7.51300,1.01514,5.70059,-4.7561,-1.2805,0.7317,12.94,31.56,-4.77,0,S02
17780,-7.53695,1.03669,5.69341,-4.8171,-1.2805,0.7927,12.94,31.56,-4.77,0,S02
17800,-7.46751,1.02711,5.71017,-4.5732,-1.0366,1.0366,12.94,31.47,-4.77,0,S02
17820,-7.43400,1.01035,5.71257,-4.1463,-0.6707,1.0976,12.94,31.47,-4.77,0,S02
17840,-7.44357,1.04148,5.76045,-4.0244,-1.0976,0.9756,12.94,31.47,-4.77,0,S02
17860,-7.43878,1.07979,5.75806,-4.2073,-2.3780,0.9146,13.03,31.56,-4.77,0,S02
17880,-7.43400,1.08697,5.70299,-4.2683,-3.0488,0.9756,13.03,31.56,-4.77,0,S02
17900,-7.41724,1.05584,5.70059,-4.0854,-2.6220,0.7927,13.03,31.56,-4.77,0,S02
17920,-7.43878,1.03908,5.71735,-3.6585,-2.3780,0.4878,13.03,31.56,-4.77,0,S02
17940,-7.47470,1.03669,5.72454,-3.4146,-2.5610,0.3049,13.03,31.56,-4.68,0,S02
17960,-7.52737,1.02951,5.67665,-3.6585,-2.7439,0.2439,13.03,31.56,-4.68,0,S02
17980,-7.52019,1.03190,5.63595,-3.8415,-2.3780,0.2439,13.03,31.56,-4.68,0,S02
18000,-7.47230,1.02472,5.64074,-3.7195,-1.4024,0.1829,12.84,31.56,-4.68,0,S02
18020,-7.51779,1.01993,5.68384,-3.3537,-0.8537,0.0610,12.84,31.56,-4.68,0,S02
18040,-7.54892,1.00317,5.67905,-3.7805,-1.9512,0.3049,12.84,31.56,-4.68,0,S02
18060,-7.47230,0.97205,5.67426,-4.0244,-3.5366,0.5488,13.03,31.56,-4.59,0,S02
18080,-7.40287,1.01993,5.73651,-3.6585,-3.7805,0.8537,13.03,31.56,-4.59,0,S02
18100,-7.39090,1.02472,5.78200,-3.7195,-3.4146,1.1585,13.03,31.56,-4.59,0,S02
18120,-7.38851,1.03908,5.77960,-4.3293,-2.6829,1.1585,13.03,31.56,-4.59,0,S02
18140,-7.35978,1.04627,5.75806,-4.9390,-1.0366,0.8537,12.94,31.56,-4.59,0,S02
18160,-7.36456,1.08218,5.76763,-5.2439,0.6707,0.3659,12.94,31.56,-4.59,0,S02
18180,-7.40766,1.11330,5.80355,-5.0610,1.2805,0.1829,12.94,31.56,-4.59,0,S02
18200,-7.43160,1.13246,5.78679,-4.6341,0.8537,0.2439,13.03,31.56,-4.77,0,S02
18220,-7.46991,1.10373,5.74608,-4.5122,0.1829,0.4268,13.03,31.56,-4.77,0,S02
18240,-7.50582,1.07021,5.69341,-4.5122,-0.4268,0.5488,13.03,31.56,-4.77,0,S02
18260,-7.51540,1.03669,5.65271,-4.3902,-0.7317,0.6707,13.03,31.47,-4.86,0,S02
18280,-7.52258,0.99838,5.66229,-4.1463,-0.9146,0.6098,13.03,31.47,-4.86,0,S02
18300,-7.52498,1.01275,5.67186,-3.8415,-1.3415,0.4878,13.03,31.47,-4.86,0,S02
18320,-7.52737,1.01514,5.66229,-4.1463,-1.8293,0.6707,13.03,31.47,-4.86,0,S02
18340,-7.51061,1.01035,5.65989,-4.7561,-1.8902,0.7927,12.94,31.47,-4.77,0,S02
18360,-7.50103,1.01275,5.65750,-5.0000,-1.5244,0.6707,12.94,31.47,-4.77,0,S02
18380,-7.52737,1.04627,5.71017,-4.5732,-1.3415,0.6098,12.94,31.47,-4.77,0,S02
18400,-7.49146,1.03430,5.72454,-4.2073,-1.8293,0.9756,12.94,31.56,-4.86,0,S02
18420,-7.43400,1.00796,5.72454,-4.5732,-2.1341,1.3415,12.94,31.56,-4.86,0,S02
18440,-7.40048,1.00317,5.73172,-5.1220,-1.6463,1.2805,12.94,31.56,-4.86,0,S02
18460,-7.41963,1.04627,5.73411,-5.2439,-0.9146,0.9756,13.03,31.56,-4.77,0,S02
18480,-7.43878,1.07260,5.73411,-4.6951,-0.5488,0.7317,13.03,31.56,-4.77,0,S02
18500,-7.47470,1.06303,5.72693,-4.2073,-0.6098,0.8537,13.03,31.56,-4.77,0,S02
18520,-7.46512,1.02472,5.70778,-4.2073,-0.8537,0.9146,13.03,31.56,-4.77,0,S02
18540,-7.46991,1.01514,5.66229,-4.4512,-1.0366,0.7927,13.12,31.47,-4.68,0,S02
18560,-7.47470,1.02232,5.65510,-4.4512,-1.0976,0.6098,13.12,31.47,-4.68,0,S02
18580,-7.49625,1.01275,5.69341,-4.0244,-1.0366,0.7317,13.12,31.47,-4.68,0,S02
18600,-7.46033,0.99838,5.69341,-4.2073,-1.2805,1.0976,12.94,31.47,-4.86,0,S02
18620,-7.46751,1.04387,5.67665,-4.9390,-1.4634,0.8537,12.94,31.47,-4.86,0,S02
18640,-7.52498,1.07021,5.67186,-5.0610,-1.3415,0.4878,12.94,31.47,-4.86,0,S02
18660,-7.52498,1.07739,5.67186,-4.3902,-1.4024,0.6098,12.94,31.56,-4.68,0,S02
18680,-7.51540,1.05584,5.70778,-3.7805,-1.5244,0.9146,12.94,31.56,-4.68,0,S02
18700,-7.49146,1.06063,5.69820,-3.9634,-2.1341,1.0976,12.94,31.56,-4.68,0,S02
18720,-7.48188,1.08457,5.67426,-4.6341,-2.6220,1.0366,12.94,31.56,-4.68,0,S02
18740,-7.46273,1.04866,5.66947,-4.8171,-2.3171,0.9756,13.03,31.56,-4.86,0,S02
18760,-7.40527,1.01275,5.69102,-4.4512,-1.5244,0.7927,13.03,31.56,-4.86,0,S02
18780,-7.39329,1.01035,5.74608,-4.2073,-1.0976,0.7317,13.03,31.56,-4.86,0,S02
18800,-7.44836,1.02951,5.76045,-4.5122,-1.5244,0.7317,13.03,31.65,-4.68,0,S02
18820,-7.46751,1.05345,5.74130,-4.2683,-2.0122,0.9756,13.03,31.65,-4.68,0,S02
18840,-7.48188,1.00317,5.68384,-3.7195,-1.8902,1.1585,13.03,31.65,-4.68,0,S02
18860,-7.47230,0.96007,5.65989,-3.6585,-1.4024,1.1585,12.94,31.56,-4.68,0,S02
18880,-7.46512,0.99359,5.67905,-4.5732,-1.0976,1.0366,12.94,31.56,-4.68,0,S02
18900,-7.49146,1.09176,5.69820,-5.4268,-1.0976,0.7317,12.94,31.56,-4.68,0,S02
18920,-7.51779,1.11330,5.69581,-5.4878,-0.7927,0.9146,12.94,31.56,-4.68,0,S02
18940,-7.48906,1.07739,5.66468,-5.0610,-0.5488,1.2195,12.94,31.65,-4.77,0,S02
18960,-7.43639,1.05105,5.67426,-4.5732,-0.4878,1.2195,12.94,31.65,-4.77,0,S02
18980,-7.43639,1.04627,5.72932,-4.4512,-0.7927,0.9146,12.94,31.65,-4.77,0,S02
19000,-7.45794,1.06303,5.76045,-4.7561,-1.4634,0.7317,12.94,31.56,-4.77,0,S02
19020,-7.46512,1.06063,5.73651,-4.6341,-1.8902,0.7317,12.94,31.56,-4.77,0,S02
19040,-7.45794,1.02472,5.69581,-4.3902,-1.7073,0.7317,12.94,31.56,-4.77,0,S02
19060,-7.46273,1.01754,5.67905,-4.1463,-1.4634,0.5488,12.94,31.56,-4.77,0,S02
19080,-7.46751,1.05584,5.70778,-4.2683,-1.5244,0.4268,12.94,31.56,-4.77,0,S02
19100,-7.49146,1.09654,5.72932,-4.6951,-1.8293,0.3659,12.94,31.56,-4.77,0,S02
19120,-7.47709,1.07979,5.69820,-4.5732,-1.9512,0.4878,12.94,31.56,-4.77,0,S02
19140,-7.45315,1.03430,5.69102,-4.2073,-1.4634,0.4878,13.03,31.56,-4.68,0,S02
19160,-7.44597,1.00556,5.70538,-3.8415,-1.1585,0.3049,13.03,31.56,-4.68,0,S02
19180,-7.44597,1.01514,5.74848,-3.7805,-1.2195,0.0610,13.03,31.56,-4.68,0,S02
19200,-7.45794,1.02711,5.74130,-4.0244,-1.7073,0.0610,12.94,31.65,-4.68,0,S02
19220,-7.47230,1.03669,5.71735,-4.2683,-2.0122,0.3049,12.94,31.65,-4.68,0,S02
19240,-7.46273,1.02232,5.68862,-4.2073,-1.7683,0.5488,12.94,31.65,-4.68,0,S02
19260,-7.45794,0.99599,5.67905,-4.0244,-1.4024,0.5488,12.94,31.65,-4.68,0,S02
19280,-7.47709,0.99838,5.70059,-3.9024,-1.3415,0.4878,12.94,31.65,-4.68,0,S02
19300,-7.50103,1.02951,5.70538,-4.1463,-1.5854,0.6707,12.94,31.65,-4.68,0,S02
19320,-7.49625,1.04148,5.69102,-4.6341,-1.5244,0.8537,12.94,31.65,-4.68,0,S02
19340,-7.47230,1.03430,5.68623,-4.8171,-1.0976,0.7927,12.94,31.65,-4.68,0,S02
19360,-7.45554,1.04627,5.68862,-4.5122,-0.8537,0.6707,12.94,31.65,-4.68,0,S02
19380,-7.46512,1.06303,5.73651,-4.3293,-0.9756,0.6098,12.94,31.65,-4.68,0,S02
19400,-7.45315,1.04627,5.71975,-4.5122,-1.8293,1.0976,12.94,31.56,-4.77,0,S02
19420,-7.43160,1.03669,5.71017,-4.4512,-1.8293,0.9756,12.94,31.56,-4.77,0,S02
19440,-7.45076,1.04627,5.71017,-4.2683,-1.6463,0.7317,12.94,31.56,-4.77,0,S02
19460,-7.43639,1.07021,5.72214,-4.3293,-1.5854,0.6098,12.94,31.65,-4.68,0,S02
19480,-7.47470,1.07260,5.73890,-4.5122,-1.4634,0.6098,12.94,31.65,-4.68,0,S02
19500,-7.52498,1.04148,5.72214,-4.5122,-0.9756,0.6098,12.94,31.65,-4.68,0,S02
19520,-7.48667,1.02472,5.69341,-4.2073,-0.6707,0.6707,12.94,31.65,-4.68,0,S02
19540,-7.46512,1.03430,5.72693,-4.0244,-0.6707,0.6707,13.03,31.56,-4.59,0,S02
19560,-7.48188,1.04866,5.76763,-3.8415,-1.2195,0.7317,13.03,31.56,-4.59,0,S02
19580,-7.49385,1.06542,5.76045,-3.9634,-2.3780,0.9756,13.03,31.56,-4.59,0,S02
19600,-7.48188,1.04866,5.71975,-4.2683,-3.0488,1.2805,12.84,31.56,-4.77,0,S02
19620,-7.43400,1.00796,5.69341,-4.2683,-2.5000,1.3415,12.84,31.56,-4.77,0,S02
19640,-7.43400,1.02711,5.67426,-4.0244,-1.8902,1.0976,12.84,31.56,-4.77,0,S02
19660,-7.47230,1.05345,5.71257,-3.9634,-1.7683,0.8537,12.94,31.56,-4.68,0,S02
19680,-7.50582,1.05824,5.71257,-4.1463,-2.0732,0.8537,12.94,31.56,-4.68,0,S02
19700,-7.48188,1.04866,5.66708,-4.5122,-2.0732,0.9756,12.94,31.56,-4.68,0,S02
19720,-7.43878,1.03908,5.65989,-4.5732,-1.5244,0.9146,12.94,31.56,-4.68,0,S02
19740,-7.41005,1.05105,5.68862,-4.2683,-1.0366,0.6707,12.94,31.65,-4.77,0,S02
19760,-7.44836,1.06781,5.73651,-4.2073,-0.8537,0.5488,12.94,31.65,-4.77,0,S02
19780,-7.48188,1.06542,5.73890,-4.4512,-1.0976,0.5488,12.94,31.65,-4.77,0,S02
19800,-7.46273,1.04387,5.72214,-4.8171,-1.1585,0.6707,12.75,31.56,-4.59,0,S02
19820,-7.44118,1.04387,5.70299,-4.6341,-0.9146,0.6098,12.75,31.56,-4.59,0,S02
19840,-7.44118,1.04866,5.70299,-4.2073,-0.7927,0.5488,12.75,31.56,-4.59,0,S02
19860,-7.44597,1.05824,5.72454,-4.0244,-1.1585,0.5488,12.84,31.65,-4.68,0,S02
19880,-7.46991,1.04866,5.75087,-4.3293,-1.7073,0.7317,12.84,31.65,-4.68,0,S02
19900,-7.47709,1.05584,5.71257,-4.5732,-2.1341,0.7927,12.84,31.65,-4.68,0,S02
19920,-7.46512,1.04148,5.69581,-4.5122,-1.8293,0.6707,12.84,31.65,-4.68,0,S02
19940,-7.45794,1.03430,5.69102,-4.0854,-1.4634,0.4878,12.84,31.65,-4.68,0,S02
19960,-7.47470,1.05824,5.70299,-3.7805,-1.3415,0.4878,12.84,31.65,-4.68,0,S02
19980,-7.49385,1.08218,5.73172,-4.0244,-1.5244,0.6707,12.84,31.65,-4.68,0,S02
20000,-7.46512,1.07979,5.72214,-4.3902,-1.5854,0.7317,12.94,31.56,-4.68,0,S02
20020,-7.43400,1.06303,5.73651,-4.2073,-1.0366,0.4268,12.94,31.56,-4.68,0,S02
20040,-7.45794,1.05824,5.72214,-3.7805,-1.2195,0.2439,12.94,31.56,-4.68,0,S02
20060,-7.44118,1.05345,5.73890,-3.7195,-2.3780,0.3659,12.94,31.65,-4.68,0,S02
20080,-7.43639,1.05345,5.74848,-4.3293,-3.4756,0.4268,12.94,31.65,-4.68,0,S02
20100,-7.44118,1.06303,5.74369,-4.5732,-3.5976,0.3049,12.94,31.65,-4.68,0,S02
20120,-7.45794,1.05824,5.69102,-4.4512,-2.9878,0.2439,12.94,31.65,-4.68,0,S02
20140,-7.46512,1.03908,5.69102,-4.1463,-2.1341,0.1829,12.94,31.56,-4.59,0,S02
20160,-7.45315,1.03190,5.71496,-4.0854,-1.8293,0.1829,12.94,31.56,-4.59,0,S02
20180,-7.42681,1.04148,5.75806,-4.4512,-2.2561,0.3049,12.94,31.56,-4.59,0,S02
20200,-7.42681,1.05105,5.78200,-4.9390,-2.7439,0.4268,12.94,31.65,-4.59,0,S02
20220,-7.44597,1.04866,5.79636,-5.4268,-3.0488,0.6098,12.94,31.65,-4.59,0,S02
20240,-7.45794,1.03669,5.76763,-5.3049,-3.0488,0.7927,12.94,31.65,-4.59,0,S02
20260,-7.44597,1.02951,5.74848,-4.6951,-2.5610,0.9756,13.03,31.56,-4.59,0,S02
20280,-7.46273,1.01275,5.74608,-4.6341,-2.8049,1.0976,13.03,31.56,-4.59,0,S02
20300,-7.47470,1.03190,5.74848,-4.8780,-3.2927,1.0976,13.03,31.56,-4.59,0,S02
20320,-7.45554,1.04627,5.73890,-5.2439,-3.5366,1.0976,13.03,31.56,-4.59,0,S02
20340,-7.43400,1.05824,5.72454,-5.3659,-3.4146,0.9756,12.94,31.56,-4.31,0,S02
20360,-7.39090,1.06781,5.74608,-5.3659,-3.1098,0.7927,12.94,31.56,-4.31,0,S02
20380,-7.37414,1.08457,5.80115,-5.1220,-2.8659,0.5488,12.94,31.56,-4.31,0,S02
20400,-7.41724,1.07260,5.82749,-4.5732,-2.5000,0.3659,12.84,31.56,-4.40,0,S02
20420,-7.42203,1.05105,5.82988,-4.2683,-2.3171,0.4878,12.84,31.56,-4.40,0,S02
20440,-7.37654,1.02711,5.84185,-4.2683,-2.1951,0.4878,12.84,31.56,-4.40,0,S02
20460,-7.37654,1.02711,5.83946,-4.3293,-2.4390,0.3659,12.94,31.65,-4.40,0,S02
20480,-7.38132,1.07739,5.83467,-4.2683,-3.2927,0.3049,12.94,31.65,-4.40,0,S02
20500,-7.36217,1.05584,5.83467,-4.2683,-3.7805,0.4268,12.94,31.65,-4.40,0,S02
20520,-7.35499,1.01275,5.80833,-4.0854,-3.4756,0.5488,12.94,31.65,-4.40,0,S02
20540,-7.34781,0.98881,5.81312,-4.1463,-3.0488,0.4878,12.84,31.65,-4.31,0,S02
20560,-7.35738,1.02232,5.83706,-4.5122,-3.0488,0.4268,12.84,31.65,-4.31,0,S02
20580,-7.39329,1.01993,5.83706,-4.6341,-2.9268,0.4878,12.84,31.65,-4.31,0,S02
20600,-7.40766,1.00078,5.81312,-4.4512,-2.5000,0.6707,12.94,31.65,-4.31,0,S02
20620,-7.40287,0.99599,5.78200,-4.3902,-1.9512,0.9146,12.94,31.65,-4.31,0,S02
20640,-7.36217,1.00317,5.78439,-4.5732,-1.7073,0.8537,12.94,31.65,-4.31,0,S02
20660,-7.34062,1.04148,5.82270,-4.9390,-1.6463,0.5488,12.94,31.74,-4.22,0,S02
20680,-7.37175,1.06542,5.83946,-4.9390,-1.6463,0.6098,12.94,31.74,-4.22,0,S02
20700,-7.39090,1.04627,5.84425,-4.6951,-1.2805,0.7927,12.94,31.74,-4.22,0,S02
20720,-7.35259,1.00317,5.83228,-4.5122,-0.9146,1.0366,12.94,31.74,-4.22,0,S02
20740,-7.32865,1.00078,5.82509,-4.5122,-0.9146,0.9146,12.84,31.65,-4.13,0,S02
20760,-7.34062,1.03908,5.84903,-4.8171,-1.2195,0.6098,12.84,31.65,-4.13,0,S02
20780,-7.36456,1.07739,5.84425,-4.7561,-1.7073,0.7317,12.84,31.65,-4.13,0,S02
20800,-7.36217,1.02472,5.82030,-4.3293,-1.4024,0.7927,12.84,31.74,-4.13,0,S02
20820,-7.37175,0.99599,5.81312,-4.0854,-1.2805,0.6098,12.84,31.74,-4.13,0,S02
20840,-7.37654,1.01993,5.80833,-4.4512,-1.2805,0.3659,12.84,31.74,-4.13,0,S02
20860,-7.40287,1.05824,5.82270,-4.6341,-1.3415,0.3049,12.94,31.65,-4.22,0,S02
20880,-7.40527,1.02951,5.81073,-4.3902,-1.2805,0.4268,12.94,31.65,-4.22,0,S02
20900,-7.38372,0.98881,5.80115,-4.0244,-1.0366,0.4878,12.94,31.65,-4.22,0,S02
20920,-7.35499,0.97683,5.80833,-3.8415,-0.9756,0.3659,12.94,31.65,-4.22,0,S02
20940,-7.37175,1.00796,5.83228,-4.0244,-1.2195,0.1829,12.94,31.65,-4.22,0,S02
20960,-7.39808,1.05105,5.84903,-4.3293,-1.7073,0.3659,12.94,31.65,-4.22,0,S02
20980,-7.40527,1.03908,5.83946,-4.2073,-1.8293,0.6098,12.94,31.65,-4.22,0,S02
21000,-7.37654,0.99120,5.81312,-4.0854,-1.4634,0.6707,12.94,31.65,-4.13,0,S02
21020,-7.37175,0.99120,5.79397,-3.9634,-1.2805,0.5488,12.94,31.65,-4.13,0,S02
21040,-7.38372,1.03190,5.82749,-4.2073,-1.3415,0.4268,12.94,31.65,-4.13,0,S02
21060,-7.39090,1.06781,5.85382,-4.5122,-1.5854,0.6098,12.94,31.65,-4.13,0,S02
21080,-7.38132,1.06063,5.84185,-4.5122,-1.5244,0.8537,12.94,31.65,-4.13,0,S02
21100,-7.37414,1.01514,5.82509,-4.5122,-1.0976,0.8537,12.94,31.65,-4.13,0,S02
21120,-7.36696,1.00317,5.82988,-4.3293,-0.7927,0.7317,12.94,31.65,-4.13,0,S02
21140,-7.36217,1.01993,5.84185,-4.3293,-0.8537,0.7317,13.03,31.65,-4.31,0,S02
21160,-7.38851,1.04866,5.87537,-4.5122,-1.0976,0.7927,13.03,31.65,-4.31,0,S02
21180,-7.40527,1.04387,5.83946,-4.6341,-1.5854,0.9756,13.03,31.65,-4.31,0,S02
21200,-7.38132,0.99599,5.80594,-4.5122,-1.5244,1.0366,12.94,31.74,-4.22,0,S02
21220,-7.35738,0.99599,5.77481,-4.2683,-1.4024,0.8537,12.94,31.74,-4.22,0,S02
21240,-7.38132,1.02472,5.79876,-4.3902,-1.2195,0.6707,12.94,31.74,-4.22,0,S02
21260,-7.38372,1.07021,5.82509,-4.7561,-1.4634,0.7317,12.94,31.74,-4.22,0,S02
21280,-7.37893,1.07739,5.83467,-4.8171,-1.5854,0.7927,12.94,31.74,-4.22,0,S02
21300,-7.40048,1.02951,5.82509,-4.5122,-1.4024,0.7317,12.94,31.74,-4.22,0,S02
21320,-7.38132,0.98881,5.80355,-4.0244,-1.5244,0.6707,12.94,31.74,-4.22,0,S02
21340,-7.37175,0.99838,5.86101,-3.9634,-1.3415,0.6098,12.94,31.65,-4.22,0,S02
21360,-7.41005,1.03669,5.87777,-4.2683,-1.4634,0.6098,12.94,31.65,-4.22,0,S02
21380,-7.38851,1.06063,5.85622,-4.3293,-2.2561,0.8537,12.94,31.65,-4.22,0,S02
21400,-7.35738,1.02711,5.82509,-4.2073,-2.3780,0.9756,12.94,31.65,-4.31,0,S02
21420,-7.34302,0.98881,5.81073,-3.9634,-1.7683,0.7317,12.94,31.65,-4.31,0,S02
21440,-7.35020,0.99599,5.83228,-3.9024,-1.5854,0.5488,12.94,31.65,-4.31,0,S02
21460,-7.36935,1.05105,5.88255,-4.3293,-2.0732,0.5488,12.94,31.65,-4.22,0,S02
21480,-7.38132,1.07739,5.85622,-4.5122,-2.8049,0.7927,12.94,31.65,-4.22,0,S02
21500,-7.37175,1.03669,5.82270,-4.5122,-2.9878,0.9756,12.94,31.65,-4.22,0,S02
21520,-7.36217,0.99838,5.81552,-4.2683,-2.5000,0.8537,12.94,31.65,-4.22,0,S02
21540,-7.35738,1.00556,5.81791,-4.0244,-1.9512,0.5488,12.94,31.74,-4.13,0,S02
21560,-7.37175,1.02711,5.82749,-4.1463,-1.7683,0.4878,12.94,31.74,-4.13,0,S02
21580,-7.39569,1.02232,5.83706,-4.2683,-1.7683,0.7927,12.94,31.74,-4.13,0,S02
21600,-7.37654,0.98162,5.84425,-4.3902,-1.6463,1.1585,12.94,31.65,-4.13,0,S02
21620,-7.33823,0.98162,5.87298,-4.5732,-1.6463,1.1585,12.94,31.65,-4.13,0,S02
21640,-7.31907,1.01754,5.88255,-4.6951,-1.8902,1.0366,12.94,31.65,-4.13,0,S02
21660,-7.33823,1.07021,5.89452,-4.9390,-2.0122,1.0366,12.84,31.74,-4.13,0,S02
21680,-7.34062,1.09176,5.87777,-5.0000,-1.8293,1.1585,12.84,31.74,-4.13,0,S02
21700,-7.33583,1.07260,5.85143,-4.9390,-1.2195,1.0366,12.84,31.74,-4.13,0,S02
21720,-7.33105,1.05345,5.83706,-4.6341,-1.0976,0.7927,12.84,31.74,-4.13,0,S02
21740,-7.32865,1.08218,5.86101,-4.5732,-1.5244,0.7927,12.84,31.65,-4.13,0,S02
21760,-7.33105,1.10852,5.86340,-4.9390,-1.9512,0.8537,12.84,31.65,-4.13,0,S02
21780,-7.33105,1.10612,5.86340,-5.2439,-1.8293,0.8537,12.84,31.65,-4.13,0,S02
21800,-7.35020,1.06781,5.84185,-5.0610,-1.2195,0.5488,12.94,31.65,-4.13,0,S02
21820,-7.35499,1.02472,5.83228,-4.3902,-0.8537,0.3049,12.94,31.65,-4.13,0,S02
21840,-7.36696,0.99599,5.83706,-3.9634,-0.7927,0.2439,12.94,31.65,-4.13,0,S02
21860,-7.37893,0.98402,5.85622,-4.1463,-1.0366,0.3049,12.84,31.65,-4.04,0,S02
21880,-7.37414,0.97683,5.84185,-4.3902,-0.9756,0.4268,12.84,31.65,-4.04,0,S02
21900,-7.36935,0.94810,5.82509,-4.5122,-0.6707,0.5488,12.84,31.65,-4.04,0,S02
21920,-7.35499,0.96247,5.84903,-4.3902,-0.4878,0.5488,12.84,31.65,-4.04,0,S02
21940,-7.35738,0.99359,5.87537,-4.3293,-0.4878,0.6098,12.94,31.74,-4.13,0,S02
21960,-7.35499,1.01035,5.86101,-4.3293,-0.6707,0.6098,12.94,31.74,-4.13,0,S02
21980,-7.37414,1.02472,5.86101,-4.5732,-0.7927,0.6707,12.94,31.74,-4.13,0,S02
22000,-7.36456,1.01754,5.84664,-4.4512,-0.7317,0.6098,12.84,31.56,-4.22,0,S02
22020,-7.34781,1.02472,5.86340,-3.9634,-0.7317,0.6707,12.84,31.56,-4.22,0,S02
22040,-7.36456,1.02951,5.87537,-3.7195,-0.8537,0.6707,12.84,31.56,-4.22,0,S02
22060,-7.40048,1.04387,5.85861,-3.9634,-1.2805,0.8537,12.84,31.74,-4.13,0,S02
22080,-7.39329,1.04148,5.83467,-4.3902,-1.5244,0.8537,12.84,31.74,-4.13,0,S02
22100,-7.37175,1.04387,5.80833,-4.3902,-1.5854,0.7317,12.84,31.74,-4.13,0,S02
22120,-7.36217,1.04866,5.81073,-3.9024,-1.4024,0.6707,12.84,31.74,-4.13,0,S02
22140,-7.36935,1.02951,5.82030,-3.6585,-1.1585,0.7317,12.84,31.65,-4.22,0,S02
22160,-7.39090,1.04866,5.84664,-4.6341,-1.2805,0.4878,12.84,31.65,-4.22,0,S02
22180,-7.38851,1.06303,5.82988,-4.5732,-1.5244,0.3049,12.84,31.65,-4.22,0,S02
22200,-7.34781,1.05345,5.84664,-4.0244,-1.5854,0.4268,12.84,31.65,-4.22,0,S02
22220,-7.37893,1.03190,5.87298,-3.5976,-1.2805,0.6707,12.84,31.65,-4.22,0,S02
22240,-7.37654,1.02232,5.85861,-3.7805,-1.8902,0.8537,12.84,31.65,-4.22,0,S02
22260,-7.35978,1.04866,5.83228,-4.4512,-2.8659,0.8537,12.84,31.74,-4.13,0,S02
22280,-7.34781,1.05105,5.81791,-4.7561,-2.8049,0.7317,12.84,31.74,-4.13,0,S02
22300,-7.33344,1.02951,5.84664,-4.4512,-2.1341,0.6707,12.84,31.74,-4.13,0,S02
22320,-7.34541,1.01754,5.86819,-4.0244,-1.8902,0.8537,12.84,31.74,-4.13,0,S02
22340,-7.35738,1.00317,5.86340,-4.2683,-2.1341,1.0366,12.94,31.74,-4.13,0,S02
22360,-7.36935,1.01754,5.85382,-4.8780,-2.2561,0.7927,12.94,31.74,-4.13,0,S02
22380,-7.36217,1.05824,5.82749,-5.0610,-1.9512,0.6707,12.94,31.74,-4.13,0,S02
22400,-7.36696,1.06781,5.84185,-4.7561,-1.5244,0.7927,12.75,31.65,-4.13,0,S02
22420,-7.35978,1.03190,5.85382,-4.2683,-1.2805,0.9146,12.75,31.65,-4.13,0,S02
22440,-7.35978,0.99838,5.85382,-4.4512,-1.1585,0.8537,12.75,31.65,-4.13,0,S02
22460,-7.36217,1.03430,5.84664,-5.0610,-1.2195,0.7317,12.84,31.74,-4.13,0,S02
22480,-7.35978,1.04148,5.85861,-5.1220,-1.2195,0.7927,12.84,31.74,-4.13,0,S02
22500,-7.34062,1.03669,5.86819,-4.5122,-1.2195,0.9146,12.84,31.74,-4.13,0,S02
22520,-7.33583,1.01035,5.88734,-4.0854,-1.3415,1.0366,12.84,31.74,-4.13,0,S02
22540,-7.36217,0.99838,5.88016,-4.2683,-1.4634,0.9146,12.84,31.65,-4.04,0,S02
22560,-7.37654,1.01514,5.85382,-4.4512,-1.4634,0.7317,12.84,31.65,-4.04,0,S02
22580,-7.37893,1.03430,5.86101,-4.2683,-1.2805,0.7927,12.84,31.65,-4.04,0,S02
22600,-7.35738,1.03190,5.87777,-3.7805,-1.2195,1.0366,12.84,31.74,-4.13,0,S02
22620,-7.31907,1.01754,5.90889,-3.5366,-1.4024,1.0366,12.84,31.74,-4.13,0,S02
22640,-7.30471,1.04866,5.89931,-3.7195,-1.5244,0.7317,12.84,31.74,-4.13,0,S02
22660,-7.33105,1.09654,5.86340,-3.8415,-1.2805,0.5488,12.75,31.65,-4.04,0,S02
22680,-7.35499,1.09654,5.83706,-4.0244,-0.6707,0.6707,12.75,31.65,-4.04,0,S02
22700,-7.37654,1.05105,5.82509,-4.0854,0.0000,0.9146,12.75,31.65,-4.04,0,S02
22720,-7.38611,1.01514,5.83706,-4.3293,0.3659,0.9756,12.75,31.65,-4.04,0,S02
22740,-7.39329,1.03190,5.81791,-4.8171,0.3049,0.9146,12.84,31.65,-4.13,0,S02
22760,-7.38611,1.07021,5.81791,-5.1829,0.3659,0.7927,12.84,31.65,-4.13,0,S02
22780,-7.36696,1.09415,5.83706,-4.9390,0.6098,0.6707,12.84,31.65,-4.13,0,S02
22800,-7.35020,1.06542,5.84185,-4.2683,0.7927,0.6098,12.84,31.56,-4.31,0,S02
22820,-7.35020,1.05584,5.85861,-4.0244,0.8537,0.4268,12.84,31.56,-4.31,0,S02
22840,-7.35738,1.06063,5.82270,-4.2073,0.7317,0.2439,12.84,31.56,-4.31,0,S02
22860,-7.37654,1.07021,5.82030,-4.1463,0.9146,0.1829,12.84,31.74,-4.31,0,S02
22880,-7.38611,1.04866,5.80355,-3.7805,1.2805,0.3659,12.84,31.74,-4.31,0,S02
22900,-7.37654,1.00556,5.80594,-3.5366,1.4024,0.6098,12.84,31.74,-4.31,0,S02
22920,-7.39090,1.00078,5.81791,-3.8415,1.0366,0.5488,12.84,31.74,-4.31,0,S02
22940,-7.42442,1.02711,5.80355,-4.2683,0.5488,0.4878,12.94,31.65,-4.40,0,S02
22960,-7.41005,1.05345,5.78200,-4.3293,0.1829,0.6098,12.94,31.65,-4.40,0,S02
22980,-7.42442,1.05584,5.76045,-4.2073,0.3659,0.8537,12.94,31.65,-4.40,0,S02
23000,-7.43160,1.01275,5.73172,-3.9634,0.8537,0.9146,12.75,31.65,-4.59,0,S02
23020,-7.43878,1.01993,5.72454,-3.9024,0.9756,0.6707,12.75,31.65,-4.59,0,S02
23040,-7.48188,1.05584,5.74608,-4.0854,0.7927,0.5488,12.75,31.65,-4.59,0,S02
23060,-7.49625,1.08697,5.74608,-4.2073,0.1829,0.6707,12.94,31.65,-4.59,0,S02
23080,-7.46751,1.08457,5.75566,-4.0854,-0.2439,0.9146,12.94,31.65,-4.59,0,S02
23100,-7.46273,1.06542,5.75806,-3.7805,-0.3049,0.9146,12.94,31.65,-4.59,0,S02
23120,-7.44597,1.07021,5.73172,-3.5976,-0.7317,0.7317,12.94,31.65,-4.59,0,S02
23140,-7.43400,1.08218,5.72454,-3.7805,-1.1585,0.6098,12.75,31.56,-4.68,0,S02
23160,-7.43878,1.07739,5.73890,-3.9634,-0.9756,0.5488,12.75,31.56,-4.68,0,S02
23180,-7.42921,1.04387,5.74848,-3.7195,-0.6098,0.5488,12.75,31.56,-4.68,0,S02
23200,-7.40527,1.01993,5.75087,-3.5366,-0.6707,0.4878,12.75,31.56,-4.68,0,S02
23220,-7.41963,1.01754,5.73890,-3.7805,-1.0366,0.5488,12.75,31.56,-4.68,0,S02
23240,-7.46033,1.04148,5.73411,-4.2683,-1.4634,0.4878,12.75,31.56,-4.68,0,S02
23260,-7.47949,1.06063,5.71257,-4.4512,-1.5854,0.6098,12.84,31.56,-4.68,0,S02
23280,-7.45794,1.04387,5.70059,-4.3293,-1.6463,0.7317,12.84,31.56,-4.68,0,S02
23300,-7.43639,1.02232,5.69820,-4.1463,-1.7073,0.8537,12.84,31.56,-4.68,0,S02
23320,-7.44836,1.02951,5.71496,-4.3902,-1.7683,0.8537,12.84,31.56,-4.68,0,S02
23340,-7.46751,1.05584,5.72214,-4.8171,-1.8293,0.7927,12.84,31.56,-4.59,0,S02
23360,-7.47230,1.06542,5.73172,-4.9390,-1.5854,0.6707,12.84,31.56,-4.59,0,S02
23380,-7.44836,1.05584,5.71496,-4.5732,-1.4634,0.7927,12.84,31.56,-4.59,0,S02
23400,-7.44836,1.04148,5.70538,-4.2073,-1.7073,0.9146,12.94,31.56,-4.68,0,S02
23420,-7.46991,1.04866,5.73411,-4.4512,-2.1951,0.8537,12.94,31.56,-4.68,0,S02
23440,-7.46512,1.08697,5.75566,-4.8780,-3.0488,0.9146,12.94,31.56,-4.68,0,S02
23460,-7.43878,1.09176,5.72932,-4.6951,-3.2317,1.0366,12.66,31.65,-4.50,0,S02
23480,-7.42442,1.03908,5.70778,-4.2683,-2.6220,0.9756,12.66,31.65,-4.50,0,S02
23500,-7.43878,1.01993,5.70538,-4.2073,-1.9512,0.8537,12.66,31.65,-4.50,0,S02
23520,-7.45554,1.03190,5.76284,-4.8171,-1.5854,0.7317,12.66,31.65,-4.50,0,S02
23540,-7.37893,1.13246,5.80594,-5.1829,-0.5488,1.1585,12.75,31.65,-4.50,0,S02
23560,-7.39329,1.07021,5.80594,-4.6341,-0.2439,1.0976,12.75,31.65,-4.50,0,S02
23580,-7.37654,1.01754,5.78918,-4.2683,-0.6098,0.9756,12.75,31.65,-4.50,0,S02
23600,-7.38851,1.02711,5.77003,-4.3293,-0.8537,0.8537,12.84,31.65,-4.59,0,S02
23620,-7.45794,1.03430,5.73411,-4.5122,-0.5488,0.8537,12.84,31.65,-4.59,0,S02
23640,-7.48188,1.01993,5.70538,-4.6341,-0.3659,1.0366,12.84,31.65,-4.59,0,S02
23660,-7.43400,1.02711,5.71496,-4.8780,-0.6098,1.2805,12.66,31.65,-4.59,0,S02
23680,-7.40527,1.06303,5.75327,-5.0610,-0.7927,1.0976,12.66,31.65,-4.59,0,S02
23700,-7.41245,1.10133,5.75087,-4.8780,-0.9146,0.8537,12.66,31.65,-4.59,0,S02
23720,-7.45315,1.10852,5.73411,-4.3902,-0.7927,0.8537,12.66,31.65,-4.59,0,S02
23740,-7.45076,1.05824,5.72214,-4.0854,-0.9756,0.9146,12.75,31.74,-4.59,0,S02
23760,-7.41245,1.03908,5.71975,-4.0854,-1.2805,0.9146,12.75,31.74,-4.59,0,S02
23780,-7.40287,1.05824,5.74130,-4.3902,-1.4024,0.6098,12.75,31.74,-4.59,0,S02
23800,-7.44836,1.10133,5.74848,-4.4512,-1.3415,0.3659,12.75,31.56,-4.59,0,S02
23820,-7.44597,1.08936,5.73890,-4.0854,-1.2195,0.3659,12.75,31.56,-4.59,0,S02
23840,-7.47470,1.04387,5.73172,-3.6585,-0.7927,0.3049,12.75,31.56,-4.59,0,S02
23860,-7.47470,1.02232,5.73172,-3.6585,-0.9146,0.2439,12.75,31.65,-4.68,0,S02
23880,-7.46033,1.07021,5.74130,-4.0854,-1.3415,0.2439,12.75,31.65,-4.68,0,S02
23900,-7.48667,1.11091,5.73172,-4.1463,-1.5854,0.2439,12.75,31.65,-4.68,0,S02
23920,-7.50582,1.10612,5.69341,-3.7805,-2.1951,0.4268,12.75,31.65,-4.68,0,S02
23940,-7.49385,1.05584,5.65750,-3.4756,-2.6220,0.6707,12.75,31.65,-4.59,0,S02
23960,-7.46991,1.02951,5.67905,-3.7805,-2.6829,0.7317,12.75,31.65,-4.59,0,S02
23980,-7.44357,1.04387,5.69581,-4.2073,-2.8049,0.5488,12.75,31.65,-4.59,0,S02
24000,-7.44118,1.07500,5.73651,-4.2683,-2.8659,0.5488,12.75,31.65,-4.50,0,S02
24020,-7.44357,1.07739,5.74848,-4.2073,-2.7439,0.6707,12.75,31.65,-4.50,0,S02
24040,-7.40287,1.05584,5.74848,-4.2683,-2.4390,0.7927,12.75,31.65,-4.50,0,S02
24060,-7.37654,1.04148,5.76045,-4.5122,-2.0122,0.6098,12.75,31.65,-4.59,0,S02
24080,-7.37893,1.08218,5.76524,-4.6341,-1.5854,0.3659,12.75,31.65,-4.59,0,S02
24100,-7.40048,1.10133,5.77003,-4.5732,-1.2805,0.3659,12.75,31.65,-4.59,0,S02
24120,-7.41484,1.08218,5.77003,-4.4512,-1.0976,0.5488,12.75,31.65,-4.59,0,S02
24140,-7.40766,1.04387,5.75806,-4.5732,-0.8537,0.6707,12.75,31.65,-4.40,0,S02
24160,-7.40766,1.04148,5.74369,-4.6951,-0.8537,0.5488,12.75,31.65,-4.40,0,S02
24180,-7.42921,1.05824,5.73890,-4.6951,-0.6707,0.4268,12.75,31.65,-4.40,0,S02
24200,-7.46751,1.05345,5.71735,-4.5122,-0.3659,0.5488,12.75,31.65,-4.50,0,S02
24220,-7.45794,1.04627,5.73172,-4.5122,0.2439,0.6707,12.75,31.65,-4.50,0,S02
24240,-7.43160,1.03190,5.72693,-4.5122,0.7317,0.4878,12.75,31.65,-4.50,0,S02
24260,-7.42203,1.06063,5.72454,-4.5732,0.7317,0.3049,12.75,31.56,-4.77,0,S02
24280,-7.42442,1.08697,5.72214,-4.5122,0.5488,0.2439,12.75,31.56,-4.77,0,S02
24300,-7.42921,1.08697,5.72454,-4.1463,0.7927,0.3049,12.75,31.56,-4.77,0,S02
24320,-7.45315,1.03669,5.72932,-3.7195,0.9756,0.3659,12.75,31.56,-4.77,0,S02
24340,-7.47470,0.99838,5.73890,-3.8415,0.7927,0.1829,12.84,31.56,-4.59,0,S02
24360,-7.48188,1.01275,5.70538,-4.2683,0.1829,0.1220,12.84,31.56,-4.59,0,S02
24380,-7.49146,1.03669,5.67665,-4.4512,-0.1220,0.1829,12.84,31.56,-4.59,0,S02
24400,-7.50103,1.05105,5.65271,-4.2683,-0.2439,0.2439,12.84,31.56,-4.95,0,S02
24420,-7.50103,1.04148,5.65271,-4.1463,-0.4878,0.3659,12.84,31.56,-4.95,0,S02
24440,-7.49146,1.03430,5.66708,-4.2683,-0.8537,0.4268,12.84,31.56,-4.95,0,S02
24460,-7.49625,1.05345,5.67426,-4.3902,-0.9146,0.3659,12.75,31.65,-4.77,0,S02
24480,-7.50343,1.07500,5.67186,-4.3293,-0.6098,0.4268,12.75,31.65,-4.77,0,S02
24500,-7.49385,1.06542,5.68623,-4.1463,-0.4878,0.5488,12.75,31.65,-4.77,0,S02
24520,-7.48188,1.03908,5.69102,-3.9024,-0.7927,0.7317,12.75,31.65,-4.77,0,S02
24540,-7.48188,1.03669,5.70299,-4.2073,-1.2195,0.7317,12.75,31.56,-4.77,0,S02
24560,-7.48667,1.07739,5.70538,-4.5122,-1.5854,0.6098,12.75,31.56,-4.77,0,S02
24580,-7.48906,1.07500,5.68862,-4.5732,-1.5854,0.4878,12.75,31.56,-4.77,0,S02
24600,-7.48188,1.05345,5.68623,-4.4512,-1.2195,0.4878,12.94,31.56,-4.86,0,S02
24620,-7.44836,1.07021,5.67905,-4.5122,-1.2195,0.5488,12.94,31.56,-4.86,0,S02
24640,-7.46991,1.08697,5.70299,-4.8171,-1.2195,0.3659,12.94,31.56,-4.86,0,S02
24660,-7.52498,1.07739,5.70538,-4.6341,-0.9756,0.3659,12.94,31.56,-4.86,0,S02
24680,-7.51300,1.03430,5.68862,-4.1463,-0.7317,0.5488,12.94,31.56,-4.86,0,S02
24700,-7.49146,1.00556,5.70299,-4.0244,-0.5488,0.6098,12.94,31.56,-4.86,0,S02
24720,-7.47709,1.01993,5.70299,-4.0854,-1.0976,0.4878,12.94,31.56,-4.86,0,S02
24740,-7.45794,1.04387,5.69341,-4.0854,-1.8293,0.4268,12.94,31.65,-4.86,0,S02
24760,-7.44836,1.02232,5.70059,-3.7805,-1.8293,0.6707,12.94,31.65,-4.86,0,S02
24780,-7.45794,1.00078,5.66947,-3.7805,-1.1585,0.6707,12.94,31.65,-4.86,0,S02
24800,-7.45794,1.01993,5.65989,-4.2073,-0.3659,0.4878,12.94,31.56,-4.86,0,S02
24820,-7.48427,1.04148,5.65271,-4.6951,-0.1220,0.1829,12.94,31.56,-4.86,0,S02
24840,-7.51061,1.07500,5.65032,-4.6341,-0.1220,0.0000,12.94,31.56,-4.86,0,S02
24860,-7.52737,1.05345,5.63595,-4.2683,-0.3659,0.3049,12.84,31.56,-4.95,0,S02
24880,-7.52498,1.01754,5.61919,-4.0854,-0.6098,0.5488,12.84,31.56,-4.95,0,S02
24900,-7.49625,1.04387,5.65032,-4.5122,-0.7927,0.2439,12.84,31.56,-4.95,0,S02
24920,-7.55371,1.06781,5.65510,-4.1463,-0.7317,0.0000,12.84,31.56,-4.95,0,S02
24940,-7.54892,1.02232,5.65750,-3.8415,-0.8537,0.2439,12.84,31.65,-4.95,0,S02
24960,-7.52498,0.99838,5.65750,-3.9634,-1.4024,0.6707,12.84,31.65,-4.95,0,S02
24980,-7.50582,1.02472,5.68623,-4.4512,-2.5610,0.9756,12.84,31.65,-4.95,0,S02
25000,-7.52019,1.08697,5.67426,-4.3293,-3.8415,1.1585,12.84,31.56,-4.86,0,S02
25020,-7.51300,1.09176,5.64792,-4.0244,-3.7805,1.3415,12.84,31.56,-4.86,0,S02
25040,-7.48427,1.03908,5.64074,-4.0854,-2.9878,1.4634,12.84,31.56,-4.86,0,S02
25060,-7.47230,1.00078,5.68862,-4.3902,-2.3780,1.2195,12.94,31.56,-4.86,0,S02
25080,-7.47709,1.02951,5.71496,-4.6951,-2.3171,0.7317,12.94,31.56,-4.86,0,S02
25100,-7.49146,1.08218,5.69341,-4.6341,-2.1951,0.4878,12.94,31.56,-4.86,0,S02
25120,-7.49385,1.10373,5.66947,-4.5732,-1.6463,0.5488,12.94,31.56,-4.86,0,S02
25140,-7.47230,1.06303,5.66947,-4.3293,-0.9756,0.5488,12.84,31.56,-4.86,0,S02
25160,-7.44836,1.03190,5.70059,-4.1463,-0.8537,0.4268,12.84,31.56,-4.86,0,S02
25180,-7.48188,1.04148,5.70299,-4.2683,-1.5854,0.3049,12.84,31.56,-4.86,0,S02
25200,-7.55849,1.07500,5.67665,-4.2073,-2.5610,0.4268,12.84,31.47,-4.86,0,S02
25220,-7.58722,1.04387,5.64792,-4.0854,-2.9878,0.8537,12.84,31.47,-4.86,0,S02
25240,-7.51540,1.01754,5.63116,-4.2073,-2.9268,1.2195,12.84,31.47,-4.86,0,S02
25260,-7.45554,1.01035,5.63116,-4.5122,-2.8659,1.1585,12.84,31.56,-4.86,0,S02
25280,-7.50822,1.04866,5.64553,-4.6341,-3.0488,0.9146,12.84,31.56,-4.86,0,S02
25300,-7.54652,1.09654,5.65750,-4.3902,-2.9878,0.7927,12.84,31.56,-4.86,0,S02
25320,-7.49864,1.08457,5.66947,-4.1463,-2.6829,1.0366,12.84,31.56,-4.86,0,S02
25340,-7.40766,1.04627,5.71257,-4.0854,-2.5610,1.1585,12.84,31.56,-4.77,0,S02
25360,-7.37175,1.03669,5.75566,-4.1463,-2.5610,0.9146,12.84,31.56,-4.77,0,S02
25380,-7.38851,1.06303,5.78200,-4.3293,-2.4390,0.7317,12.84,31.56,-4.77,0,S02
25400,-7.40766,1.09176,5.79157,-4.5122,-2.1341,0.7927,12.84,31.65,-4.68,0,S02
25420,-7.37893,1.06063,5.77242,-4.5732,-1.8902,1.1585,12.84,31.65,-4.68,0,S02
25440,-7.33583,1.02951,5.77721,-4.8171,-1.5854,0.9756,12.84,31.65,-4.68,0,S02
25460,-7.41005,1.05824,5.77721,-4.9390,-1.2195,0.4878,12.84,31.56,-4.77,0,S02
25480,-7.50343,1.12527,5.74848,-4.5732,-1.1585,0.1220,12.84,31.56,-4.77,0,S02
25500,-7.51540,1.10612,5.72454,-4.1463,-1.4024,0.4268,12.84,31.56,-4.77,0,S02
25520,-7.48906,1.05345,5.71975,-3.9634,-1.5854,0.7927,12.84,31.56,-4.77,0,S02
25540,-7.44357,1.03908,5.71257,-4.2073,-2.1341,0.8537,12.94,31.56,-4.59,0,S02
25560,-7.43160,1.05345,5.70299,-4.5122,-2.3171,0.6707,12.94,31.56,-4.59,0,S02
25580,-7.46273,1.05584,5.70059,-4.3902,-1.7073,0.5488,12.94,31.56,-4.59,0,S02
25600,-7.45315,1.04866,5.70299,-4.0244,-1.1585,0.6098,12.94,31.56,-4.59,0,S02
25620,-7.42921,1.01514,5.71017,-4.0244,-1.2805,0.7927,12.94,31.56,-4.59,0,S02
25640,-7.46033,1.01035,5.71496,-4.6341,-1.6463,0.7927,12.94,31.56,-4.59,0,S02
25660,-7.48906,1.04866,5.70538,-5.0000,-1.6463,0.6707,12.75,31.56,-4.77,0,S02
25680,-7.47949,1.05345,5.68144,-4.7561,-0.9756,0.6707,12.75,31.56,-4.77,0,S02
25700,-7.44597,1.03669,5.67186,-4.2683,-0.4878,0.6098,12.75,31.56,-4.77,0,S02
25720,-7.42921,1.03669,5.70538,-4.2073,-0.4878,0.4878,12.75,31.56,-4.77,0,S02
25740,-7.46751,1.07260,5.74130,-4.5732,-0.8537,0.2439,12.84,31.56,-4.68,0,S02
25760,-7.47949,1.06303,5.74130,-4.3902,-0.9756,0.6098,12.84,31.56,-4.68,0,S02
25780,-7.46033,1.02472,5.70059,-4.2073,-0.8537,1.0366,12.84,31.56,-4.68,0,S02
25800,-7.44836,1.02472,5.68623,-4.3293,-0.7317,0.9756,12.84,31.56,-4.68,0,S02
25820,-7.46512,1.07021,5.70299,-4.8171,-0.9756,0.5488,12.84,31.56,-4.68,0,S02
25840,-7.47230,1.12767,5.72693,-4.9390,-1.2195,0.2439,12.84,31.56,-4.68,0,S02
25860,-7.45794,1.11570,5.73651,-4.4512,-1.2195,0.3659,12.84,31.65,-4.77,0,S02
25880,-7.44597,1.07739,5.72693,-3.8415,-1.2805,0.5488,12.84,31.65,-4.77,0,S02
25900,-7.41484,1.03190,5.73411,-3.7195,-1.8902,0.4878,12.84,31.65,-4.77,0,S02
25920,-7.40527,1.03190,5.72932,-4.0244,-2.5610,0.3049,12.84,31.65,-4.77,0,S02
25940,-7.41005,1.07021,5.73890,-4.2073,-2.5000,0.4878,12.84,31.56,-4.59,0,S02
25960,-7.40048,1.05345,5.73411,-4.2683,-1.0366,0.5488,12.84,31.56,-4.59,0,S02
25980,-7.43400,1.01514,5.70299,-4.3902,1.0976,0.0610,12.84,31.56,-4.59,0,S02
26000,-7.46991,1.01514,5.67426,-4.2073,2.5000,-0.4268,12.84,31.56,-4.77,0,S02
26020,-7.51779,1.04148,5.66947,-4.1463,2.3171,-0.6707,12.84,31.56,-4.77,0,S02
26040,-7.53455,1.07739,5.67665,-4.4512,0.4878,-0.4878,12.84,31.56,-4.77,0,S02
26060,-7.54892,1.09415,5.68144,-4.6341,-1.8293,0.1220,12.94,31.56,-4.86,0,S02
26080,-7.53695,1.06781,5.64074,-4.2683,-2.8659,0.6707,12.94,31.56,-4.86,0,S02
26100,-7.50343,0.98641,5.60483,-3.7195,-2.3171,0.7317,12.94,31.56,-4.86,0,S02
26120,-7.49385,0.95289,5.62877,-3.4756,-1.3415,0.4268,12.94,31.56,-4.86,0,S02
26140,-7.50822,0.98881,5.69341,-3.9024,-1.0366,0.2439,12.94,31.47,-4.95,0,S02
26160,-7.51540,1.03190,5.71496,-4.5732,-1.5244,0.4268,12.94,31.47,-4.95,0,S02
26180,-7.46751,1.03908,5.71975,-4.8780,-1.7683,0.8537,12.94,31.47,-4.95,0,S02
26200,-7.42681,1.01754,5.71017,-4.6341,-1.6463,1.0366,12.94,31.47,-4.86,0,S02
26220,-7.41724,1.03190,5.73651,-4.3902,-1.7073,0.9756,12.94,31.47,-4.86,0,S02
26240,-7.43878,1.06063,5.76045,-4.6341,-2.1951,1.0366,12.94,31.47,-4.86,0,S02
26260,-7.42681,1.03669,5.70299,-5.0610,-2.0122,1.0976,12.94,31.56,-4.68,0,S02
26280,-7.43160,1.03908,5.68862,-4.6951,-1.2805,0.7927,12.94,31.56,-4.68,0,S02
26300,-7.48188,1.06063,5.69341,-4.2683,-0.9146,0.6098,12.94,31.56,-4.68,0,S02
26320,-7.46751,1.08936,5.72693,-4.4512,-1.2805,0.9146,12.94,31.56,-4.68,0,S02
26340,-7.47949,1.06303,5.76045,-5.0000,-1.5854,1.2195,12.84,31.65,-4.68,0,S02
26360,-7.46512,1.03908,5.74130,-4.8780,-1.4634,1.0976,12.84,31.65,-4.68,0,S02
26380,-7.42681,1.03430,5.68384,-4.3293,-1.4634,0.6707,12.84,31.65,-4.68,0,S02
26400,-7.44597,1.04627,5.68623,-4.1463,-1.4634,0.4268,12.94,31.56,-4.77,0,S02
26420,-7.47709,1.06542,5.71496,-4.4512,-1.6463,0.6098,12.94,31.56,-4.77,0,S02
26440,-7.48906,1.05105,5.69581,-4.6951,-1.7683,0.8537,12.94,31.56,-4.77,0,S02
26460,-7.50103,1.00317,5.67186,-4.6341,-1.5244,0.9146,12.94,31.47,-4.77,0,S02
26480,-7.50103,0.97205,5.66468,-4.4512,-1.2805,0.7317,12.94,31.47,-4.77,0,S02
26500,-7.49146,0.99838,5.66947,-4.4512,-1.2195,0.7317,12.94,31.47,-4.77,0,S02
26520,-7.50103,1.02711,5.67905,-4.7561,-1.2805,0.7927,12.94,31.47,-4.77,0,S02
26540,-7.49385,1.02951,5.67905,-4.7561,-1.3415,0.8537,12.84,31.56,-4.86,0,S02
26560,-7.47230,1.01035,5.69102,-4.5122,-1.2805,0.7317,12.84,31.56,-4.86,0,S02
26580,-7.46033,1.01993,5.71496,-4.2683,-1.0976,0.6098,12.84,31.56,-4.86,0,S02
26600,-7.47230,1.03908,5.73890,-4.1463,-1.2805,0.7317,12.84,31.56,-4.86,0,S02
26620,-7.46273,1.04148,5.73890,-4.3293,-1.8293,1.0366,12.84,31.56,-4.86,0,S02
26640,-7.47230,1.06303,5.72693,-4.8171,-2.3171,1.0366,12.84,31.56,-4.86,0,S02
26660,-7.46273,1.09415,5.69820,-4.6951,-2.5610,0.8537,12.84,31.56,-4.68,0,S02
26680,-7.47470,1.08697,5.66708,-4.3293,-2.4390,0.7927,12.84,31.56,-4.68,0,S02
26700,-7.45554,1.07260,5.69820,-3.9634,-2.7439,0.7927,12.84,31.56,-4.68,0,S02
26720,-7.43160,1.05345,5.72932,-4.0244,-3.4146,0.8537,12.84,31.56,-4.68,0,S02
26740,-7.43878,1.03669,5.73411,-4.3293,-3.7805,0.6707,12.84,31.65,-4.50,0,S02
26760,-7.44118,1.03430,5.71735,-4.5732,-3.3537,0.5488,12.84,31.65,-4.50,0,S02
26780,-7.43878,1.04627,5.71257,-4.4512,-2.5610,0.3659,12.84,31.65,-4.50,0,S02
26800,-7.42681,1.03908,5.73172,-4.1463,-2.0122,0.3049,12.84,31.65,-4.50,0,S02
26820,-7.41245,1.00317,5.73890,-4.0854,-1.8902,0.4878,12.84,31.65,-4.50,0,S02
26840,-7.42442,1.00317,5.75327,-4.6341,-1.8293,0.5488,12.84,31.65,-4.50,0,S02
26860,-7.44357,1.02472,5.74608,-5.0610,-1.8902,0.3659,12.84,31.47,-4.68,0,S02
26880,-7.44357,1.03430,5.73172,-5.0000,-1.6463,0.3049,12.84,31.47,-4.68,0,S02
26900,-7.44836,1.02472,5.73651,-4.6951,-1.5244,0.3049,12.84,31.47,-4.68,0,S02
26920,-7.43878,1.03430,5.75327,-4.5122,-1.7683,0.4268,12.84,31.47,-4.68,0,S02
26940,-7.45076,1.02951,5.75087,-4.8780,-1.9512,0.6098,12.94,31.65,-4.59,0,S02
26960,-7.46033,1.05824,5.71735,-5.1220,-1.7073,0.6098,12.94,31.65,-4.59,0,S02
26980,-7.47709,1.06781,5.70059,-5.0000,-1.2195,0.3659,12.94,31.65,-4.59,0,S02
27000,-7.47230,1.03669,5.72693,-4.5122,-0.7927,0.2439,12.84,31.56,-4.59,0,S02
27020,-7.46033,1.00078,5.75327,-4.0854,-0.7927,0.3659,12.84,31.56,-4.59,0,S02
27040,-7.45554,0.99838,5.77960,-4.2073,-1.1585,0.5488,12.84,31.56,-4.59,0,S02
27060,-7.43878,1.01754,5.77721,-4.6951,-1.7073,0.5488,12.94,31.56,-4.59,0,S02
27080,-7.42203,1.03430,5.77003,-4.7561,-2.1341,0.6098,12.94,31.56,-4.59,0,S02
27100,-7.42203,1.01035,5.75566,-4.6341,-2.2561,0.6707,12.94,31.56,-4.59,0,S02
27120,-7.40287,0.99120,5.76524,-4.7561,-2.2561,0.9146,12.94,31.56,-4.59,0,S02
27140,-7.44597,1.00317,5.77242,-5.0000,-1.9512,0.8537,12.75,31.47,-4.50,0,S02
27160,-7.47709,1.04627,5.73890,-5.0000,-1.6463,0.6707,12.75,31.47,-4.50,0,S02
27180,-7.46512,1.07979,5.72214,-4.5122,-1.7683,0.4268,12.75,31.47,-4.50,0,S02
27200,-7.48188,1.04866,5.75087,-3.7805,-1.8902,0.4268,12.84,31.56,-4.59,0,S02
27220,-7.46273,0.99599,5.77481,-3.3537,-2.4390,0.7317,12.84,31.56,-4.59,0,S02
27240,-7.41963,0.99599,5.75806,-3.8415,-3.2317,1.0976,12.84,31.56,-4.59,0,S02
27260,-7.41484,1.02232,5.74369,-4.6951,-3.2317,1.0366,12.94,31.47,-4.50,0,S02
27280,-7.42681,1.03908,5.74848,-4.9390,-2.6220,0.7317,12.94,31.47,-4.50,0,S02
27300,-7.40287,1.02472,5.77960,-4.3902,-2.3780,0.7317,12.94,31.47,-4.50,0,S02
27320,-7.38851,1.01035,5.80594,-4.2073,-2.5000,0.9146,12.94,31.47,-4.50,0,S02
27340,-7.41005,1.02232,5.80115,-4.5732,-2.6829,1.0366,12.84,31.38,-4.40,0,S02
27360,-7.42442,1.02472,5.76763,-4.7561,-2.3171,0.8537,12.84,31.38,-4.40,0,S02
27380,-7.42203,1.02951,5.74369,-4.5122,-1.6463,0.5488,12.84,31.38,-4.40,0,S02
27400,-7.40287,1.02232,5.73890,-4.0244,-1.3415,0.3659,12.84,31.47,-4.50,0,S02
27420,-7.39569,1.04387,5.79397,-4.0854,-1.4634,0.3659,12.84,31.47,-4.50,0,S02
27440,-7.40048,1.07021,5.82030,-4.5732,-1.8902,0.5488,12.84,31.47,-4.50,0,S02
27460,-7.41005,1.05584,5.80355,-4.9390,-2.1341,0.7927,12.94,31.56,-4.50,0,S02
27480,-7.40766,1.03430,5.77721,-4.8171,-2.1341,0.9146,12.94,31.56,-4.50,0,S02
27500,-7.40766,1.03430,5.74608,-4.3293,-1.8902,0.7317,12.94,31.56,-4.50,0,S02
27520,-7.42203,1.03190,5.77003,-4.1463,-1.5854,0.4878,12.94,31.56,-4.50,0,S02
27540,-7.42442,1.02232,5.81312,-4.3293,-1.5244,0.6098,12.84,31.56,-4.40,0,S02
27560,-7.39808,0.99359,5.80833,-4.3902,-1.6463,0.7317,12.84,31.56,-4.40,0,S02
27580,-7.37893,0.97683,5.79876,-4.2683,-1.7073,0.6707,12.84,31.56,-4.40,0,S02
27600,-7.38611,1.00317,5.77003,-4.1463,-1.8293,0.4268,12.84,31.65,-4.40,0,S02
27620,-7.41963,1.04627,5.80355,-4.5122,-1.7073,0.6707,12.84,31.65,-4.40,0,S02
27640,-7.42203,1.03669,5.78918,-4.5122,-1.3415,0.7927,12.84,31.65,-4.40,0,S02
27660,-7.41963,1.01275,5.77481,-4.2073,-0.7927,0.6098,12.84,31.65,-4.40,0,S02
27680,-7.39090,0.99120,5.78439,-3.7195,-0.3659,0.3659,12.84,31.65,-4.40,0,S02
27700,-7.37893,1.00078,5.81552,-3.5366,-0.4878,0.2439,12.84,31.65,-4.40,0,S02
27720,-7.40527,1.01754,5.85382,-3.7805,-0.9146,0.3659,12.84,31.65,-4.40,0,S02
27740,-7.42921,1.03908,5.81073,-4.3293,-1.5244,0.6707,12.94,31.47,-4.31,0,S02
27760,-7.41484,1.03190,5.75087,-4.6951,-1.2805,0.8537,12.94,31.47,-4.31,0,S02
27780,-7.41005,1.04866,5.72454,-4.5732,-0.3659,0.6707,12.94,31.47,-4.31,0,S02
27800,-7.42442,1.03908,5.73651,-4.0244,0.4268,0.4268,12.84,31.65,-4.50,0,S02
27820,-7.42442,1.04866,5.79636,-3.6585,0.7317,0.4878,12.84,31.65,-4.50,0,S02
27840,-7.41484,1.03190,5.80594,-3.8415,0.3659,0.7317,12.84,31.65,-4.50,0,S02
27860,-7.41484,1.01275,5.80833,-4.4512,-0.1220,0.9146,12.84,31.65,-4.59,0,S02
27880,-7.41724,1.02232,5.77242,-4.5122,-0.2439,0.7927,12.84,31.65,-4.59,0,S02
27900,-7.42681,1.04148,5.75087,-4.3293,-0.0610,0.6707,12.84,31.65,-4.59,0,S02
27920,-7.46273,1.05584,5.75087,-4.2683,0.0610,0.7927,12.84,31.65,-4.59,0,S02
27940,-7.47709,1.03190,5.72932,-4.3293,0.1220,0.9756,12.84,31.65,-4.68,0,S02
27960,-7.46991,1.03430,5.70778,-4.3902,0.1829,0.9756,12.84,31.65,-4.68,0,S02
27980,-7.47470,1.04866,5.71975,-4.2683,0.4878,0.7317,12.84,31.65,-4.68,0,S02
28000,-7.47470,1.03908,5.73172,-4.0854,0.5488,0.6707,12.84,31.56,-4.68,0,S02
28020,-7.46033,1.01514,5.77003,-3.9024,0.3659,0.9146,12.84,31.56,-4.68,0,S02
28040,-7.45794,0.99359,5.77481,-3.9024,0.1220,1.1585,12.84,31.56,-4.68,0,S02
28060,-7.45315,1.02232,5.72932,-3.9024,-0.1829,1.0976,12.94,31.56,-4.59,0,S02
28080,-7.42442,1.04866,5.69581,-4.1463,-0.3049,0.9146,12.94,31.56,-4.59,0,S02
28100,-7.41484,1.04148,5.71017,-4.2073,-0.1220,0.8537,12.94,31.56,-4.59,0,S02
28120,-7.45076,1.04148,5.73651,-4.0244,-0.1220,0.7927,12.94,31.56,-4.59,0,S02
28140,-7.47230,1.04866,5.72693,-4.0244,-0.6707,0.9146,12.94,31.47,-4.68,0,S02
28160,-7.47230,1.04866,5.66947,-4.3293,-1.2195,1.0366,12.94,31.47,-4.68,0,S02
28180,-7.47230,1.04387,5.64074,-4.5122,-0.9146,1.0366,12.94,31.47,-4.68,0,S02
28200,-7.46033,1.02232,5.64074,-4.5122,-0.0610,0.8537,12.94,31.65,-4.77,0,S02
28220,-7.47949,1.02472,5.65989,-4.2683,0.7317,0.7927,12.94,31.65,-4.77,0,S02
28240,-7.48427,1.01275,5.69102,-4.1463,0.9146,0.7317,12.94,31.65,-4.77,0,S02
28260,-7.48667,1.01275,5.68144,-4.2683,0.6098,0.7317,12.84,31.56,-4.95,0,S02
28280,-7.48188,1.02472,5.67905,-4.6341,0.4878,0.7317,12.84,31.56,-4.95,0,S02
28300,-7.46991,1.04627,5.70059,-4.5732,0.5488,0.6707,12.84,31.56,-4.95,0,S02
28320,-7.49385,1.05345,5.71017,-4.0244,0.3659,0.9146,12.84,31.47,-4.95,0,S02
28340,-7.50822,1.02232,5.69341,-3.7805,-0.3659,1.0976,12.84,31.47,-4.86,0,S02
28360,-7.48427,1.00078,5.67186,-3.9634,-0.7927,1.0976,12.84,31.47,-4.86,0,S02
28380,-7.49146,1.02711,5.64313,-4.2073,-0.7927,0.8537,12.84,31.47,-4.86,0,S02
28400,-7.49385,1.06781,5.62877,-4.3293,-0.4878,0.4878,12.84,31.56,-5.05,0,S02
28420,-7.51540,1.08936,5.65989,-4.2683,-0.3659,0.4268,12.84,31.56,-5.05,0,S02
28440,-7.52019,1.10373,5.64313,-4.1463,-0.6098,0.5488,12.84,31.56,-5.05,0,S02
28460,-7.51300,1.08697,5.64553,-3.9634,-0.6098,0.4878,12.84,31.47,-4.95,0,S02
28480,-7.50582,1.04387,5.65750,-3.6585,-0.3049,0.1829,12.84,31.47,-4.95,0,S02
28500,-7.50103,1.04148,5.66468,-3.4756,-0.1220,0.0000,12.84,31.47,-4.95,0,S02
28520,-7.52019,1.05345,5.67426,-3.7805,-0.4268,0.1220,12.84,31.47,-5.05,0,S02
28540,-7.53695,1.06063,5.65510,-4.1463,-1.0366,0.3659,12.94,31.47,-5.05,0,S02
28560,-7.50822,1.02951,5.62637,-4.2073,-1.2195,0.6707,12.94,31.47,-5.05,0,S02
28580,-7.50822,1.00078,5.62159,-4.0854,-1.0366,0.6098,12.94,31.47,-5.05,0,S02
28600,-7.52976,1.00556,5.63116,-3.9634,-1.0366,0.4268,12.84,31.56,-5.05,0,S02
28620,-7.54892,1.04866,5.63356,-4.3293,-1.3415,0.4268,12.84,31.56,-5.05,0,S02
28640,-7.54652,1.07260,5.62877,-4.6951,-1.5854,0.6098,12.84,31.56,-5.05,0,S02
28660,-7.52019,1.06063,5.63834,-4.7561,-1.4024,0.8537,12.84,31.47,-5.14,0,S02
28680,-7.49146,1.04387,5.63595,-4.4512,-1.0976,0.7927,12.84,31.47,-5.14,0,S02
28700,-7.47230,1.05584,5.66468,-4.4512,-1.1585,0.6707,12.84,31.47,-5.14,0,S02
28720,-7.51300,1.06781,5.67186,-4.5732,-1.7073,0.7927,12.94,31.56,-4.95,0,S02
28740,-7.53934,1.04627,5.65989,-4.6341,-2.0732,1.0366,12.94,31.56,-4.95,0,S02
28760,-7.50582,1.01035,5.63595,-4.5732,-2.1341,1.1585,12.94,31.56,-4.95,0,S02
28780,-7.50822,1.00317,5.63595,-4.4512,-1.7073,0.8537,12.94,31.56,-4.95,0,S02
28800,-7.53216,1.04387,5.65032,-4.3293,-1.4024,0.5488,12.84,31.47,-4.95,0,S02
28820,-7.53216,1.06542,5.65032,-4.4512,-1.7073,0.6707,12.84,31.47,-4.95,0,S02
28840,-7.51779,1.10373,5.64553,-4.6341,-1.8293,0.7927,12.84,31.47,-4.95,0,S02
28860,-7.52737,1.10852,5.63356,-4.5732,-1.7683,0.6707,12.84,31.56,-4.86,0,S02
28880,-7.49864,1.08218,5.63116,-3.9024,-2.0732,0.5488,12.84,31.56,-4.86,0,S02
28900,-7.46991,1.04627,5.65032,-3.4756,-2.4390,0.5488,12.84,31.56,-4.86,0,S02
28920,-7.50343,1.04627,5.67905,-3.7195,-2.6829,0.5488,12.94,31.56,-5.05,0,S02
28940,-7.52498,1.05345,5.66229,-4.2073,-2.9878,0.6098,12.94,31.56,-5.05,0,S02
28960,-7.51061,1.04387,5.63595,-4.4512,-3.0488,0.6098,12.94,31.56,-5.05,0,S02
28980,-7.49385,1.01514,5.62398,-4.2683,-2.8049,0.5488,12.94,31.56,-5.05,0,S02
29000,-7.52019,1.04866,5.66468,-4.0244,-2.5610,0.4268,12.84,31.56,-4.86,0,S02
29020,-7.47949,1.06063,5.66708,-4.3293,-2.6220,0.5488,12.84,31.56,-4.86,0,S02
29040,-7.46512,1.04627,5.68623,-4.3902,-2.5610,0.4878,12.84,31.56,-4.86,0,S02
29060,-7.47230,1.02711,5.70538,-4.1463,-2.0122,0.3659,12.84,31.38,-4.86,0,S02
29080,-7.49146,1.04148,5.71017,-4.0854,-1.5244,0.1829,12.84,31.38,-4.86,0,S02
29100,-7.49385,1.07021,5.69341,-4.0854,-1.5854,0.2439,12.84,31.38,-4.86,0,S02
29120,-7.48906,1.07500,5.66947,-3.9634,-1.7683,0.3659,12.84,31.56,-4.86,0,S02
29140,-7.48906,1.05105,5.67186,-3.8415,-1.4634,0.3659,12.84,31.56,-4.86,0,S02
29160,-7.48188,1.04148,5.67186,-3.6585,-1.0976,0.2439,12.84,31.56,-4.86,0,S02
29180,-7.48188,1.07021,5.69820,-3.6585,-1.3415,0.1220,12.84,31.56,-4.86,0,S02
29200,-7.48667,1.09415,5.71975,-3.8415,-1.9512,0.3049,13.03,31.56,-4.68,0,S02
29220,-7.48667,1.09176,5.70538,-4.2073,-2.4390,0.5488,13.03,31.56,-4.68,0,S02
29240,-7.47230,1.05105,5.66947,-4.2683,-2.2561,0.6098,13.03,31.56,-4.68,0,S02
29260,-7.48906,1.03669,5.65032,-4.2073,-1.5854,0.5488,12.94,31.56,-4.86,0,S02
29280,-7.50103,1.03669,5.66708,-4.2683,-1.3415,0.4878,12.94,31.56,-4.86,0,S02
29300,-7.51779,1.05584,5.70059,-4.4512,-1.5854,0.6098,12.94,31.56,-4.86,0,S02
29320,-7.50582,1.06542,5.68144,-4.5732,-1.9512,0.9146,13.03,31.47,-4.77,0,S02
29340,-7.46751,1.05105,5.67905,-4.6341,-1.6463,0.9146,13.03,31.47,-4.77,0,S02
29360,-7.46512,1.03430,5.67426,-4.5122,-1.2195,0.7317,13.03,31.47,-4.77,0,S02
29380,-7.47230,1.04148,5.70299,-4.4512,-1.0976,0.6707,13.03,31.47,-4.77,0,S02
29400,-7.49864,1.05105,5.73890,-4.5732,-1.3415,0.8537,13.03,31.47,-4.86,0,S02
29420,-7.48906,1.04148,5.72454,-4.8171,-1.6463,1.0366,13.03,31.47,-4.86,0,S02
29440,-7.45554,1.03190,5.71257,-4.8780,-1.4024,0.8537,13.03,31.47,-4.86,0,S02
29460,-7.45315,1.03430,5.70299,-4.5732,-0.9146,0.6707,12.94,31.56,-4.77,0,S02
29480,-7.46991,1.04627,5.72693,-4.2683,-0.7317,0.6098,12.94,31.56,-4.77,0,S02
29500,-7.46512,1.07260,5.72693,-4.2073,-1.3415,0.7317,12.94,31.56,-4.77,0,S02
29520,-7.46751,1.05584,5.71735,-4.4512,-1.8902,0.9146,12.94,31.56,-4.77,0,S02
29540,-7.45076,1.02711,5.69341,-4.8171,-2.0122,0.9146,12.94,31.56,-4.77,0,S02
29560,-7.45554,1.03190,5.67905,-4.5732,-1.4634,0.6098,12.94,31.56,-4.77,0,S02
29580,-7.52976,1.05824,5.69820,-4.2073,-0.7927,0.1829,12.94,31.56,-4.77,0,S02
29600,-7.55849,1.06781,5.69581,-4.0244,-1.0366,0.3049,12.84,31.47,-4.86,0,S02
29620,-7.52019,1.08697,5.69581,-4.2073,-1.6463,0.6707,12.84,31.47,-4.86,0,S02
29640,-7.49146,1.07500,5.66468,-4.2073,-1.7073,0.6707,12.84,31.47,-4.86,0,S02
29660,-7.48906,1.04627,5.65271,-3.6585,-1.7073,0.4268,12.84,31.65,-4.77,0,S02
29680,-7.47230,1.01993,5.68384,-3.4146,-1.7073,0.3659,12.84,31.65,-4.77,0,S02
29700,-7.46751,1.02472,5.71735,-3.7805,-2.0122,0.4268,12.84,31.65,-4.77,0,S02
29720,-7.47949,1.05105,5.69820,-4.5122,-2.5000,0.7317,12.94,31.65,-4.68,0,S02
29740,-7.48188,1.02951,5.67905,-5.0000,-2.5610,1.0976,12.94,31.65,-4.68,0,S02
29760,-7.47470,1.00317,5.66947,-4.8780,-2.0732,1.1585,12.94,31.65,-4.68,0,S02
29780,-7.46512,0.99838,5.69102,-4.6951,-1.5854,0.9146,12.94,31.65,-4.68,0,S02
29800,-7.47230,1.03669,5.73172,-4.7561,-1.6463,0.7317,12.94,31.47,-4.68,0,S02
29820,-7.47949,1.08218,5.73172,-4.8780,-2.0732,0.7317,12.94,31.47,-4.68,0,S02
29840,-7.45076,1.08697,5.68623,-4.6951,-2.1341,0.7317,12.94,31.47,-4.68,0,S02
29860,-7.45794,1.03430,5.66708,-3.9024,-1.2805,0.5488,12.94,31.56,-4.77,0,S02
29880,-7.49385,1.00796,5.68623,-3.3537,-0.4268,0.3659,12.94,31.56,-4.77,0,S02
29900,-7.52976,1.02951,5.70059,-3.7805,-0.5488,0.4268,12.94,31.56,-4.77,0,S02
29920,-7.52258,1.06303,5.68623,-4.5732,-1.0366,0.6707,12.84,31.56,-4.86,0,S02
29940,-7.47230,1.06542,5.67665,-4.6951,-1.0976,0.7927,12.84,31.56,-4.86,0,S02
29960,-7.44118,1.06781,5.69341,-4.3902,-0.8537,0.4878,12.84,31.56,-4.86,0,S02
29980,-7.44118,1.08218,5.72932,-4.2073,-0.9146,0.3049,12.84,31.56,-4.86,0,S02
30000,-7.46751,1.08697,5.74608,-4.3293,-1.4024,0.4878,12.94,31.65,-4.86,0,S02
30020,-7.47230,1.05345,5.69581,-4.5732,-1.8293,0.9756,12.94,31.65,-4.86,0,S02
30040,-7.46751,1.02711,5.66947,-4.6341,-1.5854,0.9756,12.94,31.65,-4.86,0,S02
30060,-7.47709,1.03430,5.67665,-4.5122,-1.2195,0.5488,12.94,31.56,-4.86,0,S02
30080,-7.50343,1.06781,5.68862,-4.3902,-1.2805,0.3049,12.94,31.56,-4.86,0,S02
30100,-7.51540,1.08936,5.70778,-4.3293,-1.6463,0.4878,12.94,31.56,-4.86,0,S02
30120,-7.50103,1.07500,5.69102,-4.4512,-1.9512,0.7927,12.94,31.56,-4.77,0,S02
30140,-7.47230,1.03430,5.68144,-4.6341,-1.9512,0.7317,12.94,31.56,-4.77,0,S02
30160,-7.46033,1.00796,5.68623,-4.4512,-1.8902,0.5488,12.94,31.56,-4.77,0,S02
30180,-7.49385,1.00078,5.70538,-4.2683,-2.0122,0.4878,12.94,31.56,-4.77,0,S02
30200,-7.49146,0.99599,5.71257,-4.1463,-2.1341,0.6098,12.84,31.56,-4.77,0,S02
30220,-7.50103,1.00796,5.69341,-4.2683,-2.0732,0.7927,12.84,31.56,-4.77,0,S02
30240,-7.49625,1.01754,5.69820,-4.2683,-2.1951,0.9756,12.84,31.56,-4.77,0,S02
30260,-7.47709,1.02711,5.72693,-4.3293,-2.5000,1.0366,12.84,31.56,-4.68,0,S02
30280,-7.48188,1.03908,5.71257,-4.5122,-2.5610,1.0366,12.84,31.56,-4.68,0,S02
30300,-7.46512,1.04387,5.68862,-4.6341,-2.1341,1.0366,12.84,31.56,-4.68,0,S02
30320,-7.45315,1.02951,5.69581,-4.8171,-1.5854,1.0366,12.84,31.56,-4.68,0,S02
30340,-7.43400,1.04387,5.70299,-4.6951,-1.1585,0.8537,12.84,31.56,-4.68,0,S02
30360,-7.40287,1.12288,5.78200,-4.6951,-1.2195,0.3659,12.84,31.56,-4.68,0,S02
30380,-7.46991,1.10373,5.78200,-4.5122,-1.1585,0.4878,12.84,31.56,-4.68,0,S02
30400,-7.45794,1.04148,5.76045,-4.2073,-1.3415,0.7927,12.84,31.65,-4.68,0,S02
30420,-7.42442,1.01993,5.73172,-4.0244,-1.6463,0.8537,12.84,31.65,-4.68,0,S02
30440,-7.44597,1.04387,5.75566,-4.0854,-2.0732,0.7317,12.84,31.65,-4.68,0,S02
30460,-7.47470,1.08218,5.73411,-4.2683,-2.6829,0.6707,12.84,31.56,-4.68,0,S02
30480,-7.47230,1.06303,5.69341,-4.5122,-2.6829,0.8537,12.84,31.56,-4.68,0,S02
30500,-7.45315,1.01993,5.66947,-4.5122,-1.8293,0.8537,12.84,31.56,-4.68,0,S02
30520,-7.44118,1.01275,5.68384,-4.2073,-1.1585,0.6098,12.94,31.56,-4.59,0,S02
30540,-7.45554,1.03190,5.71496,-4.1463,-1.1585,0.3659,12.94,31.56,-4.59,0,S02
30560,-7.50343,1.05824,5.73411,-4.3902,-1.7073,0.3659,12.94,31.56,-4.59,0,S02
30580,-7.49625,1.03430,5.72214,-4.7561,-2.2561,0.9146,12.94,31.56,-4.59,0,S02
30600,-7.47709,1.01035,5.69581,-4.8780,-2.4390,1.2195,12.94,31.47,-4.68,0,S02
30620,-7.43639,1.02472,5.68862,-4.7561,-2.5610,1.0366,12.94,31.47,-4.68,0,S02
30640,-7.42681,1.04148,5.71975,-4.6341,-2.5610,0.6707,12.94,31.47,-4.68,0,S02
30660,-7.45076,1.08218,5.76524,-4.6341,-2.5610,0.7927,12.84,31.56,-4.59,0,S02
30680,-7.43160,1.08457,5.76763,-4.8171,-2.5000,1.1585,12.84,31.56,-4.59,0,S02
30700,-7.38851,1.05345,5.75327,-4.7561,-2.0732,1.2195,12.84,31.56,-4.59,0,S02
30720,-7.39090,1.04387,5.75327,-4.2073,-1.5244,0.9146,12.84,31.56,-4.59,0,S02
30740,-7.43160,1.06542,5.76524,-3.9634,-1.2195,0.6707,12.84,31.56,-4.59,0,S02
30760,-7.44836,1.07260,5.75087,-4.3293,-1.3415,0.6707,12.84,31.56,-4.59,0,S02
30780,-7.44118,1.05824,5.72932,-4.7561,-1.4024,0.7927,12.84,31.56,-4.59,0,S02
30800,-7.43400,1.04627,5.70778,-4.5122,-1.0976,0.6707,12.84,31.56,-4.59,0,S02
30820,-7.43160,1.04627,5.71496,-4.0244,-0.9756,0.4268,12.84,31.56,-4.59,0,S02
30840,-7.42203,1.05584,5.74608,-3.8415,-1.2195,0.3659,12.84,31.56,-4.59,0,S02
30860,-7.44118,1.05824,5.75806,-4.2073,-1.7683,0.3049,12.84,31.56,-4.50,0,S02
30880,-7.48667,1.05824,5.74369,-4.6341,-2.1341,0.4268,12.84,31.56,-4.50,0,S02
