timestamp,ax,ay,az,gx,gy,gz,mx,my,mz,label,subject_id
0,-9.37330,0.70629,1.47483,-3.3537,-1.9512,0.1220,27.80,24.68,-12.02,1,S02
20,-9.36372,0.69911,1.44370,-3.2927,-1.7683,0.1220,27.80,24.68,-12.02,1,S02
40,-9.37809,0.70150,1.42455,-3.3537,-1.5854,0.1220,27.80,24.68,-12.02,1,S02
60,-9.39245,0.70390,1.44131,-3.3537,-1.7073,0.2439,27.80,24.68,-12.02,1,S02
80,-9.37569,0.73263,1.44370,-3.3537,-2.1341,0.3659,27.89,24.68,-11.83,1,S02
100,-9.37569,0.75417,1.43413,-3.5976,-2.1951,0.3659,27.89,24.68,-11.83,1,S02
120,-9.36851,0.73263,1.43652,-3.9634,-2.1341,0.4268,27.89,24.68,-11.83,1,S02
140,-9.37330,0.68474,1.45328,-4.0244,-2.1341,0.4878,27.80,24.68,-11.93,1,S02
160,-9.37330,0.67277,1.46286,-3.7805,-2.3171,0.4878,27.80,24.68,-11.93,1,S02
180,-9.37809,0.68953,1.43652,-3.6585,-2.3780,0.5488,27.80,24.68,-11.93,1,S02
200,-9.35175,0.71826,1.43413,-3.7195,-2.2561,0.5488,27.89,24.86,-11.83,1,S02
220,-9.36612,0.72305,1.45567,-3.9024,-2.0122,0.5488,27.89,24.86,-11.83,1,S02
240,-9.38048,0.71826,1.45807,-3.8415,-1.8293,0.6098,27.89,24.86,-11.83,1,S02
260,-9.37330,0.71587,1.45807,-3.8415,-1.9512,0.6707,27.89,24.86,-11.83,1,S02
280,-9.35175,0.71826,1.44849,-4.0854,-2.0122,0.6707,27.89,24.77,-11.83,1,S02
300,-9.35175,0.71108,1.43173,-4.2683,-1.6463,0.6707,27.89,24.77,-11.83,1,S02
320,-9.36851,0.69671,1.42694,-4.2683,-1.4634,0.7317,27.89,24.77,-11.83,1,S02
340,-9.36851,0.72544,1.44849,-4.3293,-1.5244,0.7317,27.89,24.59,-11.83,1,S02
360,-9.35893,0.73023,1.47004,-4.3902,-1.5244,0.7927,27.89,24.59,-11.83,1,S02
380,-9.35415,0.71108,1.47483,-4.3293,-1.2195,0.8537,27.89,24.59,-11.83,1,S02
400,-9.34218,0.70390,1.43892,-4.2073,-0.8537,0.9146,27.89,24.86,-11.93,1,S02
420,-9.34936,0.73263,1.43652,-4.3293,-0.4878,0.9146,27.89,24.86,-11.93,1,S02
440,-9.37091,0.72784,1.43892,-4.4512,-0.0610,0.9756,27.89,24.86,-11.93,1,S02
460,-9.38767,0.70390,1.43892,-4.2683,0.3049,0.9756,27.89,24.86,-11.93,1,S02
480,-9.36612,0.69671,1.45567,-4.2073,0.4268,0.9146,27.89,24.68,-11.93,1,S02
500,-9.36372,0.68474,1.46046,-4.1463,0.5488,0.7927,27.89,24.68,-11.93,1,S02
520,-9.36612,0.67277,1.46286,-3.9024,0.6707,0.7317,27.89,24.68,-11.93,1,S02
540,-9.36133,0.66559,1.44610,-3.7195,0.7927,0.6098,27.89,24.68,-11.83,1,S02
560,-9.36612,0.67516,1.43892,-3.7195,1.0366,0.5488,27.89,24.68,-11.83,1,S02
580,-9.37809,0.67516,1.40061,-3.5976,1.0366,0.4878,27.89,24.68,-11.83,1,S02
600,-9.39245,0.68474,1.38624,-3.5366,0.7317,0.4878,27.89,24.59,-12.02,1,S02
620,-9.40442,0.71108,1.39343,-3.7195,0.4878,0.5488,27.89,24.59,-12.02,1,S02
640,-9.39485,0.70629,1.38385,-3.9634,0.3659,0.6707,27.89,24.59,-12.02,1,S02
660,-9.38767,0.68474,1.39103,-3.9634,0.3049,0.7317,27.89,24.59,-12.02,1,S02
680,-9.38288,0.65841,1.38624,-3.7195,0.2439,0.7927,27.89,24.59,-12.11,1,S02
700,-9.37569,0.66559,1.38145,-3.5366,0.0610,0.7927,27.89,24.59,-12.11,1,S02
720,-9.39485,0.68474,1.39582,-3.5976,-0.2439,0.8537,27.89,24.59,-12.11,1,S02
740,-9.38527,0.69432,1.37427,-3.5976,-0.6098,0.9146,27.89,24.59,-12.11,1,S02
760,-9.38527,0.67995,1.32878,-3.2317,-0.6707,0.8537,27.89,24.59,-12.11,1,S02
780,-9.38048,0.68714,1.32878,-3.4146,-0.6707,0.8537,27.89,24.59,-12.11,1,S02
800,-9.37330,0.68953,1.34315,-3.5366,-0.6707,0.9146,27.89,24.68,-12.20,1,S02
820,-9.37091,0.68953,1.36709,-3.4146,-0.6707,0.9146,27.89,24.68,-12.20,1,S02
840,-9.37091,0.70150,1.38145,-3.1707,-0.7927,0.9146,27.89,24.68,-12.20,1,S02
860,-9.36851,0.72305,1.36948,-2.9878,-0.6707,0.8537,27.89,24.68,-12.20,1,S02
880,-9.36612,0.74939,1.35512,-3.0488,-0.4878,0.8537,27.98,24.59,-12.02,1,S02
900,-9.38288,0.78530,1.32160,-3.2927,-0.2439,0.9146,27.98,24.59,-12.02,1,S02
920,-9.39485,0.78769,1.29526,-3.5976,-0.1220,1.0366,27.98,24.59,-12.02,1,S02
940,-9.39724,0.76614,1.30723,-3.8415,-0.3049,0.9756,27.98,24.59,-12.20,1,S02
960,-9.39724,0.75417,1.30963,-4.0244,-0.4878,1.0976,27.98,24.59,-12.20,1,S02
980,-9.37809,0.73981,1.33596,-4.1463,-0.6098,1.1585,27.98,24.59,-12.20,1,S02
1000,-9.38288,0.75178,1.34554,-4.2073,-0.6707,1.2195,27.98,24.50,-12.11,1,S02
1020,-9.38288,0.73741,1.33596,-4.0854,-0.6098,1.2195,27.98,24.50,-12.11,1,S02
1040,-9.37569,0.73263,1.33836,-3.9024,-0.4878,1.1585,27.98,24.50,-12.11,1,S02
1060,-9.37091,0.74220,1.32878,-3.6585,-0.3659,1.0976,27.98,24.50,-12.11,1,S02
1080,-9.39006,0.74939,1.32160,-3.5366,-0.3049,1.0366,27.98,24.50,-12.20,1,S02
1100,-9.39245,0.74460,1.32160,-3.5366,-0.5488,0.9756,27.98,24.50,-12.20,1,S02
1120,-9.38527,0.74939,1.30963,-3.5366,-0.7317,0.9146,27.98,24.50,-12.20,1,S02
1140,-9.38288,0.75896,1.29047,-3.5366,-0.6707,0.8537,28.17,24.50,-12.20,1,S02
1160,-9.39006,0.77093,1.28569,-3.7195,-0.7317,0.8537,28.17,24.50,-12.20,1,S02
1180,-9.39245,0.75417,1.28808,-3.8415,-0.7927,0.7927,28.17,24.50,-12.20,1,S02
1200,-9.39724,0.73502,1.30723,-3.7195,-0.7927,0.7317,27.98,24.59,-12.11,1,S02
1220,-9.38527,0.74699,1.32160,-3.5366,-0.6707,0.6098,27.98,24.59,-12.11,1,S02
1240,-9.37569,0.76375,1.30484,-3.5976,-0.4878,0.5488,27.98,24.59,-12.11,1,S02
1260,-9.36372,0.78290,1.29047,-3.7805,-0.3049,0.5488,27.98,24.59,-12.11,1,S02
1280,-9.38048,0.76854,1.29287,-3.9024,-0.3049,0.6098,28.17,24.50,-12.29,1,S02
1300,-9.38527,0.75657,1.30484,-3.9634,-0.2439,0.6098,28.17,24.50,-12.29,1,S02
1320,-9.39006,0.75178,1.30484,-3.9024,-0.3049,0.6098,28.17,24.50,-12.29,1,S02
1340,-9.39006,0.75896,1.30963,-3.8415,-0.6098,0.6098,28.17,24.40,-12.20,1,S02
1360,-9.36372,0.76136,1.31202,-3.9024,-1.1585,0.6098,28.17,24.40,-12.20,1,S02
1380,-9.36372,0.76854,1.29526,-4.0854,-1.0976,0.4878,28.17,24.40,-12.20,1,S02
1400,-9.38767,0.75178,1.28808,-4.3293,-0.9146,0.3659,28.07,24.40,-12.20,1,S02
1420,-9.39724,0.73741,1.29287,-4.2683,-0.9756,0.4268,28.07,24.40,-12.20,1,S02
1440,-9.39485,0.73741,1.30245,-4.2073,-1.4024,0.3659,28.07,24.40,-12.20,1,S02
1460,-9.37569,0.75178,1.30245,-4.2073,-1.7073,0.3049,28.07,24.40,-12.20,1,S02
1480,-9.38288,0.76854,1.26414,-4.2683,-1.8293,0.2439,28.26,24.40,-12.20,1,S02
1500,-9.38767,0.75657,1.25935,-4.5732,-1.9512,0.2439,28.26,24.40,-12.20,1,S02
1520,-9.39964,0.71826,1.29047,-4.6951,-1.7683,0.2439,28.26,24.40,-12.20,1,S02
1540,-9.40682,0.71347,1.29766,-4.6341,-1.6463,0.1829,28.17,24.31,-12.11,1,S02
1560,-9.39724,0.70150,1.28808,-4.5122,-1.6463,0.1829,28.17,24.31,-12.11,1,S02
1580,-9.38048,0.72784,1.29047,-4.5732,-1.6463,0.2439,28.17,24.31,-12.11,1,S02
1600,-9.38048,0.75417,1.29047,-4.6951,-1.4024,0.2439,28.26,24.31,-12.29,1,S02
1620,-9.38048,0.74939,1.27611,-5.0000,-1.0366,0.1829,28.26,24.31,-12.29,1,S02
1640,-9.39245,0.73502,1.26893,-5.1220,-0.5488,0.2439,28.26,24.31,-12.29,1,S02
1660,-9.40442,0.71347,1.28569,-5.1829,-0.3659,0.3049,28.26,24.31,-12.29,1,S02
1680,-9.39724,0.70629,1.27372,-5.2439,-0.4268,0.3049,28.35,24.31,-12.39,1,S02
1700,-9.39245,0.72065,1.26653,-5.4268,-0.4268,0.3659,28.35,24.31,-12.39,1,S02
1720,-9.40203,0.72784,1.27611,-5.5488,-0.3659,0.4878,28.35,24.31,-12.39,1,S02
1740,-9.40442,0.71347,1.27850,-5.4878,-0.2439,0.4878,28.17,24.13,-12.39,1,S02
1760,-9.40442,0.71108,1.24259,-5.4878,-0.1220,0.4878,28.17,24.13,-12.39,1,S02
1780,-9.40682,0.72544,1.21625,-5.7317,-0.1220,0.4878,28.17,24.13,-12.39,1,S02
1800,-9.40921,0.75657,1.21625,-6.0976,-0.3049,0.6098,28.26,24.22,-12.48,1,S02
1820,-9.42118,0.72544,1.24259,-6.2805,-0.6707,0.6707,28.26,24.22,-12.48,1,S02
1840,-9.40203,0.69192,1.23780,-6.0976,-0.7927,0.6707,28.26,24.22,-12.48,1,S02
1860,-9.39485,0.66559,1.22823,-5.9756,-0.6707,0.6098,28.26,24.22,-12.48,1,S02
1880,-9.40203,0.67038,1.23301,-5.9146,-0.6098,0.6707,28.26,24.22,-12.48,1,S02
1900,-9.41161,0.68953,1.24259,-5.9146,-0.6707,0.7317,28.26,24.22,-12.48,1,S02
1920,-9.41400,0.68714,1.23062,-5.8537,-0.6098,0.7927,28.26,24.22,-12.48,1,S02
1940,-9.42597,0.67756,1.21625,-5.6707,-0.6707,0.7927,28.26,24.13,-12.66,1,S02
1960,-9.41161,0.66080,1.20907,-5.5488,-1.0366,0.7927,28.26,24.13,-12.66,1,S02
1980,-9.39964,0.66798,1.20668,-5.3659,-1.2195,0.7317,28.26,24.13,-12.66,1,S02
2000,-9.41879,0.67038,1.22583,-5.1829,-1.2195,0.7317,28.35,24.22,-12.57,1,S02
2020,-9.43316,0.65362,1.23301,-4.9390,-1.2195,0.6707,28.35,24.22,-12.57,1,S02
2040,-9.42837,0.63446,1.21147,-4.5732,-1.2805,0.6098,28.35,24.22,-12.57,1,S02
2060,-9.42597,0.65362,1.20428,-4.3902,-1.3415,0.6098,28.35,24.22,-12.57,1,S02
2080,-9.42597,0.70150,1.20428,-4.2683,-1.2805,0.5488,28.26,24.31,-12.75,1,S02
2100,-9.41161,0.67516,1.20668,-4.2073,-1.7073,0.6098,28.26,24.31,-12.75,1,S02
2120,-9.41400,0.65841,1.19710,-4.2073,-1.5854,0.6098,28.26,24.31,-12.75,1,S02
2140,-9.42118,0.67516,1.19471,-4.2073,-1.7073,0.5488,28.26,24.13,-12.57,1,S02
2160,-9.41400,0.70868,1.20907,-4.1463,-1.9512,0.6098,28.26,24.13,-12.57,1,S02
2180,-9.40682,0.73263,1.21625,-4.1463,-2.1341,0.7317,28.26,24.13,-12.57,1,S02
2200,-9.39485,0.73023,1.20428,-4.3293,-1.9512,0.7927,28.17,24.22,-12.66,1,S02
2220,-9.39724,0.72305,1.19471,-4.5732,-1.6463,0.8537,28.17,24.22,-12.66,1,S02
2240,-9.40921,0.70390,1.20668,-4.6951,-1.6463,0.9146,28.17,24.22,-12.66,1,S02
2260,-9.41400,0.69911,1.22823,-4.5122,-1.8293,0.9756,28.17,24.22,-12.66,1,S02
2280,-9.39964,0.68953,1.22583,-4.2073,-2.0122,0.9756,28.35,24.22,-12.57,1,S02
2300,-9.37809,0.67995,1.20668,-4.0854,-2.1341,0.9756,28.35,24.22,-12.57,1,S02
2320,-9.39485,0.70868,1.22344,-4.0854,-2.3171,1.0366,28.35,24.22,-12.57,1,S02
2340,-9.39724,0.72544,1.24738,-4.3293,-2.4390,1.0976,28.35,24.22,-12.57,1,S02
2360,-9.39724,0.73023,1.25935,-4.3902,-2.5000,1.0976,28.35,24.22,-12.57,1,S02
2380,-9.39245,0.73023,1.26893,-4.2073,-2.3171,1.0366,28.35,24.22,-12.57,1,S02
2400,-9.38288,0.72544,1.24498,-4.0244,-2.1341,0.9756,28.44,24.22,-12.48,1,S02
2420,-9.38527,0.73981,1.20189,-4.0244,-1.8293,1.0366,28.44,24.22,-12.48,1,S02
2440,-9.41400,0.78769,1.18752,-4.4512,-1.4024,1.1585,28.44,24.22,-12.48,1,S02
2460,-9.43794,0.79727,1.20428,-4.9390,-1.3415,1.3415,28.44,24.22,-12.48,1,S02
2480,-9.42597,0.74939,1.24498,-5.1829,-1.5244,1.2805,28.44,24.13,-12.57,1,S02
2500,-9.40921,0.68474,1.26174,-4.9390,-1.7683,1.2805,28.44,24.13,-12.57,1,S02
2520,-9.40442,0.66559,1.27372,-4.3902,-2.3171,1.2195,28.44,24.13,-12.57,1,S02
2540,-9.38527,0.67995,1.28090,-4.2683,-2.9268,1.2195,28.44,24.22,-12.48,1,S02
2560,-9.35415,0.69911,1.29047,-4.0244,-2.9878,1.0976,28.44,24.22,-12.48,1,S02
2580,-9.37091,0.73263,1.28569,-3.7805,-2.4390,0.9756,28.44,24.22,-12.48,1,S02
2600,-9.40203,0.74699,1.26174,-3.8415,-1.8902,0.9146,28.35,24.22,-12.57,1,S02
2620,-9.41400,0.73981,1.23301,-4.0854,-1.6463,0.9756,28.35,24.22,-12.57,1,S02
2640,-9.40921,0.73981,1.26414,-4.3293,-2.0732,1.0976,28.35,24.22,-12.57,1,S02
2660,-9.39964,0.72544,1.29047,-4.2683,-2.5000,1.0366,28.35,24.22,-12.57,1,S02
2680,-9.37091,0.70150,1.29047,-3.9024,-2.5610,0.9146,28.44,24.31,-12.48,1,S02
2700,-9.36372,0.69432,1.28569,-3.7195,-2.6220,0.7927,28.44,24.31,-12.48,1,S02
2720,-9.38048,0.73263,1.27611,-3.8415,-2.3171,0.7317,28.44,24.31,-12.48,1,S02
2740,-9.39485,0.75896,1.27850,-4.2073,-2.0732,0.7317,28.44,24.31,-12.48,1,S02
2760,-9.39245,0.74699,1.29766,-4.3293,-1.9512,0.8537,28.44,24.31,-12.48,1,S02
2780,-9.39485,0.70868,1.31681,-4.0244,-2.1341,0.9146,28.44,24.31,-12.48,1,S02
2800,-9.37809,0.70390,1.32160,-3.7805,-2.2561,0.9146,28.35,24.31,-12.48,1,S02
2820,-9.35175,0.75657,1.33118,-3.9024,-2.2561,0.8537,28.35,24.31,-12.48,1,S02
2840,-9.37330,0.78530,1.34315,-4.0854,-2.1341,0.7927,28.35,24.31,-12.48,1,S02
2860,-9.38767,0.77572,1.34075,-4.0244,-2.2561,0.7317,28.35,24.31,-12.48,1,S02
2880,-9.38527,0.77093,1.31202,-3.9634,-2.8659,0.6707,28.35,24.31,-12.20,1,S02
2900,-9.38048,0.76375,1.30484,-4.2073,-3.4146,0.7927,28.35,24.31,-12.20,1,S02
2920,-9.39006,0.75417,1.32639,-4.4512,-3.5976,0.9146,28.35,24.31,-12.20,1,S02
2940,-9.38767,0.76136,1.31921,-4.6341,-3.9634,1.0366,28.17,24.40,-12.11,1,S02
2960,-9.37809,0.75657,1.31921,-4.8171,-4.1463,1.0366,28.17,24.40,-12.11,1,S02
2980,-9.37330,0.75417,1.34554,-5.0610,-4.0244,0.9756,28.17,24.40,-12.11,1,S02
3000,-9.38527,0.73981,1.37188,-5.1829,-4.0854,0.9756,28.17,24.40,-12.11,1,S02
3020,-9.37809,0.73263,1.39821,-5.0610,-4.0854,0.9146,28.17,24.40,-12.11,1,S02
3040,-9.37091,0.73741,1.37906,-4.9390,-4.0244,0.7927,28.17,24.40,-12.11,1,S02
3060,-9.36612,0.74460,1.37667,-4.7561,-3.7805,0.7317,28.17,24.40,-12.11,1,S02
3080,-9.37809,0.74699,1.37667,-4.6341,-3.5366,0.7927,27.98,24.68,-12.02,1,S02
3100,-9.37330,0.76136,1.38624,-4.5732,-3.3537,0.7927,27.98,24.68,-12.02,1,S02
3120,-9.37330,0.77572,1.37667,-4.5732,-3.0488,0.7927,27.98,24.68,-12.02,1,S02
3140,-9.36612,0.79248,1.38385,-4.6341,-2.9268,0.7927,28.07,24.68,-11.93,1,S02
3160,-9.34936,0.78530,1.41497,-4.8780,-3.0488,0.8537,28.07,24.68,-11.93,1,S02
3180,-9.35175,0.78769,1.44131,-5.0000,-3.1098,0.8537,28.07,24.68,-11.93,1,S02
3200,-9.37569,0.78530,1.43173,-5.0000,-2.8659,0.8537,27.98,24.77,-11.83,1,S02
3220,-9.38048,0.75417,1.41737,-4.9390,-2.5610,0.9146,27.98,24.77,-11.83,1,S02
3240,-9.36612,0.74699,1.45328,-4.6951,-2.4390,0.9756,27.98,24.77,-11.83,1,S02
3260,-9.36133,0.77333,1.46525,-4.5122,-2.6829,0.9146,27.98,24.77,-11.83,1,S02
3280,-9.34936,0.79727,1.47004,-4.4512,-2.7439,0.7317,27.89,24.68,-11.74,1,S02
3300,-9.33978,0.77812,1.46046,-4.5122,-2.6829,0.7317,27.89,24.68,-11.74,1,S02
3320,-9.34936,0.75178,1.46765,-4.5122,-2.5000,0.7317,27.89,24.68,-11.74,1,S02
3340,-9.35415,0.74939,1.47962,-4.5732,-2.3171,0.7317,27.89,24.77,-11.74,1,S02
3360,-9.35175,0.76375,1.47962,-4.6341,-2.4390,0.7317,27.89,24.77,-11.74,1,S02
3380,-9.34457,0.75896,1.47722,-4.6951,-2.5610,0.6707,27.89,24.77,-11.74,1,S02
3400,-9.35654,0.75417,1.48919,-4.6341,-2.5000,0.7317,27.89,24.77,-11.74,1,S02
3420,-9.34457,0.76375,1.49638,-4.5732,-2.4390,0.7927,27.89,24.77,-11.74,1,S02
3440,-9.35175,0.75417,1.51074,-4.4512,-2.3780,0.7927,27.89,24.77,-11.74,1,S02
3460,-9.34936,0.75417,1.50356,-3.7805,-2.1341,0.6707,27.89,24.77,-11.74,1,S02
3480,-9.36133,0.81642,1.51314,-3.5366,-1.6463,0.5488,27.89,24.77,-11.74,1,S02
3500,-9.36851,0.82600,1.50356,-3.2927,-1.7683,0.4268,27.89,24.77,-11.74,1,S02
3520,-9.35415,0.77572,1.46286,-3.1707,-2.3780,0.4878,27.89,24.77,-11.74,1,S02
3540,-9.34936,0.73741,1.46286,-3.3537,-2.1951,0.4878,27.98,24.68,-11.74,1,S02
3560,-9.33739,0.73741,1.45328,-3.5976,-1.7683,0.5488,27.98,24.68,-11.74,1,S02
3580,-9.33739,0.75178,1.46765,-4.0244,-1.7683,0.6707,27.98,24.68,-11.74,1,S02
3600,-9.34457,0.74699,1.48440,-4.3902,-1.8293,0.7927,27.89,24.77,-11.65,1,S02
3620,-9.36372,0.73263,1.48440,-4.3902,-1.7073,0.7927,27.89,24.77,-11.65,1,S02
3640,-9.35893,0.72544,1.48201,-4.2073,-1.5854,0.6707,27.89,24.77,-11.65,1,S02
3660,-9.36133,0.74220,1.49877,-4.2683,-1.6463,0.6098,27.89,24.77,-11.65,1,S02
3680,-9.36133,0.73981,1.51553,-4.3293,-1.8902,0.6707,27.98,24.86,-11.65,1,S02
3700,-9.35893,0.74699,1.48680,-4.2683,-1.8902,0.6707,27.98,24.86,-11.65,1,S02
3720,-9.35415,0.74220,1.47243,-4.0854,-1.8293,0.6707,27.98,24.86,-11.65,1,S02
3740,-9.34936,0.71826,1.48919,-4.0854,-1.9512,0.6098,27.89,24.77,-11.65,1,S02
3760,-9.35654,0.73502,1.50356,-4.0244,-2.0122,0.6098,27.89,24.77,-11.65,1,S02
3780,-9.37569,0.74220,1.51553,-3.8415,-2.1341,0.6098,27.89,24.77,-11.65,1,S02
3800,-9.35654,0.75896,1.46765,-3.7195,-2.3171,0.6707,27.89,24.68,-11.47,1,S02
3820,-9.35654,0.76136,1.46525,-3.8415,-2.1951,0.6707,27.89,24.68,-11.47,1,S02
3840,-9.35654,0.75896,1.51074,-3.9024,-2.0122,0.6098,27.89,24.68,-11.47,1,S02
3860,-9.36612,0.74460,1.52271,-3.7195,-2.0122,0.6098,27.89,24.68,-11.47,1,S02
3880,-9.35893,0.74939,1.49877,-3.6585,-2.3171,0.6707,27.89,24.77,-11.56,1,S02
3900,-9.35175,0.77093,1.48919,-3.9024,-2.5000,0.7317,27.89,24.77,-11.56,1,S02
3920,-9.35175,0.78290,1.50116,-4.0854,-2.3171,0.7317,27.89,24.77,-11.56,1,S02
3940,-9.36133,0.75896,1.52032,-4.1463,-2.3780,0.8537,27.89,24.95,-11.56,1,S02
3960,-9.34936,0.76375,1.52032,-3.9634,-2.5000,0.9146,27.89,24.95,-11.56,1,S02
3980,-9.33739,0.79248,1.51792,-4.1463,-2.3780,0.9146,27.89,24.95,-11.56,1,S02
4000,-9.33020,0.78530,1.48680,-4.5732,-2.1341,0.9756,27.89,24.95,-11.47,1,S02
4020,-9.34457,0.76375,1.50356,-4.7561,-1.8293,0.9756,27.89,24.95,-11.47,1,S02
4040,-9.34457,0.74699,1.52511,-4.5732,-1.6463,0.9146,27.89,24.95,-11.47,1,S02
4060,-9.33739,0.75178,1.51792,-4.3293,-1.6463,0.9146,27.89,24.95,-11.47,1,S02
4080,-9.34218,0.76136,1.51074,-4.2073,-1.7683,0.8537,27.80,24.86,-11.47,1,S02
4100,-9.34218,0.77333,1.49877,-4.2683,-1.8293,0.8537,27.80,24.86,-11.47,1,S02
4120,-9.34936,0.78051,1.52750,-4.3293,-1.7683,0.7927,27.80,24.86,-11.47,1,S02
4140,-9.34696,0.77093,1.55623,-4.3293,-1.6463,0.7317,27.89,24.86,-11.47,1,S02
4160,-9.34457,0.76854,1.53708,-4.2073,-1.7073,0.7317,27.89,24.86,-11.47,1,S02
4180,-9.34457,0.77572,1.53229,-4.2073,-1.9512,0.7317,27.89,24.86,-11.47,1,S02
4200,-9.34218,0.79248,1.52750,-4.3293,-2.1341,0.6707,27.89,24.95,-11.38,1,S02
4220,-9.33260,0.79727,1.52511,-4.3902,-2.0122,0.5488,27.89,24.95,-11.38,1,S02
4240,-9.33739,0.78530,1.54187,-4.2683,-1.8902,0.5488,27.89,24.95,-11.38,1,S02
4260,-9.34457,0.76614,1.56341,-4.2073,-1.9512,0.5488,27.89,24.95,-11.38,1,S02
4280,-9.33978,0.77093,1.57299,-4.0854,-1.8902,0.6098,27.89,24.95,-11.47,1,S02
4300,-9.33260,0.79248,1.57538,-4.0244,-1.7683,0.6707,27.89,24.95,-11.47,1,S02
4320,-9.33978,0.83558,1.56820,-4.0854,-1.7683,0.7317,27.89,24.95,-11.47,1,S02
4340,-9.32542,0.82121,1.55863,-4.2073,-1.8293,0.7317,27.89,24.95,-11.38,1,S02
4360,-9.33260,0.81403,1.58257,-4.2073,-1.7073,0.6098,27.89,24.95,-11.38,1,S02
4380,-9.36133,0.80924,1.57538,-4.3293,-1.6463,0.6707,27.89,24.95,-11.38,1,S02
4400,-9.34936,0.77812,1.54905,-4.2683,-1.9512,0.7927,27.80,24.86,-11.38,1,S02
4420,-9.33739,0.73981,1.57060,-4.0244,-2.1951,0.7927,27.80,24.86,-11.38,1,S02
4440,-9.32781,0.75896,1.59933,-3.6585,-2.1341,0.6098,27.80,24.86,-11.38,1,S02
4460,-9.32542,0.79009,1.59214,-3.4146,-2.0122,0.5488,27.80,24.86,-11.38,1,S02
4480,-9.32781,0.79966,1.56102,-3.6585,-2.0732,0.6098,27.80,25.14,-11.28,1,S02
4500,-9.33739,0.77572,1.53229,-4.0244,-1.8902,0.6707,27.80,25.14,-11.28,1,S02
4520,-9.35893,0.75896,1.51553,-4.1463,-1.4634,0.6707,27.80,25.14,-11.28,1,S02
4540,-9.36133,0.76375,1.53229,-4.3902,-1.3415,0.6098,27.80,24.95,-11.28,1,S02
4560,-9.35893,0.76854,1.56102,-4.6341,-1.5854,0.6098,27.80,24.95,-11.28,1,S02
4580,-9.35654,0.77093,1.58496,-4.6341,-1.7683,0.6707,27.80,24.95,-11.28,1,S02
4600,-9.33739,0.75657,1.58975,-4.5732,-1.7683,0.6707,27.89,25.05,-11.28,1,S02
4620,-9.33499,0.74939,1.57060,-4.5122,-1.5854,0.7317,27.89,25.05,-11.28,1,S02
4640,-9.33499,0.77093,1.55623,-4.5122,-1.4024,0.6707,27.89,25.05,-11.28,1,S02
4660,-9.35654,0.77333,1.54905,-4.5122,-1.3415,0.7317,27.89,25.05,-11.28,1,S02
4680,-9.36851,0.75896,1.56581,-4.3902,-1.5244,0.8537,27.80,25.05,-11.28,1,S02
4700,-9.33978,0.74699,1.54665,-4.1463,-1.8902,0.9146,27.80,25.05,-11.28,1,S02
4720,-9.33978,0.76375,1.54426,-4.1463,-1.9512,0.7927,27.80,25.05,-11.28,1,S02
4740,-9.34696,0.76375,1.56341,-4.3902,-1.9512,0.7927,27.80,24.95,-11.19,1,S02
4760,-9.35175,0.74939,1.57538,-4.3902,-2.1951,0.8537,27.80,24.95,-11.19,1,S02
4780,-9.35175,0.75178,1.57060,-4.2073,-2.3171,0.8537,27.80,24.95,-11.19,1,S02
4800,-9.34218,0.78290,1.57299,-4.1463,-2.2561,0.8537,27.80,24.95,-11.28,1,S02
4820,-9.33499,0.79248,1.56820,-4.4512,-2.1341,0.8537,27.80,24.95,-11.28,1,S02
4840,-9.35175,0.76854,1.60890,-4.5122,-2.1341,0.8537,27.80,24.95,-11.28,1,S02
4860,-9.35654,0.75896,1.60651,-4.2683,-2.3171,0.9146,27.80,24.95,-11.28,1,S02
4880,-9.34457,0.76614,1.60651,-4.2073,-2.5000,0.9756,27.89,25.05,-11.19,1,S02
4900,-9.33978,0.78051,1.60651,-4.2073,-2.5000,1.0366,27.89,25.05,-11.19,1,S02
4920,-9.34696,0.80206,1.61369,-4.2683,-2.5610,0.9756,27.89,25.05,-11.19,1,S02
4940,-9.31823,0.80924,1.61130,-4.4512,-2.8049,0.9146,27.80,24.95,-11.19,1,S02
4960,-9.32781,0.80924,1.61369,-4.7561,-2.7439,0.8537,27.80,24.95,-11.19,1,S02
4980,-9.35415,0.81403,1.60890,-5.0610,-2.5610,0.7927,27.80,24.95,-11.19,1,S02
5000,-9.33978,0.82839,1.60651,-5.6707,-2.6829,0.7927,27.89,25.14,-11.19,1,S02
5020,-9.30626,0.83079,1.59454,-6.5244,-2.5610,0.7317,27.89,25.14,-11.19,1,S02
5040,-9.29190,0.85712,1.58257,-7.1951,-1.8902,0.7317,27.89,25.14,-11.19,1,S02
5060,-9.31105,0.88107,1.58736,-7.9268,-1.1585,0.9146,27.89,25.14,-11.19,1,S02
5080,-9.33739,0.81403,1.62566,-8.5366,-1.2195,1.0976,27.71,25.14,-11.28,1,S02
5100,-9.30866,0.72784,1.59693,-8.7195,-1.1585,1.1585,27.71,25.14,-11.28,1,S02
5120,-9.29669,0.73502,1.56341,-8.6585,-0.4268,1.1585,27.71,25.14,-11.28,1,S02
5140,-9.31105,0.76375,1.56820,-8.6585,0.1829,1.2805,27.71,24.95,-11.38,1,S02
5160,-9.31823,0.77093,1.57778,-8.5976,0.3049,1.5244,27.71,24.95,-11.38,1,S02
5180,-9.33978,0.77812,1.58017,-8.4756,0.4268,1.6463,27.71,24.95,-11.38,1,S02
5200,-9.34936,0.77572,1.57778,-8.5366,0.4878,1.7683,27.43,25.14,-11.56,1,S02
5220,-9.33260,0.77333,1.58736,-8.5366,0.3659,1.8902,27.43,25.14,-11.56,1,S02
5240,-9.33739,0.77812,1.63763,-8.2927,0.1829,2.0122,27.43,25.14,-11.56,1,S02
5260,-9.33260,0.77572,1.66636,-7.9268,0.0610,2.0122,27.43,25.14,-11.56,1,S02
5280,-9.32542,0.76136,1.65439,-7.5610,0.0610,1.8902,27.34,24.95,-11.74,1,S02
5300,-9.30387,0.78290,1.64003,-7.4390,0.3659,1.7073,27.34,24.95,-11.74,1,S02
5320,-9.30626,0.79487,1.60651,-7.5000,0.8537,1.6463,27.34,24.95,-11.74,1,S02
5340,-9.33739,0.78530,1.61130,-7.3780,1.0366,1.6463,27.25,25.05,-11.83,1,S02
5360,-9.33978,0.77812,1.60172,-7.1341,0.7927,1.5854,27.25,25.05,-11.83,1,S02
5380,-9.33260,0.78769,1.59454,-6.8902,0.5488,1.5244,27.25,25.05,-11.83,1,S02
5400,-9.33739,0.81163,1.57778,-6.6463,0.5488,1.3415,27.25,25.14,-12.02,1,S02
5420,-9.33499,0.80685,1.59454,-6.2195,0.1220,1.2195,27.25,25.14,-12.02,1,S02
5440,-9.34457,0.78290,1.60172,-5.5488,-0.5488,1.0976,27.25,25.14,-12.02,1,S02
5460,-9.34218,0.79009,1.58017,-4.9390,-0.9146,0.9146,27.25,25.14,-12.02,1,S02
5480,-9.33739,0.78530,1.56341,-4.5122,-1.0366,0.7927,27.25,25.05,-12.02,1,S02
5500,-9.33739,0.79009,1.55144,-4.0244,-1.0976,0.7927,27.25,25.05,-12.02,1,S02
5520,-9.36133,0.81163,1.55144,-3.7805,-1.2195,0.7317,27.25,25.05,-12.02,1,S02
5540,-9.35175,0.81642,1.53708,-3.7195,-1.4024,0.7317,27.25,24.95,-11.93,1,S02
5560,-9.32781,0.83079,1.54905,-3.7195,-1.5244,0.7317,27.25,24.95,-11.93,1,S02
5580,-9.33020,0.83318,1.56820,-3.5366,-1.2805,0.6707,27.25,24.95,-11.93,1,S02
5600,-9.33739,0.82600,1.53708,-3.4756,-1.0976,0.6707,27.34,25.05,-11.93,1,S02
5620,-9.33020,0.84276,1.53229,-3.6585,-0.7927,0.6707,27.34,25.05,-11.93,1,S02
5640,-9.32302,0.84276,1.53947,-3.9024,-0.6098,0.6098,27.34,25.05,-11.93,1,S02
5660,-9.32781,0.83318,1.55144,-3.9634,-0.6098,0.5488,27.34,25.05,-11.93,1,S02
5680,-9.33978,0.81163,1.55384,-3.5366,-0.5488,0.4268,27.25,24.95,-12.02,1,S02
5700,-9.34218,0.79727,1.54187,-3.1098,-1.0366,0.3659,27.25,24.95,-12.02,1,S02
5720,-9.34696,0.82839,1.52511,-3.0488,-1.4024,0.3049,27.25,24.95,-12.02,1,S02
5740,-9.36133,0.84036,1.53229,-3.2317,-1.3415,0.2439,27.25,25.14,-12.02,1,S02
5760,-9.36133,0.82600,1.55623,-3.2317,-1.5854,0.3049,27.25,25.14,-12.02,1,S02
5780,-9.34696,0.79487,1.59214,-2.8049,-2.0732,0.3049,27.25,25.14,-12.02,1,S02
5800,-9.33739,0.79487,1.61369,-2.5000,-2.3780,0.3049,27.25,25.05,-11.93,1,S02
5820,-9.33020,0.80685,1.62087,-2.5610,-2.4390,0.3049,27.25,25.05,-11.93,1,S02
5840,-9.32542,0.80206,1.61609,-2.3780,-2.3171,0.2439,27.25,25.05,-11.93,1,S02
5860,-9.33499,0.80924,1.59454,-2.0732,-2.3171,0.1220,27.25,25.05,-11.93,1,S02
5880,-9.33978,0.83558,1.55863,-1.9512,-2.3171,0.0610,27.34,24.86,-11.74,1,S02
5900,-9.33260,0.84755,1.53708,-2.1341,-2.3171,0.0610,27.34,24.86,-11.74,1,S02
5920,-9.33739,0.83079,1.55863,-2.3780,-2.2561,0.1829,27.34,24.86,-11.74,1,S02
5940,-9.34696,0.81642,1.57060,-2.3780,-2.3171,0.2439,27.43,25.05,-11.74,1,S02
5960,-9.32542,0.81403,1.55144,-2.3780,-2.2561,0.2439,27.43,25.05,-11.74,1,S02
5980,-9.32063,0.81403,1.53468,-2.5610,-1.7683,0.2439,27.43,25.05,-11.74,1,S02
6000,-9.33739,0.80924,1.51792,-2.6220,-1.3415,0.3659,27.52,25.05,-11.56,1,S02
6020,-9.35175,0.80445,1.47962,-2.6220,-1.2195,0.3659,27.52,25.05,-11.56,1,S02
6040,-9.35893,0.82121,1.44610,-2.8659,-1.0976,0.3659,27.52,25.05,-11.56,1,S02
6060,-9.38527,0.84515,1.41737,-3.5976,-0.8537,0.4878,27.52,25.05,-11.56,1,S02
6080,-9.39006,0.81163,1.42934,-4.1463,-0.8537,0.6707,27.52,24.95,-11.65,1,S02
6100,-9.39485,0.75178,1.47243,-4.1463,-1.2195,0.6707,27.52,24.95,-11.65,1,S02
6120,-9.37091,0.71108,1.49638,-3.9634,-1.6463,0.4878,27.52,24.95,-11.65,1,S02
6140,-9.33978,0.67277,1.52271,-3.7805,-2.1341,0.3049,27.43,24.95,-11.56,1,S02
6160,-9.32063,0.64404,1.55863,-3.4146,-2.5610,0.1220,27.43,24.95,-11.56,1,S02
6180,-9.33260,0.62968,1.56581,-1.3415,-2.7439,-0.3049,27.43,24.95,-11.56,1,S02
6200,-9.33260,0.68714,1.52032,-0.6707,-2.7439,-0.4878,27.71,24.95,-11.47,1,S02
6220,-9.33499,0.73023,1.49159,-0.3659,-2.6220,-0.5488,27.71,24.95,-11.47,1,S02
6240,-9.36133,0.76614,1.50356,-0.2439,-2.5610,-0.4878,27.71,24.95,-11.47,1,S02
6260,-9.36372,0.81642,1.51314,-0.1220,-2.5610,-0.4268,27.71,24.95,-11.47,1,S02
6280,-9.35175,0.85952,1.49877,-0.4268,-2.7439,-0.2439,27.80,24.95,-11.28,1,S02
6300,-9.33260,0.87388,1.47962,-1.1585,-2.7439,-0.1220,27.80,24.95,-11.28,1,S02
6320,-9.33020,0.85234,1.49398,-2.0122,-2.1951,-0.0610,27.80,24.95,-11.28,1,S02
6340,-9.34457,0.81642,1.49159,-2.6220,-1.8293,0.0000,27.80,25.05,-11.19,1,S02
6360,-9.35175,0.82361,1.49159,-3.1098,-1.7683,0.1829,27.80,25.05,-11.19,1,S02
6380,-9.35654,0.82361,1.52271,-3.5976,-1.6463,0.3659,27.80,25.05,-11.19,1,S02
6400,-9.36612,0.80685,1.54905,-4.1463,-1.7073,0.6098,27.80,24.95,-11.19,1,S02
6420,-9.35175,0.78290,1.56102,-4.5122,-1.8293,0.7317,27.80,24.95,-11.19,1,S02
6440,-9.33739,0.76854,1.58975,-4.6951,-1.8293,0.8537,27.80,24.95,-11.19,1,S02
6460,-9.32542,0.75896,1.62087,-4.6951,-1.8293,0.8537,27.80,24.95,-11.19,1,S02
6480,-9.31823,0.71108,1.61369,-4.2683,-1.7683,0.8537,27.80,25.05,-11.19,1,S02
6500,-9.33499,0.68474,1.60172,-3.6585,-1.7073,0.9146,27.80,25.05,-11.19,1,S02
6520,-9.32302,0.70868,1.58736,-3.1707,-1.8293,1.0366,27.80,25.05,-11.19,1,S02
6540,-9.32063,0.74460,1.60651,-3.1707,-1.8293,1.1585,27.80,25.14,-11.19,1,S02
6560,-9.32781,0.79966,1.65679,-3.4756,-1.7683,1.2195,27.80,25.14,-11.19,1,S02
6580,-9.31823,0.84515,1.67594,-3.7805,-1.5854,1.1585,27.80,25.14,-11.19,1,S02
6600,-9.30147,0.85712,1.64721,-4.1463,-1.2195,0.9756,27.80,24.95,-11.10,1,S02
6620,-9.31584,0.83558,1.62087,-4.5122,-0.6098,0.7317,27.80,24.95,-11.10,1,S02
6640,-9.32781,0.84036,1.58736,-5.0610,-0.1829,0.4878,27.80,24.95,-11.10,1,S02
6660,-9.33260,0.84276,1.54665,-5.6707,-0.1220,0.3659,27.80,24.95,-11.10,1,S02
6680,-9.32781,0.86431,1.52032,-6.2195,-0.1220,0.3049,27.80,24.95,-11.19,1,S02
6700,-9.35175,0.88346,1.51314,-6.6463,-0.1829,0.4268,27.80,24.95,-11.19,1,S02
6720,-9.35175,0.90501,1.50595,-7.1951,-0.4878,0.7317,27.80,24.95,-11.19,1,S02
6740,-9.35175,0.91937,1.52750,-8.0488,-0.9146,1.0366,27.61,25.05,-11.38,1,S02
6760,-9.32302,0.91459,1.55623,-8.9634,-1.4024,1.4024,27.61,25.05,-11.38,1,S02
6780,-9.30147,0.86191,1.59454,-9.3293,-1.5244,1.6463,27.61,25.05,-11.38,1,S02
6800,-9.32781,0.82121,1.60412,-9.0854,-1.0976,1.7683,27.52,25.05,-11.56,1,S02
6820,-9.30626,0.81642,1.60412,-8.9024,-0.8537,1.9512,27.52,25.05,-11.56,1,S02
6840,-9.31344,0.83318,1.60890,-8.8415,-0.6098,1.9512,27.52,25.05,-11.56,1,S02
6860,-9.31823,0.85712,1.59214,-8.8415,-0.6707,1.9512,27.52,25.05,-11.56,1,S02
6880,-9.34936,0.85712,1.59693,-8.6585,-0.3049,1.8902,27.43,25.14,-11.65,1,S02
6900,-9.36851,0.80685,1.58496,-8.3537,-0.5488,1.9512,27.43,25.14,-11.65,1,S02
6920,-9.35654,0.76136,1.59214,-8.0488,-1.0976,1.8293,27.43,25.14,-11.65,1,S02
6940,-9.34936,0.73741,1.58496,-7.5610,-1.3415,1.6463,27.34,25.05,-11.74,1,S02
6960,-9.33978,0.72544,1.58496,-6.9512,-1.4024,1.4634,27.34,25.05,-11.74,1,S02
6980,-9.33020,0.72305,1.59933,-6.2805,-1.5854,1.2805,27.34,25.05,-11.74,1,S02
7000,-9.32542,0.74460,1.59454,-5.7927,-1.4634,1.1585,27.34,25.14,-11.74,1,S02
7020,-9.33739,0.77333,1.57538,-5.6098,-1.1585,1.0366,27.34,25.14,-11.74,1,S02
7040,-9.33499,0.78769,1.56102,-5.4878,-0.7927,0.9756,27.34,25.14,-11.74,1,S02
7060,-9.34696,0.79487,1.55863,-5.2439,-0.7317,0.9756,27.34,25.14,-11.74,1,S02
7080,-9.36133,0.79727,1.57060,-4.9390,-0.9146,0.9146,27.43,25.14,-11.74,1,S02
7100,-9.35893,0.77812,1.56341,-4.6341,-1.2805,0.7317,27.43,25.14,-11.74,1,S02
7120,-9.34457,0.76136,1.57538,-4.2683,-1.7073,0.6707,27.43,25.14,-11.74,1,S02
7140,-9.34457,0.74220,1.58736,-3.8415,-1.8293,0.5488,27.34,25.14,-11.74,1,S02
7160,-9.32781,0.73741,1.58496,-3.4146,-1.8293,0.4268,27.34,25.14,-11.74,1,S02
7180,-9.34457,0.75417,1.55863,-3.0488,-1.7683,0.3049,27.34,25.14,-11.74,1,S02
7200,-9.36612,0.76854,1.54187,-2.9878,-1.8293,0.3659,27.34,25.05,-11.74,1,S02
7220,-9.35654,0.76136,1.53468,-2.8659,-2.1341,0.3659,27.34,25.05,-11.74,1,S02
7240,-9.35175,0.74699,1.52750,-2.3780,-2.3171,0.4268,27.34,25.05,-11.74,1,S02
7260,-9.35415,0.73981,1.52271,-2.0122,-2.4390,0.4268,27.34,25.05,-11.74,1,S02
7280,-9.34457,0.75417,1.54187,-1.9512,-2.6220,0.3659,27.43,25.05,-11.65,1,S02
7300,-9.34218,0.76854,1.56581,-1.8902,-2.7439,0.2439,27.43,25.05,-11.65,1,S02
7320,-9.34936,0.78290,1.58496,-1.8293,-2.5610,0.1220,27.43,25.05,-11.65,1,S02
7340,-9.33499,0.77812,1.58975,-1.8293,-2.1951,0.0610,27.52,25.05,-11.47,1,S02
7360,-9.33739,0.76375,1.58017,-2.0122,-1.9512,0.0000,27.52,25.05,-11.47,1,S02
7380,-9.33978,0.77093,1.56820,-2.1341,-1.7683,0.0000,27.52,25.05,-11.47,1,S02
7400,-9.34936,0.77093,1.56341,-2.1341,-1.7073,-0.0610,27.52,25.14,-11.38,1,S02
7420,-9.32542,0.76375,1.57299,-2.0732,-1.8293,0.0000,27.52,25.14,-11.38,1,S02
7440,-9.31584,0.77572,1.59693,-1.8902,-1.8293,-0.0610,27.52,25.14,-11.38,1,S02
7460,-9.35175,0.79966,1.58975,-1.8902,-1.7073,-0.0610,27.52,25.14,-11.38,1,S02
7480,-9.34218,0.80924,1.57538,-2.0732,-1.6463,0.0000,27.61,24.86,-11.38,1,S02
7500,-9.32781,0.81882,1.59693,-2.1341,-1.8293,0.0000,27.61,24.86,-11.38,1,S02
7520,-9.32302,0.83318,1.61369,-2.1951,-1.9512,0.0000,27.61,24.86,-11.38,1,S02
7540,-9.29908,0.83797,1.56581,-2.4390,-2.1341,0.1829,27.71,25.05,-11.28,1,S02
7560,-9.30387,0.86431,1.55144,-2.9878,-1.9512,0.2439,27.71,25.05,-11.28,1,S02
7580,-9.32063,0.86910,1.53947,-3.4756,-1.4634,0.3659,27.71,25.05,-11.28,1,S02
7600,-9.33260,0.85473,1.55623,-3.6585,-1.4634,0.6098,27.52,25.05,-11.19,1,S02
7620,-9.33978,0.85952,1.56341,-3.7805,-1.7683,0.7317,27.52,25.05,-11.19,1,S02
7640,-9.32781,0.87628,1.56102,-4.2073,-1.7683,0.8537,27.52,25.05,-11.19,1,S02
7660,-9.33739,0.89304,1.55384,-4.7561,-1.4024,0.9146,27.52,25.05,-11.19,1,S02
7680,-9.35654,0.88107,1.58736,-5.1220,-1.2805,1.0366,27.61,25.05,-11.19,1,S02
7700,-9.34218,0.84515,1.58975,-5.2439,-1.6463,1.2195,27.61,25.05,-11.19,1,S02
7720,-9.33020,0.81403,1.58257,-5.3659,-1.7073,1.4024,27.61,25.05,-11.19,1,S02
7740,-9.32302,0.80206,1.56820,-5.6707,-1.6463,1.5244,27.61,25.14,-11.28,1,S02
7760,-9.33020,0.79248,1.56820,-5.8537,-1.6463,1.5854,27.61,25.14,-11.28,1,S02
7780,-9.33978,0.79487,1.57778,-5.9146,-1.5854,1.5244,27.61,25.14,-11.28,1,S02
7800,-9.34696,0.78530,1.58496,-5.7927,-1.7073,1.4024,27.52,25.05,-11.28,1,S02
7820,-9.33499,0.77812,1.59693,-5.6098,-1.7683,1.2805,27.52,25.05,-11.28,1,S02
7840,-9.33020,0.77572,1.60172,-5.4878,-1.7073,1.2195,27.52,25.05,-11.28,1,S02
7860,-9.33978,0.77812,1.60412,-5.3659,-1.7073,1.0976,27.52,25.05,-11.28,1,S02
7880,-9.33978,0.78290,1.60890,-5.2439,-1.7683,0.9756,27.52,25.14,-11.28,1,S02
7900,-9.33499,0.79727,1.60890,-5.0000,-1.7683,0.8537,27.52,25.14,-11.28,1,S02
7920,-9.33739,0.81403,1.61369,-4.7561,-1.7683,0.8537,27.52,25.14,-11.28,1,S02
7940,-9.33739,0.82600,1.63045,-4.6951,-1.8902,0.7927,27.52,25.14,-11.38,1,S02
7960,-9.32302,0.83079,1.62327,-4.7561,-2.0732,0.7317,27.52,25.14,-11.38,1,S02
7980,-9.32063,0.82839,1.62566,-4.7561,-1.9512,0.6707,27.52,25.14,-11.38,1,S02
8000,-9.33020,0.81642,1.64482,-4.6341,-1.8902,0.6098,27.43,25.23,-11.28,1,S02
8020,-9.33739,0.81642,1.68312,-4.3902,-2.0122,0.6098,27.43,25.23,-11.28,1,S02
8040,-9.32302,0.83558,1.68552,-4.3293,-2.5000,0.5488,27.43,25.23,-11.28,1,S02
8060,-9.30147,0.83558,1.67594,-4.4512,-2.6220,0.4268,27.43,25.23,-11.28,1,S02
8080,-9.30866,0.81163,1.67355,-4.5122,-2.3780,0.3659,27.52,25.23,-11.28,1,S02
8100,-9.31584,0.76136,1.64960,-4.3902,-2.3171,0.4268,27.52,25.23,-11.28,1,S02
8120,-9.29908,0.73502,1.63763,-4.2073,-2.3780,0.4878,27.52,25.23,-11.28,1,S02
8140,-9.32781,0.76136,1.67594,-4.0244,-2.1951,0.4878,27.52,25.23,-11.19,1,S02
8160,-9.33739,0.78051,1.68791,-3.9024,-2.1341,0.6098,27.52,25.23,-11.19,1,S02
8180,-9.30387,0.80206,1.69031,-3.6585,-2.3171,0.6707,27.52,25.23,-11.19,1,S02
8200,-9.30147,0.83797,1.67834,-3.4146,-2.6829,0.6098,27.61,25.23,-11.10,1,S02
8220,-9.30387,0.87388,1.68073,-3.4146,-2.6829,0.4878,27.61,25.23,-11.10,1,S02
8240,-9.30387,0.85712,1.64960,-3.4146,-2.5000,0.4878,27.61,25.23,-11.10,1,S02
8260,-9.30626,0.83558,1.63285,-3.6585,-2.4390,0.4878,27.61,25.23,-11.10,1,S02
8280,-9.32302,0.82361,1.64482,-3.9024,-2.1951,0.5488,27.52,25.23,-11.10,1,S02
8300,-9.31823,0.84276,1.64960,-4.0244,-2.1341,0.5488,27.52,25.23,-11.10,1,S02
8320,-9.31105,0.85952,1.64003,-4.2073,-2.3780,0.6707,27.52,25.23,-11.10,1,S02
8340,-9.31823,0.85234,1.65679,-4.3902,-2.4390,0.7317,27.61,25.32,-11.01,1,S02
8360,-9.31344,0.83558,1.66397,-4.4512,-2.1951,0.7317,27.61,25.32,-11.01,1,S02
8380,-9.29429,0.84276,1.65200,-4.5732,-1.8293,0.6098,27.61,25.32,-11.01,1,S02
8400,-9.29190,0.84994,1.65918,-4.7561,-1.5244,0.5488,27.52,25.14,-11.10,1,S02
8420,-9.30866,0.84515,1.67115,-4.8171,-1.3415,0.5488,27.52,25.14,-11.10,1,S02
8440,-9.31823,0.82600,1.66876,-4.7561,-1.3415,0.6098,27.52,25.14,-11.10,1,S02
8460,-9.31344,0.82839,1.65918,-4.7561,-1.5244,0.6098,27.52,25.14,-11.10,1,S02
8480,-9.30147,0.82121,1.66397,-4.8780,-1.5854,0.6098,27.61,25.23,-11.10,1,S02
8500,-9.30147,0.81882,1.67355,-4.8780,-1.4634,0.6098,27.61,25.23,-11.10,1,S02
8520,-9.30626,0.81642,1.67115,-4.7561,-1.5244,0.6098,27.61,25.23,-11.10,1,S02
8540,-9.31584,0.83558,1.66397,-4.8171,-1.6463,0.6098,27.52,25.23,-11.19,1,S02
8560,-9.32302,0.82839,1.66876,-5.0610,-1.7683,0.6707,27.52,25.23,-11.19,1,S02
8580,-9.32302,0.80924,1.68312,-5.1220,-1.7683,0.6707,27.52,25.23,-11.19,1,S02
8600,-9.31344,0.81163,1.68552,-4.9390,-1.8293,0.6707,27.61,25.32,-11.10,1,S02
8620,-9.30866,0.83079,1.67594,-4.8780,-1.8293,0.6707,27.61,25.32,-11.10,1,S02
8640,-9.31344,0.83558,1.68073,-5.1220,-1.7683,0.7317,27.61,25.32,-11.10,1,S02
8660,-9.31823,0.82121,1.67834,-5.2439,-1.7073,0.7927,27.61,25.32,-11.10,1,S02
8680,-9.33020,0.78051,1.70707,-5.0610,-1.7073,0.7927,27.43,25.32,-11.01,1,S02
8700,-9.32063,0.77093,1.70946,-4.7561,-2.0122,0.7927,27.43,25.32,-11.01,1,S02
8720,-9.30387,0.76136,1.70707,-4.5122,-2.3171,0.6707,27.43,25.32,-11.01,1,S02
8740,-9.32542,0.79248,1.70707,-4.3293,-2.3780,0.6707,27.43,25.41,-11.10,1,S02
8760,-9.32302,0.80206,1.70467,-4.4512,-2.6220,0.6707,27.43,25.41,-11.10,1,S02
8780,-9.33260,0.81882,1.69509,-4.6341,-2.6829,0.6098,27.43,25.41,-11.10,1,S02
8800,-9.33260,0.81642,1.70228,-4.8780,-2.5000,0.5488,27.61,25.32,-11.01,1,S02
8820,-9.33260,0.77333,1.72383,-4.9390,-2.6220,0.5488,27.61,25.32,-11.01,1,S02
8840,-9.32542,0.72305,1.73101,-4.6951,-2.8659,0.6098,27.61,25.32,-11.01,1,S02
8860,-9.30147,0.70868,1.71904,-4.2683,-3.1098,0.5488,27.61,25.32,-11.01,1,S02
8880,-9.29908,0.75657,1.72383,-3.5366,-2.6220,0.3049,27.52,25.32,-10.83,1,S02
8900,-9.32542,0.79727,1.69988,-3.4146,-2.1341,0.3659,27.52,25.32,-10.83,1,S02
8920,-9.30866,0.81882,1.69031,-3.4146,-2.0732,0.3659,27.52,25.32,-10.83,1,S02
8940,-9.30866,0.82600,1.71904,-3.4146,-2.1341,0.2439,27.61,25.23,-11.01,1,S02
8960,-9.31105,0.83558,1.72861,-3.4146,-1.9512,0.1829,27.61,25.23,-11.01,1,S02
8980,-9.27753,0.82121,1.72861,-3.2927,-2.0122,0.1829,27.61,25.23,-11.01,1,S02
9000,-9.26796,0.80445,1.75495,-3.3537,-2.1341,0.1829,27.61,25.41,-11.01,1,S02
9020,-9.28711,0.80685,1.75974,-3.2927,-1.7073,0.1829,27.61,25.41,-11.01,1,S02
9040,-9.29669,0.83797,1.73340,-3.4756,-1.5244,0.2439,27.61,25.41,-11.01,1,S02
9060,-9.30626,0.85234,1.71185,-3.7805,-1.8293,0.3659,27.61,25.41,-11.01,1,S02
9080,-9.30866,0.84515,1.72383,-4.0244,-2.0732,0.4268,27.71,25.23,-10.64,1,S02
9100,-9.32542,0.82600,1.74298,-4.2073,-2.0732,0.4878,27.71,25.23,-10.64,1,S02
9120,-9.31584,0.81403,1.76932,-4.3293,-2.3171,0.6707,27.71,25.23,-10.64,1,S02
9140,-9.29669,0.79966,1.76213,-4.3902,-2.7439,0.7317,27.71,25.32,-10.83,1,S02
9160,-9.28950,0.80924,1.75495,-4.3902,-2.6829,0.7317,27.71,25.32,-10.83,1,S02
9180,-9.29429,0.84036,1.75016,-4.3293,-2.3171,0.6707,27.71,25.32,-10.83,1,S02
9200,-9.31105,0.84515,1.74537,-4.4512,-2.0732,0.6707,27.61,25.41,-10.83,1,S02
9220,-9.30387,0.83079,1.73101,-4.5732,-1.8293,0.6098,27.61,25.41,-10.83,1,S02
9240,-9.30147,0.79727,1.73580,-4.6951,-1.7073,0.6098,27.61,25.41,-10.83,1,S02
9260,-9.30866,0.78290,1.75256,-4.7561,-1.8293,0.6098,27.61,25.41,-10.83,1,S02
9280,-9.29908,0.78769,1.76692,-4.7561,-2.0122,0.6098,27.71,25.23,-10.83,1,S02
9300,-9.29908,0.81163,1.77650,-4.6951,-2.0122,0.6707,27.71,25.23,-10.83,1,S02
9320,-9.29429,0.81163,1.76932,-4.8171,-1.8902,0.6707,27.71,25.23,-10.83,1,S02
9340,-9.29908,0.79009,1.77171,-4.9390,-1.7073,0.6707,27.52,25.32,-10.83,1,S02
9360,-9.30147,0.78769,1.78607,-5.0000,-1.5244,0.6707,27.52,25.32,-10.83,1,S02
9380,-9.29429,0.77333,1.80762,-4.9390,-1.6463,0.7317,27.52,25.32,-10.83,1,S02
9400,-9.29908,0.76375,1.81002,-4.9390,-1.8293,0.7927,27.71,25.32,-10.83,1,S02
9420,-9.29908,0.76136,1.80523,-4.8780,-1.8902,0.7927,27.71,25.32,-10.83,1,S02
9440,-9.29669,0.76614,1.81002,-4.6951,-1.8902,0.7317,27.71,25.32,-10.83,1,S02
9460,-9.29190,0.77572,1.80523,-4.5732,-1.8293,0.6098,27.71,25.32,-10.83,1,S02
9480,-9.27993,0.77812,1.78847,-4.5732,-1.7073,0.4878,27.61,25.32,-10.73,1,S02
9500,-9.29429,0.78051,1.78607,-4.5732,-1.5854,0.4268,27.61,25.32,-10.73,1,S02
9520,-9.30866,0.78769,1.80283,-4.6951,-1.5854,0.4268,27.61,25.32,-10.73,1,S02
9540,-9.29908,0.77572,1.80283,-4.7561,-1.6463,0.4268,27.71,25.41,-10.83,1,S02
9560,-9.29669,0.76375,1.80523,-4.6341,-1.7683,0.3659,27.71,25.41,-10.83,1,S02
9580,-9.30866,0.76854,1.82438,-4.4512,-1.7683,0.3659,27.71,25.41,-10.83,1,S02
9600,-9.30626,0.78290,1.82438,-4.2073,-1.9512,0.3659,27.71,25.23,-10.83,1,S02
9620,-9.30387,0.78530,1.79326,-3.9634,-2.0122,0.3659,27.71,25.23,-10.83,1,S02
9640,-9.25838,0.78530,1.79565,-3.9024,-2.0122,0.3049,27.71,25.23,-10.83,1,S02
9660,-9.30626,0.79248,1.79086,-3.9024,-1.7073,0.2439,27.71,25.23,-10.83,1,S02
9680,-9.32781,0.79487,1.77410,-4.0854,-1.6463,0.3659,27.71,25.14,-10.83,1,S02
9700,-9.29429,0.79487,1.78129,-4.1463,-1.8293,0.4268,27.71,25.14,-10.83,1,S02
9720,-9.29669,0.79487,1.79565,-4.0854,-1.7683,0.3659,27.71,25.14,-10.83,1,S02
9740,-9.28711,0.78530,1.80283,-4.0244,-1.4634,0.2439,27.71,25.32,-10.64,1,S02
9760,-9.28232,0.76375,1.78129,-3.8415,-1.4024,0.2439,27.71,25.32,-10.64,1,S02
9780,-9.29190,0.74699,1.76453,-3.7805,-1.4634,0.3049,27.71,25.32,-10.64,1,S02
9800,-9.28711,0.75417,1.74537,-3.8415,-1.2195,0.3049,27.71,25.41,-10.83,1,S02
9820,-9.28232,0.78769,1.75016,-3.9024,-0.9756,0.2439,27.71,25.41,-10.83,1,S02
9840,-9.30147,0.80924,1.76932,-3.9634,-1.0976,0.2439,27.71,25.41,-10.83,1,S02
9860,-9.32542,0.81403,1.78368,-4.0854,-1.2805,0.3659,27.71,25.41,-10.83,1,S02
9880,-9.32302,0.80445,1.77889,-4.3902,-1.4024,0.5488,27.80,25.23,-10.73,1,S02
9900,-9.27993,0.79966,1.75974,-4.6951,-1.5244,0.6098,27.80,25.23,-10.73,1,S02
9920,-9.28471,0.79248,1.77889,-4.8171,-1.4024,0.5488,27.80,25.23,-10.73,1,S02
9940,-9.29429,0.78290,1.79805,-4.7561,-1.1585,0.4878,27.71,25.23,-10.92,1,S02
9960,-9.29669,0.78290,1.77171,-4.6951,-1.0976,0.5488,27.71,25.23,-10.92,1,S02
9980,-9.29190,0.77333,1.75256,-4.8171,-1.0976,0.5488,27.71,25.23,-10.92,1,S02
10000,-9.27993,0.74220,1.73819,-4.8780,-0.7927,0.5488,27.71,25.23,-10.92,1,S02
10020,-9.29908,0.71347,1.80044,-4.7561,-0.6707,0.5488,27.71,25.23,-10.92,1,S02
10040,-9.31344,0.71587,1.80523,-4.3293,-1.0366,0.6707,27.71,25.23,-10.92,1,S02
10060,-9.30626,0.74220,1.79565,-4.1463,-1.4634,0.6098,27.71,25.23,-10.92,1,S02
10080,-9.30147,0.77572,1.78847,-4.2683,-1.5244,0.4878,27.80,25.14,-10.73,1,S02
10100,-9.29669,0.78051,1.81480,-4.3293,-1.5854,0.3659,27.80,25.14,-10.73,1,S02
10120,-9.29429,0.77333,1.83396,-4.1463,-1.8293,0.3049,27.80,25.14,-10.73,1,S02
10140,-9.29190,0.78769,1.81959,-3.9024,-2.0122,0.3049,27.89,25.23,-10.83,1,S02
10160,-9.28232,0.80206,1.77410,-4.0244,-1.9512,0.3049,27.89,25.23,-10.83,1,S02
10180,-9.28711,0.80685,1.76692,-4.3293,-1.7683,0.3659,27.89,25.23,-10.83,1,S02
10200,-9.30147,0.79966,1.78129,-4.3902,-1.6463,0.4268,27.71,25.14,-10.73,1,S02
10220,-9.30626,0.78769,1.75734,-4.3293,-1.6463,0.4268,27.71,25.14,-10.73,1,S02
10240,-9.29429,0.78530,1.77889,-4.5732,-1.5854,0.5488,27.71,25.14,-10.73,1,S02
10260,-9.27753,0.77572,1.78847,-4.6341,-1.5244,0.5488,27.71,25.14,-10.73,1,S02
10280,-9.27993,0.78530,1.79565,-4.6951,-1.3415,0.4878,27.61,25.14,-10.83,1,S02
10300,-9.27753,0.76614,1.79326,-4.8171,-1.0976,0.4268,27.61,25.14,-10.83,1,S02
10320,-9.29669,0.75178,1.79326,-4.7561,-0.9146,0.4268,27.61,25.14,-10.83,1,S02
10340,-9.31823,0.75178,1.80762,-4.6341,-0.9146,0.3659,27.71,25.14,-10.83,1,S02
10360,-9.31105,0.75896,1.78847,-4.5732,-1.0976,0.3659,27.71,25.14,-10.83,1,S02
10380,-9.29429,0.76614,1.77410,-4.5122,-1.2805,0.3659,27.71,25.14,-10.83,1,S02
10400,-9.26317,0.74699,1.80283,-4.6951,-1.3415,0.4268,27.71,25.14,-10.83,1,S02
10420,-9.32063,0.75417,1.83396,-4.6341,-1.2195,0.3659,27.71,25.14,-10.83,1,S02
10440,-9.33020,0.75896,1.82199,-4.6341,-1.3415,0.4878,27.71,25.14,-10.83,1,S02
10460,-9.30387,0.74699,1.80523,-4.5732,-1.7073,0.4878,27.71,25.14,-10.83,1,S02
10480,-9.31344,0.73981,1.85551,-4.4512,-1.8293,0.4268,27.80,25.23,-10.73,1,S02
10500,-9.29190,0.74939,1.84114,-3.9634,-1.7683,0.3049,27.80,25.23,-10.73,1,S02
10520,-9.26077,0.77812,1.79805,-3.7195,-1.7073,0.1829,27.80,25.23,-10.73,1,S02
10540,-9.28950,0.78051,1.78847,-4.0854,-1.6463,0.1829,27.80,25.14,-10.83,1,S02
10560,-9.30147,0.75417,1.75734,-4.5122,-1.3415,0.1829,27.80,25.14,-10.83,1,S02
10580,-9.30866,0.74460,1.74777,-4.5732,-1.2805,0.2439,27.80,25.14,-10.83,1,S02
10600,-9.29908,0.72784,1.76932,-4.3902,-1.4024,0.2439,27.80,25.05,-10.73,1,S02
10620,-9.30147,0.70868,1.79565,-4.2073,-1.4634,0.2439,27.80,25.05,-10.73,1,S02
10640,-9.29669,0.71108,1.79326,-4.0244,-1.2805,0.3049,27.80,25.05,-10.73,1,S02
10660,-9.27993,0.73981,1.74777,-3.9634,-0.9756,0.3049,27.80,25.05,-10.73,1,S02
10680,-9.27753,0.75896,1.74537,-4.0854,-0.4878,0.1829,27.89,24.95,-10.83,1,S02
10700,-9.29190,0.76375,1.77171,-4.2073,0.0000,0.2439,27.89,24.95,-10.83,1,S02
10720,-9.33020,0.74939,1.77889,-4.0854,0.3049,0.2439,27.89,24.95,-10.83,1,S02
10740,-9.33020,0.73263,1.77171,-3.9024,0.3049,0.2439,27.89,24.95,-10.92,1,S02
10760,-9.31105,0.73502,1.74777,-3.7805,0.4268,0.2439,27.89,24.95,-10.92,1,S02
10780,-9.29908,0.73981,1.75016,-3.8415,0.6098,0.3049,27.89,24.95,-10.92,1,S02
10800,-9.30147,0.73263,1.75016,-3.9634,0.7317,0.3049,27.89,25.05,-10.92,1,S02
10820,-9.32542,0.72065,1.72143,-4.0244,0.9146,0.3049,27.89,25.05,-10.92,1,S02
10840,-9.34457,0.69432,1.68552,-4.0854,1.1585,0.3659,27.89,25.05,-10.92,1,S02
10860,-9.34457,0.69192,1.67594,-4.1463,1.0976,0.4878,27.89,25.05,-10.92,1,S02
10880,-9.30866,0.71108,1.63285,-4.3293,1.0976,0.4268,27.98,24.95,-11.10,1,S02
10900,-9.28711,0.71587,1.57538,-4.6341,1.5244,0.4268,27.98,24.95,-11.10,1,S02
10920,-9.31105,0.73502,1.53947,-5.1829,2.0122,0.3659,27.98,24.95,-11.10,1,S02
10940,-9.34936,0.74220,1.56341,-5.7317,1.9512,0.3659,27.98,24.95,-11.19,1,S02
10960,-9.38288,0.72065,1.61848,-5.8537,1.4634,0.5488,27.98,24.95,-11.19,1,S02
10980,-9.39964,0.66080,1.65918,-5.4878,0.8537,0.5488,27.98,24.95,-11.19,1,S02
11000,-9.35654,0.62010,1.64482,-4.6341,0.4268,0.5488,27.98,24.86,-11.38,1,S02
11020,-9.30626,0.64883,1.64003,-4.1463,0.3659,0.4878,27.98,24.86,-11.38,1,S02
11040,-9.30147,0.69192,1.63524,-4.1463,0.6098,0.6098,27.98,24.86,-11.38,1,S02
11060,-9.32063,0.69911,1.64721,-4.2073,0.8537,0.7317,27.98,24.86,-11.38,1,S02
11080,-9.34218,0.68953,1.66636,-4.1463,0.9756,0.7317,27.89,24.86,-11.19,1,S02
11100,-9.34696,0.71826,1.65200,-4.0244,1.0976,0.6098,27.89,24.86,-11.19,1,S02
11120,-9.34218,0.74460,1.65200,-4.0854,1.2195,0.5488,27.89,24.86,-11.19,1,S02
11140,-9.33978,0.73023,1.64960,-4.2073,1.0976,0.6098,27.89,24.86,-11.38,1,S02
11160,-9.35893,0.71826,1.63524,-4.1463,0.4878,0.6707,27.89,24.86,-11.38,1,S02
11180,-9.34218,0.71587,1.63524,-4.3293,-0.3049,0.6707,27.89,24.86,-11.38,1,S02
11200,-9.33739,0.71347,1.64242,-4.2073,-0.4878,0.6707,27.80,24.77,-11.38,1,S02
11220,-9.34218,0.71587,1.63045,-4.0854,-0.4268,0.7317,27.80,24.77,-11.38,1,S02
11240,-9.34457,0.72784,1.65200,-3.9634,-0.4268,0.7927,27.80,24.77,-11.38,1,S02
11260,-9.34936,0.73502,1.63763,-3.5976,-0.8537,0.7927,27.80,24.77,-11.38,1,S02
11280,-9.32063,0.76854,1.60651,-3.5366,-1.4024,0.7317,28.07,24.86,-11.38,1,S02
11300,-9.31823,0.78290,1.58975,-3.5976,-1.0976,0.6707,28.07,24.86,-11.38,1,S02
11320,-9.33739,0.75178,1.57538,-3.5976,-0.9146,0.6707,28.07,24.86,-11.38,1,S02
11340,-9.35893,0.70390,1.54665,-3.4146,-0.9146,0.6707,27.98,24.68,-11.28,1,S02
11360,-9.36133,0.69432,1.54187,-3.2927,-0.8537,0.6707,27.98,24.68,-11.28,1,S02
11380,-9.34936,0.73023,1.53229,-3.4756,-0.9756,0.6707,27.98,24.68,-11.28,1,S02
11400,-9.34457,0.75178,1.55863,-3.8415,-1.0366,0.7317,27.98,24.68,-11.47,1,S02
11420,-9.34218,0.73741,1.57778,-4.0244,-0.8537,0.8537,27.98,24.68,-11.47,1,S02
11440,-9.33978,0.72544,1.55863,-4.1463,-0.4878,0.8537,27.98,24.68,-11.47,1,S02
11460,-9.34218,0.72544,1.54665,-4.2073,-0.0610,0.7317,27.98,24.68,-11.47,1,S02
11480,-9.34936,0.71347,1.54426,-4.2073,0.1220,0.6098,27.89,24.77,-11.38,1,S02
11500,-9.36851,0.70629,1.56341,-4.0854,-0.1829,0.6098,27.89,24.77,-11.38,1,S02
11520,-9.35893,0.71347,1.56820,-3.9634,-0.5488,0.5488,27.89,24.77,-11.38,1,S02
11540,-9.34936,0.71108,1.55623,-3.7195,-0.7317,0.4878,27.98,24.77,-11.56,1,S02
11560,-9.33739,0.72784,1.55144,-3.6585,-0.7317,0.4878,27.98,24.77,-11.56,1,S02
11580,-9.33260,0.74460,1.53708,-3.8415,-0.6098,0.4878,27.98,24.77,-11.56,1,S02
11600,-9.34936,0.74460,1.53947,-3.8415,-0.3659,0.5488,27.98,24.68,-11.38,1,S02
11620,-9.34218,0.75178,1.50835,-3.9024,-0.6098,0.6098,27.98,24.68,-11.38,1,S02
11640,-9.34218,0.77093,1.47243,-4.1463,-0.9146,0.7317,27.98,24.68,-11.38,1,S02
11660,-9.35893,0.76854,1.49159,-4.4512,-1.0366,0.9146,27.98,24.68,-11.38,1,S02
11680,-9.35654,0.75417,1.51553,-4.5122,-1.2195,0.9146,27.89,24.68,-11.47,1,S02
11700,-9.32542,0.75417,1.51792,-4.5122,-1.3415,0.8537,27.89,24.68,-11.47,1,S02
11720,-9.31584,0.76375,1.54426,-4.6341,-1.1585,0.7927,27.89,24.68,-11.47,1,S02
11740,-9.32302,0.74939,1.56102,-4.6341,-1.0366,0.7317,27.89,24.59,-11.56,1,S02
11760,-9.32781,0.73502,1.56341,-4.4512,-0.9756,0.4878,27.89,24.59,-11.56,1,S02
11780,-9.34218,0.73741,1.55863,-4.4512,-0.9756,0.3659,27.89,24.59,-11.56,1,S02
11800,-9.33739,0.74939,1.55384,-4.5732,-1.1585,0.4268,27.89,24.77,-11.56,1,S02
11820,-9.34696,0.74699,1.54905,-4.7561,-1.4024,0.4878,27.89,24.77,-11.56,1,S02
11840,-9.35893,0.74939,1.56581,-4.8780,-1.6463,0.6098,27.89,24.77,-11.56,1,S02
11860,-9.36133,0.75178,1.56102,-5.0000,-1.7683,0.7317,27.89,24.77,-11.56,1,S02
11880,-9.33260,0.74699,1.56102,-5.0000,-2.0122,0.7927,27.89,24.77,-11.38,1,S02
11900,-9.31344,0.76136,1.62566,-5.0000,-1.9512,0.6707,27.89,24.77,-11.38,1,S02
11920,-9.33020,0.78769,1.66397,-4.9390,-1.3415,0.4878,27.89,24.77,-11.38,1,S02
11940,-9.31823,0.80685,1.64721,-5.1829,-0.6707,0.3049,27.80,24.68,-11.56,1,S02
11960,-9.31823,0.76854,1.63524,-5.1220,-0.1829,0.1829,27.80,24.68,-11.56,1,S02
11980,-9.33978,0.73741,1.57299,-4.8780,-0.3659,0.1220,27.80,24.68,-11.56,1,S02
12000,-9.34696,0.76614,1.53468,-5.0000,-0.6707,0.1220,27.98,24.68,-11.56,1,S02
12020,-9.35654,0.77333,1.51553,-5.0610,-1.0976,0.3049,27.98,24.68,-11.56,1,S02
12040,-9.35415,0.73263,1.52032,-5.0610,-1.7073,0.4878,27.98,24.68,-11.56,1,S02
12060,-9.36372,0.70629,1.51553,-4.9390,-1.8293,0.6098,27.98,24.68,-11.56,1,S02
12080,-9.36133,0.73741,1.52989,-5.0610,-1.8902,0.7927,27.89,24.68,-11.47,1,S02
12100,-9.34936,0.75657,1.53229,-5.3049,-2.4390,0.9756,27.89,24.68,-11.47,1,S02
12120,-9.34696,0.73981,1.52032,-5.4268,-2.8049,1.0366,27.89,24.68,-11.47,1,S02
12140,-9.35175,0.72305,1.48201,-5.4268,-2.8049,0.9756,27.89,24.68,-11.56,1,S02
12160,-9.36133,0.71826,1.42694,-5.5488,-2.6220,0.8537,27.89,24.68,-11.56,1,S02
12180,-9.39006,0.68714,1.42455,-5.7317,-2.3171,0.7317,27.89,24.68,-11.56,1,S02
12200,-9.40203,0.63925,1.45807,-5.5488,-2.3780,0.7927,27.89,24.77,-11.56,1,S02
12220,-9.39485,0.60094,1.45807,-5.0610,-2.5000,0.7317,27.89,24.77,-11.56,1,S02
12240,-9.35654,0.60573,1.46525,-4.6341,-2.3780,0.5488,27.89,24.77,-11.56,1,S02
12260,-9.33020,0.64643,1.48919,-4.3902,-1.7073,0.3659,27.89,24.77,-11.56,1,S02
12280,-9.32542,0.66559,1.52989,-4.2073,-0.9756,0.1829,27.80,24.77,-11.47,1,S02
12300,-9.34936,0.68474,1.55144,-3.8415,-0.3049,0.0610,27.80,24.77,-11.47,1,S02
12320,-9.36612,0.70150,1.50595,-3.4146,0.0000,-0.0610,27.80,24.77,-11.47,1,S02
12340,-9.38048,0.71108,1.46765,-3.4146,-0.1829,-0.0610,27.89,24.59,-11.47,1,S02
12360,-9.39006,0.70868,1.45089,-3.6585,-0.7317,0.1220,27.89,24.59,-11.47,1,S02
12380,-9.39006,0.71347,1.46765,-3.8415,-1.2195,0.3049,27.89,24.59,-11.47,1,S02
12400,-9.37809,0.70390,1.49877,-3.9024,-1.7683,0.4268,27.89,24.68,-11.56,1,S02
12420,-9.37091,0.68953,1.51792,-3.8415,-2.1341,0.4268,27.89,24.68,-11.56,1,S02
12440,-9.36133,0.71108,1.51553,-3.8415,-2.5000,0.5488,27.89,24.68,-11.56,1,S02
12460,-9.34457,0.72784,1.49398,-4.0854,-2.6220,0.6707,27.89,24.68,-11.56,1,S02
12480,-9.35654,0.70150,1.50116,-4.2683,-2.4390,0.7317,27.98,24.68,-11.56,1,S02
12500,-9.37569,0.68235,1.50835,-4.2073,-2.2561,0.6707,27.98,24.68,-11.56,1,S02
12520,-9.38288,0.68953,1.48201,-4.0854,-2.0122,0.7317,27.98,24.68,-11.56,1,S02
12540,-9.39006,0.71108,1.49159,-4.3902,-1.8902,0.7927,27.89,24.68,-11.56,1,S02
12560,-9.38767,0.70629,1.50356,-4.6341,-1.9512,0.7927,27.89,24.68,-11.56,1,S02
12580,-9.34696,0.67038,1.50595,-4.5122,-2.0122,0.7317,27.89,24.68,-11.56,1,S02
12600,-9.30387,0.64404,1.52032,-4.0854,-1.8902,0.6098,27.98,24.68,-11.47,1,S02
12620,-9.35415,0.65841,1.54187,-3.7805,-1.5854,0.5488,27.98,24.68,-11.47,1,S02
12640,-9.36612,0.68235,1.55144,-3.9634,-1.5244,0.6707,27.98,24.68,-11.47,1,S02
12660,-9.36372,0.70150,1.57299,-3.7195,-1.4024,0.7317,27.98,24.68,-11.47,1,S02
12680,-9.37809,0.72065,1.55623,-3.4756,-1.8902,0.6707,27.98,24.95,-11.47,1,S02
12700,-9.35654,0.73263,1.55144,-3.5366,-2.2561,0.6098,27.98,24.95,-11.47,1,S02
12720,-9.33499,0.72305,1.54187,-3.7195,-2.3171,0.6707,27.98,24.95,-11.47,1,S02
12740,-9.33260,0.70868,1.55863,-3.9024,-2.3780,0.8537,27.98,24.77,-11.28,1,S02
12760,-9.35654,0.70390,1.57299,-4.0854,-2.1951,0.9756,27.98,24.77,-11.28,1,S02
12780,-9.36612,0.69432,1.57299,-4.2073,-2.0732,1.0366,27.98,24.77,-11.28,1,S02
12800,-9.34696,0.70629,1.54905,-4.1463,-2.1341,1.0976,27.89,24.77,-11.47,1,S02
12820,-9.33020,0.72784,1.54905,-4.2073,-1.8293,1.0366,27.89,24.77,-11.47,1,S02
12840,-9.33499,0.72544,1.58017,-4.3293,-1.0976,0.9756,27.89,24.77,-11.47,1,S02
12860,-9.34457,0.70150,1.59933,-4.3293,-0.8537,0.9756,27.89,24.77,-11.47,1,S02
12880,-9.34457,0.67756,1.58975,-3.9024,-0.7317,0.9756,27.98,24.86,-11.28,1,S02
12900,-9.33978,0.69192,1.58017,-3.6585,-1.0366,1.0366,27.98,24.86,-11.28,1,S02
12920,-9.35415,0.71587,1.58257,-3.7195,-1.4024,1.0366,27.98,24.86,-11.28,1,S02
12940,-9.33739,0.73741,1.56820,-3.7805,-1.5244,1.0366,27.98,24.77,-11.28,1,S02
12960,-9.34218,0.73263,1.55863,-3.7805,-1.3415,1.0366,27.98,24.77,-11.28,1,S02
12980,-9.33020,0.73981,1.56102,-3.7805,-1.2805,0.9756,27.98,24.77,-11.28,1,S02
13000,-9.32302,0.74460,1.56820,-3.8415,-1.2195,0.9756,27.89,24.68,-11.28,1,S02
13020,-9.33739,0.76375,1.56581,-3.9634,-1.1585,0.9146,27.89,24.68,-11.28,1,S02
13040,-9.33499,0.75417,1.56820,-3.9634,-1.0366,0.8537,27.89,24.68,-11.28,1,S02
13060,-9.33739,0.76136,1.58257,-3.8415,-1.0976,0.7927,27.89,24.68,-11.28,1,S02
13080,-9.33978,0.76854,1.61609,-3.9634,-1.2195,0.9146,27.98,24.86,-11.38,1,S02
13100,-9.32542,0.76614,1.61130,-4.0854,-1.2805,0.9756,27.98,24.86,-11.38,1,S02
13120,-9.32302,0.76136,1.59214,-4.1463,-1.0976,0.9756,27.98,24.86,-11.38,1,S02
13140,-9.33499,0.77333,1.58017,-4.2683,-1.0366,1.0366,27.89,24.77,-11.28,1,S02
13160,-9.33499,0.77572,1.58975,-4.6341,-1.1585,1.0366,27.89,24.77,-11.28,1,S02
13180,-9.35175,0.77093,1.62087,-4.8171,-1.2805,1.0366,27.89,24.77,-11.28,1,S02
13200,-9.36133,0.74699,1.63763,-4.7561,-1.4634,1.0366,27.89,24.86,-11.38,1,S02
13220,-9.33978,0.72544,1.64242,-4.5122,-1.7073,1.0366,27.89,24.86,-11.38,1,S02
13240,-9.30866,0.73263,1.63285,-4.2683,-1.7683,0.9756,27.89,24.86,-11.38,1,S02
13260,-9.32542,0.76614,1.62566,-4.2683,-1.7073,0.9146,27.89,24.86,-11.38,1,S02
13280,-9.31344,0.77812,1.59693,-4.4512,-1.6463,0.9756,27.89,24.77,-11.19,1,S02
13300,-9.32063,0.77093,1.59933,-4.5732,-1.4634,0.9756,27.89,24.77,-11.19,1,S02
13320,-9.37091,0.75657,1.61130,-4.5732,-1.3415,0.9756,27.89,24.77,-11.19,1,S02
13340,-9.34936,0.74460,1.60651,-4.6951,-1.4634,1.0366,27.80,24.86,-11.28,1,S02
13360,-9.34457,0.75178,1.61369,-4.5732,-1.7073,0.9756,27.80,24.86,-11.28,1,S02
13380,-9.33739,0.76136,1.58017,-4.5732,-2.3171,0.9756,27.80,24.86,-11.28,1,S02
13400,-9.32302,0.75657,1.58496,-4.5122,-2.1951,0.8537,27.89,24.86,-11.28,1,S02
13420,-9.31823,0.74460,1.57778,-4.5122,-2.1341,0.8537,27.89,24.86,-11.28,1,S02
13440,-9.31344,0.73741,1.58017,-4.5732,-2.0122,0.9146,27.89,24.86,-11.28,1,S02
13460,-9.34218,0.73741,1.56581,-4.5732,-1.5854,0.9146,27.89,24.86,-11.28,1,S02
13480,-9.35654,0.74460,1.55144,-4.5122,-1.5244,0.9756,27.80,24.95,-11.28,1,S02
13500,-9.34457,0.75657,1.53229,-4.5122,-1.7683,1.0366,27.80,24.95,-11.28,1,S02
13520,-9.33978,0.76854,1.52271,-4.6951,-1.8293,1.0366,27.80,24.95,-11.28,1,S02
13540,-9.34457,0.76614,1.52989,-4.9390,-1.5854,1.0366,27.89,24.95,-11.19,1,S02
13560,-9.33499,0.75896,1.54665,-5.0610,-1.4024,1.0366,27.89,24.95,-11.19,1,S02
13580,-9.34457,0.74460,1.56820,-4.9390,-1.4634,0.9756,27.89,24.95,-11.19,1,S02
13600,-9.34936,0.73502,1.56341,-4.6951,-1.5244,0.9146,27.80,24.77,-11.19,1,S02
13620,-9.36372,0.73263,1.57299,-4.5732,-1.5244,0.8537,27.80,24.77,-11.19,1,S02
13640,-9.35893,0.74939,1.56820,-4.3902,-1.7073,0.8537,27.80,24.77,-11.19,1,S02
13660,-9.34457,0.76375,1.56820,-4.3293,-1.8293,0.8537,27.80,24.77,-11.19,1,S02
13680,-9.32542,0.77812,1.56102,-4.3293,-1.7073,0.7927,27.71,24.95,-11.28,1,S02
13700,-9.32781,0.79727,1.55384,-4.5122,-1.4634,0.7317,27.71,24.95,-11.28,1,S02
13720,-9.33978,0.78530,1.54905,-4.5732,-1.3415,0.7927,27.71,24.95,-11.28,1,S02
13740,-9.33020,0.75896,1.55863,-4.6341,-1.4634,0.9146,27.71,24.86,-11.28,1,S02
13760,-9.34936,0.78051,1.56341,-4.5732,-1.4024,1.0366,27.71,24.86,-11.28,1,S02
13780,-9.33978,0.79487,1.58496,-4.5732,-1.2195,1.0366,27.71,24.86,-11.28,1,S02
13800,-9.32542,0.77333,1.58736,-4.4512,-1.0976,0.8537,27.80,25.05,-11.28,1,S02
13820,-9.33260,0.74939,1.58017,-4.2073,-1.0366,0.7927,27.80,25.05,-11.28,1,S02
13840,-9.34696,0.74460,1.57060,-4.0244,-1.2805,0.8537,27.80,25.05,-11.28,1,S02
13860,-9.35415,0.76375,1.55144,-4.0244,-1.5244,0.9146,27.80,25.05,-11.28,1,S02
13880,-9.35654,0.76854,1.56341,-4.2073,-1.6463,0.7927,27.89,24.95,-11.47,1,S02
13900,-9.33260,0.77333,1.58257,-4.2073,-1.7073,0.6707,27.89,24.95,-11.47,1,S02
13920,-9.31584,0.79487,1.59214,-4.0854,-1.6463,0.4878,27.89,24.95,-11.47,1,S02
13940,-9.32063,0.82121,1.59214,-4.2073,-1.5854,0.4878,27.89,24.68,-11.38,1,S02
13960,-9.34696,0.81642,1.58496,-4.5122,-1.5244,0.6098,27.89,24.68,-11.38,1,S02
13980,-9.36612,0.81163,1.58257,-4.6951,-1.5244,0.7317,27.89,24.68,-11.38,1,S02
14000,-9.35175,0.79727,1.56341,-4.5732,-1.7073,0.8537,27.80,24.95,-11.47,1,S02
14020,-9.31584,0.78769,1.55623,-4.4512,-2.0122,0.9146,27.80,24.95,-11.47,1,S02
14040,-9.32542,0.77333,1.56581,-4.3902,-2.0122,0.9146,27.80,24.95,-11.47,1,S02
14060,-9.34696,0.76614,1.56341,-4.3902,-1.7683,0.9756,27.80,24.95,-11.47,1,S02
14080,-9.32063,0.77333,1.57538,-4.3902,-1.4024,1.0366,27.80,24.95,-11.38,1,S02
14100,-9.33499,0.78530,1.58975,-4.2683,-1.2195,0.9756,27.80,24.95,-11.38,1,S02
14120,-9.33260,0.78530,1.57778,-4.2683,-1.4634,0.8537,27.80,24.95,-11.38,1,S02
14140,-9.33260,0.76375,1.58975,-4.3293,-1.2195,0.7317,27.71,25.05,-11.19,1,S02
14160,-9.34936,0.76375,1.59214,-4.4512,-1.4024,0.6707,27.71,25.05,-11.19,1,S02
14180,-9.33739,0.76614,1.59214,-4.8171,-1.5244,0.7317,27.71,25.05,-11.19,1,S02
14200,-9.34457,0.77572,1.58496,-5.0610,-1.5244,0.8537,27.61,24.86,-11.28,1,S02
14220,-9.36612,0.76614,1.58736,-5.1829,-1.7683,0.9756,27.61,24.86,-11.28,1,S02
14240,-9.35893,0.74699,1.60412,-5.1220,-2.1341,1.0366,27.61,24.86,-11.28,1,S02
14260,-9.34457,0.74220,1.62566,-5.0000,-2.3171,1.0366,27.61,24.86,-11.28,1,S02
14280,-9.33020,0.74460,1.62806,-4.7561,-2.3780,0.9756,27.61,24.95,-11.28,1,S02
14300,-9.32063,0.72544,1.62327,-4.3293,-2.3171,0.9146,27.61,24.95,-11.28,1,S02
14320,-9.33978,0.74220,1.60172,-3.2927,-2.1341,0.8537,27.61,24.95,-11.28,1,S02
14340,-9.32542,0.76375,1.57060,-3.1707,-2.0732,0.6707,27.61,24.95,-11.10,1,S02
14360,-9.31823,0.78530,1.55863,-3.4146,-1.8902,0.4878,27.61,24.95,-11.10,1,S02
14380,-9.33020,0.79727,1.57538,-3.5976,-1.7073,0.3659,27.61,24.95,-11.10,1,S02
14400,-9.34696,0.79248,1.59214,-3.7195,-1.7683,0.4268,27.71,25.05,-11.10,1,S02
14420,-9.34457,0.78769,1.59693,-3.9024,-1.9512,0.5488,27.71,25.05,-11.10,1,S02
14440,-9.33020,0.77812,1.60412,-4.0854,-2.0122,0.6098,27.71,25.05,-11.10,1,S02
14460,-9.32302,0.78530,1.61130,-4.0854,-1.9512,0.6098,27.71,25.05,-11.10,1,S02
14480,-9.33739,0.78290,1.64242,-3.9634,-1.7683,0.6098,27.71,25.05,-11.01,1,S02
14500,-9.33260,0.77572,1.64003,-3.7195,-1.8902,0.6098,27.71,25.05,-11.01,1,S02
14520,-9.33020,0.79487,1.62806,-3.7195,-1.9512,0.6098,27.71,25.05,-11.01,1,S02
14540,-9.32063,0.80445,1.63763,-3.7805,-1.7683,0.6707,27.80,24.95,-11.10,1,S02
14560,-9.32302,0.79487,1.64960,-3.8415,-1.6463,0.7317,27.80,24.95,-11.10,1,S02
14580,-9.31823,0.79487,1.64482,-3.7805,-1.5854,0.7927,27.80,24.95,-11.10,1,S02
14600,-9.30147,0.81163,1.61369,-3.7805,-1.4634,0.7927,27.71,25.05,-11.10,1,S02
14620,-9.31105,0.82361,1.59693,-3.9634,-1.2195,0.8537,27.71,25.05,-11.10,1,S02
14640,-9.33260,0.83318,1.60412,-4.2073,-1.0366,0.8537,27.71,25.05,-11.10,1,S02
14660,-9.33978,0.83558,1.62087,-4.3902,-1.1585,0.9146,27.71,25.05,-11.10,1,S02
14680,-9.33260,0.81163,1.63524,-4.4512,-1.4024,0.9756,27.71,25.05,-10.92,1,S02
14700,-9.32063,0.79727,1.63763,-4.4512,-1.7073,0.9756,27.71,25.05,-10.92,1,S02
14720,-9.33260,0.80206,1.64721,-4.3293,-1.9512,0.9146,27.71,25.05,-10.92,1,S02
14740,-9.31344,0.79727,1.64482,-4.2073,-2.1341,0.9146,27.61,25.05,-11.01,1,S02
14760,-9.28950,0.82121,1.63763,-4.0854,-2.0122,0.8537,27.61,25.05,-11.01,1,S02
14780,-9.33499,0.85473,1.63285,-4.3293,-1.7073,0.7927,27.61,25.05,-11.01,1,S02
14800,-9.33020,0.83558,1.61848,-4.6951,-1.4024,0.9146,27.71,25.05,-11.01,1,S02
14820,-9.32302,0.80924,1.65679,-4.6951,-1.5244,0.9756,27.71,25.05,-11.01,1,S02
14840,-9.32542,0.80924,1.66636,-4.5732,-2.1341,0.9756,27.71,25.05,-11.01,1,S02
14860,-9.32063,0.81403,1.66876,-4.5732,-2.0122,0.7927,27.71,25.05,-11.01,1,S02
14880,-9.31344,0.79487,1.65439,-4.4512,-1.9512,0.6707,27.71,25.05,-11.10,1,S02
14900,-9.31584,0.77572,1.64721,-4.2683,-2.0122,0.6098,27.71,25.05,-11.10,1,S02
14920,-9.32781,0.78530,1.62566,-4.0244,-1.8293,0.4878,27.71,25.05,-11.10,1,S02
14940,-9.33260,0.82600,1.60651,-4.1463,-1.7683,0.4878,27.71,24.95,-10.92,1,S02
14960,-9.32063,0.84755,1.61130,-4.5122,-1.9512,0.6098,27.71,24.95,-10.92,1,S02
14980,-9.33499,0.82121,1.64003,-4.6341,-1.8902,0.7317,27.71,24.95,-10.92,1,S02
15000,-9.32781,0.80445,1.64482,-4.6341,-1.8293,0.7317,27.71,25.14,-11.01,1,S02
15020,-9.32063,0.79009,1.64242,-4.5732,-1.8293,0.6707,27.71,25.14,-11.01,1,S02
15040,-9.31823,0.79487,1.64721,-4.5122,-1.7683,0.6098,27.71,25.14,-11.01,1,S02
15060,-9.32542,0.80445,1.64721,-4.3293,-1.6463,0.6098,27.71,25.14,-11.01,1,S02
15080,-9.32302,0.79966,1.64482,-4.1463,-1.7073,0.6098,27.71,25.14,-10.92,1,S02
15100,-9.33020,0.79966,1.62806,-4.0244,-1.6463,0.6098,27.71,25.14,-10.92,1,S02
15120,-9.32063,0.80206,1.61369,-4.0854,-1.5244,0.5488,27.71,25.14,-10.92,1,S02
15140,-9.33260,0.80445,1.62327,-4.1463,-1.2805,0.5488,27.71,25.14,-10.92,1,S02
15160,-9.33260,0.78530,1.62806,-4.1463,-1.2805,0.6098,27.71,25.14,-10.92,1,S02
15180,-9.33020,0.77812,1.64242,-4.0244,-1.3415,0.6707,27.71,25.14,-10.92,1,S02
15200,-9.32542,0.79248,1.64242,-4.0854,-1.5244,0.6098,27.80,25.14,-10.92,1,S02
15220,-9.31105,0.81403,1.64482,-4.2073,-1.5244,0.6098,27.80,25.14,-10.92,1,S02
15240,-9.31584,0.81882,1.64721,-4.2683,-1.3415,0.5488,27.80,25.14,-10.92,1,S02
15260,-9.31344,0.79966,1.65918,-4.2073,-1.2195,0.5488,27.80,25.14,-10.92,1,S02
15280,-9.31823,0.78290,1.66397,-4.2073,-1.0976,0.4268,27.71,25.14,-11.01,1,S02
15300,-9.32781,0.78530,1.66636,-4.2073,-1.1585,0.4268,27.71,25.14,-11.01,1,S02
15320,-9.32781,0.78290,1.65200,-4.2683,-1.3415,0.4268,27.71,25.14,-11.01,1,S02
15340,-9.32542,0.80206,1.65918,-4.3293,-1.5854,0.4268,27.61,25.05,-10.92,1,S02
15360,-9.33020,0.80685,1.66876,-4.3902,-1.7073,0.5488,27.61,25.05,-10.92,1,S02
15380,-9.31823,0.79248,1.65439,-4.4512,-1.7683,0.6098,27.61,25.05,-10.92,1,S02
15400,-9.31823,0.77572,1.63045,-4.5122,-1.6463,0.6098,27.80,25.14,-11.01,1,S02
15420,-9.31823,0.77093,1.63763,-4.5122,-1.5854,0.6098,27.80,25.14,-11.01,1,S02
15440,-9.33260,0.78769,1.64721,-4.3902,-1.6463,0.6098,27.80,25.14,-11.01,1,S02
15460,-9.34936,0.79487,1.63763,-4.2683,-1.7683,0.5488,27.80,25.14,-11.01,1,S02
15480,-9.31584,0.77093,1.63285,-4.2683,-1.8902,0.5488,27.80,24.95,-10.92,1,S02
15500,-9.31344,0.77572,1.63285,-4.3293,-2.0122,0.4878,27.80,24.95,-10.92,1,S02
15520,-9.35654,0.79248,1.63524,-4.4512,-1.8902,0.4878,27.80,24.95,-10.92,1,S02
15540,-9.32781,0.78051,1.61369,-4.5122,-1.7073,0.5488,27.80,25.05,-11.10,1,S02
15560,-9.32063,0.75417,1.63763,-4.5122,-1.8902,0.6098,27.80,25.05,-11.10,1,S02
15580,-9.34218,0.75896,1.65679,-4.5122,-2.0732,0.6098,27.80,25.05,-11.10,1,S02
15600,-9.32542,0.77093,1.63285,-4.5732,-1.8293,0.6098,27.71,25.05,-10.92,1,S02
15620,-9.31584,0.76136,1.62327,-4.7561,-1.9512,0.6707,27.71,25.05,-10.92,1,S02
15640,-9.33978,0.73981,1.62087,-4.6341,-1.7683,0.6707,27.71,25.05,-10.92,1,S02
15660,-9.34696,0.71587,1.61609,-4.3293,-1.4634,0.6707,27.71,25.05,-10.92,1,S02
15680,-9.33978,0.71826,1.61609,-4.0854,-1.5854,0.6707,27.89,25.05,-11.01,1,S02
15700,-9.32781,0.74460,1.63045,-3.7195,-1.4634,0.6098,27.89,25.05,-11.01,1,S02
15720,-9.32302,0.75178,1.63045,-3.5976,-1.0976,0.5488,27.89,25.05,-11.01,1,S02
15740,-9.32781,0.76854,1.62087,-3.5976,-0.9756,0.4878,27.98,25.05,-10.92,1,S02
15760,-9.33260,0.77572,1.61369,-3.7805,-0.8537,0.5488,27.98,25.05,-10.92,1,S02
15780,-9.34218,0.77812,1.60412,-3.9634,-0.9146,0.6098,27.98,25.05,-10.92,1,S02
15800,-9.36612,0.75417,1.61848,-4.0854,-1.0976,0.7317,27.80,25.14,-10.92,1,S02
15820,-9.32781,0.74220,1.61130,-4.2073,-1.5244,0.9146,27.80,25.14,-10.92,1,S02
15840,-9.32542,0.75657,1.59454,-4.3902,-1.8293,0.9146,27.80,25.14,-10.92,1,S02
15860,-9.31823,0.76614,1.57299,-4.5732,-2.0732,0.9146,27.80,25.14,-10.92,1,S02
15880,-9.34218,0.78769,1.55384,-4.5732,-2.0732,0.9146,27.89,25.14,-10.92,1,S02
15900,-9.38288,0.76375,1.60651,-3.9634,-2.6829,0.7927,27.89,25.14,-10.92,1,S02
15920,-9.36372,0.68953,1.70228,-1.8902,-5.0610,0.1829,27.89,25.14,-10.92,1,S02
15940,-9.32063,0.68474,1.73101,0.7317,-7.5610,-0.6707,27.98,25.14,-10.55,1,S02
15960,-9.30626,0.79966,1.71664,2.3780,-7.0732,-1.2195,27.98,25.14,-10.55,1,S02
15980,-9.30147,0.94092,1.59214,2.9268,-5.1829,-1.0976,27.98,25.14,-10.55,1,S02
16000,-9.31105,1.02472,1.52032,2.1341,-4.7561,-0.7317,28.17,25.05,-10.28,1,S02
16020,-9.32542,1.05584,1.52271,-0.0610,-4.8171,-0.2439,28.17,25.05,-10.28,1,S02
16040,-9.31823,1.00556,1.55863,-3.0488,-4.3902,0.4878,28.17,25.05,-10.28,1,S02
16060,-9.30866,0.94571,1.61369,-5.8537,-3.9024,1.3415,28.17,25.05,-10.28,1,S02
16080,-9.27274,0.87149,1.64003,-8.3537,-3.5366,2.3171,27.98,25.14,-10.37,1,S02
16100,-9.25120,0.83558,1.67594,-10.7927,-2.8049,3.3537,27.98,25.14,-10.37,1,S02
16120,-9.25598,0.84994,1.73101,-13.1707,-1.8902,4.2683,27.98,25.14,-10.37,1,S02
16140,-9.25598,0.81403,1.78607,-14.6341,-0.9756,4.9390,27.71,25.32,-10.64,1,S02
16160,-9.23683,0.79248,1.77171,-15.1220,0.0000,5.3659,27.71,25.32,-10.64,1,S02
16180,-9.19134,0.75657,1.71425,-15.4268,1.1585,5.3659,27.71,25.32,-10.64,1,S02
16200,-9.22246,0.77812,1.67115,-15.4878,2.6220,5.1829,27.16,25.41,-11.01,1,S02
16220,-9.27993,0.80445,1.65200,-15.4268,3.8415,4.9390,27.16,25.41,-11.01,1,S02
16240,-9.31823,0.79966,1.62566,-14.8780,4.5122,4.6341,27.16,25.41,-11.01,1,S02
16260,-9.35893,0.79966,1.63045,-14.3293,4.3293,4.2073,27.16,25.41,-11.01,1,S02
16280,-9.39006,0.78290,1.67834,-13.7805,3.2927,3.8415,27.06,25.50,-11.56,1,S02
16300,-9.40442,0.72065,1.79086,-12.6829,2.1951,3.4146,27.06,25.50,-11.56,1,S02
16320,-9.40442,0.64404,1.90100,-11.0366,0.7317,2.8659,27.06,25.50,-11.56,1,S02
16340,-9.37330,0.61770,1.93452,-8.8415,-1.6463,2.2561,26.97,25.60,-11.56,1,S02
16360,-9.31823,0.60813,1.94409,-5.7317,-5.4878,1.3415,26.97,25.60,-11.56,1,S02
16380,-9.27753,0.62489,1.93930,-2.5610,-9.8780,0.0610,26.97,25.60,-11.56,1,S02
16400,-9.27274,0.70150,1.97282,-0.7927,-12.5610,-1.2195,27.06,25.69,-11.01,1,S02
16420,-9.31105,0.81163,1.97761,-0.1220,-12.7439,-2.0732,27.06,25.69,-11.01,1,S02
16440,-9.34218,0.92416,1.89142,0.2439,-11.6463,-2.0122,27.06,25.69,-11.01,1,S02
16460,-9.27993,0.94810,1.87945,0.0610,-10.4268,-1.4024,27.06,25.69,-11.01,1,S02
16480,-9.22007,0.94571,1.96085,-0.7927,-9.2073,-0.9756,27.25,25.69,-10.64,1,S02
16500,-9.18655,0.93853,2.03028,-1.7683,-7.9878,-0.9146,27.25,25.69,-10.64,1,S02
16520,-9.15782,0.95529,2.00634,-2.7439,-6.8293,-0.7927,27.25,25.69,-10.64,1,S02
16540,-9.15064,0.97923,1.96325,-3.7195,-5.1829,-0.5488,27.25,25.69,-10.55,1,S02
16560,-9.16979,0.98162,1.95127,-4.8780,-3.7195,-0.1829,27.25,25.69,-10.55,1,S02
16580,-9.20810,0.94092,1.96325,-5.8537,-2.7439,0.1220,27.25,25.69,-10.55,1,S02
16600,-9.23922,0.90501,1.99437,-6.5854,-1.8902,0.3659,27.34,25.69,-10.64,1,S02
16620,-9.26077,0.85712,2.03268,-6.6463,-0.9756,0.6707,27.34,25.69,-10.64,1,S02
16640,-9.25598,0.83079,2.03268,-6.2805,-0.5488,0.9756,27.34,25.69,-10.64,1,S02
16660,-9.24162,0.83318,1.99916,-5.8537,-0.3049,1.0976,27.34,25.69,-10.64,1,S02
16680,-9.24641,0.83318,1.99198,-5.3049,-0.3049,1.0366,27.16,25.78,-10.73,1,S02
16700,-9.24401,0.83797,1.99676,-4.7561,-0.7317,0.7927,27.16,25.78,-10.73,1,S02
16720,-9.23204,0.82839,1.99437,-4.0854,-0.9146,0.4878,27.16,25.78,-10.73,1,S02
16740,-9.23204,0.83318,1.99198,-3.4146,-0.9146,0.2439,27.25,25.78,-10.64,1,S02
16760,-9.26796,0.82600,1.97043,-2.9268,-1.1585,0.2439,27.25,25.78,-10.64,1,S02
16780,-9.27753,0.83318,1.99198,-2.6220,-1.7683,0.3049,27.25,25.78,-10.64,1,S02
16800,-9.24641,0.83079,2.02789,-2.1951,-2.1951,0.3049,27.34,25.69,-10.46,1,S02
16820,-9.23444,0.83558,2.01352,-1.4634,-2.5610,0.1220,27.34,25.69,-10.46,1,S02
16840,-9.21528,0.85473,1.98240,-0.9756,-3.2317,0.1220,27.34,25.69,-10.46,1,S02
16860,-9.18416,0.89543,1.96803,-0.9756,-3.7195,0.1829,27.34,25.69,-10.46,1,S02
16880,-9.20571,0.95289,1.96564,-1.4634,-3.5976,0.0610,27.34,25.78,-10.37,1,S02
16900,-9.24880,0.99120,1.93212,-2.2561,-2.9268,0.0610,27.34,25.78,-10.37,1,S02
16920,-9.24880,0.94332,1.92254,-3.1098,-2.5610,0.2439,27.34,25.78,-10.37,1,S02
16940,-9.24401,0.85712,1.95127,-3.5976,-2.6829,0.3659,27.43,25.69,-10.37,1,S02
16960,-9.25838,0.81882,1.96564,-3.5366,-3.1098,0.3659,27.43,25.69,-10.37,1,S02
16980,-9.23444,0.83079,1.95846,-3.4146,-3.1098,0.3659,27.43,25.69,-10.37,1,S02
17000,-9.22725,0.84036,1.96803,-3.6585,-2.9268,0.4268,27.34,25.78,-10.28,1,S02
17020,-9.24880,0.81163,1.97522,-3.7805,-2.8049,0.4878,27.34,25.78,-10.28,1,S02
17040,-9.26077,0.78530,1.98958,-3.7195,-2.8659,0.5488,27.34,25.78,-10.28,1,S02
17060,-9.24880,0.79009,1.97761,-3.4146,-3.1098,0.7317,27.34,25.78,-10.28,1,S02
17080,-9.26317,0.79966,2.01831,-3.0488,-3.1707,0.7927,27.43,25.78,-10.28,1,S02
17100,-9.26796,0.80924,2.05183,-2.6220,-3.2927,0.8537,27.43,25.78,-10.28,1,S02
17120,-9.24880,0.82361,2.07577,-2.4390,-3.4756,0.9756,27.43,25.78,-10.28,1,S02
17140,-9.22007,0.82121,2.07098,-2.4390,-3.6585,1.0366,27.43,25.96,-10.00,1,S02
17160,-9.21289,0.81642,2.06141,-2.5610,-3.3537,1.0366,27.43,25.96,-10.00,1,S02
17180,-9.22486,0.84276,2.05423,-2.6829,-3.1098,0.9146,27.43,25.96,-10.00,1,S02
17200,-9.21289,0.86191,2.04704,-3.0488,-2.9878,0.8537,27.43,25.78,-10.00,1,S02
17220,-9.21289,0.84515,2.04704,-3.3537,-2.7439,0.8537,27.43,25.78,-10.00,1,S02
17240,-9.23444,0.83079,2.06141,-3.5976,-2.5000,0.9756,27.43,25.78,-10.00,1,S02
17260,-9.23922,0.82839,2.03507,-4.0244,-2.6829,1.1585,27.43,25.78,-10.00,1,S02
17280,-9.23444,0.83558,2.00155,-4.5732,-2.8659,1.2195,27.34,25.96,-10.00,1,S02
17300,-9.22725,0.80924,2.00874,-4.9390,-2.6829,1.1585,27.34,25.96,-10.00,1,S02
17320,-9.23683,0.78769,2.03507,-4.8780,-2.4390,1.0976,27.34,25.96,-10.00,1,S02
17340,-9.23683,0.76854,2.04704,-4.5732,-2.4390,1.0366,27.34,25.96,-9.91,1,S02
17360,-9.21528,0.78051,2.05662,-4.2683,-2.5000,0.9146,27.34,25.96,-9.91,1,S02
17380,-9.20092,0.79966,2.06620,-3.7805,-2.3780,0.8537,27.34,25.96,-9.91,1,S02
17400,-9.20092,0.82121,2.14520,-3.1707,-2.0732,0.7927,27.25,25.96,-9.82,1,S02
17420,-9.21049,0.80924,2.19788,-2.4390,-1.8902,0.5488,27.25,25.96,-9.82,1,S02
17440,-9.18655,0.80685,2.15957,-1.7073,-1.5854,0.3049,27.25,25.96,-9.82,1,S02
17460,-9.18895,0.84036,2.11408,-1.4024,-1.2805,0.1220,27.25,25.96,-9.82,1,S02
17480,-9.21289,0.88585,2.09253,-1.5244,-1.1585,0.0610,27.43,25.96,-9.82,1,S02
17500,-9.19852,0.93613,2.09014,-2.0122,-0.9756,0.1220,27.43,25.96,-9.82,1,S02
17520,-9.19134,0.93853,2.09972,-2.8049,-0.7927,0.1220,27.43,25.96,-9.82,1,S02
17540,-9.22486,0.89304,2.12366,-3.4146,-0.5488,0.2439,27.34,25.96,-9.72,1,S02
17560,-9.23444,0.86431,2.09972,-3.7805,-0.4878,0.4878,27.34,25.96,-9.72,1,S02
17580,-9.18895,0.84036,2.08535,-3.9634,-0.4268,0.5488,27.34,25.96,-9.72,1,S02
17600,-9.18895,0.86910,2.12126,-3.9024,-0.2439,0.4268,27.52,25.87,-9.82,1,S02
17620,-9.21289,0.89543,2.11408,-3.6585,-0.2439,0.3659,27.52,25.87,-9.82,1,S02
17640,-9.20810,0.89783,2.06859,-3.7195,-0.1829,0.4268,27.52,25.87,-9.82,1,S02
17660,-9.22965,0.88825,2.05423,-4.0244,0.0000,0.4878,27.52,25.87,-9.82,1,S02
17680,-9.23922,0.88107,2.04704,-4.2683,0.0000,0.5488,27.52,25.87,-9.82,1,S02
17700,-9.23922,0.88107,2.04944,-4.2683,-0.1829,0.6098,27.52,25.87,-9.82,1,S02
17720,-9.23444,0.87149,2.05662,-4.0854,-0.6707,0.6707,27.52,25.87,-9.82,1,S02
17740,-9.24162,0.87388,2.06380,-3.8415,-1.1585,0.7317,27.43,25.78,-9.82,1,S02
17760,-9.24162,0.87628,2.05662,-3.7195,-1.4024,0.7317,27.43,25.78,-9.82,1,S02
17780,-9.23444,0.87867,2.07338,-3.7195,-1.7073,0.6098,27.43,25.78,-9.82,1,S02
17800,-9.25838,0.86191,2.10690,-3.5366,-2.0732,0.6098,27.43,25.78,-9.82,1,S02
17820,-9.21049,0.84515,2.05901,-3.2927,-2.6220,0.5488,27.43,25.78,-9.82,1,S02
17840,-9.19613,0.86431,2.01592,-3.2927,-2.5000,0.4268,27.43,25.78,-9.82,1,S02
17860,-9.20810,0.90740,1.99916,-3.5366,-2.1951,0.4878,27.43,25.78,-9.82,1,S02
17880,-9.24162,0.89304,2.02071,-3.9024,-2.1951,0.6707,27.52,25.96,-9.72,1,S02
17900,-9.25120,0.85712,2.02071,-4.0244,-2.4390,0.7317,27.52,25.96,-9.72,1,S02
17920,-9.23922,0.83797,2.00634,-3.8415,-2.5610,0.6707,27.52,25.96,-9.72,1,S02
17940,-9.21528,0.83797,2.00155,-3.5366,-2.6220,0.6707,27.52,25.96,-9.72,1,S02
17960,-9.21768,0.87149,2.03268,-3.2927,-2.5610,0.7317,27.52,25.96,-9.72,1,S02
17980,-9.21049,0.87628,2.03747,-3.1707,-2.6829,0.6707,27.52,25.96,-9.72,1,S02
18000,-9.20810,0.88825,2.01352,-3.0488,-2.6220,0.6098,27.52,25.96,-9.63,1,S02
18020,-9.22246,0.89783,2.01113,-3.1098,-2.1341,0.5488,27.52,25.96,-9.63,1,S02
18040,-9.23683,0.88585,2.01113,-3.1707,-1.7073,0.5488,27.52,25.96,-9.63,1,S02
18060,-9.24880,0.87149,2.00634,-3.2927,-1.4634,0.5488,27.52,25.96,-9.63,1,S02
18080,-9.24641,0.86191,2.01352,-3.4146,-1.3415,0.3659,27.61,25.87,-9.72,1,S02
18100,-9.23444,0.85712,2.05662,-3.4146,-1.3415,0.3049,27.61,25.87,-9.72,1,S02
18120,-9.22725,0.86191,2.08535,-3.2927,-1.4634,0.2439,27.61,25.87,-9.72,1,S02
18140,-9.20810,0.86670,2.06141,-3.1707,-1.4634,0.1829,27.61,25.78,-9.63,1,S02
18160,-9.18416,0.87149,2.03507,-3.2317,-1.2195,0.0610,27.61,25.78,-9.63,1,S02
18180,-9.22246,0.87867,2.03507,-3.3537,-0.7927,0.1220,27.61,25.78,-9.63,1,S02
18200,-9.25120,0.89783,2.05183,-3.7805,-0.5488,0.3049,27.61,25.78,-9.63,1,S02
18220,-9.23204,0.88346,2.07338,-4.0244,-0.5488,0.4268,27.61,25.78,-9.63,1,S02
18240,-9.21289,0.87867,2.05901,-4.0854,-0.7927,0.5488,27.61,25.78,-9.63,1,S02
18260,-9.22725,0.87867,2.05183,-4.1463,-1.1585,0.5488,27.61,25.78,-9.63,1,S02
18280,-9.21528,0.87388,2.04944,-4.1463,-1.1585,0.5488,27.71,25.96,-9.54,1,S02
18300,-9.20810,0.86670,2.05662,-4.2683,-0.9756,0.6098,27.71,25.96,-9.54,1,S02
18320,-9.21768,0.85473,2.07098,-4.4512,-0.9146,0.6707,27.71,25.96,-9.54,1,S02
18340,-9.24641,0.85952,2.07817,-4.4512,-0.9756,0.7927,27.61,25.87,-9.63,1,S02
18360,-9.24401,0.88346,2.05662,-4.5732,-1.2195,0.8537,27.61,25.87,-9.63,1,S02
18380,-9.22725,0.88346,2.03986,-4.7561,-1.2805,0.8537,27.61,25.87,-9.63,1,S02
18400,-9.22007,0.87388,2.05423,-4.9390,-0.9146,0.7927,27.61,25.78,-9.72,1,S02
18420,-9.23204,0.85473,2.09014,-5.1220,-0.3659,0.6707,27.61,25.78,-9.72,1,S02
18440,-9.22007,0.84036,2.08056,-5.0610,-0.2439,0.6707,27.61,25.78,-9.72,1,S02
18460,-9.22007,0.84276,2.06620,-4.8780,-0.0610,0.6098,27.61,25.78,-9.72,1,S02
18480,-9.22246,0.84994,2.04704,-4.8780,0.0610,0.5488,27.61,25.87,-9.72,1,S02
18500,-9.22486,0.84755,2.03986,-4.8780,0.1829,0.4878,27.61,25.87,-9.72,1,S02
18520,-9.23683,0.83558,2.03268,-4.8780,0.1220,0.4268,27.61,25.87,-9.72,1,S02
18540,-9.24641,0.82361,2.03986,-4.6951,0.0000,0.3659,27.71,25.78,-9.72,1,S02
18560,-9.23922,0.82839,2.06620,-4.5732,-0.2439,0.3659,27.71,25.78,-9.72,1,S02
18580,-9.22007,0.85234,2.06859,-4.5122,-0.4268,0.3049,27.71,25.78,-9.72,1,S02
18600,-9.21528,0.86191,2.04704,-4.3902,-0.4878,0.1829,27.61,25.69,-9.72,1,S02
18620,-9.20571,0.87149,2.02789,-4.3293,-0.4268,0.1220,27.61,25.69,-9.72,1,S02
18640,-9.22486,0.89304,1.99198,-4.3902,-0.1829,0.1220,27.61,25.69,-9.72,1,S02
18660,-9.25838,0.91698,1.95846,-4.8780,-0.0610,0.1829,27.61,25.69,-9.72,1,S02
18680,-9.27274,0.90980,1.96085,-5.5488,-0.4268,0.3049,27.71,25.78,-9.91,1,S02
18700,-9.26317,0.87388,1.95846,-5.9146,-0.7927,0.4878,27.71,25.78,-9.91,1,S02
18720,-9.23444,0.81882,1.97282,-5.8537,-0.9756,0.6707,27.71,25.78,-9.91,1,S02
18740,-9.23683,0.80445,1.94649,-5.6707,-0.8537,0.6707,27.61,25.69,-9.91,1,S02
18760,-9.22725,0.80445,1.96564,-5.5488,-0.7927,0.6707,27.61,25.69,-9.91,1,S02
18780,-9.25598,0.81403,1.98719,-5.3659,-0.7927,0.6098,27.61,25.69,-9.91,1,S02
18800,-9.28471,0.82121,1.98479,-5.0610,-0.6098,0.6098,27.61,25.60,-10.09,1,S02
18820,-9.26796,0.80445,1.96085,-4.5732,-0.4878,0.6098,27.61,25.60,-10.09,1,S02
18840,-9.26796,0.80924,1.93930,-4.0854,-0.9146,0.5488,27.61,25.60,-10.09,1,S02
18860,-9.27035,0.85234,1.93691,-4.0854,-1.4024,0.4268,27.61,25.60,-10.09,1,S02
18880,-9.25598,0.86670,1.92254,-4.4512,-1.3415,0.4878,27.61,25.69,-9.91,1,S02
18900,-9.25598,0.83797,1.93691,-4.8780,-1.3415,0.6707,27.61,25.69,-9.91,1,S02
18920,-9.26796,0.79487,1.97282,-5.0000,-1.2195,0.8537,27.61,25.69,-9.91,1,S02
18940,-9.26556,0.77812,1.97761,-4.8171,-1.2195,0.9146,27.52,25.78,-10.00,1,S02
18960,-9.25120,0.80445,1.97282,-4.6951,-1.5244,0.9756,27.52,25.78,-10.00,1,S02
18980,-9.23683,0.82361,1.96564,-4.5732,-1.6463,1.0366,27.52,25.78,-10.00,1,S02
19000,-9.23444,0.84036,1.98240,-4.3293,-1.4024,0.9756,27.61,25.69,-10.00,1,S02
19020,-9.22486,0.84276,1.98000,-4.3293,-0.9756,0.8537,27.61,25.69,-10.00,1,S02
19040,-9.23922,0.83797,1.95846,-4.4512,-0.8537,0.7317,27.61,25.69,-10.00,1,S02
19060,-9.25598,0.82600,1.94649,-4.5732,-0.9146,0.6707,27.61,25.69,-10.00,1,S02
19080,-9.27993,0.79487,1.96564,-4.5122,-1.1585,0.6707,27.61,25.69,-10.00,1,S02
19100,-9.27274,0.78290,1.96564,-4.2073,-1.5854,0.5488,27.61,25.69,-10.00,1,S02
19120,-9.26077,0.79727,1.96564,-3.8415,-1.9512,0.5488,27.61,25.69,-10.00,1,S02
19140,-9.25120,0.82121,1.97522,-3.7805,-2.1951,0.4878,27.61,25.60,-10.00,1,S02
19160,-9.24401,0.83797,1.97761,-3.9024,-2.2561,0.5488,27.61,25.60,-10.00,1,S02
19180,-9.25359,0.85234,1.97522,-4.0244,-2.2561,0.6098,27.61,25.60,-10.00,1,S02
19200,-9.25598,0.84755,1.96803,-4.2073,-2.3780,0.7317,27.61,25.69,-10.00,1,S02
19220,-9.26077,0.84036,1.96325,-4.1463,-2.5610,0.7317,27.61,25.69,-10.00,1,S02
19240,-9.26317,0.84755,1.98240,-3.9634,-2.9268,0.7317,27.61,25.69,-10.00,1,S02
19260,-9.23444,0.85234,1.99437,-3.9024,-3.2927,0.6098,27.61,25.69,-10.00,1,S02
19280,-9.21528,0.87149,2.00634,-3.9024,-3.2927,0.5488,27.71,25.69,-9.91,1,S02
19300,-9.22246,0.87388,2.01113,-4.0244,-3.1098,0.5488,27.71,25.69,-9.91,1,S02
19320,-9.23922,0.85712,2.01831,-3.9634,-2.9878,0.5488,27.71,25.69,-9.91,1,S02
19340,-9.24401,0.86191,2.02549,-3.8415,-2.9878,0.5488,27.71,25.78,-9.72,1,S02
19360,-9.22486,0.86431,2.03507,-3.9024,-3.0488,0.4878,27.71,25.78,-9.72,1,S02
19380,-9.21049,0.87149,2.09014,-4.0244,-3.0488,0.4878,27.71,25.78,-9.72,1,S02
19400,-9.22725,0.88107,2.11887,-3.9634,-3.1098,0.5488,27.71,25.87,-9.72,1,S02
19420,-9.22486,0.87388,2.10211,-3.8415,-3.1707,0.6707,27.71,25.87,-9.72,1,S02
19440,-9.19852,0.87867,2.09732,-3.7805,-3.0488,0.6098,27.71,25.87,-9.72,1,S02
19460,-9.19134,0.90740,2.05183,-3.8415,-3.1098,0.5488,27.71,25.87,-9.72,1,S02
19480,-9.21049,0.91937,2.04465,-4.1463,-3.0488,0.5488,27.71,25.78,-9.45,1,S02
19500,-9.22246,0.89543,2.05662,-4.0854,-2.7439,0.4268,27.71,25.78,-9.45,1,S02
19520,-9.22725,0.84755,2.07338,-3.9634,-2.6829,0.3659,27.71,25.78,-9.45,1,S02
19540,-9.22486,0.83318,2.07098,-3.7195,-2.6220,0.3049,27.61,25.69,-9.63,1,S02
19560,-9.22725,0.83318,2.07098,-3.5366,-2.5610,0.3659,27.61,25.69,-9.63,1,S02
19580,-9.22486,0.83558,2.10211,-3.3537,-2.7439,0.4268,27.61,25.69,-9.63,1,S02
19600,-9.22725,0.86191,2.09253,-3.2317,-3.0488,0.4268,27.61,25.78,-9.45,1,S02
19620,-9.21768,0.87867,2.05423,-3.5366,-2.9878,0.4878,27.61,25.78,-9.45,1,S02
19640,-9.22007,0.85473,2.06141,-3.8415,-2.6220,0.6098,27.61,25.78,-9.45,1,S02
19660,-9.23444,0.85473,2.10690,-3.7805,-2.6220,0.7317,27.61,25.78,-9.45,1,S02
19680,-9.22725,0.87388,2.11647,-3.9634,-3.1098,0.9146,27.71,25.78,-9.45,1,S02
19700,-9.20331,0.87628,2.07338,-4.3293,-3.1707,0.9146,27.71,25.78,-9.45,1,S02
19720,-9.19613,0.86191,2.07817,-4.7561,-2.6829,0.9756,27.71,25.78,-9.45,1,S02
19740,-9.20331,0.83558,2.12845,-4.9390,-2.3780,1.0366,27.80,25.87,-9.45,1,S02
19760,-9.20810,0.81882,2.07338,-4.6951,-1.9512,0.7317,27.80,25.87,-9.45,1,S02
19780,-9.22725,0.80206,2.06859,-4.5732,-1.7073,0.6707,27.80,25.87,-9.45,1,S02
19800,-9.24401,0.80206,2.07577,-4.4512,-1.8902,0.7317,27.71,25.87,-9.36,1,S02
19820,-9.23204,0.80685,2.07098,-4.3293,-2.1341,0.7317,27.71,25.87,-9.36,1,S02
19840,-9.22486,0.82600,2.06380,-4.2683,-2.1341,0.6098,27.71,25.87,-9.36,1,S02
19860,-9.21289,0.83558,2.06380,-4.3902,-2.0122,0.5488,27.71,25.87,-9.36,1,S02
19880,-9.20810,0.83558,2.09014,-4.6341,-2.0122,0.6098,27.71,25.87,-9.27,1,S02
19900,-9.20571,0.82121,2.11887,-4.7561,-2.0122,0.7317,27.71,25.87,-9.27,1,S02
19920,-9.21049,0.80685,2.16436,-4.5732,-1.8902,0.7927,27.71,25.87,-9.27,1,S02
19940,-9.19134,0.81642,2.16915,-4.2073,-1.7073,0.7317,27.71,25.78,-9.36,1,S02
19960,-9.19134,0.84276,2.14042,-3.9024,-1.4634,0.5488,27.71,25.78,-9.36,1,S02
19980,-9.17219,0.84755,2.13563,-3.9634,-1.1585,0.4878,27.71,25.78,-9.36,1,S02
20000,-9.18176,0.83318,2.16196,-3.9024,-0.9756,0.3659,27.80,25.96,-9.45,1,S02
20020,-9.24880,0.81642,2.16196,-3.5366,-0.8537,0.4268,27.80,25.96,-9.45,1,S02
20040,-9.23683,0.79727,2.16915,-3.3537,-1.0976,0.4878,27.80,25.96,-9.45,1,S02
20060,-9.20810,0.78769,2.17154,-3.1098,-1.7073,0.4268,27.80,25.96,-9.45,1,S02
20080,-9.21049,0.82361,2.17872,-2.8659,-2.0732,0.3049,27.71,25.69,-9.17,1,S02
20100,-9.20092,0.84755,2.15957,-2.5610,-1.8293,0.1829,27.71,25.69,-9.17,1,S02
20120,-9.19613,0.84755,2.15239,-2.5000,-1.8902,0.1829,27.71,25.69,-9.17,1,S02
20140,-9.20810,0.84994,2.11647,-2.8049,-2.0122,0.3049,27.80,25.78,-9.27,1,S02
20160,-9.21528,0.85234,2.09493,-3.2927,-1.8902,0.3659,27.80,25.78,-9.27,1,S02
20180,-9.22246,0.86670,2.11887,-3.6585,-2.0732,0.4878,27.80,25.78,-9.27,1,S02
20200,-9.21049,0.85952,2.14042,-3.8415,-2.4390,0.5488,27.80,25.69,-9.27,1,S02
20220,-9.20810,0.86431,2.16915,-3.9634,-2.3780,0.5488,27.80,25.69,-9.27,1,S02
20240,-9.19134,0.87867,2.17633,-4.2073,-2.0732,0.5488,27.80,25.69,-9.27,1,S02
20260,-9.17698,0.86431,2.16915,-4.3293,-1.8293,0.4878,27.80,25.69,-9.27,1,S02
20280,-9.17219,0.86431,2.16675,-4.2073,-1.4634,0.4878,27.98,25.60,-9.36,1,S02
20300,-9.19373,0.87388,2.13084,-4.1463,-1.0976,0.4878,27.98,25.60,-9.36,1,S02
20320,-9.19852,0.89064,2.10690,-4.5122,-0.9756,0.6098,27.98,25.60,-9.36,1,S02
20340,-9.20092,0.88107,2.12366,-5.0000,-0.8537,0.6098,27.89,25.60,-9.45,1,S02
20360,-9.21049,0.85712,2.13563,-5.0610,-0.9146,0.6707,27.89,25.60,-9.45,1,S02
20380,-9.20331,0.83797,2.14520,-5.0000,-0.9756,0.7317,27.89,25.60,-9.45,1,S02
20400,-9.19134,0.82839,2.14281,-5.0610,-1.0366,0.7927,27.89,25.41,-9.45,1,S02
20420,-9.18895,0.82839,2.14999,-5.1220,-1.1585,0.9146,27.89,25.41,-9.45,1,S02
20440,-9.20092,0.84515,2.15478,-5.0610,-1.2195,0.9146,27.89,25.41,-9.45,1,S02
20460,-9.21049,0.86431,2.15239,-4.8780,-1.2195,0.7927,27.89,25.41,-9.45,1,S02
20480,-9.21049,0.87867,2.12845,-4.8171,-1.1585,0.6707,27.98,25.41,-9.36,1,S02
20500,-9.21049,0.88585,2.10211,-4.7561,-1.1585,0.7317,27.98,25.41,-9.36,1,S02
20520,-9.21528,0.89304,2.10450,-4.8780,-1.0976,0.6707,27.98,25.41,-9.36,1,S02
20540,-9.20571,0.86431,2.10690,-4.8780,-0.9756,0.4268,27.89,25.60,-9.27,1,S02
20560,-9.21049,0.83797,2.11647,-4.6951,-0.7927,0.2439,27.89,25.60,-9.27,1,S02
20580,-9.21768,0.82839,2.12845,-4.5122,-0.9756,0.2439,27.89,25.60,-9.27,1,S02
20600,-9.21049,0.82839,2.13323,-4.3902,-1.2195,0.4268,27.80,25.50,-9.27,1,S02
20620,-9.21049,0.85234,2.13802,-4.2073,-1.2195,0.6098,27.80,25.50,-9.27,1,S02
20640,-9.22725,0.88585,2.11647,-4.1463,-1.0976,0.6707,27.80,25.50,-9.27,1,S02
20660,-9.19134,0.88825,2.10929,-4.2683,-1.0976,0.7317,27.80,25.50,-9.27,1,S02
20680,-9.22007,0.86191,2.09972,-4.3902,-1.0976,0.6098,27.80,25.69,-9.36,1,S02
20700,-9.25838,0.85473,2.09253,-4.3902,-0.9146,0.6098,27.80,25.69,-9.36,1,S02
20720,-9.23683,0.85473,2.10211,-4.5732,-1.1585,0.6098,27.80,25.69,-9.36,1,S02
20740,-9.20571,0.83318,2.13323,-4.5732,-1.6463,0.4268,27.80,25.60,-9.36,1,S02
20760,-9.20571,0.84276,2.14281,-4.3293,-1.5854,0.1220,27.80,25.60,-9.36,1,S02
20780,-9.19613,0.83318,2.10690,-4.0244,-1.4024,-0.0610,27.80,25.60,-9.36,1,S02
20800,-9.20092,0.83797,2.10450,-4.0244,-1.4024,0.0610,27.89,25.78,-9.27,1,S02
20820,-9.23204,0.82121,2.07817,-4.3293,-1.3415,0.2439,27.89,25.78,-9.27,1,S02
20840,-9.24162,0.83079,2.07577,-4.5732,-1.5854,0.4268,27.89,25.78,-9.27,1,S02
20860,-9.22965,0.84994,2.08296,-4.8171,-2.1951,0.6707,27.89,25.78,-9.27,1,S02
20880,-9.22007,0.85234,2.08296,-4.7561,-2.6829,0.8537,27.80,25.69,-9.36,1,S02
20900,-9.22486,0.87149,2.11887,-4.7561,-2.7439,1.0366,27.80,25.69,-9.36,1,S02
20920,-9.21528,0.90501,2.14999,-5.1220,-2.7439,1.1585,27.80,25.69,-9.36,1,S02
20940,-9.18655,0.88107,2.17633,-5.4878,-2.8659,1.2805,27.80,25.69,-9.27,1,S02
20960,-9.16261,0.86670,2.19069,-5.5488,-2.4390,1.2805,27.80,25.69,-9.27,1,S02
20980,-9.17458,0.86191,2.20027,-5.5488,-2.0122,1.2805,27.80,25.69,-9.27,1,S02
21000,-9.18176,0.81642,2.17154,-5.3659,-1.8293,1.2195,27.71,25.69,-9.27,1,S02
21020,-9.20810,0.79727,2.13802,-5.1829,-1.5244,1.2195,27.71,25.69,-9.27,1,S02
21040,-9.22725,0.81163,2.12845,-5.3659,-1.6463,1.1585,27.71,25.69,-9.27,1,S02
21060,-9.22725,0.83318,2.11647,-5.6707,-2.1341,1.1585,27.71,25.69,-9.27,1,S02
21080,-9.22246,0.82121,2.12845,-5.7927,-2.3171,1.1585,27.71,25.69,-9.45,1,S02
21100,-9.21528,0.78769,2.14281,-5.6707,-2.1341,1.0976,27.71,25.69,-9.45,1,S02
21120,-9.21049,0.79009,2.15478,-5.1829,-2.1951,0.9146,27.71,25.69,-9.45,1,S02
21140,-9.21289,0.82121,2.16675,-5.0610,-2.1951,0.7927,27.61,25.78,-9.45,1,S02
21160,-9.20331,0.81882,2.17394,-4.8780,-2.1951,0.7317,27.61,25.78,-9.45,1,S02
21180,-9.20571,0.82361,2.16675,-4.6341,-2.1341,0.7317,27.61,25.78,-9.45,1,S02
21200,-9.20092,0.82121,2.16436,-4.5732,-2.0732,0.6707,27.71,25.87,-9.27,1,S02
21220,-9.20092,0.83318,2.17394,-4.7561,-2.0122,0.7317,27.71,25.87,-9.27,1,S02
21240,-9.20571,0.84036,2.19069,-4.6951,-1.8902,0.6707,27.71,25.87,-9.27,1,S02
21260,-9.21528,0.80924,2.18351,-4.3902,-1.8902,0.6098,27.71,25.87,-9.27,1,S02
21280,-9.20571,0.80924,2.17394,-4.1463,-1.9512,0.5488,27.61,25.78,-9.27,1,S02
21300,-9.19134,0.82361,2.17633,-4.0854,-1.9512,0.5488,27.61,25.78,-9.27,1,S02
21320,-9.20092,0.83318,2.16915,-4.0244,-1.9512,0.6098,27.61,25.78,-9.27,1,S02
21340,-9.18176,0.84276,2.18351,-4.0244,-2.0122,0.6707,27.80,25.69,-9.27,1,S02
21360,-9.21528,0.84036,2.20745,-3.9634,-2.1951,0.6707,27.80,25.69,-9.27,1,S02
21380,-9.23683,0.83318,2.19788,-3.9634,-2.2561,0.6707,27.80,25.69,-9.27,1,S02
21400,-9.17458,0.80924,2.18591,-3.9634,-2.2561,0.6707,27.80,25.78,-9.17,1,S02
21420,-9.17458,0.82600,2.20506,-3.6585,-2.0122,0.4878,27.80,25.78,-9.17,1,S02
21440,-9.20331,0.85952,2.20267,-3.4146,-1.7073,0.4268,27.80,25.78,-9.17,1,S02
21460,-9.18655,0.85234,2.14520,-3.2927,-1.6463,0.4268,27.80,25.78,-9.17,1,S02
21480,-9.19134,0.83558,2.14999,-3.2317,-1.4024,0.4268,27.71,25.87,-9.17,1,S02
21500,-9.19852,0.80924,2.16196,-3.2317,-1.4024,0.4878,27.71,25.87,-9.17,1,S02
21520,-9.19134,0.83318,2.15239,-3.0488,-1.5854,0.4878,27.71,25.87,-9.17,1,S02
21540,-9.20331,0.85952,2.18112,-3.0488,-1.7683,0.5488,27.80,25.87,-9.17,1,S02
21560,-9.20331,0.86910,2.21464,-3.2317,-2.0122,0.5488,27.80,25.87,-9.17,1,S02
21580,-9.18176,0.87628,2.20027,-3.5366,-1.7683,0.4878,27.80,25.87,-9.17,1,S02
21600,-9.18176,0.90980,2.20027,-4.0854,-1.2195,0.5488,27.80,25.87,-9.17,1,S02
21620,-9.17458,0.90980,2.20506,-4.8171,-0.8537,0.6707,27.80,25.87,-9.17,1,S02
21640,-9.17458,0.87867,2.18830,-5.4878,-0.5488,0.7927,27.80,25.87,-9.17,1,S02
21660,-9.18655,0.84515,2.16915,-5.8537,-0.2439,0.9146,27.80,25.87,-9.17,1,S02
21680,-9.19613,0.81403,2.18112,-6.0366,-0.3049,0.9756,27.71,25.78,-9.17,1,S02
21700,-9.20092,0.80685,2.21464,-6.0976,-0.5488,1.0366,27.71,25.78,-9.17,1,S02
21720,-9.19613,0.81403,2.21943,-5.8537,-0.7317,1.0976,27.71,25.78,-9.17,1,S02
21740,-9.18416,0.83558,2.21224,-5.4878,-0.7317,1.0366,27.71,25.78,-9.27,1,S02
21760,-9.18655,0.84276,2.20745,-5.1220,-0.6098,0.9756,27.71,25.78,-9.27,1,S02
21780,-9.18416,0.84276,2.19069,-4.8171,-0.3659,0.9146,27.71,25.78,-9.27,1,S02
21800,-9.18655,0.86910,2.19548,-4.6951,-0.1829,0.7927,27.71,25.87,-9.27,1,S02
21820,-9.18416,0.89064,2.17394,-4.6951,-0.0610,0.6707,27.71,25.87,-9.27,1,S02
21840,-9.18416,0.88346,2.17872,-4.6951,0.1220,0.5488,27.71,25.87,-9.27,1,S02
21860,-9.18895,0.86670,2.20506,-4.5732,0.3049,0.5488,27.71,25.87,-9.27,1,S02
21880,-9.18176,0.85234,2.20506,-4.4512,0.4268,0.4878,27.71,25.87,-9.45,1,S02
21900,-9.17698,0.84994,2.18591,-4.2073,0.6098,0.3659,27.71,25.87,-9.45,1,S02
21920,-9.17458,0.86910,2.14281,-4.1463,0.8537,0.3049,27.71,25.87,-9.45,1,S02
21940,-9.18895,0.90980,2.09972,-4.3293,1.1585,0.3659,27.71,25.78,-9.54,1,S02
21960,-9.22486,0.91698,2.08535,-4.6951,1.3415,0.4268,27.71,25.78,-9.54,1,S02
21980,-9.25598,0.88825,2.08056,-4.7561,1.2195,0.4878,27.71,25.78,-9.54,1,S02
22000,-9.25359,0.85712,2.08296,-4.6341,0.8537,0.5488,27.80,25.78,-9.54,1,S02
22020,-9.23683,0.84276,2.07577,-4.5732,0.4878,0.4878,27.80,25.78,-9.54,1,S02
22040,-9.23922,0.84276,2.07098,-4.6341,-0.0610,0.4878,27.80,25.78,-9.54,1,S02
22060,-9.19134,0.82600,2.09253,-4.7561,-0.7927,0.4268,27.80,25.78,-9.54,1,S02
22080,-9.18176,0.80206,2.06859,-4.5122,-0.9146,0.1220,27.71,25.78,-9.45,1,S02
22100,-9.23204,0.80206,2.05901,-4.1463,-0.3659,0.0000,27.71,25.78,-9.45,1,S02
22120,-9.23683,0.83797,2.07817,-3.8415,-0.1220,0.1220,27.71,25.78,-9.45,1,S02
22140,-9.21528,0.86910,2.04465,-3.7195,-0.3659,0.1829,27.80,25.78,-9.54,1,S02
22160,-9.21528,0.90501,2.02310,-4.1463,-0.6707,0.1829,27.80,25.78,-9.54,1,S02
22180,-9.21049,0.90980,2.03507,-4.5732,-0.3049,0.2439,27.80,25.78,-9.54,1,S02
22200,-9.22007,0.86670,2.04944,-4.6951,0.0610,0.3049,27.80,25.60,-9.63,1,S02
22220,-9.22007,0.83079,2.05423,-4.6951,0.1829,0.3659,27.80,25.60,-9.63,1,S02
22240,-9.23204,0.81882,2.05901,-4.6951,0.1220,0.3659,27.80,25.60,-9.63,1,S02
22260,-9.22965,0.82839,2.05183,-4.7561,0.0000,0.4268,27.80,25.60,-9.63,1,S02
22280,-9.22486,0.83079,2.04225,-4.8171,-0.1220,0.4878,27.80,25.69,-9.54,1,S02
22300,-9.23204,0.83797,2.05183,-4.8780,-0.1220,0.4268,27.80,25.69,-9.54,1,S02
22320,-9.23444,0.84276,2.05183,-5.0610,-0.1829,0.4878,27.80,25.69,-9.54,1,S02
22340,-9.23444,0.83797,2.03028,-5.3049,-0.2439,0.4878,27.80,25.50,-9.91,1,S02
22360,-9.24641,0.80206,2.04465,-5.4268,-0.4268,0.4878,27.80,25.50,-9.91,1,S02
22380,-9.24641,0.79248,2.03747,-5.3049,-0.5488,0.4268,27.80,25.50,-9.91,1,S02
22400,-9.23444,0.80685,1.99676,-5.3049,-0.5488,0.2439,27.80,25.50,-9.91,1,S02
22420,-9.23922,0.81642,1.98719,-5.4878,-0.3049,0.1829,27.80,25.50,-9.91,1,S02
22440,-9.23683,0.78769,1.99437,-5.4878,-0.2439,0.2439,27.80,25.50,-9.91,1,S02
22460,-9.29908,0.75417,2.02310,-5.3049,-0.3659,0.3049,27.80,25.50,-9.91,1,S02
22480,-9.30387,0.74460,2.05901,-4.7561,-1.2195,0.3049,27.80,25.50,-9.82,1,S02
22500,-9.26317,0.73741,2.09732,-3.9024,-2.6220,0.0610,27.80,25.50,-9.82,1,S02
22520,-9.23204,0.71826,2.07338,-2.7439,-3.5366,-0.3049,27.80,25.50,-9.82,1,S02
22540,-9.23204,0.70390,2.04944,-1.8293,-3.5976,-0.4878,27.89,25.60,-9.72,1,S02
22560,-9.23922,0.71587,2.00874,-1.4634,-3.5366,-0.4268,27.89,25.60,-9.72,1,S02
22580,-9.23683,0.75417,2.00155,-1.8902,-3.2927,-0.3049,27.89,25.60,-9.72,1,S02
22600,-9.23683,0.77812,2.02310,-2.3780,-2.8049,-0.1829,27.98,25.41,-9.72,1,S02
22620,-9.25838,0.80445,2.06620,-2.4390,-2.4390,-0.2439,27.98,25.41,-9.72,1,S02
22640,-9.24162,0.83558,2.06380,-2.3171,-2.2561,-0.4268,27.98,25.41,-9.72,1,S02
22660,-9.20331,0.83797,2.03747,-2.6829,-1.9512,-0.6707,27.98,25.41,-9.72,1,S02
22680,-9.18416,0.78530,2.07817,-3.0488,-1.4634,-0.6707,28.07,25.41,-9.54,1,S02
22700,-9.18655,0.76375,2.08535,-3.0488,-1.1585,-0.4878,28.07,25.41,-9.54,1,S02
22720,-9.23683,0.76375,2.04704,-3.2317,-0.9756,-0.0610,28.07,25.41,-9.54,1,S02
22740,-9.23922,0.78290,2.03268,-3.7805,-1.4634,0.3049,28.07,25.50,-9.72,1,S02
22760,-9.22246,0.81163,2.01352,-4.3902,-2.3171,0.5488,28.07,25.50,-9.72,1,S02
22780,-9.24641,0.86431,2.01352,-5.0000,-2.6220,0.9146,28.07,25.50,-9.72,1,S02
22800,-9.28232,0.86431,2.08056,-5.4268,-3.1707,1.4024,28.07,25.50,-9.63,1,S02
22820,-9.27274,0.82361,2.14999,-5.7927,-4.5122,1.5854,28.07,25.50,-9.63,1,S02
22840,-9.23922,0.77812,2.14042,-6.1585,-5.8537,1.6463,28.07,25.50,-9.63,1,S02
22860,-9.19852,0.75657,2.11647,-6.2195,-5.8537,1.5854,28.07,25.50,-9.63,1,S02
22880,-9.20092,0.75896,2.09972,-6.2195,-5.3659,1.6463,27.98,25.60,-9.54,1,S02
22900,-9.21289,0.77333,2.10211,-6.2805,-5.1829,1.7073,27.98,25.60,-9.54,1,S02
22920,-9.22007,0.78530,2.08535,-6.4634,-5.3659,1.7683,27.98,25.60,-9.54,1,S02
22940,-9.22725,0.78769,2.07817,-6.7073,-5.6098,1.8902,27.89,25.60,-9.45,1,S02
22960,-9.23444,0.79248,2.07817,-6.8902,-5.6707,2.1951,27.89,25.60,-9.45,1,S02
22980,-9.21528,0.79248,2.11408,-6.8902,-5.4878,2.4390,27.89,25.60,-9.45,1,S02
23000,-9.20092,0.79966,2.13084,-6.7073,-4.6951,2.1341,27.80,25.69,-9.45,1,S02
23020,-9.17937,0.77333,2.15239,-6.6463,-3.5366,1.7073,27.80,25.69,-9.45,1,S02
23040,-9.18176,0.76136,2.20267,-6.4634,-2.5000,1.2805,27.80,25.69,-9.45,1,S02
23060,-9.18416,0.76375,2.21224,-6.2805,-2.0122,0.9756,27.80,25.69,-9.45,1,S02
23080,-9.19134,0.77333,2.20985,-6.2195,-1.5244,0.7927,27.71,25.78,-9.36,1,S02
23100,-9.19373,0.76375,2.22661,-6.0976,-0.9756,0.7317,27.71,25.78,-9.36,1,S02
23120,-9.21289,0.74939,2.24097,-5.7927,-0.9146,0.7317,27.71,25.78,-9.36,1,S02
23140,-9.22007,0.74939,2.23858,-5.5488,-1.1585,0.7317,27.71,25.78,-9.54,1,S02
23160,-9.20092,0.77093,2.21703,-5.3049,-1.4024,0.6098,27.71,25.78,-9.54,1,S02
23180,-9.19852,0.81163,2.23379,-5.3659,-1.5854,0.5488,27.71,25.78,-9.54,1,S02
23200,-9.19373,0.83079,2.23858,-5.3049,-1.6463,0.5488,27.61,25.87,-9.63,1,S02
23220,-9.16979,0.81642,2.24576,-5.1220,-1.5244,0.4878,27.61,25.87,-9.63,1,S02
23240,-9.16979,0.80685,2.23618,-4.8171,-1.2195,0.3049,27.61,25.87,-9.63,1,S02
23260,-9.17458,0.79966,2.21943,-4.5732,-1.0366,0.3049,27.61,25.87,-9.63,1,S02
23280,-9.19373,0.81163,2.20745,-4.4512,-1.0976,0.4878,27.71,25.87,-9.36,1,S02
23300,-9.20571,0.80924,2.20506,-4.3902,-1.2805,0.5488,27.71,25.87,-9.36,1,S02
23320,-9.20331,0.82600,2.18351,-4.2683,-1.4024,0.6098,27.71,25.87,-9.36,1,S02
23340,-9.20092,0.84994,2.17394,-4.4512,-1.4634,0.6707,27.71,25.78,-9.54,1,S02
23360,-9.21289,0.82839,2.18112,-4.5732,-1.5244,0.7317,27.71,25.78,-9.54,1,S02
23380,-9.20810,0.79009,2.19069,-4.4512,-1.5854,0.7927,27.71,25.78,-9.54,1,S02
23400,-9.19613,0.77093,2.17154,-4.2073,-1.5244,0.7317,27.71,25.78,-9.54,1,S02
23420,-9.17219,0.79009,2.16196,-4.0854,-1.5244,0.7317,27.71,25.78,-9.54,1,S02
23440,-9.19852,0.81642,2.15478,-4.2073,-1.5854,0.8537,27.71,25.78,-9.54,1,S02
23460,-9.21528,0.80685,2.16196,-4.2073,-1.7073,1.0366,27.71,25.78,-9.54,1,S02
23480,-9.20571,0.80445,2.17154,-4.0854,-1.8902,0.9756,27.80,25.78,-9.36,1,S02
23500,-9.22965,0.82600,2.18830,-4.0854,-1.9512,0.7927,27.80,25.78,-9.36,1,S02
23520,-9.19373,0.82361,2.18591,-4.2073,-1.8902,0.7317,27.80,25.78,-9.36,1,S02
23540,-9.14585,0.80685,2.21943,-4.3902,-1.5244,0.6098,27.80,25.96,-9.45,1,S02
23560,-9.17698,0.80445,2.23618,-4.5122,-1.1585,0.5488,27.80,25.96,-9.45,1,S02
23580,-9.18895,0.79009,2.21703,-4.4512,-0.9756,0.5488,27.80,25.96,-9.45,1,S02
23600,-9.19613,0.76854,2.20985,-4.3293,-0.9756,0.6098,27.61,25.87,-9.45,1,S02
23620,-9.20810,0.74699,2.20506,-4.2073,-1.0976,0.6098,27.61,25.87,-9.45,1,S02
23640,-9.21768,0.75657,2.23140,-3.9634,-1.5854,0.6707,27.61,25.87,-9.45,1,S02
23660,-9.21768,0.79727,2.24337,-3.7195,-2.0732,0.6707,27.61,25.87,-9.45,1,S02
23680,-9.19613,0.84036,2.24337,-3.6585,-2.3171,0.6707,27.71,25.87,-9.45,1,S02
23700,-9.18176,0.85234,2.23618,-3.9024,-2.1951,0.7927,27.71,25.87,-9.45,1,S02
23720,-9.18176,0.83318,2.22182,-4.0854,-1.8902,0.9146,27.71,25.87,-9.45,1,S02
23740,-9.19134,0.78530,2.20267,-3.9634,-1.6463,0.9146,27.71,25.87,-9.36,1,S02
23760,-9.19613,0.77333,2.20027,-3.7805,-1.6463,0.9146,27.71,25.87,-9.36,1,S02
23780,-9.20331,0.80206,2.19548,-3.8415,-1.8293,0.9146,27.71,25.87,-9.36,1,S02
23800,-9.20092,0.82600,2.19548,-4.0244,-2.0122,0.8537,27.80,25.87,-9.36,1,S02
23820,-9.20810,0.79727,2.18351,-3.9634,-2.1341,0.8537,27.80,25.87,-9.36,1,S02
23840,-9.18416,0.80206,2.16915,-4.1463,-1.9512,0.9146,27.80,25.87,-9.36,1,S02
23860,-9.17458,0.80206,2.17154,-4.3293,-1.7073,0.8537,27.71,25.87,-9.36,1,S02
23880,-9.19134,0.79966,2.16675,-4.3293,-1.5244,0.7317,27.71,25.87,-9.36,1,S02
23900,-9.20092,0.80445,2.18351,-4.2073,-1.6463,0.7317,27.71,25.87,-9.36,1,S02
23920,-9.20331,0.80685,2.20506,-4.0244,-1.9512,0.7927,27.71,25.87,-9.36,1,S02
23940,-9.19134,0.80445,2.22661,-3.7195,-2.2561,0.8537,27.71,25.87,-9.36,1,S02
23960,-9.17458,0.83797,2.22661,-3.4756,-2.1951,0.7927,27.71,25.87,-9.36,1,S02
23980,-9.17458,0.85712,2.22900,-3.4146,-1.8902,0.7927,27.71,25.87,-9.36,1,S02
24000,-9.18655,0.85952,2.23379,-3.4146,-1.7073,0.8537,27.80,25.87,-9.36,1,S02
24020,-9.18895,0.86431,2.22661,-3.4756,-1.6463,0.8537,27.80,25.87,-9.36,1,S02
24040,-9.17698,0.89304,2.21464,-3.6585,-1.3415,0.7927,27.80,25.87,-9.36,1,S02
24060,-9.16740,0.88346,2.22421,-4.0854,-0.9756,0.6707,27.80,25.87,-9.27,1,S02
24080,-9.17219,0.83558,2.25534,-4.2073,-0.4878,0.6098,27.80,25.87,-9.27,1,S02
24100,-9.18416,0.80206,2.24816,-4.0244,-0.2439,0.6707,27.80,25.87,-9.27,1,S02
24120,-9.18416,0.80206,2.22661,-3.9634,-0.1829,0.6707,27.80,25.87,-9.27,1,S02
24140,-9.18176,0.79966,2.22661,-3.9634,-0.0610,0.6707,27.80,25.87,-9.36,1,S02
24160,-9.18895,0.79009,2.26252,-3.5976,0.1829,0.6098,27.80,25.87,-9.36,1,S02
24180,-9.18895,0.79248,2.25534,-2.9878,0.3049,0.5488,27.80,25.87,-9.36,1,S02
24200,-9.20092,0.80445,2.20745,-2.7439,0.1829,0.5488,27.71,25.87,-9.27,1,S02
24220,-9.17458,0.80206,2.20267,-2.8659,0.1220,0.6098,27.71,25.87,-9.27,1,S02
24240,-9.20092,0.80445,2.21464,-2.8049,0.0610,0.5488,27.71,25.87,-9.27,1,S02
24260,-9.22246,0.83558,2.20506,-2.8659,0.1829,0.6098,27.80,25.78,-9.36,1,S02
24280,-9.19613,0.81882,2.18112,-2.9268,0.3049,0.4878,27.80,25.78,-9.36,1,S02
24300,-9.19134,0.80924,2.19069,-2.9268,0.1829,0.4268,27.80,25.78,-9.36,1,S02
24320,-9.18895,0.80685,2.20027,-3.1098,-0.2439,0.3659,27.80,25.78,-9.36,1,S02
24340,-9.17937,0.80445,2.17633,-2.9878,-0.3049,0.3049,27.80,25.87,-9.27,1,S02
24360,-9.17937,0.80685,2.19548,-2.8049,-0.1829,0.2439,27.80,25.87,-9.27,1,S02
24380,-9.20571,0.80685,2.22900,-2.6829,-0.1829,0.2439,27.80,25.87,-9.27,1,S02
24400,-9.21528,0.84036,2.20506,-2.4390,-0.1829,0.3049,27.89,25.78,-9.45,1,S02
24420,-9.20810,0.88107,2.14999,-2.6220,-0.1220,0.3049,27.89,25.78,-9.45,1,S02
24440,-9.18895,0.90261,2.11887,-3.1707,0.0000,0.4268,27.89,25.78,-9.45,1,S02
24460,-9.20092,0.90980,2.12366,-3.8415,0.2439,0.5488,27.89,25.69,-9.45,1,S02
24480,-9.22007,0.89304,2.14281,-4.3902,0.4268,0.6707,27.89,25.69,-9.45,1,S02
24500,-9.22965,0.85234,2.13323,-4.7561,0.3659,0.7927,27.89,25.69,-9.45,1,S02
24520,-9.22725,0.82839,2.12366,-5.0610,0.1829,0.8537,27.89,25.69,-9.45,1,S02
24540,-9.21768,0.79248,2.12126,-5.1829,0.0000,0.7927,27.80,25.87,-9.45,1,S02
24560,-9.22246,0.75417,2.13563,-5.0000,-0.1829,0.6707,27.80,25.87,-9.45,1,S02
24580,-9.21289,0.76614,2.12366,-4.7561,-0.2439,0.6098,27.80,25.87,-9.45,1,S02
24600,-9.20092,0.80445,2.08296,-4.7561,-0.1829,0.4878,27.71,25.78,-9.45,1,S02
24620,-9.20810,0.80924,2.07817,-4.9390,0.1220,0.5488,27.71,25.78,-9.45,1,S02
24640,-9.23444,0.80445,2.09253,-5.1220,0.2439,0.6707,27.71,25.78,-9.45,1,S02
24660,-9.25838,0.78530,2.07817,-5.1220,0.0610,0.6707,27.80,25.69,-9.63,1,S02
24680,-9.25598,0.79966,2.05901,-5.0000,0.0000,0.7317,27.80,25.69,-9.63,1,S02
24700,-9.24401,0.79727,2.06141,-4.8780,-0.2439,0.6707,27.80,25.69,-9.63,1,S02
24720,-9.22725,0.79248,2.06620,-4.5732,-0.6098,0.6098,27.80,25.69,-9.63,1,S02
24740,-9.22246,0.76614,2.05662,-4.1463,-0.6707,0.6098,27.89,25.78,-9.54,1,S02
24760,-9.22007,0.75178,2.07817,-3.8415,-0.6098,0.6707,27.89,25.78,-9.54,1,S02
24780,-9.21528,0.78051,2.07338,-3.4756,-0.7317,0.7317,27.89,25.78,-9.54,1,S02
24800,-9.22725,0.82121,2.05423,-3.2317,-0.6098,0.7317,27.80,25.78,-9.54,1,S02
24820,-9.25359,0.84515,2.05901,-3.1707,-0.3049,0.7317,27.80,25.78,-9.54,1,S02
24840,-9.24162,0.85952,2.05183,-3.2927,-0.3049,0.7317,27.80,25.78,-9.54,1,S02
24860,-9.22246,0.86670,2.03507,-3.4756,-0.3659,0.6098,27.89,25.78,-9.63,1,S02
24880,-9.20331,0.85234,2.02549,-3.7195,-0.3659,0.6098,27.89,25.78,-9.63,1,S02
24900,-9.20810,0.84755,2.01352,-3.9634,-0.2439,0.6098,27.89,25.78,-9.63,1,S02
24920,-9.23922,0.84515,2.02071,-4.1463,-0.2439,0.6707,27.89,25.78,-9.63,1,S02
24940,-9.22486,0.84515,1.99916,-4.5122,-0.5488,0.7317,27.89,25.69,-9.63,1,S02
24960,-9.20092,0.84276,2.01592,-4.8780,-0.8537,0.7927,27.89,25.69,-9.63,1,S02
24980,-9.25359,0.84515,2.04944,-4.9390,-0.9756,0.8537,27.89,25.69,-9.63,1,S02
25000,-9.25359,0.84755,2.05423,-5.0000,-1.0976,1.0366,27.89,25.69,-9.72,1,S02
25020,-9.21768,0.84276,2.05423,-4.9390,-1.4634,0.9146,27.89,25.69,-9.72,1,S02
25040,-9.20331,0.84515,2.04704,-4.7561,-2.0122,0.7927,27.89,25.69,-9.72,1,S02
25060,-9.22007,0.85234,2.03268,-4.5732,-2.1341,0.7317,27.80,25.69,-9.63,1,S02
25080,-9.22725,0.84755,2.00874,-4.5122,-2.1341,0.7927,27.80,25.69,-9.63,1,S02
25100,-9.22965,0.84276,2.02549,-4.5732,-2.2561,0.8537,27.80,25.69,-9.63,1,S02
25120,-9.23683,0.83797,2.03028,-4.6951,-2.0122,0.8537,27.80,25.69,-9.63,1,S02
25140,-9.23204,0.83558,2.04225,-4.7561,-1.7073,0.8537,27.80,25.78,-9.63,1,S02
25160,-9.22486,0.85234,2.04944,-4.5732,-1.7683,0.9146,27.80,25.78,-9.63,1,S02
25180,-9.23683,0.86431,2.05183,-4.5732,-1.4024,0.9146,27.80,25.78,-9.63,1,S02
25200,-9.22725,0.85952,2.05423,-4.6951,-1.1585,0.7927,27.80,25.78,-9.72,1,S02
25220,-9.22246,0.83797,2.06620,-4.6341,-1.2195,0.7317,27.80,25.78,-9.72,1,S02
25240,-9.22965,0.81403,2.07577,-4.2683,-1.4024,0.6707,27.80,25.78,-9.72,1,S02
25260,-9.23204,0.81403,2.05662,-3.9024,-1.4024,0.6098,27.80,25.87,-9.63,1,S02
25280,-9.23204,0.82839,2.04704,-3.9024,-1.4024,0.6098,27.80,25.87,-9.63,1,S02
25300,-9.22486,0.84994,2.04704,-4.0244,-1.4634,0.5488,27.80,25.87,-9.63,1,S02
25320,-9.22246,0.86191,2.03986,-4.1463,-1.3415,0.4878,27.80,25.87,-9.63,1,S02
25340,-9.22725,0.86431,2.03507,-4.2073,-1.2195,0.5488,27.80,25.69,-9.72,1,S02
25360,-9.24880,0.84994,2.04465,-4.2683,-1.2805,0.6098,27.80,25.69,-9.72,1,S02
25380,-9.23444,0.83558,2.05183,-4.2683,-1.5244,0.6098,27.80,25.69,-9.72,1,S02
25400,-9.22246,0.83797,2.06141,-4.3293,-1.5854,0.5488,27.80,25.87,-9.72,1,S02
25420,-9.21528,0.84755,2.06620,-4.2073,-1.5244,0.4878,27.80,25.87,-9.72,1,S02
25440,-9.22486,0.85473,2.06141,-4.0854,-1.4634,0.4878,27.80,25.87,-9.72,1,S02
25460,-9.23204,0.85952,2.04704,-3.9634,-1.4634,0.4878,27.80,25.69,-9.72,1,S02
25480,-9.22965,0.86910,2.02071,-4.0244,-1.4634,0.4878,27.80,25.69,-9.72,1,S02
25500,-9.23683,0.88107,2.03986,-4.2683,-1.4024,0.4878,27.80,25.69,-9.72,1,S02
25520,-9.24401,0.87388,2.03986,-4.4512,-1.4024,0.4878,27.80,25.69,-9.72,1,S02
25540,-9.23444,0.86910,2.04704,-4.5732,-1.4024,0.4878,27.89,25.78,-9.63,1,S02
25560,-9.21528,0.84755,2.04225,-4.6951,-1.3415,0.5488,27.89,25.78,-9.63,1,S02
25580,-9.20810,0.84276,2.03747,-4.8780,-1.0366,0.6098,27.89,25.78,-9.63,1,S02
25600,-9.21768,0.83558,2.04465,-5.0000,-0.7317,0.6098,27.80,25.60,-9.63,1,S02
25620,-9.23444,0.82361,2.03507,-4.8171,-0.6707,0.6098,27.80,25.60,-9.63,1,S02
25640,-9.24162,0.82600,2.02789,-4.6951,-0.7927,0.6707,27.80,25.60,-9.63,1,S02
25660,-9.23683,0.83079,2.02071,-4.6951,-0.9756,0.6707,27.89,25.60,-9.63,1,S02
25680,-9.27753,0.83079,2.02310,-4.6951,-1.1585,0.6098,27.89,25.60,-9.63,1,S02
25700,-9.27035,0.84515,2.03507,-4.6341,-1.0366,0.6098,27.89,25.60,-9.63,1,S02
25720,-9.23444,0.83558,2.04944,-4.4512,-1.1585,0.5488,27.89,25.60,-9.63,1,S02
25740,-9.22007,0.83558,2.02549,-4.3902,-1.5854,0.4878,27.80,25.78,-9.72,1,S02
25760,-9.22725,0.84994,2.01352,-4.3902,-1.2805,0.4268,27.80,25.78,-9.72,1,S02
25780,-9.23922,0.84276,2.00874,-4.4512,-1.0976,0.4878,27.80,25.78,-9.72,1,S02
25800,-9.24641,0.83318,2.03028,-4.5122,-1.1585,0.5488,27.80,25.69,-9.72,1,S02
25820,-9.24162,0.82839,2.02789,-4.6341,-1.1585,0.5488,27.80,25.69,-9.72,1,S02
25840,-9.24641,0.82361,2.02071,-4.6951,-1.2805,0.6098,27.80,25.69,-9.72,1,S02
25860,-9.22965,0.82600,2.02789,-4.7561,-1.5244,0.6707,27.80,25.60,-9.82,1,S02
25880,-9.21528,0.82600,2.03268,-4.9390,-1.5244,0.6707,27.80,25.60,-9.82,1,S02
25900,-9.23444,0.81642,2.03747,-5.0000,-1.2805,0.6707,27.80,25.60,-9.82,1,S02
25920,-9.24401,0.79966,2.04465,-5.0000,-1.0366,0.6098,27.80,25.60,-9.82,1,S02
25940,-9.23922,0.79248,2.04944,-4.8171,-1.1585,0.6098,27.80,25.69,-9.63,1,S02
25960,-9.23204,0.80445,2.04465,-4.6341,-1.2805,0.5488,27.80,25.69,-9.63,1,S02
25980,-9.22965,0.83079,2.02071,-4.5122,-1.2195,0.4268,27.80,25.69,-9.63,1,S02
26000,-9.23922,0.82121,2.01352,-4.5732,-1.0976,0.4268,27.71,25.60,-9.72,1,S02
26020,-9.23922,0.80445,2.02071,-4.6341,-0.9146,0.4268,27.71,25.60,-9.72,1,S02
26040,-9.24401,0.79487,2.03268,-4.6951,-0.9146,0.4268,27.71,25.60,-9.72,1,S02
26060,-9.23444,0.81403,2.02789,-4.6341,-1.1585,0.4268,27.80,25.78,-9.72,1,S02
26080,-9.23444,0.82121,2.03507,-4.3293,-1.2195,0.3659,27.80,25.78,-9.72,1,S02
26100,-9.24162,0.83797,2.04704,-4.2683,-1.0366,0.3049,27.80,25.78,-9.72,1,S02
26120,-9.23444,0.84276,2.02310,-4.3902,-1.0976,0.3659,27.80,25.78,-9.72,1,S02
26140,-9.25120,0.83558,2.00874,-4.5122,-1.2195,0.4878,27.80,25.60,-9.82,1,S02
26160,-9.25598,0.83318,2.00395,-4.5122,-1.3415,0.5488,27.80,25.60,-9.82,1,S02
26180,-9.24162,0.83318,2.00155,-4.6341,-1.4634,0.6098,27.80,25.60,-9.82,1,S02
26200,-9.22725,0.83318,1.99198,-4.8780,-1.4024,0.6098,27.80,25.60,-9.72,1,S02
26220,-9.23683,0.83797,1.99437,-5.1220,-1.2195,0.6707,27.80,25.60,-9.72,1,S02
26240,-9.25838,0.80685,2.01113,-5.3659,-1.2195,0.7927,27.80,25.60,-9.72,1,S02
26260,-9.24162,0.77333,2.01592,-5.5488,-1.3415,0.7927,27.80,25.60,-9.82,1,S02
26280,-9.23444,0.77333,2.00155,-5.4878,-1.2805,0.7317,27.80,25.60,-9.82,1,S02
26300,-9.24162,0.79009,1.99198,-5.3049,-1.0366,0.6707,27.80,25.60,-9.82,1,S02
26320,-9.26796,0.79248,2.00874,-5.1220,-1.0366,0.6707,27.80,25.60,-9.82,1,S02
26340,-9.25598,0.78290,1.98240,-5.1220,-1.1585,0.7317,27.71,25.69,-9.82,1,S02
26360,-9.21289,0.78290,1.97282,-5.2439,-1.2195,0.7317,27.71,25.69,-9.82,1,S02
26380,-9.23204,0.78290,1.97761,-5.3659,-1.0976,0.7317,27.71,25.69,-9.82,1,S02
26400,-9.27993,0.78051,2.01113,-5.3049,-0.7927,0.7927,27.71,25.60,-9.91,1,S02
26420,-9.26796,0.75657,2.01352,-4.9390,-0.8537,0.7927,27.71,25.60,-9.91,1,S02
26440,-9.25838,0.75896,2.00395,-4.6951,-1.2805,0.6707,27.71,25.60,-9.91,1,S02
26460,-9.25598,0.78769,2.00874,-4.4512,-1.5244,0.5488,27.80,25.60,-9.91,1,S02
26480,-9.23922,0.79966,2.00395,-4.2683,-1.7073,0.6098,27.80,25.60,-9.91,1,S02
26500,-9.24641,0.76614,2.01831,-4.3902,-1.7073,0.7927,27.80,25.60,-9.91,1,S02
26520,-9.26077,0.75417,2.01831,-4.2073,-1.5244,0.7927,27.80,25.60,-9.91,1,S02
26540,-9.26077,0.79009,2.00874,-4.0854,-1.7073,0.7927,27.80,25.60,-9.91,1,S02
26560,-9.23683,0.81403,2.00874,-4.0854,-1.7683,0.7317,27.80,25.60,-9.91,1,S02
26580,-9.25120,0.80685,2.01592,-4.2073,-1.5854,0.6707,27.80,25.60,-9.91,1,S02
26600,-9.25120,0.76854,2.02071,-4.3293,-1.4024,0.7317,27.80,25.69,-9.82,1,S02
26620,-9.24162,0.74699,2.02789,-4.1463,-1.5244,0.7317,27.80,25.69,-9.82,1,S02
26640,-9.24401,0.77093,2.02549,-4.0244,-1.7073,0.7317,27.80,25.69,-9.82,1,S02
26660,-9.24401,0.78290,2.02789,-3.9024,-1.8293,0.7317,27.89,25.69,-9.82,1,S02
26680,-9.24162,0.78290,2.03507,-3.7195,-1.9512,0.7927,27.89,25.69,-9.82,1,S02
26700,-9.23683,0.80206,2.01592,-3.7195,-1.8902,0.7317,27.89,25.69,-9.82,1,S02
26720,-9.23683,0.82361,2.00155,-3.9024,-1.6463,0.6707,27.89,25.69,-9.82,1,S02
26740,-9.23444,0.81642,2.01352,-4.1463,-1.5854,0.6707,27.80,25.69,-9.82,1,S02
26760,-9.24401,0.78290,2.03028,-4.0854,-1.7073,0.7317,27.80,25.69,-9.82,1,S02
26780,-9.25120,0.78530,2.03747,-3.9024,-1.7683,0.6707,27.80,25.69,-9.82,1,S02
26800,-9.24401,0.80445,2.02549,-3.9634,-1.7683,0.6707,27.80,25.69,-9.72,1,S02
26820,-9.22965,0.82839,2.00634,-4.0854,-1.7683,0.7317,27.80,25.69,-9.72,1,S02
26840,-9.23683,0.83079,2.02071,-4.0854,-1.7073,0.7317,27.80,25.69,-9.72,1,S02
26860,-9.23683,0.82600,2.03028,-3.9634,-1.8293,0.7927,27.89,25.78,-9.72,1,S02
26880,-9.22725,0.83079,2.02789,-4.0244,-1.9512,0.7927,27.89,25.78,-9.72,1,S02
26900,-9.23683,0.84755,2.02071,-4.1463,-2.0122,0.8537,27.89,25.78,-9.72,1,S02
26920,-9.24401,0.85473,2.02310,-4.2683,-2.0732,0.9146,27.89,25.78,-9.72,1,S02
26940,-9.24880,0.84994,2.03747,-4.3293,-2.1951,0.9756,27.89,25.69,-9.72,1,S02
26960,-9.22965,0.85473,2.02071,-4.4512,-2.3780,0.9756,27.89,25.69,-9.72,1,S02
26980,-9.22007,0.85712,2.01113,-4.7561,-2.1951,1.0366,27.89,25.69,-9.72,1,S02
27000,-9.22965,0.86431,2.03028,-4.9390,-1.9512,1.1585,27.71,25.69,-9.82,1,S02
27020,-9.23444,0.84036,2.05183,-4.9390,-1.8902,1.1585,27.71,25.69,-9.82,1,S02
27040,-9.23444,0.83797,2.03028,-4.8171,-2.0122,1.1585,27.71,25.69,-9.82,1,S02
27060,-9.20571,0.83797,2.02310,-4.9390,-1.9512,1.1585,27.80,25.78,-9.72,1,S02
27080,-9.21528,0.82361,2.03028,-4.8171,-1.8293,1.2195,27.80,25.78,-9.72,1,S02
27100,-9.26796,0.82361,2.03986,-4.6951,-1.7073,1.2195,27.80,25.78,-9.72,1,S02
27120,-9.23922,0.81642,2.06380,-4.5732,-1.8293,1.2805,27.80,25.78,-9.72,1,S02
27140,-9.19134,0.81403,2.08774,-4.3902,-2.1951,1.2195,27.80,25.78,-9.72,1,S02
27160,-9.20810,0.82361,2.10450,-4.0854,-2.4390,1.0366,27.80,25.78,-9.72,1,S02
27180,-9.22965,0.81642,2.05901,-3.4146,-2.4390,0.8537,27.80,25.78,-9.72,1,S02
27200,-9.21768,0.79487,2.04704,-3.1098,-2.7439,0.7317,27.71,25.78,-9.63,1,S02
27220,-9.20810,0.78530,2.06141,-3.1707,-2.8049,0.7927,27.71,25.78,-9.63,1,S02
27240,-9.20092,0.79727,2.08535,-2.9878,-2.5000,0.8537,27.71,25.78,-9.63,1,S02
27260,-9.22486,0.84036,2.09732,-2.8049,-2.0732,0.8537,27.71,25.78,-9.63,1,S02
27280,-9.24641,0.86431,2.10450,-2.8049,-1.8902,0.7927,27.71,25.78,-9.63,1,S02
27300,-9.25120,0.88825,2.05901,-2.9878,-1.7683,0.7317,27.71,25.78,-9.63,1,S02
27320,-9.24162,0.90261,2.03747,-3.4146,-1.6463,0.6707,27.71,25.78,-9.63,1,S02
27340,-9.23922,0.88585,2.06380,-3.8415,-1.7683,0.6707,27.80,25.87,-9.45,1,S02
27360,-9.22965,0.84276,2.09493,-3.8415,-2.1951,0.6098,27.80,25.87,-9.45,1,S02
27380,-9.22007,0.81163,2.10929,-3.5976,-2.5610,0.4878,27.80,25.87,-9.45,1,S02
27400,-9.22007,0.82600,2.11647,-3.2317,-2.8049,0.4268,27.80,25.78,-9.45,1,S02
27420,-9.22725,0.85473,2.11887,-3.0488,-3.2317,0.3659,27.80,25.78,-9.45,1,S02
27440,-9.22007,0.87628,2.12126,-2.8659,-3.5366,0.3659,27.80,25.78,-9.45,1,S02
27460,-9.23444,0.86670,2.14999,-2.6220,-3.6585,0.2439,27.89,25.78,-9.36,1,S02
27480,-9.23444,0.83079,2.17154,-2.1951,-3.9634,0.1220,27.89,25.78,-9.36,1,S02
27500,-9.20571,0.82361,2.10690,-1.5854,-4.2683,0.0000,27.89,25.78,-9.36,1,S02
27520,-9.17458,0.84036,2.09732,-1.2805,-4.3902,-0.0610,27.89,25.78,-9.36,1,S02
27540,-9.21049,0.79966,2.12605,-1.1585,-4.6341,0.0000,27.89,25.78,-9.08,1,S02
27560,-9.24880,0.79009,2.14760,-0.9756,-4.7561,0.0610,27.89,25.78,-9.08,1,S02
27580,-9.24401,0.82600,2.14760,-1.4634,-4.6951,0.0000,27.89,25.78,-9.08,1,S02
27600,-9.19613,0.84755,2.14520,-2.1951,-4.3902,0.0000,27.98,25.87,-8.99,1,S02
27620,-9.18416,0.81642,2.16915,-2.6220,-3.7195,-0.0610,27.98,25.87,-8.99,1,S02
27640,-9.20092,0.80206,2.19309,-2.6220,-3.1707,-0.1220,27.98,25.87,-8.99,1,S02
27660,-9.20092,0.78290,2.19548,-2.3171,-2.7439,-0.3659,28.17,25.78,-8.99,1,S02
27680,-9.17937,0.78051,2.18112,-2.0122,-2.3780,-0.6707,28.17,25.78,-8.99,1,S02
27700,-9.18176,0.79487,2.17872,-1.7683,-1.8902,-0.7927,28.17,25.78,-8.99,1,S02
27720,-9.17458,0.84276,2.15957,-1.8293,-1.4024,-0.7317,28.17,25.78,-8.99,1,S02
27740,-9.17219,0.89304,2.17154,-2.0732,-0.9146,-0.6098,28.17,25.69,-8.90,1,S02
27760,-9.18655,0.92177,2.17394,-2.3171,-0.6098,-0.4268,28.17,25.69,-8.90,1,S02
27780,-9.16979,0.92895,2.18112,-2.9878,-0.4878,-0.1829,28.17,25.69,-8.90,1,S02
27800,-9.15782,0.91698,2.20267,-3.7805,-0.3659,0.0610,28.26,25.60,-8.90,1,S02
27820,-9.19613,0.90022,2.23140,-4.2683,-0.1829,0.3049,28.26,25.60,-8.90,1,S02
27840,-9.15543,0.89543,2.20267,-4.6951,-0.5488,0.5488,28.26,25.60,-8.90,1,S02
27860,-9.15064,0.90980,2.22661,-5.1829,-0.2439,0.4878,28.17,25.69,-8.99,1,S02
27880,-9.18176,0.90022,2.22900,-5.4268,0.1829,0.3659,28.17,25.69,-8.99,1,S02
27900,-9.19134,0.85712,2.20745,-5.4268,0.1829,0.4268,28.17,25.69,-8.99,1,S02
27920,-9.19852,0.82361,2.18112,-5.4268,-0.1220,0.4878,28.17,25.69,-8.99,1,S02
27940,-9.21289,0.84036,2.15957,-5.6707,-0.4878,0.5488,28.17,25.69,-9.08,1,S02
27960,-9.24401,0.86670,2.13802,-5.9146,-0.9146,0.6098,28.17,25.69,-9.08,1,S02
27980,-9.22486,0.86910,2.11408,-6.0976,-1.3415,0.7317,28.17,25.69,-9.08,1,S02
28000,-9.22007,0.86431,2.11647,-6.2195,-1.5854,0.8537,28.07,25.60,-9.17,1,S02
28020,-9.21289,0.82839,2.11887,-6.4024,-1.5854,0.9756,28.07,25.60,-9.17,1,S02
28040,-9.21049,0.80206,2.14999,-6.4634,-1.4024,0.9756,28.07,25.60,-9.17,1,S02
28060,-9.21049,0.80206,2.15957,-6.3415,-1.1585,0.9756,28.17,25.60,-9.17,1,S02
28080,-9.19373,0.80206,2.14760,-6.4024,-0.9756,0.9146,28.17,25.60,-9.17,1,S02
28100,-9.19134,0.77812,2.14042,-6.2805,-0.7317,0.7927,28.17,25.60,-9.17,1,S02
28120,-9.22965,0.72065,2.12605,-5.8537,-0.4268,0.6707,28.17,25.60,-9.17,1,S02
28140,-9.25120,0.70150,2.09732,-5.3049,-0.3659,0.6707,28.07,25.69,-9.27,1,S02
28160,-9.25598,0.73023,2.07577,-5.1220,-0.4878,0.6098,28.07,25.69,-9.27,1,S02
28180,-9.23683,0.73981,2.06859,-5.0000,-0.7317,0.5488,28.07,25.69,-9.27,1,S02
28200,-9.23922,0.76136,2.10450,-4.6341,-0.9146,0.4878,28.07,25.60,-9.27,1,S02
28220,-9.21768,0.74699,2.14281,-4.2683,-1.0366,0.4878,28.07,25.60,-9.27,1,S02
28240,-9.18655,0.75657,2.17154,-3.8415,-0.8537,0.3049,28.07,25.60,-9.27,1,S02
28260,-9.17937,0.77572,2.17154,-3.5366,-0.1829,0.0000,28.17,25.60,-9.27,1,S02
28280,-9.21049,0.79009,2.14999,-3.2317,0.4268,-0.3049,28.17,25.60,-9.27,1,S02
28300,-9.22965,0.78530,2.11408,-2.7439,0.4268,-0.4268,28.17,25.60,-9.27,1,S02
28320,-9.24162,0.77333,2.11647,-2.3171,0.0610,-0.6098,28.17,25.60,-9.27,1,S02
28340,-9.24162,0.79487,2.10690,-2.0122,-0.1829,-0.7317,28.17,25.50,-9.27,1,S02
28360,-9.23683,0.80445,2.09493,-1.8293,-0.6707,-0.6098,28.17,25.50,-9.27,1,S02
28380,-9.23204,0.79727,2.10211,-1.5854,-1.2195,-0.3049,28.17,25.50,-9.27,1,S02
28400,-9.23444,0.81403,2.11169,-1.1585,-1.4634,-0.1220,28.26,25.50,-9.08,1,S02
28420,-9.21528,0.85234,2.11169,-1.0366,-1.5244,0.0000,28.26,25.50,-9.08,1,S02
28440,-9.20571,0.90501,2.07817,-1.4024,-1.4634,0.1829,28.26,25.50,-9.08,1,S02
28460,-9.17698,0.91459,2.07817,-1.9512,-1.1585,0.3659,28.26,25.50,-9.27,1,S02
28480,-9.19373,0.87628,2.09732,-2.0732,-0.7927,0.4268,28.26,25.50,-9.27,1,S02
28500,-9.24401,0.84515,2.11169,-2.0732,-0.7317,0.5488,28.26,25.50,-9.27,1,S02
28520,-9.23444,0.84994,2.09253,-2.3171,-0.7317,0.6707,28.26,25.50,-9.27,1,S02
28540,-9.19373,0.85234,2.06141,-2.6220,-0.5488,0.6098,28.35,25.41,-9.08,1,S02
28560,-9.20331,0.84994,2.05183,-2.7439,-0.3659,0.4878,28.35,25.41,-9.08,1,S02
28580,-9.25838,0.86431,2.03507,-2.6829,-0.3659,0.4268,28.35,25.41,-9.08,1,S02
28600,-9.26317,0.87867,1.99437,-2.8659,-0.7317,0.5488,28.44,25.41,-8.99,1,S02
28620,-9.22965,0.89543,1.98719,-3.5366,-0.9146,0.7927,28.44,25.41,-8.99,1,S02
28640,-9.22486,0.88107,1.99676,-4.0244,-0.7927,0.9146,28.44,25.41,-8.99,1,S02
28660,-9.25359,0.83797,2.02071,-4.2073,-0.7317,0.9756,28.35,25.50,-9.17,1,S02
28680,-9.25838,0.84036,2.04944,-4.2683,-1.0366,1.0366,28.35,25.50,-9.17,1,S02
28700,-9.23683,0.86670,2.01592,-4.6341,-1.2195,1.0366,28.35,25.50,-9.17,1,S02
28720,-9.22007,0.85473,2.01113,-5.1220,-0.7927,1.0366,28.35,25.50,-9.17,1,S02
28740,-9.22007,0.81163,2.02310,-5.0610,-0.2439,0.9146,28.44,25.50,-9.17,1,S02
28760,-9.24880,0.78051,2.04944,-4.6951,0.0610,0.8537,28.44,25.50,-9.17,1,S02
28780,-9.23922,0.79727,2.06141,-4.5732,-0.1829,0.8537,28.44,25.50,-9.17,1,S02
28800,-9.21289,0.82839,2.02549,-4.8171,-0.2439,0.7927,28.35,25.41,-9.36,1,S02
28820,-9.21768,0.82600,1.99437,-5.0610,0.2439,0.6707,28.35,25.41,-9.36,1,S02
28840,-9.26077,0.80445,2.02789,-5.1220,0.6707,0.6707,28.35,25.41,-9.36,1,S02
28860,-9.26077,0.79487,2.04704,-5.0000,0.6098,0.6098,28.26,25.41,-9.27,1,S02
28880,-9.24401,0.80685,2.01352,-4.9390,0.3049,0.5488,28.26,25.41,-9.27,1,S02
28900,-9.24162,0.81882,1.98240,-5.1220,0.3049,0.5488,28.26,25.41,-9.27,1,S02
28920,-9.25598,0.80445,2.00155,-5.3049,0.3049,0.6707,28.26,25.41,-9.27,1,S02
28940,-9.26317,0.78769,2.00395,-5.4268,0.0000,0.7927,28.26,25.41,-9.27,1,S02
28960,-9.24880,0.79009,1.97522,-5.4878,-0.1829,0.8537,28.26,25.41,-9.27,1,S02
28980,-9.24880,0.78769,1.98479,-5.5488,-0.0610,0.8537,28.26,25.41,-9.27,1,S02
29000,-9.24162,0.77333,2.01592,-5.4268,-0.1220,0.7927,28.35,25.41,-9.45,1,S02
29020,-9.22965,0.76375,2.02071,-5.1829,-0.1220,0.6707,28.35,25.41,-9.45,1,S02
29040,-9.24401,0.76854,2.00155,-4.7561,0.0610,0.5488,28.35,25.41,-9.45,1,S02
29060,-9.24641,0.77572,1.98240,-4.3902,0.2439,0.4878,28.26,25.32,-9.45,1,S02
29080,-9.26077,0.79487,1.98000,-4.2683,0.3049,0.4878,28.26,25.32,-9.45,1,S02
29100,-9.25598,0.79727,1.96564,-4.2683,0.1829,0.4878,28.26,25.32,-9.45,1,S02
29120,-9.27274,0.80445,1.94409,-4.1463,-0.0610,0.4878,28.26,25.32,-9.45,1,S02
29140,-9.25120,0.79009,1.94170,-4.0244,-0.3049,0.4878,28.35,25.32,-9.45,1,S02
29160,-9.23922,0.78769,1.96564,-3.9634,-0.4268,0.4268,28.35,25.32,-9.45,1,S02
29180,-9.26317,0.83079,1.96085,-3.9634,-0.2439,0.4878,28.35,25.32,-9.45,1,S02
29200,-9.26796,0.81403,1.93452,-3.9024,-0.3049,0.4268,28.35,25.41,-9.54,1,S02
29220,-9.26556,0.81403,1.93452,-3.7805,-0.4878,0.3049,28.35,25.41,-9.54,1,S02
29240,-9.25838,0.84036,1.93212,-3.7805,-0.7317,0.1829,28.35,25.41,-9.54,1,S02
29260,-9.24401,0.82121,1.92015,-3.9634,-0.9756,0.2439,28.35,25.41,-9.54,1,S02
29280,-9.25838,0.79727,1.92254,-4.0244,-1.0366,0.3049,28.35,25.41,-9.54,1,S02
29300,-9.27993,0.79248,1.92254,-4.0244,-1.0366,0.3659,28.35,25.41,-9.54,1,S02
29320,-9.26556,0.81403,1.90818,-4.1463,-1.3415,0.4268,28.35,25.41,-9.54,1,S02
29340,-9.24880,0.84515,1.90818,-4.4512,-1.5854,0.5488,28.35,25.23,-9.63,1,S02
29360,-9.25359,0.85473,1.92254,-4.7561,-1.5244,0.6098,28.35,25.23,-9.63,1,S02
29380,-9.26556,0.83797,1.92494,-5.0000,-1.3415,0.7317,28.35,25.23,-9.63,1,S02
29400,-9.26077,0.78290,1.92494,-5.0610,-1.1585,0.7317,28.26,25.32,-9.54,1,S02
29420,-9.25838,0.75417,1.92254,-4.9390,-0.9146,0.6098,28.26,25.32,-9.54,1,S02
29440,-9.25359,0.77572,1.92733,-4.6951,-0.5488,0.5488,28.26,25.32,-9.54,1,S02
29460,-9.25838,0.78769,1.92494,-4.5732,-0.6707,0.5488,28.35,25.23,-9.63,1,S02
29480,-9.26317,0.78530,1.93212,-4.4512,-0.8537,0.4878,28.35,25.23,-9.63,1,S02
29500,-9.27274,0.78769,1.91297,-4.3293,-0.7927,0.3659,28.35,25.23,-9.63,1,S02
29520,-9.27035,0.79966,1.90578,-4.3902,-0.8537,0.3659,28.35,25.23,-9.63,1,S02
29540,-9.27035,0.80445,1.92494,-4.6341,-1.0976,0.3659,28.44,25.14,-9.63,1,S02
29560,-9.25359,0.79248,1.92494,-4.6951,-1.5854,0.3659,28.44,25.14,-9.63,1,S02
29580,-9.26317,0.78051,1.92015,-4.5122,-2.0122,0.3049,28.44,25.14,-9.63,1,S02
29600,-9.26556,0.79009,1.89142,-4.4512,-2.5000,0.1829,28.26,25.32,-9.63,1,S02
29620,-9.26556,0.80445,1.89381,-4.8171,-3.1098,0.2439,28.26,25.32,-9.63,1,S02
29640,-9.26077,0.81403,1.92973,-5.3049,-3.5366,0.2439,28.26,25.32,-9.63,1,S02
29660,-9.24641,0.79009,1.95127,-5.2439,-3.4756,0.3049,28.35,25.23,-9.45,1,S02
29680,-9.24641,0.78290,1.96325,-4.8171,-2.9878,0.3049,28.35,25.23,-9.45,1,S02
29700,-9.25598,0.78290,1.94649,-4.4512,-2.6829,0.3659,28.35,25.23,-9.45,1,S02
29720,-9.27514,0.79009,1.93930,-4.5122,-2.6220,0.4878,28.35,25.23,-9.45,1,S02
29740,-9.26077,0.79248,1.94409,-4.6341,-2.4390,0.4878,28.44,25.32,-9.54,1,S02
29760,-9.26556,0.80445,1.93212,-4.5122,-2.1951,0.4878,28.44,25.32,-9.54,1,S02
29780,-9.23683,0.81403,1.92494,-4.6951,-1.9512,0.6098,28.44,25.32,-9.54,1,S02
29800,-9.24880,0.79487,1.98240,-4.8780,-1.7683,0.6707,28.35,25.23,-9.54,1,S02
29820,-9.27514,0.76136,1.98719,-4.8780,-1.7073,0.5488,28.35,25.23,-9.54,1,S02
29840,-9.28711,0.75417,1.96564,-5.0000,-1.5244,0.5488,28.35,25.23,-9.54,1,S02
29860,-9.27993,0.74460,1.98240,-4.8780,-1.1585,0.4268,28.44,25.23,-9.54,1,S02
29880,-9.28950,0.71108,1.99437,-4.6341,-1.5854,0.3659,28.44,25.23,-9.54,1,S02
29900,-9.26796,0.72544,2.00155,-4.3293,-1.9512,0.3049,28.44,25.23,-9.54,1,S02
29920,-9.26796,0.73502,1.98240,-4.2073,-1.9512,0.3659,28.44,25.23,-9.54,1,S02
29940,-9.29190,0.70390,2.01113,-4.0854,-2.0122,0.3049,28.26,25.23,-9.45,1,S02
29960,-9.29429,0.68714,2.00634,-3.7195,-2.3780,0.3049,28.26,25.23,-9.45,1,S02
29980,-9.26556,0.70629,1.95846,-3.4756,-2.9268,0.3049,28.26,25.23,-9.45,1,S02
30000,-9.25120,0.74939,1.91536,-3.3537,-3.1707,0.3049,28.44,25.23,-9.36,1,S02
30020,-9.27514,0.79009,1.93452,-3.5366,-3.0488,0.4268,28.44,25.23,-9.36,1,S02
30040,-9.27035,0.80685,1.95846,-3.8415,-3.1098,0.6098,28.44,25.23,-9.36,1,S02
30060,-9.21528,0.79966,1.93930,-4.2683,-3.1098,0.6707,28.44,25.41,-9.45,1,S02
30080,-9.19852,0.80924,1.96085,-4.8171,-2.4390,0.6707,28.44,25.41,-9.45,1,S02
30100,-9.21768,0.80924,1.97282,-5.4268,-1.7073,0.7927,28.44,25.41,-9.45,1,S02
30120,-9.24162,0.78051,1.97282,-5.8537,-1.2805,0.7927,28.44,25.41,-9.45,1,S02
30140,-9.26317,0.74699,1.95367,-5.9756,-1.0366,0.7927,28.26,25.23,-9.45,1,S02
30160,-9.26556,0.72784,1.95846,-6.0976,-0.8537,0.7927,28.26,25.23,-9.45,1,S02
30180,-9.26077,0.73981,1.95846,-6.3415,-0.9756,0.9756,28.26,25.23,-9.45,1,S02
30200,-9.26796,0.75896,1.98240,-6.6463,-1.2195,1.1585,28.35,25.41,-9.54,1,S02
30220,-9.26796,0.76375,1.99916,-6.8902,-1.4024,1.3415,28.35,25.41,-9.54,1,S02
30240,-9.26077,0.74699,1.99198,-7.1341,-1.4634,1.4634,28.35,25.41,-9.54,1,S02
30260,-9.25598,0.73263,1.98479,-7.3171,-1.4634,1.4024,28.26,25.23,-9.54,1,S02
30280,-9.24880,0.72065,2.00874,-7.2561,-1.5854,1.4024,28.26,25.23,-9.54,1,S02
30300,-9.25598,0.70868,1.99676,-7.0122,-1.8293,1.4634,28.26,25.23,-9.54,1,S02
30320,-9.26077,0.69671,1.97043,-6.7683,-1.5854,1.3415,28.26,25.23,-9.54,1,S02
30340,-9.26317,0.68953,1.98958,-6.5244,-1.0366,1.2805,28.26,25.32,-9.72,1,S02
30360,-9.27993,0.68235,2.00395,-6.0976,-0.8537,1.2195,28.26,25.32,-9.72,1,S02
30380,-9.27035,0.67277,2.00874,-5.6707,-1.1585,1.2195,28.26,25.32,-9.72,1,S02
30400,-9.25598,0.69911,2.00155,-5.3659,-1.5244,1.2195,28.17,25.50,-9.72,1,S02
30420,-9.26317,0.75178,1.99437,-5.0610,-1.8902,1.2195,28.17,25.50,-9.72,1,S02
30440,-9.23922,0.75896,2.00395,-4.8171,-2.0122,1.0976,28.17,25.50,-9.72,1,S02
30460,-9.22246,0.74699,2.02310,-4.4512,-1.9512,0.9146,28.07,25.32,-9.63,1,S02
30480,-9.27274,0.76136,2.02071,-4.2073,-1.8293,0.7927,28.07,25.32,-9.63,1,S02
30500,-9.25120,0.76136,2.02071,-4.2073,-2.0122,0.9146,28.07,25.32,-9.63,1,S02
30520,-9.24162,0.76614,2.04944,-4.0854,-2.2561,0.8537,28.07,25.32,-9.63,1,S02
30540,-9.22965,0.82839,2.00395,-3.7195,-2.3171,0.6707,28.17,25.32,-9.63,1,S02
30560,-9.22725,0.85234,1.97761,-4.0244,-2.0732,0.8537,28.17,25.32,-9.63,1,S02
30580,-9.23683,0.82600,2.00395,-4.3293,-2.0732,1.0366,28.17,25.32,-9.63,1,S02
30600,-9.25598,0.79727,2.01592,-4.3293,-2.0732,1.0976,28.07,25.50,-9.54,1,S02
30620,-9.24880,0.79487,2.03268,-4.3293,-2.1341,1.2195,28.07,25.50,-9.54,1,S02
30640,-9.20571,0.79487,2.03986,-4.2073,-2.3780,1.2195,28.07,25.50,-9.54,1,S02
30660,-9.20092,0.82121,2.05901,-3.8415,-2.0122,1.1585,27.98,25.41,-9.54,1,S02
