timestamp,ax,ay,az,gx,gy,gz,mx,my,mz,label,subject_id
0,-10.16578,-0.87388,1.54905,-29.8780,-1.8902,3.7805,36.33,18.62,12.39,3,S02
20,-9.83059,-1.86748,1.81959,-11.0366,4.1463,11.7683,36.33,18.62,12.39,3,S02
40,-9.47146,-1.72383,1.63763,6.5244,4.7561,13.9634,35.78,19.27,12.66,3,S02
60,-9.07163,-0.84036,1.30723,17.5000,5.0000,16.5854,35.78,19.27,12.66,3,S02
80,-8.84179,0.12929,1.12049,22.9878,9.1463,19.4512,35.78,19.27,12.66,3,S02
100,-8.88249,0.92177,0.93134,25.4268,12.9268,20.1829,35.78,19.27,12.66,3,S02
120,-8.82742,1.29287,0.79966,25.5488,14.2073,19.2073,34.50,20.18,13.30,3,S02
140,-8.78911,1.33357,0.82600,21.4634,13.6585,18.4146,34.50,20.18,13.30,3,S02
160,-8.91601,1.29526,1.13964,13.8415,13.8415,18.5366,34.50,20.18,13.30,3,S02
180,-8.95192,1.12288,1.51314,6.0976,12.3171,19.2683,33.67,21.01,13.30,3,S02
200,-8.86812,0.86431,1.71664,1.2195,9.5732,18.9024,33.67,21.01,13.30,3,S02
220,-8.76278,0.66559,1.78368,-1.0976,7.6220,17.3780,33.67,21.01,13.30,3,S02
240,-8.84658,0.60573,1.80044,-2.2561,6.8902,15.3659,33.30,21.65,13.12,3,S02
260,-8.94713,0.65122,1.83156,-2.8659,7.2561,14.0854,33.30,21.65,13.12,3,S02
280,-8.98065,0.65122,1.89381,-2.5000,8.5366,13.1707,33.30,21.65,13.12,3,S02
300,-8.93277,0.60573,1.82678,-1.2195,9.8171,11.4634,33.30,21.65,13.12,3,S02
320,-8.79630,0.73741,1.66636,-1.6463,10.4268,9.3902,32.84,22.29,12.84,3,S02
340,-8.72926,1.00796,1.70707,-5.1220,10.1829,8.2317,32.84,22.29,12.84,3,S02
360,-8.80109,1.23541,1.86987,-9.6341,9.6341,7.2561,32.84,22.29,12.84,3,S02
380,-8.75560,1.31681,1.86029,-12.9878,10.5488,5.3659,32.66,22.57,12.11,3,S02
400,-8.54730,1.15640,1.81959,-15.3049,12.5610,3.3537,32.66,22.57,12.11,3,S02
420,-8.64786,0.95529,1.91776,-16.8293,14.3902,1.4024,32.66,22.57,12.11,3,S02
440,-8.88488,0.92895,2.06141,-17.1341,15.3659,0.8537,32.94,22.75,11.01,3,S02
460,-9.16500,1.13725,1.99916,-17.9878,15.7317,1.5854,32.94,22.75,11.01,3,S02
480,-9.16261,1.01754,2.09732,-18.2927,16.2195,2.2561,32.94,22.75,11.01,3,S02
500,-9.04769,0.80445,2.09493,-15.3049,16.0976,1.5244,32.94,22.75,11.01,3,S02
520,-8.88967,0.69192,2.15478,-12.6220,17.1951,0.9146,32.94,22.94,10.18,3,S02
540,-8.82024,0.43335,2.40378,-8.5976,20.4878,1.2805,32.94,22.94,10.18,3,S02
560,-8.93756,0.11971,2.85868,-1.7683,24.3902,1.3415,32.94,22.94,10.18,3,S02
580,-9.08121,-0.02873,3.33512,6.0366,27.5000,0.1220,32.66,23.21,9.63,3,S02
600,-9.20571,0.13168,3.67749,14.2073,29.0854,-2.7439,32.66,23.21,9.63,3,S02
620,-9.23444,0.39504,3.80678,21.6463,28.8415,-5.8537,32.66,23.21,9.63,3,S02
640,-9.56962,0.84276,3.36625,27.9878,27.9878,-7.9878,32.57,23.12,9.91,3,S02
660,-11.11149,1.74058,2.17154,27.3780,26.7073,-7.0732,32.57,23.12,9.91,3,S02
680,-12.81856,2.53785,0.78769,21.8902,26.2805,2.1951,32.57,23.12,9.91,3,S02
700,-12.55519,1.87945,-0.25857,16.8902,27.0122,18.2317,32.57,23.12,9.91,3,S02
720,-11.29584,-0.35674,-0.36631,20.6098,27.6829,24.8780,31.28,24.04,9.82,3,S02
740,-10.78588,-2.22900,-0.96726,33.7805,21.7683,16.8902,31.28,24.04,9.82,3,S02
760,-10.69011,-1.70467,-1.67834,45.6707,11.7683,6.0976,31.28,24.04,9.82,3,S02
780,-10.74518,0.14365,-1.98958,50.4878,5.4268,-0.7927,30.64,23.76,11.38,3,S02
800,-10.37647,1.54905,-2.13084,46.3415,1.5244,-4.0244,30.64,23.76,11.38,3,S02
820,-10.00776,1.87227,-1.91536,36.0976,3.2927,-6.4634,30.64,23.76,11.38,3,S02
840,-9.64384,1.62087,-1.66636,23.7195,6.0366,-12.5610,31.01,22.94,11.47,3,S02
860,-9.09078,1.15161,-1.49159,12.2561,6.8293,-20.3049,31.01,22.94,11.47,3,S02
880,-8.58800,0.38786,-1.36230,6.2195,9.2683,-26.4634,31.01,22.94,11.47,3,S02
900,-8.40604,-0.06704,-1.15161,1.7073,11.8293,-30.0000,31.01,22.94,11.47,3,S02
920,-8.28873,-0.19154,-0.89783,-7.0122,10.7927,-30.5488,32.11,21.74,10.92,3,S02
940,-8.06367,-0.47645,-0.69192,-11.8902,9.6341,-29.6951,32.11,21.74,10.92,3,S02
960,-7.98706,-0.79248,-0.55785,-9.6951,8.4756,-29.3293,32.11,21.74,10.92,3,S02
980,-8.19296,-0.97923,-0.37350,-5.3049,8.5366,-29.4512,32.84,20.64,10.37,3,S02
1000,-8.46350,-0.91698,-0.08859,-1.5244,9.2073,-28.4756,32.84,20.64,10.37,3,S02
1020,-8.71250,-0.57940,0.13886,1.1585,6.5244,-25.7927,32.84,20.64,10.37,3,S02
1040,-8.66701,-0.15802,0.17957,1.8293,1.8902,-21.8902,33.30,19.91,10.55,3,S02
1060,-8.31985,0.05746,0.22027,1.5244,1.7073,-18.1707,33.30,19.91,10.55,3,S02
1080,-8.28633,-0.01437,0.56024,1.4634,5.1829,-15.9146,33.30,19.91,10.55,3,S02
1100,-8.37492,-0.04549,0.85473,0.2439,7.5610,-14.1463,33.30,19.91,10.55,3,S02
1120,-8.32703,0.06225,0.96247,-3.4146,10.3659,-12.7439,33.49,19.63,10.09,3,S02
1140,-8.25281,0.08619,1.09654,-7.0122,15.2439,-12.6220,33.49,19.63,10.09,3,S02
1160,-8.39168,-0.03591,1.36948,-9.6951,18.6585,-12.8659,33.49,19.63,10.09,3,S02
1180,-8.53533,-0.28970,1.59214,-12.1341,18.0488,-12.2561,33.94,19.45,9.27,3,S02
1200,-8.53772,-0.69671,1.63524,-13.1707,16.4024,-10.9146,33.94,19.45,9.27,3,S02
1220,-8.64067,-1.14203,1.43173,-12.2561,16.0976,-10.3659,33.94,19.45,9.27,3,S02
1240,-9.47386,-1.39821,0.95529,-8.4146,16.3415,-11.4634,34.04,18.99,8.53,3,S02
1260,-10.85770,-1.17316,1.17316,-7.3171,14.0854,-11.0366,34.04,18.99,8.53,3,S02
1280,-11.50893,-0.39744,2.19309,-13.5976,4.5732,-8.6585,34.04,18.99,8.53,3,S02
1300,-10.94629,0.97205,3.46920,-36.2805,-23.3537,-3.8415,34.04,18.99,8.53,3,S02
1320,-11.17613,-0.30167,2.64799,-42.3171,-26.0366,-4.1463,34.22,18.26,8.17,3,S02
1340,-12.48097,-2.54743,1.71185,-30.5488,-19.3902,-10.4878,34.22,18.26,8.17,3,S02
1360,-12.49773,-2.33674,0.42856,-21.3415,-16.4024,-22.0732,34.22,18.26,8.17,3,S02
1380,-12.26071,-0.76136,-1.64721,-27.2561,-18.1707,-22.3171,34.77,16.97,7.80,3,S02
1400,-12.41633,-0.73023,-3.00951,-34.2073,-25.4268,-8.6585,34.77,16.97,7.80,3,S02
1420,-13.33092,-1.16598,-2.93529,-45.6098,-28.2317,6.0976,34.77,16.97,7.80,3,S02
1440,-13.38598,-1.47962,-2.68869,-49.0854,-26.3415,14.4512,34.40,17.43,6.70,3,S02
1460,-12.67969,-1.45089,-2.85628,-40.6707,-21.3415,15.7317,34.40,17.43,6.70,3,S02
1480,-12.10508,-1.58736,-2.65278,-26.5244,-13.9024,13.1098,34.40,17.43,6.70,3,S02
1500,-10.96305,-1.48201,-2.48279,-11.1585,-7.6829,11.3415,34.40,17.43,6.70,3,S02
1520,-9.75398,-0.84276,-2.33195,-0.5488,1.0976,15.3049,33.67,17.98,6.61,3,S02
1540,-8.48984,-0.14605,-2.11647,4.0854,10.0000,23.5366,33.67,17.98,6.61,3,S02
1560,-7.29034,0.16041,-2.16915,7.1951,15.4268,31.5244,33.67,17.98,6.61,3,S02
1580,-6.86896,0.54348,-2.03268,6.8293,18.8415,34.7561,32.29,19.63,6.33,3,S02
1600,-6.29196,0.45969,-1.75256,5.8537,20.5488,36.3415,32.29,19.63,6.33,3,S02
1620,-5.71257,0.25857,-1.97282,4.4512,21.6463,35.1220,32.29,19.63,6.33,3,S02
1640,-5.41808,0.14365,-1.64003,-3.1707,23.2927,30.1829,31.28,20.73,5.69,3,S02
1660,-5.67905,0.31364,-0.91937,-8.7805,19.8171,20.2439,31.28,20.73,5.69,3,S02
1680,-6.27041,0.43335,-0.56264,-8.1098,13.2317,10.0000,31.28,20.73,5.69,3,S02
1700,-6.77320,0.48842,-0.19632,-9.5732,9.1463,2.7439,31.28,20.73,5.69,3,S02
1720,-6.75644,0.44293,0.07901,-13.5976,5.6707,-0.6707,31.19,20.73,5.23,3,S02
1740,-6.81150,0.15323,0.05507,-16.0976,2.5610,-2.6220,31.19,20.73,5.23,3,S02
1760,-7.33583,-0.27054,0.34716,-15.0000,3.6585,-3.9634,31.19,20.73,5.23,3,S02
1780,-8.60716,-0.56982,0.75417,-9.3293,6.2195,-5.6098,31.28,20.64,4.86,3,S02
1800,-10.70448,-0.14365,1.62327,-1.0366,6.2195,-7.3780,31.28,20.64,4.86,3,S02
1820,-12.61984,0.58658,2.44448,8.6585,-0.9146,-4.0244,31.28,20.64,4.86,3,S02
1840,-13.24472,0.53870,3.31118,22.6220,-10.3659,4.6951,30.55,21.01,6.51,3,S02
1860,-12.65814,0.84755,4.10606,36.8902,-18.1707,13.2317,30.55,21.01,6.51,3,S02
1880,-11.19289,1.77650,3.95283,38.7195,-23.2317,21.7683,30.55,21.01,6.51,3,S02
1900,-9.62230,2.15478,3.28245,36.6463,-13.9024,27.7439,30.55,21.01,6.51,3,S02
1920,-9.07163,1.38864,0.25139,38.7195,2.0732,28.9024,29.08,21.93,7.71,3,S02
1940,-11.53287,1.54426,-3.53145,36.2805,24.3902,24.6341,29.08,21.93,7.71,3,S02
1960,-14.24071,1.48201,-2.83234,23.8415,40.2439,25.4268,29.08,21.93,7.71,3,S02
1980,-14.93742,-0.16520,-0.35195,10.9146,4.0244,30.9756,27.52,22.57,8.17,3,S02
2000,-14.26465,-1.12049,-1.88903,15.5488,-36.4024,30.7927,27.52,22.57,8.17,3,S02
2020,-12.47140,-0.13647,-3.31358,20.6098,-43.7805,24.0854,27.52,22.57,8.17,3,S02
2040,-11.56399,0.41899,-3.49553,27.3171,-33.1707,15.0610,26.61,22.39,10.00,3,S02
2060,-11.56399,0.35913,-3.61046,25.9756,-16.4024,7.3171,26.61,22.39,10.00,3,S02
2080,-11.47062,0.64165,-3.28724,16.5854,-1.5854,-0.4878,26.61,22.39,10.00,3,S02
2100,-10.43393,0.52672,-2.83713,0.2439,-2.7439,-9.5732,26.61,22.39,10.00,3,S02
2120,-8.21690,-0.19872,-2.64559,-14.1463,-6.2195,-20.9146,27.25,21.56,9.63,3,S02
2140,-6.51702,-1.21865,-2.17872,-18.2317,-5.3049,-36.2195,27.25,21.56,9.63,3,S02
2160,-5.38456,-1.64721,-1.93930,-11.4634,-2.8049,-49.1463,27.25,21.56,9.63,3,S02
2180,-4.86981,-1.64003,-1.41018,-7.8049,-0.7317,-51.2195,28.99,19.82,9.54,3,S02
2200,-4.81713,-1.13246,-1.07500,-8.2317,-1.5244,-45.8537,28.99,19.82,9.54,3,S02
2220,-5.33668,-0.67277,-0.68235,-10.4268,-7.0122,-39.6341,28.99,19.82,9.54,3,S02
2240,-6.10043,-0.41180,-0.25618,-9.5732,-9.9390,-32.8049,29.63,18.90,9.45,3,S02
2260,-6.59842,-0.34716,0.48363,-7.3780,-10.0610,-24.4512,29.63,18.90,9.45,3,S02
2280,-6.27760,-0.45011,0.85712,-4.4512,-10.3659,-16.1585,29.63,18.90,9.45,3,S02
2300,-6.35900,-0.18435,1.06063,-3.5976,-9.6341,-11.0976,29.63,18.90,9.45,3,S02
2320,-7.15387,0.33279,1.07500,-7.9268,-7.7439,-7.5000,29.72,18.90,9.27,3,S02
2340,-8.88009,0.86910,1.24738,-20.1220,-10.0000,-5.9756,29.72,18.90,9.27,3,S02
2360,-10.29507,1.00317,1.83396,-39.2683,-15.9146,-2.8049,29.72,18.90,9.27,3,S02
2380,-10.86489,-1.08936,2.92093,-46.2805,-16.5854,6.3415,29.45,19.08,8.72,3,S02
2400,-12.07635,-2.26252,5.17148,-43.5366,-17.1951,5.9756,29.45,19.08,8.72,3,S02
2420,-11.78666,-0.73741,5.45878,-39.9390,-27.4390,-10.1220,29.45,19.08,8.72,3,S02
2440,-9.87129,1.39103,4.36224,-43.5366,-31.8293,-23.4146,30.83,17.43,8.26,3,S02
2460,-8.93516,1.14443,0.25857,-53.2317,-27.1341,-29.5122,30.83,17.43,8.26,3,S02
2480,-10.87207,-2.21703,-2.88741,-53.4756,0.6098,-34.8171,30.83,17.43,8.26,3,S02
2500,-14.73871,-5.45878,-2.92811,-40.8537,22.8049,-38.1707,30.83,17.43,8.26,3,S02
2520,-17.16882,-2.99036,-1.33118,-40.2439,4.3293,-23.6585,31.56,16.70,7.06,3,S02
2540,-16.18480,-0.77333,-3.45483,-40.3659,-27.8049,-0.4268,31.56,16.70,7.06,3,S02
2560,-14.08269,-0.66559,-3.96719,-26.1585,-31.2805,9.0244,31.56,16.70,7.06,3,S02
2580,-13.23036,-0.64165,-3.33273,-17.6829,-15.6098,7.1341,31.56,16.70,7.80,3,S02
2600,-13.39556,-0.42377,-2.28407,-17.9878,-2.6829,5.8537,31.56,16.70,7.80,3,S02
2620,-9.09078,-0.63446,-1.33836,-0.5488,11.4634,26.2805,31.56,16.70,7.80,3,S02
2640,-6.75404,-0.16281,-1.40779,8.7195,14.6951,36.2805,30.37,18.17,7.98,3,S02
2660,-4.98712,0.08619,-1.20907,13.1098,18.0488,40.1220,30.37,18.17,7.98,3,S02
2680,-3.96719,-0.29209,-1.18274,17.3171,22.6220,37.6829,30.37,18.17,7.98,3,S02
2700,-4.14436,-0.73502,-0.67277,20.2439,25.3659,31.0976,30.37,18.17,7.98,3,S02
2720,-4.66151,-0.84515,-0.50039,23.9024,20.3659,22.6220,29.45,19.54,8.26,3,S02
2740,-5.46836,-0.43574,-0.28970,26.5244,13.3537,13.2927,29.45,19.54,8.26,3,S02
2760,-6.20577,0.30167,-0.04310,26.0366,4.9390,6.0366,29.45,19.54,8.26,3,S02
2780,-6.38294,0.82839,0.22984,18.7805,-3.3537,0.8537,29.36,19.54,9.36,3,S02
2800,-6.51223,1.01993,0.68235,8.2317,-8.4146,-2.7439,29.36,19.54,9.36,3,S02
2820,-6.62715,0.56982,1.17076,4.8780,-5.1829,-4.5732,29.36,19.54,9.36,3,S02
2840,-7.46512,-0.33758,1.53468,9.6951,3.1707,-8.5976,29.82,18.99,10.00,3,S02
2860,-9.73243,-0.56503,2.10450,19.2073,8.1707,-14.6951,29.82,18.99,10.00,3,S02
2880,-11.84172,0.42617,1.55623,23.1098,-1.6463,-15.3659,29.82,18.99,10.00,3,S02
2900,-11.80581,2.41336,0.89064,14.0854,-9.2073,-6.9512,29.82,18.99,10.00,3,S02
2920,-12.14339,4.14915,3.42850,3.4146,-9.8171,5.5488,29.91,18.72,11.19,3,S02
2940,-10.93192,2.64799,4.26168,8.9634,-25.4268,24.9390,29.91,18.72,11.19,3,S02
2960,-8.81066,-0.68953,3.39737,28.6585,-25.0610,41.1585,29.91,18.72,11.19,3,S02
2980,-10.56561,-1.30245,-0.51236,39.5122,-2.0122,40.1829,28.26,20.09,12.94,3,S02
3000,-13.66132,1.55623,-4.75249,31.2195,38.9024,38.5976,28.26,20.09,12.94,3,S02
3020,-15.77540,3.68228,-3.01430,10.8537,53.6585,40.9756,28.26,20.09,12.94,3,S02
3040,-14.85842,1.01275,-2.72939,-2.9268,-4.1463,45.1220,27.16,21.38,13.30,3,S02
3060,-15.03559,-0.77093,-3.90973,0.1829,-24.6951,40.0610,27.16,21.38,13.30,3,S02
3080,-14.42028,-0.31603,-4.26168,6.1585,-16.4024,31.4634,27.16,21.38,13.30,3,S02
3100,-12.85926,0.57940,-4.10127,2.2561,-13.1707,24.9390,27.16,21.38,13.30,3,S02
3120,-11.89679,1.39103,-3.72538,-10.0000,-9.9390,13.2317,26.88,21.47,13.58,3,S02
3140,-10.42196,1.35272,-3.51469,-27.3780,-7.5000,-4.6341,26.88,21.47,13.58,3,S02
3160,-8.55688,0.96247,-2.95205,-45.5488,-3.9634,-26.0976,26.88,21.47,13.58,3,S02
3180,-6.34463,-0.12689,-2.11887,-60.1829,-4.8780,-44.5122,29.82,20.00,12.29,3,S02
3200,-4.86502,-1.16598,-1.60651,-65.6707,-8.8415,-59.0854,29.82,20.00,12.29,3,S02
3220,-4.44603,-1.90339,-1.33836,-62.8049,-6.7683,-62.5610,29.82,20.00,12.29,3,S02
3240,-4.34308,-1.97282,-0.66080,-58.6585,1.7073,-53.9024,32.39,18.35,10.64,3,S02
3260,-4.27365,-1.64721,-0.22027,-54.6951,6.5854,-39.8780,32.39,18.35,10.64,3,S02
3280,-4.78840,-1.23780,-0.07661,-50.2439,5.9146,-28.7195,32.39,18.35,10.64,3,S02
3300,-5.71496,-0.95529,0.00958,-41.7073,5.5488,-20.7927,32.39,18.35,10.64,3,S02
3320,-6.70616,-0.69911,0.45969,-35.0610,5.8537,-13.9634,33.30,18.17,9.17,3,S02
3340,-7.20894,-0.34477,0.70868,-33.2317,6.0976,-7.9268,33.30,18.17,9.17,3,S02
3360,-7.89847,-0.02394,1.30245,-33.0488,8.1707,-4.5732,33.30,18.17,9.17,3,S02
3380,-8.79869,0.17957,1.61369,-34.3293,5.4878,-1.6463,33.67,18.53,7.80,3,S02
3400,-9.85453,0.03831,2.01592,-39.0244,-3.1098,0.5488,33.67,18.53,7.80,3,S02
3420,-9.89284,-0.38068,1.25696,-42.3780,-16.7683,5.1829,33.67,18.53,7.80,3,S02
3440,-10.01734,-2.07338,1.51074,-46.3415,-19.7561,16.4024,33.58,18.99,6.79,3,S02
3460,-11.55442,-1.40540,4.46040,-48.7195,-14.6951,2.8659,33.58,18.99,6.79,3,S02
3480,-11.04924,0.75657,5.55455,-51.0976,-28.5366,-25.0610,33.58,18.99,6.79,3,S02
3500,-9.12909,1.58975,4.61841,-54.2683,-34.9390,-37.8659,33.58,18.99,6.79,3,S02
3520,-9.65103,-1.26174,0.51954,-47.2561,-20.6098,-45.6707,35.96,16.61,5.41,3,S02
3540,-12.75631,-4.62560,-3.12204,-28.7195,7.3780,-56.8293,35.96,16.61,5.41,3,S02
3560,-16.92940,-3.31597,-1.88424,-32.5000,5.9146,-53.2927,35.96,16.61,5.41,3,S02
3580,-18.11932,-0.56982,-1.07500,-50.7927,-37.6829,-18.8415,36.88,16.33,4.77,3,S02
3600,-15.52161,-0.83797,-2.93050,-35.0610,-60.4268,9.8780,36.88,16.33,4.77,3,S02
3620,-13.71399,-1.25456,-3.13162,-22.3171,-49.5732,13.8415,36.88,16.33,4.77,3,S02
3640,-13.69483,-0.62968,-2.66235,-29.2683,-25.8537,13.5976,37.06,16.97,4.31,3,S02
3660,-13.79778,-0.45011,-2.22661,-28.8415,-1.5854,16.5854,37.06,16.97,4.31,3,S02
3680,-11.68610,-0.78769,-2.17633,-12.9878,15.7927,26.6463,37.06,16.97,4.31,3,S02
3700,-8.38210,-0.96965,-1.86987,8.6585,28.4146,40.7317,37.06,16.97,4.31,3,S02
3720,-5.89452,-0.41659,-1.74058,23.5976,33.9024,48.8415,35.50,19.08,4.50,3,S02
3740,-4.49631,0.33519,-1.62566,27.5000,34.7561,48.6585,35.50,19.08,4.50,3,S02
3760,-3.66313,0.32801,-1.35272,26.8293,31.4634,44.2683,35.50,19.08,4.50,3,S02
3780,-3.57694,-0.42617,-0.43335,28.4756,25.9756,35.8537,34.68,20.64,4.77,3,S02
3800,-4.02705,-1.03430,-0.14126,34.1463,16.0976,25.6098,34.68,20.64,4.77,3,S02
3820,-5.25288,-0.69192,0.22266,34.7561,5.7317,14.9390,34.68,20.64,4.77,3,S02
3840,-6.31351,-0.03831,0.43096,28.9024,-5.4878,10.8537,34.59,21.19,5.78,3,S02
3860,-6.30393,0.35434,0.84276,17.5610,-14.5732,13.1098,34.59,21.19,5.78,3,S02
3880,-6.27281,0.62728,1.17795,11.5854,-13.2927,11.4634,34.59,21.19,5.78,3,S02
3900,-7.11317,0.60573,1.47962,16.5244,5.9756,1.5244,34.59,21.19,5.78,3,S02
3920,-9.46907,0.68714,1.93691,24.1463,22.1341,-12.0732,35.69,20.92,5.87,3,S02
3940,-11.36288,1.01993,1.41737,31.7073,-5.3049,-8.2927,35.69,20.92,5.87,3,S02
3960,-10.80503,3.71101,0.77333,18.5976,-13.1707,0.7317,35.69,20.92,5.87,3,S02
3980,-11.37725,5.24330,2.65278,10.9756,-5.9146,8.8415,35.87,21.01,6.79,3,S02
4000,-9.55526,2.25294,3.13401,20.9756,-8.4146,26.5854,35.87,21.01,6.79,3,S02
4020,-9.18895,-1.18513,1.56102,35.7927,-3.2927,35.2439,35.87,21.01,6.79,3,S02
4040,-11.61188,-0.88346,-3.23935,39.2073,17.0122,37.8659,34.59,23.49,7.43,3,S02
4060,-13.36204,1.11330,-4.53701,32.5610,57.7439,46.4634,34.59,23.49,7.43,3,S02
4080,-15.50006,0.81403,-1.43652,17.9268,45.4268,47.8049,34.59,23.49,7.43,3,S02
4100,-15.63174,-1.25217,-2.82516,16.2805,-11.4634,43.5976,34.59,23.49,7.43,3,S02
4120,-15.67244,-0.92177,-2.93050,17.0732,-26.3415,35.6098,33.58,25.32,8.26,3,S02
4140,-14.80574,-0.01676,-3.12443,20.7317,-25.7927,26.6463,33.58,25.32,8.26,3,S02
4160,-13.13459,0.24421,-3.25851,18.9634,-18.3537,19.0244,33.58,25.32,8.26,3,S02
4180,-11.94228,0.63925,-3.19387,11.4024,-3.2317,7.7439,33.39,25.50,8.81,3,S02
4200,-10.47463,0.61292,-3.05500,-1.2195,9.2683,-8.5366,33.39,25.50,8.81,3,S02
4220,-8.05888,-0.01915,-2.50434,-13.5976,12.5610,-25.6707,33.39,25.50,8.81,3,S02
4240,-5.75806,-0.68474,-1.81480,-21.8902,5.0610,-40.1829,35.69,23.76,7.52,3,S02
4260,-4.33351,-0.75178,-1.83396,-29.0854,-4.0854,-52.1341,35.69,23.76,7.52,3,S02
4280,-4.16352,-0.51954,-1.73340,-36.2805,-3.2927,-55.1829,35.69,23.76,7.52,3,S02
4300,-4.45322,-0.24181,-1.18992,-40.3049,3.9024,-45.9146,35.69,23.76,7.52,3,S02
4320,-4.52265,-0.34477,-0.57700,-42.1341,7.6220,-31.4634,37.71,22.39,5.87,3,S02
4340,-5.05177,-0.89064,0.08619,-40.4268,6.5854,-22.2561,37.71,22.39,5.87,3,S02
4360,-5.65750,-1.32878,0.39983,-35.7317,2.9878,-17.5610,37.71,22.39,5.87,3,S02
4380,-6.29675,-1.07500,0.57461,-31.8293,1.8902,-14.2073,38.99,22.57,4.50,3,S02
4400,-6.79714,-0.38068,0.56024,-28.9634,7.1951,-9.6341,38.99,22.57,4.50,3,S02
4420,-7.67821,0.23224,0.73263,-27.9268,14.3293,-5.7317,38.99,22.57,4.50,3,S02
4440,-9.37569,0.18435,1.15401,-31.2805,12.6829,-2.9268,39.36,22.94,2.84,3,S02
4460,-10.69250,0.15323,1.53947,-41.6463,-2.9878,-1.3415,39.36,22.94,2.84,3,S02
4480,-10.32140,-1.21147,1.23301,-47.3171,-19.2683,6.7683,39.36,22.94,2.84,3,S02
4500,-11.10431,-2.78446,3.04542,-44.5732,-17.6829,14.3902,39.36,22.94,2.84,3,S02
4520,-11.59033,-1.38624,4.61123,-40.7927,-20.2439,-6.3415,39.82,23.21,2.20,3,S02
4540,-10.47703,0.64165,3.34709,-39.9390,-30.2439,-29.1463,39.82,23.21,2.20,3,S02
4560,-10.41957,-0.91219,0.36392,-40.0610,-26.8293,-42.7439,39.82,23.21,2.20,3,S02
4580,-12.35887,-3.32315,-2.77488,-27.4390,-11.9512,-57.1341,42.29,20.18,1.65,3,S02
4600,-15.12657,-3.23457,-2.76291,-26.0976,-9.3293,-57.1341,42.29,20.18,1.65,3,S02
4620,-16.93419,-1.22823,-1.52511,-36.4634,-34.1463,-31.8293,42.29,20.18,1.65,3,S02
4640,-15.45457,-1.58257,-3.09331,-25.8537,-59.0244,-1.7073,42.29,20.83,2.75,3,S02
4660,-13.83609,-1.62806,-3.11486,-14.1463,-53.9634,11.5854,42.29,20.83,2.75,3,S02
4680,-12.98376,-1.07500,-2.81079,-13.5976,-36.3415,16.1585,42.29,20.83,2.75,3,S02
4700,-12.59829,-0.87149,-2.06620,-11.2805,-18.3537,18.1707,42.29,20.83,2.75,3,S02
4720,-11.06361,-0.94332,-2.17872,2.9268,-5.6098,23.8415,41.56,21.65,3.85,3,S02
4740,-8.74123,-0.92656,-1.92733,21.8902,11.9512,37.1951,41.56,21.65,3.85,3,S02
4760,-6.86896,-0.56264,-1.78129,37.9878,28.0488,47.9878,41.56,21.65,3.85,3,S02
4780,-5.70059,-0.16999,-1.29287,45.4268,34.5122,49.2073,39.27,24.31,5.05,3,S02
4800,-5.03022,-0.13886,-1.24738,50.9146,33.4756,43.5366,39.27,24.31,5.05,3,S02
4820,-4.80516,-0.28012,-1.04866,54.7561,32.3171,32.6829,39.27,24.31,5.05,3,S02
4840,-4.79080,-0.21308,-0.86670,56.2195,28.5366,20.7317,38.44,25.23,6.88,3,S02
4860,-5.07571,0.01915,-0.46448,54.2073,22.0122,10.3659,38.44,25.23,6.88,3,S02
4880,-5.77242,0.47645,0.03591,49.5732,13.2317,2.3780,38.44,25.23,6.88,3,S02
4900,-6.59842,0.96247,0.36392,38.9024,0.6707,-2.7439,38.44,25.23,6.88,3,S02
4920,-7.27837,1.02472,0.77093,25.0610,-10.6098,-5.0000,38.44,24.95,8.44,3,S02
4940,-7.37893,0.68714,0.97923,16.7683,-14.6341,-7.0122,38.44,24.95,8.44,3,S02
4960,-7.87214,0.24900,1.51553,18.2927,-9.8171,-13.9024,38.44,24.95,8.44,3,S02
4980,-9.28232,0.17717,2.15957,26.7073,-5.9756,-21.5854,38.72,23.85,10.09,3,S02
5000,-10.67335,0.05746,2.69348,35.7927,-10.3049,-20.6707,38.72,23.85,10.09,3,S02
5020,-10.39084,1.49398,0.33519,38.4146,-16.2195,-11.8293,38.72,23.85,10.09,3,S02
5040,-11.73159,5.02543,1.71664,18.6585,-3.2927,-0.7317,37.89,24.68,11.01,3,S02
5060,-12.08832,5.11641,4.08930,3.2317,-2.7439,21.5244,37.89,24.68,11.01,3,S02
5080,-9.73482,1.82917,3.73017,7.5000,-11.5244,45.7317,37.89,24.68,11.01,3,S02
5100,-10.01255,-0.94810,0.84755,16.3415,2.0122,51.4634,37.89,24.68,11.01,3,S02
5120,-12.33732,-1.03430,-3.33273,22.1341,34.5122,48.0488,35.23,27.80,10.64,3,S02
5140,-14.57111,0.31603,-3.36146,20.0610,63.1098,44.9390,35.23,27.80,10.64,3,S02
5160,-15.29416,0.26576,-2.24097,6.2195,26.8902,40.4878,35.23,27.80,10.64,3,S02
5180,-14.85363,-1.13964,-2.79882,0.1220,-17.8049,38.4146,33.49,28.72,11.93,3,S02
5200,-13.98693,-1.24020,-3.18908,10.0610,-19.3293,34.7561,33.49,28.72,11.93,3,S02
5220,-12.45224,-0.34477,-3.58173,12.0732,-13.7805,25.8537,33.49,28.72,11.93,3,S02
5240,-11.45386,0.46926,-3.37822,7.6220,-2.7439,12.3780,33.30,28.44,11.74,3,S02
5260,-8.96389,0.54827,-2.56658,-9.5732,11.5244,-28.4756,33.30,28.44,11.74,3,S02
5280,-6.61518,-0.52672,-1.91297,-12.8049,10.4878,-45.0610,33.30,28.44,11.74,3,S02
5300,-5.09965,-1.52989,-1.45328,-14.4512,5.6098,-59.6951,33.30,28.44,11.74,3,S02
5320,-5.01585,-1.54426,-1.28329,-13.7805,7.8049,-66.2805,35.96,25.78,10.92,3,S02
5340,-5.39414,-0.98402,-0.92177,-12.8659,12.1341,-59.5122,35.96,25.78,10.92,3,S02
5360,-5.84903,-0.59616,-0.56264,-12.5000,10.4878,-43.9634,35.96,25.78,10.92,3,S02
5380,-6.22014,-0.89304,0.06943,-13.4146,1.9512,-27.7439,37.34,24.68,10.28,3,S02
5400,-6.66546,-1.14682,0.62489,-11.2805,-7.8659,-16.7073,37.34,24.68,10.28,3,S02
5420,-6.99586,-0.96965,1.01275,-6.8902,-15.4878,-9.1463,37.34,24.68,10.28,3,S02
5440,-6.93600,-0.56264,1.23062,-3.8415,-19.3902,-2.0122,36.88,24.59,10.83,3,S02
5460,-6.89291,-0.20351,1.35751,-2.5000,-16.2805,3.2317,36.88,24.59,10.83,3,S02
5480,-8.05409,0.33998,1.92733,-8.2317,-14.2073,4.0244,36.88,24.59,10.83,3,S02
5500,-10.18493,1.22104,2.26491,-21.9512,-22.2561,3.4146,36.88,24.59,10.83,3,S02
5520,-10.39084,0.04549,2.67193,-31.5854,-28.5976,8.3537,36.79,24.77,10.83,3,S02
5540,-10.77391,-2.65278,4.18985,-21.2195,-21.8293,14.1463,36.79,24.77,10.83,3,S02
5560,-12.07396,-1.69988,5.93044,-15.5488,-22.1341,-2.7439,36.79,24.77,10.83,3,S02
5580,-11.31021,1.13485,4.82192,-17.0732,-34.3293,-25.1220,36.97,23.58,11.38,3,S02
5600,-10.50336,1.23301,0.52194,-24.4512,-33.0488,-34.3902,36.97,23.58,11.38,3,S02
5620,-11.80102,-2.03028,-2.83952,-17.7439,-1.3415,-45.7317,36.97,23.58,11.38,3,S02
5640,-14.70279,-3.49553,-2.65517,-14.5732,15.1220,-55.3049,38.53,20.83,10.28,3,S02
5660,-16.07228,-1.92733,-1.30484,-37.1951,-10.6707,-35.1829,38.53,20.83,10.28,3,S02
5680,-14.18804,-1.89381,-2.75333,-40.3659,-38.3537,-7.0122,38.53,20.83,10.28,3,S02
5700,-12.32774,-1.94170,-3.57454,-18.4756,-25.3049,0.7317,38.53,20.83,10.28,3,S02
5720,-12.19367,-1.43173,-3.03824,-6.0366,5.7927,-1.7073,38.17,20.92,10.55,3,S02
5740,-12.46900,-1.00796,-2.37505,-4.3293,28.7195,-2.7439,38.17,20.92,10.55,3,S02
5760,-11.20965,-1.18992,-1.80762,5.6707,40.9756,7.1951,38.17,20.92,10.55,3,S02
5780,-8.31506,-1.51792,-1.61848,27.1951,46.5244,26.7073,36.33,21.93,10.28,3,S02
5800,-6.12916,-1.35991,-1.33596,46.2805,47.4390,43.2317,36.33,21.93,10.28,3,S02
5820,-4.97755,-0.69432,-1.46046,55.3049,45.6707,50.0000,36.33,21.93,10.28,3,S02
5840,-4.47237,0.28970,-1.20428,53.8415,47.9268,47.9878,33.39,24.13,10.83,3,S02
5860,-4.07733,0.50278,-0.77333,50.2439,47.5610,40.9756,33.39,24.13,10.83,3,S02
5880,-4.28323,0.34955,-0.49799,48.9024,37.9268,28.3537,33.39,24.13,10.83,3,S02
5900,-4.86981,0.13408,-0.17478,49.0854,21.7683,13.3537,33.39,24.13,10.83,3,S02
5920,-5.35822,-0.13408,-0.30885,48.9024,1.8293,-0.9756,32.57,23.94,12.29,3,S02
5940,-6.36618,0.07901,-0.58897,40.7317,-15.5488,-11.5244,32.57,23.94,12.29,3,S02
5960,-7.30710,0.94810,-0.68714,22.4390,-31.9512,-13.7805,32.57,23.94,12.29,3,S02
5980,-8.59997,1.64482,-0.21069,6.5244,-40.1220,-13.9634,32.94,22.20,13.76,3,S02
6000,-10.83137,2.04944,0.67038,-3.5366,-29.5732,-12.1951,32.94,22.20,13.76,3,S02
6020,-12.63181,1.98958,2.22900,-12.7439,-18.1098,-2.3171,32.94,22.20,13.76,3,S02
6040,-13.02446,1.60890,3.60327,-14.0244,-18.2927,10.8537,32.02,22.20,13.85,3,S02
6060,-12.60547,1.68312,4.57293,-13.9024,-20.6707,22.0732,32.02,22.20,13.85,3,S02
6080,-11.16177,1.58496,4.03662,-11.0366,-14.9390,33.1707,32.02,22.20,13.85,3,S02
6100,-9.56244,0.65122,3.18908,-2.0122,2.9878,37.8659,32.02,22.20,13.85,3,S02
6120,-9.40682,-0.28970,0.21548,12.4390,19.0854,29.4512,30.37,22.66,13.49,3,S02
6140,-11.24078,0.45490,-2.60489,16.1585,40.1829,18.2317,30.37,22.66,13.49,3,S02
6160,-12.25831,-0.07422,-0.28012,19.3293,48.2927,15.0610,30.37,22.66,13.49,3,S02
6180,-10.18972,-0.99599,-0.67038,24.5122,-6.2195,17.5000,29.36,22.11,14.22,3,S02
6200,-7.97030,-0.27294,-3.29682,16.5854,-34.9390,12.3171,29.36,22.11,14.22,3,S02
6220,-9.64624,2.31998,-1.80762,5.5488,-12.1341,1.0976,29.36,22.11,14.22,3,S02
6240,-11.75314,3.63679,-1.66636,-14.5122,-17.3780,-1.4634,29.82,21.19,13.49,3,S02
6260,-12.99812,2.68869,-1.86987,-35.8537,-16.5854,0.8537,29.82,21.19,13.49,3,S02
6280,-13.48654,0.52672,-0.53870,-48.9634,-12.9878,-0.6707,29.82,21.19,13.49,3,S02
6300,-14.15452,-1.73340,2.02549,-52.4390,-32.8659,-10.6707,29.82,21.19,13.49,3,S02
6320,-14.42506,-3.49314,4.28323,-38.8415,-43.3537,-20.9146,31.38,18.99,13.12,3,S02
6340,-14.48971,-4.01986,4.48673,-12.6829,-32.9878,-31.6463,31.38,18.99,13.12,3,S02
6360,-14.46577,-2.92093,3.84988,14.7561,-14.6951,-43.6585,31.38,18.99,13.12,3,S02
6380,-14.28860,-1.74058,2.29604,34.8780,-9.0244,-57.3781,32.20,16.42,13.76,3,S02
6400,-12.32296,-1.30005,1.27132,43.4146,-2.9878,-63.7805,32.20,16.42,13.76,3,S02
6420,-9.70849,-0.87867,0.43335,45.4268,9.3902,-60.7317,32.20,16.42,13.76,3,S02
6440,-6.33266,-0.16520,-0.03352,39.7561,9.4512,-52.6220,33.03,15.14,13.67,3,S02
6460,-4.43406,0.75417,0.15562,32.0122,-6.2195,-44.3293,33.03,15.14,13.67,3,S02
6480,-3.22978,1.11570,0.46687,26.5244,-25.0000,-32.1951,33.03,15.14,13.67,3,S02
6500,-1.30245,0.82839,-0.67516,23.2317,-35.9146,-13.3537,33.03,15.14,13.67,3,S02
6520,-0.32801,0.69911,-2.47560,14.2073,-37.6220,0.9756,33.49,14.50,13.76,3,S02
6540,-0.84276,0.22027,-3.36146,-8.4756,-37.9878,10.7317,33.49,14.50,13.76,3,S02
6560,-1.56341,-1.41258,-3.00951,-24.6341,-43.3537,14.2683,33.49,14.50,13.76,3,S02
6580,-9.85932,-7.31907,-1.03190,-17.6220,-41.4634,0.3659,33.94,13.21,13.30,3,S02
6600,-19.39303,-0.01437,-1.61130,-19.4512,-42.9268,-29.2073,33.94,13.21,13.30,3,S02
6620,-18.18636,3.91452,-1.86748,-45.0610,-56.9512,18.1707,33.94,13.21,13.30,3,S02
6640,-14.07551,0.40462,0.68235,-51.5244,-48.7805,71.4024,33.58,13.58,12.48,3,S02
6660,-16.73547,-1.39343,3.45962,-51.8902,-1.5244,30.3659,33.58,13.58,12.48,3,S02
6680,-19.12249,-0.46208,3.07655,-36.6463,22.0732,2.0122,33.58,13.58,12.48,3,S02
6700,-16.46493,0.45250,1.98719,-26.1585,30.3659,19.5122,33.58,13.58,12.48,3,S02
6720,-13.42429,1.50116,0.93613,-26.8902,30.9756,48.7195,34.13,14.86,10.37,3,S02
6740,-10.48900,2.37265,0.21787,-26.7683,31.5244,66.2195,34.13,14.86,10.37,3,S02
6760,-7.56089,1.84354,0.11732,-23.5976,28.7805,64.8171,34.13,14.86,10.37,3,S02
6780,-5.77003,0.64883,0.93853,-25.4268,15.6707,48.3537,33.76,17.80,8.81,3,S02
6800,-3.48356,-0.42856,1.62566,-26.8902,1.6463,36.7683,33.76,17.80,8.81,3,S02
6820,-1.03908,-1.77171,0.84036,-22.8049,-3.7805,38.1707,33.76,17.80,8.81,3,S02
6840,-0.53391,-2.49476,0.45729,-17.5610,1.4024,26.0366,34.22,18.53,8.26,3,S02
6860,-1.35991,-1.58736,-0.08619,-12.6220,-5.0000,0.4268,34.22,18.53,8.26,3,S02
6880,-1.55863,-1.02711,-2.07577,-9.1463,-23.5976,-6.2195,34.22,18.53,8.26,3,S02
6900,-2.69108,-1.05824,-3.35428,-2.2561,-25.5488,-4.5732,34.22,18.53,8.26,3,S02
6920,-6.31830,-1.18034,-4.90811,-3.3537,-18.5976,3.7805,35.05,17.89,9.08,3,S02
6940,-16.12016,2.43730,-5.27682,-35.0000,7.6220,23.8415,35.05,17.89,9.08,3,S02
6960,-20.05144,-1.95846,2.03268,-25.6098,27.7439,64.8171,35.05,17.89,9.08,3,S02
6980,-18.61252,-3.50751,0.69432,1.2195,-28.1098,75.7927,33.39,20.73,8.62,3,S02
7000,-17.47767,-0.13647,-0.19632,11.6463,-28.1098,51.0366,33.39,20.73,8.62,3,S02
7020,-17.38190,4.29999,0.49081,4.1463,-19.3293,-5.8537,33.39,20.73,8.62,3,S02
7040,-16.22551,4.27365,1.41018,-11.7683,-11.2195,-31.2805,34.50,19.08,8.44,3,S02
7060,-13.04601,1.22344,1.29047,-19.6951,-5.3049,-35.4268,34.50,19.08,8.44,3,S02
7080,-9.61033,-1.30005,0.75896,-11.5244,7.8659,-45.9146,34.50,19.08,8.44,3,S02
7100,-7.43400,-2.50194,0.16999,-7.3171,16.5854,-61.7683,34.50,19.08,8.44,3,S02
7120,-7.16824,-1.79565,0.37828,-7.0122,20.0000,-67.8049,35.60,17.25,8.07,3,S02
7140,-6.96713,-0.65122,1.28808,-3.3537,17.1951,-52.7439,35.60,17.25,8.07,3,S02
7160,-5.42287,-0.37828,1.55384,1.3415,8.7195,-31.0366,35.60,17.25,8.07,3,S02
7180,-3.93607,-0.17957,1.24259,1.5244,0.9146,-18.1098,35.78,17.71,8.53,3,S02
7200,-3.29203,0.35195,0.64643,-6.5244,-12.1951,-13.7805,35.78,17.71,8.53,3,S02
7220,-4.02226,1.21147,0.24421,-20.3659,-26.8902,-13.6585,35.78,17.71,8.53,3,S02
7240,-4.49392,0.50278,-0.86670,-20.9756,-26.4024,-6.6463,36.24,17.98,8.72,3,S02
7260,-4.74770,-0.99599,-1.13006,-13.6585,-17.8049,3.1098,36.24,17.98,8.72,3,S02
7280,-4.72376,-1.31921,-0.30885,-28.1707,-25.1829,6.7073,36.24,17.98,8.72,3,S02
7300,-5.65510,-2.02789,-0.40223,-50.6098,-43.5366,1.5244,36.24,17.98,8.72,3,S02
7320,-11.09473,-3.73256,-1.56102,-45.9146,-41.2195,-15.6098,36.79,17.06,8.72,3,S02
7340,-19.39782,-2.07817,-0.10774,-36.8902,-21.9512,-35.3659,36.79,17.06,8.72,3,S02
7360,-22.20861,1.24259,2.47082,-56.2805,-33.6585,-12.6220,36.79,17.06,8.72,3,S02
7380,-17.23825,-0.09816,0.84276,-43.4756,-55.1829,23.2317,36.88,17.61,8.44,3,S02
7400,-15.42345,-2.56180,1.59693,-28.7195,-30.3659,24.1463,36.88,17.61,8.44,3,S02
7420,-16.66364,-2.25055,2.05901,-13.3537,5.5488,13.2927,36.88,17.61,8.44,3,S02
7440,-14.58308,-0.86191,1.16837,9.6951,19.2073,21.2805,35.78,19.63,8.62,3,S02
7460,-10.76433,-0.13168,0.17478,26.0976,25.9146,38.5976,35.78,19.63,8.62,3,S02
7480,-7.46991,0.41659,-0.97205,33.7805,36.1585,51.5244,35.78,19.63,8.62,3,S02
7500,-5.40371,0.78530,-1.58257,35.6707,48.6585,53.8415,35.78,19.63,8.62,3,S02
7520,-4.51546,1.19231,-1.43652,29.6951,57.1341,44.8171,33.76,22.39,8.62,3,S02
7540,-4.18985,0.91219,-0.58419,18.4146,57.3171,31.2805,33.76,22.39,8.62,3,S02
7560,-4.30956,0.33998,0.46687,9.7561,49.5122,15.0000,33.76,22.39,8.62,3,S02
7580,-4.63517,0.07901,0.72544,2.8659,34.3293,-0.9146,34.04,22.57,7.98,3,S02
7600,-5.37259,0.27294,0.91698,-4.7561,17.9268,-12.1341,34.04,22.57,7.98,3,S02
7620,-5.93523,0.61292,1.52989,-12.0122,1.2805,-15.5488,34.04,22.57,7.98,3,S02
7640,-6.34224,0.20351,2.69108,-11.7073,-14.6341,-11.5854,34.50,22.11,9.08,3,S02
7660,-7.61835,-0.50278,3.24414,1.0976,-20.9146,-5.2439,34.50,22.11,9.08,3,S02
7680,-9.35415,-0.05986,4.14915,15.4878,-11.2195,2.6220,34.50,22.11,9.08,3,S02
7700,-10.13466,1.10133,5.30316,23.1707,-2.1951,14.3293,34.50,22.11,9.08,3,S02
7720,-8.82742,1.56820,4.69264,29.7561,-0.7927,27.0122,33.03,23.39,10.73,3,S02
7740,-8.03734,0.91937,3.09091,40.1829,7.4390,32.1951,33.03,23.39,10.73,3,S02
7760,-9.61033,0.79009,-0.34716,50.6098,27.6829,29.1463,33.03,23.39,10.73,3,S02
7780,-12.10508,2.37984,-3.10049,42.7439,49.5732,28.0488,31.28,24.95,10.73,3,S02
7800,-12.67969,2.14999,-0.34955,30.0610,43.7805,31.0976,31.28,24.95,10.73,3,S02
7820,-11.28866,-0.39025,-0.72305,23.8415,-17.5000,26.7683,31.28,24.95,10.73,3,S02
7840,-11.11867,-1.54905,-0.84755,25.7927,-31.2195,12.9268,30.73,24.22,13.30,3,S02
7860,-12.68927,0.44053,-0.72544,26.0366,-18.0488,1.6463,30.73,24.22,13.30,3,S02
7880,-13.68286,1.86029,-0.45969,16.5244,-10.7317,-0.3049,30.73,24.22,13.30,3,S02
7900,-14.78180,1.08936,1.00556,-2.3171,3.8415,-17.3780,30.73,24.22,13.30,3,S02
7920,-14.04918,-0.43814,2.05901,-2.6220,-0.6707,-36.7683,31.38,23.21,13.30,3,S02
7940,-12.47858,-1.89381,1.61848,5.3659,-2.3171,-53.9024,31.38,23.21,13.30,3,S02
7960,-11.85130,-1.92494,1.40779,12.9878,7.4390,-63.2317,31.38,23.21,13.30,3,S02
7980,-11.33176,-1.26893,1.73340,19.1463,15.7317,-59.8781,32.75,20.83,13.49,3,S02
8000,-10.01255,-0.73981,1.77650,22.5610,15.9756,-50.2439,32.75,20.83,13.49,3,S02
8020,-8.03734,-0.04788,1.71664,18.9024,10.6707,-42.4390,32.75,20.83,13.49,3,S02
8040,-6.31351,0.54348,1.72861,14.0244,-4.6951,-35.9146,33.39,19.17,14.04,3,S02
8060,-5.37738,0.53151,2.11887,14.0854,-27.1341,-28.0488,33.39,19.17,14.04,3,S02
8080,-3.48835,0.24900,1.44610,18.6585,-45.3049,-16.5854,33.39,19.17,14.04,3,S02
8100,-1.05824,0.14365,-0.92656,19.7561,-47.0122,-2.9878,33.39,19.17,14.04,3,S02
8120,0.06943,-0.38547,-3.08613,14.8171,-29.3902,7.3780,33.67,18.44,16.06,3,S02
8140,-1.15879,-0.75178,-2.24337,4.6341,-7.5000,3.7195,33.67,18.44,16.06,3,S02
8160,-3.58651,-1.68312,-1.25217,-7.3171,-5.9146,-3.8415,33.67,18.44,16.06,3,S02
8180,-9.75877,-3.13401,-0.51715,-7.5610,-14.0244,-7.7439,32.75,19.17,17.89,3,S02
8200,-16.32846,0.03591,-1.82438,-13.1098,-22.1341,-3.6585,32.75,19.17,17.89,3,S02
8220,-17.55668,1.56102,1.45807,-38.1707,-20.0000,23.8415,32.75,19.17,17.89,3,S02
8240,-14.79856,-0.91698,0.98402,-30.9756,-27.3780,35.6098,30.73,18.26,17.06,3,S02
8260,-15.55992,-2.02549,2.81558,-12.3171,14.1463,1.8293,30.73,18.26,17.06,3,S02
8280,-17.05869,-0.38786,2.48039,4.3293,39.6951,-15.3659,30.73,18.26,17.06,3,S02
8300,-16.06749,1.21386,1.46765,8.7805,55.7927,1.2195,30.73,18.26,17.06,3,S02
8320,-13.64456,1.88184,0.53630,0.2439,54.6341,30.1829,30.37,19.91,14.95,3,S02
8340,-10.98939,2.54025,-0.03352,-11.9512,50.3049,46.9512,30.37,19.91,14.95,3,S02
8360,-9.03811,2.57137,-0.09337,-18.9634,46.7073,43.1098,30.37,19.91,14.95,3,S02
8380,-7.82425,1.76932,0.64643,-23.2927,35.3049,27.1951,29.91,21.38,13.12,3,S02
8400,-6.57687,0.60094,1.59214,-26.4634,15.4878,15.6098,29.91,21.38,13.12,3,S02
8420,-4.52504,-0.22505,1.62327,-30.4268,-9.6341,13.2317,29.91,21.38,13.12,3,S02
8440,-2.50434,-0.33279,0.96007,-40.1220,-34.7561,15.1220,29.63,20.55,13.30,3,S02
8460,-1.15879,-1.29287,-0.23942,-38.1098,-39.5732,17.2561,29.63,20.55,13.30,3,S02
8480,-1.19950,-0.68953,-1.67115,-25.2439,-30.8537,5.3049,29.63,20.55,13.30,3,S02
8500,-2.21464,0.23703,-2.72221,-16.7073,-25.6707,-2.7439,29.63,20.55,13.30,3,S02
8520,-4.96079,0.47166,-4.19943,-14.3902,-21.2195,-2.5610,29.63,19.54,14.04,3,S02
8540,-11.63821,1.03669,-3.97677,-27.6220,-6.5854,9.3293,29.63,19.54,14.04,3,S02
8560,-15.08826,-1.88424,1.64482,-26.0976,-10.1829,37.1951,29.63,19.54,14.04,3,S02
8580,-12.79940,-3.49075,0.39983,-14.8171,-57.9268,49.4512,29.08,19.54,15.32,3,S02
8600,-13.05558,-0.68474,0.98402,9.3293,-44.0244,28.2927,29.08,19.54,15.32,3,S02
8620,-16.02200,2.45645,2.68390,15.3049,-23.7195,-1.4024,29.08,19.54,15.32,3,S02
8640,-18.05707,2.71263,3.92889,11.0976,-1.2195,-15.3659,30.37,18.44,15.69,3,S02
8660,-17.29092,1.79565,3.66073,12.7439,11.5854,-28.0488,30.37,18.44,15.69,3,S02
8680,-14.66448,0.52672,2.78446,20.0610,13.5366,-50.8537,30.37,18.44,15.69,3,S02
8700,-12.29662,-1.22344,2.03747,23.7195,13.2317,-70.1220,30.37,18.44,15.69,3,S02
8720,-11.16656,-2.16436,1.70228,24.3293,20.9756,-78.5366,33.67,15.96,15.05,3,S02
8740,-9.79947,-1.69270,1.63045,22.9268,27.6829,-68.9024,33.67,15.96,15.05,3,S02
8760,-7.78355,-0.93134,1.32399,19.4512,17.0732,-50.6098,33.67,15.96,15.05,3,S02
8780,-5.82749,-0.67277,1.42455,19.0854,-1.8902,-33.5976,34.13,15.23,15.32,3,S02
8800,-4.29280,-0.73263,1.95846,23.5976,-24.2073,-20.9756,34.13,15.23,15.32,3,S02
8820,-1.77889,-0.69432,1.17555,30.0000,-44.3293,-7.2561,34.13,15.23,15.32,3,S02
8840,0.04070,-1.59454,-1.96085,38.7805,-54.2683,5.6098,32.94,14.77,18.17,3,S02
8860,-1.22344,-2.13563,-2.93290,43.1707,-44.7561,7.1951,32.94,14.77,18.17,3,S02
8880,-2.97360,-1.75495,-2.92093,31.7073,-43.5976,4.2073,32.94,14.77,18.17,3,S02
8900,-6.89530,-3.56497,-2.23379,18.0488,-51.8902,1.7073,32.94,14.77,18.17,3,S02
8920,-15.60780,1.32399,-2.10690,10.7317,-45.2439,-11.2195,31.19,12.20,20.00,3,S02
8940,-18.42578,6.33506,0.18435,-32.4390,-38.2317,15.5488,31.19,12.20,20.00,3,S02
8960,-15.08347,3.45962,1.45328,-56.7073,-47.4390,60.0000,31.19,12.20,20.00,3,S02
8980,-14.00847,-0.93853,3.50032,-64.5732,-35.8537,44.9390,31.65,12.57,17.61,3,S02
9000,-15.87835,-2.48758,5.06134,-46.5854,-0.6707,15.7927,31.65,12.57,17.61,3,S02
9020,-15.84004,-1.69031,4.22816,-18.4756,22.8049,10.0610,31.65,12.57,17.61,3,S02
9040,-13.45063,-0.59376,2.86107,1.0366,39.0854,27.4390,30.46,14.77,16.33,3,S02
9060,-10.52730,0.98402,1.31681,9.5732,51.8293,41.7073,30.46,14.77,16.33,3,S02
9080,-9.59596,2.95444,0.46687,4.6341,62.3781,37.8049,30.46,14.77,16.33,3,S02
9100,-9.37330,4.02465,0.34955,-5.1220,62.8659,26.7683,30.46,14.77,16.33,3,S02
9120,-7.74524,3.28245,0.64883,-18.1707,42.0732,23.8415,30.73,16.33,14.50,3,S02
9140,-4.97515,1.48201,0.17478,-29.6951,14.8171,26.2805,30.73,16.33,14.50,3,S02
9160,-2.96642,-0.05028,-0.13408,-31.8293,4.3293,24.3293,30.73,16.33,14.50,3,S02
9180,-1.74058,-1.27611,-0.56503,-25.6098,-5.4878,18.9024,31.19,16.15,14.40,3,S02
9200,-1.15161,-1.60890,-2.05423,-13.8415,-15.4268,9.2683,31.19,16.15,14.40,3,S02
9220,-2.20506,0.21548,-2.99754,-13.7805,-7.6829,-8.7195,31.19,16.15,14.40,3,S02
9240,-5.89931,-0.95050,-2.63602,-9.2073,-14.8780,-3.0488,31.65,15.41,14.68,3,S02
9260,-13.62301,-1.57538,0.13886,-19.9390,-16.6463,11.4634,31.65,15.41,14.68,3,S02
9280,-17.59020,-4.11324,3.50272,-5.1829,-16.4634,42.4390,31.65,15.41,14.68,3,S02
9300,-17.45852,-2.87783,2.08056,11.0366,-40.3659,64.0244,31.65,15.41,14.68,3,S02
9320,-15.84722,2.14520,0.68474,17.9268,-30.9146,58.0488,30.09,16.51,16.51,3,S02
9340,-15.09784,4.98473,1.32878,6.1585,-10.8537,12.9878,30.09,16.51,16.51,3,S02
9360,-15.33007,3.42371,3.06458,-9.6341,-0.6098,-27.1341,30.09,16.51,16.51,3,S02
9380,-14.93264,0.17478,4.10606,-12.0122,11.7073,-46.9512,33.21,14.59,15.60,3,S02
9400,-12.68209,-2.75094,3.77326,8.1098,26.6463,-53.5366,33.21,14.59,15.60,3,S02
9420,-10.40759,-3.60806,2.60250,27.0732,30.9146,-61.5244,33.21,14.59,15.60,3,S02
9440,-10.07959,-1.89621,1.43173,33.4756,37.0732,-66.7073,34.40,12.48,15.23,3,S02
9460,-8.86094,-0.13408,1.12767,32.2561,40.3049,-54.6341,34.40,12.48,15.23,3,S02
9480,-7.09641,0.70390,1.18992,27.5000,27.2561,-42.1341,34.40,12.48,15.23,3,S02
9500,-5.94959,0.38068,1.77171,22.8049,5.2439,-34.5122,34.40,12.48,15.23,3,S02
9520,-4.49870,-0.52433,2.27928,21.8293,-21.4634,-26.2195,34.77,11.38,15.96,3,S02
9540,-2.44927,-0.73741,0.59855,24.1463,-41.7683,-17.4390,34.77,11.38,15.96,3,S02
9560,-1.08218,-0.84994,-2.62165,24.8171,-38.5366,-5.0610,34.77,11.38,15.96,3,S02
9580,-1.34075,-1.50835,-2.98078,20.6707,-19.3293,5.9756,34.59,11.10,17.61,3,S02
9600,-2.48279,-2.07817,-1.85072,9.2073,-10.6707,5.3659,34.59,11.10,17.61,3,S02
9620,-7.23049,-3.14119,-0.21787,-3.2317,-13.2927,-4.0244,34.59,11.10,17.61,3,S02
9640,-16.80969,1.44131,-2.14760,-11.8902,-31.5244,-18.3537,34.68,9.91,18.72,3,S02
9660,-19.02433,3.98874,0.81882,-40.8537,-35.9756,-8.4756,34.68,9.91,18.72,3,S02
9680,-16.03876,2.15718,0.28012,-51.7683,-64.8781,27.7439,34.68,9.91,18.72,3,S02
9700,-13.18966,-2.61926,2.45885,-57.9268,-44.3902,34.7561,34.68,9.91,18.72,3,S02
9720,-15.76582,-4.07972,4.58490,-37.8659,6.5244,7.5610,33.85,9.91,17.52,3,S02
9740,-17.15924,-2.05423,4.11324,-6.1585,29.5732,2.7439,33.85,9.91,17.52,3,S02
9760,-14.45619,-0.34955,2.40138,16.5244,40.9146,28.9024,33.85,9.91,17.52,3,S02
9780,-10.88165,1.20428,0.84515,28.1098,51.7073,53.7195,32.94,13.03,16.97,3,S02
9800,-8.11874,1.89142,0.35434,29.3902,59.6951,62.6829,32.94,13.03,16.97,3,S02
9820,-6.91924,2.00634,-0.04310,27.6829,54.3902,50.6707,32.94,13.03,16.97,3,S02
9840,-6.17943,1.73340,0.44053,23.2927,43.0488,30.3049,31.93,14.59,16.97,3,S02
9860,-4.99430,0.80924,0.90980,21.7073,27.4390,12.9878,31.93,14.59,16.97,3,S02
9880,-3.92170,0.35913,0.60813,20.4878,10.0610,1.9512,31.93,14.59,16.97,3,S02
9900,-3.45244,0.29449,0.70629,13.7195,-5.0610,-1.7073,31.93,14.59,16.97,3,S02
9920,-3.67271,0.12450,0.74460,5.8537,-21.0976,-3.4146,32.11,13.30,17.98,3,S02
9940,-3.99353,1.08697,-1.09654,-1.7683,-28.5976,-7.4390,32.11,13.30,17.98,3,S02
9960,-4.22577,1.27850,-1.90818,-8.1707,-23.9634,-7.6829,32.11,13.30,17.98,3,S02
9980,-4.53222,0.16281,-0.42856,2.8049,-24.0244,-2.4390,32.11,12.39,18.81,3,S02
10000,-6.41885,-2.21464,-0.57461,20.0610,-32.8049,6.0976,32.11,12.39,18.81,3,S02
10020,-14.24071,-1.50356,-2.32716,22.1341,-19.2073,15.3049,32.11,12.39,18.81,3,S02
10040,-19.76653,-1.01754,-0.10534,39.7561,24.5732,41.2195,29.72,14.40,20.37,3,S02
10060,-19.40022,0.53630,-0.35913,46.4634,0.5488,58.9024,29.72,14.40,20.37,3,S02
10080,-16.86236,3.03824,-2.12845,40.6707,-25.9756,52.4390,29.72,14.40,20.37,3,S02
10100,-15.60780,5.38456,-1.49877,21.2195,-2.5610,23.7195,29.72,14.40,20.37,3,S02
10120,-14.07551,4.58729,-0.74939,-11.2195,6.4024,-8.4146,30.92,13.85,20.37,3,S02
10140,-11.84412,1.83396,-0.09577,-33.0488,12.9268,-35.3659,30.92,13.85,20.37,3,S02
10160,-8.78433,-1.07739,0.50039,-35.0610,28.1707,-58.1098,30.92,13.85,20.37,3,S02
10180,-5.73172,-3.43089,-0.00718,-28.2927,36.3415,-75.8537,33.85,11.28,17.89,3,S02
10200,-4.83868,-3.44765,-0.41899,-25.3049,38.5976,-88.0488,33.85,11.28,17.89,3,S02
10220,-5.40850,-1.65679,0.18675,-20.3659,49.5732,-78.9024,33.85,11.28,17.89,3,S02
10240,-5.98072,-0.11013,0.24181,-13.9024,48.3537,-56.3415,34.50,10.83,16.42,3,S02
10260,-6.33027,0.39025,0.47645,-13.7195,30.1829,-36.4024,34.50,10.83,16.42,3,S02
10280,-6.39731,-0.14365,1.16598,-16.0366,7.8659,-22.6220,34.50,10.83,16.42,3,S02
10300,-6.96473,-0.30646,1.94170,-21.1585,-15.0000,-15.3659,34.50,10.83,16.42,3,S02
10320,-7.50822,-0.06464,2.52109,-26.2195,-30.3049,-10.1220,34.95,10.46,16.33,3,S02
10340,-7.47949,0.15323,3.03824,-30.0610,-34.6951,-3.1707,34.95,10.46,16.33,3,S02
10360,-7.75961,-0.97923,3.45723,-28.3537,-27.8659,3.8415,34.95,10.46,16.33,3,S02
10380,-8.33422,-2.32477,3.77805,-15.0610,-21.0976,8.7805,34.86,11.19,16.61,3,S02
10400,-9.16261,-2.28886,4.03184,-5.1829,-17.0122,11.3415,34.86,11.19,16.61,3,S02
10420,-9.67976,-0.45729,3.69665,-3.1098,-6.2805,-3.5976,34.86,11.19,16.61,3,S02
10440,-10.00297,0.22745,1.19710,-3.4756,1.6463,-23.4146,36.15,9.63,16.33,3,S02
10460,-11.02530,-0.50996,-0.04310,-3.3537,3.7805,-39.7561,36.15,9.63,16.33,3,S02
10480,-11.44189,-1.16119,0.03112,-9.6951,-7.5000,-48.9634,36.15,9.63,16.33,3,S02
10500,-11.36288,-2.89220,-0.96486,-14.0854,-16.7683,-38.5976,36.15,9.63,16.33,3,S02
10520,-12.10269,-3.47638,-1.27850,-12.5610,-15.4268,-18.0488,36.70,10.55,20.55,3,S02
10540,-12.83771,-1.81241,-0.07183,8.4756,0.1220,7.1951,36.70,10.55,20.55,3,S02
10560,-13.61104,-1.29287,0.16041,15.2439,4.3902,9.7561,36.70,10.55,20.55,3,S02
10580,-14.43704,-0.55306,0.24900,16.2195,6.4634,15.0610,33.21,10.18,18.90,3,S02
10600,-14.27184,0.39983,0.33279,11.8293,12.2561,25.3659,33.21,10.18,18.90,3,S02
10620,-13.27585,1.57060,-0.12450,4.2073,19.4512,36.7683,33.21,10.18,18.90,3,S02
10640,-11.83693,2.09493,-0.30885,-4.1463,30.4268,48.1707,33.30,12.66,18.26,3,S02
10660,-10.64941,2.30801,-0.32322,-12.2561,36.8293,51.5854,33.30,12.66,18.26,3,S02
10680,-9.77792,2.38223,-0.21548,-24.0854,36.1585,45.2439,33.30,12.66,18.26,3,S02
10700,-8.59997,1.73819,0.03352,-30.9146,33.7195,34.5122,33.30,12.66,18.26,3,S02
10720,-7.40048,0.56982,0.41899,-28.2927,27.1951,24.5122,33.49,14.31,16.70,3,S02
10740,-6.42604,-0.30406,1.19231,-23.4756,17.6220,16.0976,33.49,14.31,16.70,3,S02
10760,-5.10923,-0.77812,1.83156,-19.0244,4.7561,13.1098,33.49,14.31,16.70,3,S02
10780,-3.93367,-0.22505,1.88184,-18.4756,-13.4146,13.1707,33.49,14.31,16.70,3,S02
10800,-2.93529,0.54348,1.34075,-24.8780,-32.1951,14.5732,33.49,14.31,16.70,3,S02
10820,-1.56102,0.20590,-0.21069,-20.7927,-38.9024,15.4878,33.49,14.31,16.70,3,S02
10840,-0.83558,-0.34716,-2.00874,-4.6341,-33.9024,9.8780,33.21,13.94,17.61,3,S02
10860,-1.27372,-0.58897,-2.68390,4.4512,-30.6707,1.5244,33.21,13.94,17.61,3,S02
10880,-5.41090,-0.60573,-4.26647,1.3415,-26.4024,-3.5366,33.21,13.94,17.61,3,S02
10900,-14.64533,1.83156,-3.34709,-20.0000,-7.5000,5.4268,33.21,13.94,17.61,3,S02
10920,-17.16164,-1.43652,1.36709,-6.3415,-5.7317,45.9146,32.84,14.68,17.80,3,S02
10940,-16.56788,-2.92811,-0.13408,10.9146,-39.0854,64.1463,32.84,14.68,17.80,3,S02
10960,-16.21114,0.87628,-0.67995,19.0244,-34.0244,50.2439,32.84,14.68,17.80,3,S02
10980,-15.87595,4.05817,0.32561,11.7073,-26.2805,13.3537,32.11,14.68,19.63,3,S02
11000,-16.18241,2.36068,1.82678,0.6707,-15.7927,-13.4756,32.11,14.68,19.63,3,S02
11020,-15.50006,-0.27533,2.82276,2.3780,-2.8049,-26.5854,32.11,14.68,19.63,3,S02
11040,-13.07234,-1.69509,2.29843,14.6951,6.9512,-34.6951,33.39,13.58,19.45,3,S02
11060,-10.32140,-2.21224,1.17076,24.0244,10.0610,-45.9756,33.39,13.58,19.45,3,S02
11080,-9.60075,-1.36709,1.07979,28.7195,13.4146,-59.0244,33.39,13.58,19.45,3,S02
11100,-8.98783,-0.33040,1.51553,29.9390,14.8171,-58.0488,33.39,13.58,19.45,3,S02
11120,-7.45794,0.18914,1.66876,27.1951,10.7927,-47.1341,33.76,11.83,19.36,3,S02
11140,-6.12437,0.02394,1.67594,24.1463,1.4634,-34.7561,33.76,11.83,19.36,3,S02
11160,-4.83629,-0.16281,2.03507,20.1220,-13.2317,-25.4878,33.76,11.83,19.36,3,S02
11180,-3.41413,-0.00239,1.30484,17.6829,-29.0244,-17.9878,33.39,11.10,20.09,3,S02
11200,-2.14760,-0.75896,-0.71587,15.5488,-34.8780,-7.3171,33.39,11.10,20.09,3,S02
11220,-1.90100,-1.58736,-1.72143,17.1341,-22.5000,-0.1220,33.39,11.10,20.09,3,S02
11240,-2.82516,-2.52588,-1.93452,11.6463,-10.0000,-1.3415,33.12,11.65,20.37,3,S02
11260,-8.77714,-2.73418,-0.16999,3.1707,-1.7073,-11.7073,33.12,11.65,20.37,3,S02
11280,-16.46971,1.68312,-0.48602,-2.1951,-21.0976,-21.1585,33.12,11.65,20.37,3,S02
11300,-17.25741,3.79242,0.52912,-21.3415,-43.8415,-2.5610,33.12,11.65,20.37,3,S02
11320,-13.76187,1.11570,-0.21069,-24.3902,-61.8902,21.3415,32.39,12.11,22.84,3,S02
11340,-12.72758,-2.40378,0.83558,-23.5366,-32.9878,16.7683,32.39,12.11,22.84,3,S02
11360,-14.95179,-3.06458,2.49715,-7.1341,12.0122,0.0610,32.39,12.11,22.84,3,S02
11380,-15.30134,-1.37188,1.92254,18.2317,29.8780,0.4878,30.55,12.48,22.39,3,S02
11400,-12.69166,0.03352,0.89783,31.5244,34.5732,18.5976,30.55,12.48,22.39,3,S02
11420,-10.00776,1.02951,-0.29928,36.9512,37.9268,32.3171,30.55,12.48,22.39,3,S02
11440,-8.42759,1.70228,-0.91698,36.4024,49.2683,33.7195,29.45,15.23,21.93,3,S02
11460,-7.27119,1.83396,-1.08218,28.4756,57.5000,26.0366,29.45,15.23,21.93,3,S02
11480,-6.52181,1.40779,-0.87149,19.4512,54.7561,14.8780,29.45,15.23,21.93,3,S02
11500,-6.24408,0.62249,0.03591,12.5610,44.7561,6.7073,29.45,15.23,21.93,3,S02
11520,-6.16986,-0.01437,1.10133,8.8415,25.6098,5.3659,28.99,15.87,21.65,3,S02
11540,-5.70778,0.11971,1.61130,8.9634,0.6098,9.8780,28.99,15.87,21.65,3,S02
11560,-4.77883,0.33279,1.04148,4.5122,-18.4146,17.9878,28.99,15.87,21.65,3,S02
11580,-4.64715,0.49799,0.04310,-0.6707,-20.1220,23.7805,28.26,15.60,22.39,3,S02
11600,-4.47476,1.09176,-1.07021,-5.9756,-15.4268,26.6463,28.26,15.60,22.39,3,S02
11620,-5.61919,1.31921,-2.76770,-12.8659,-12.9878,30.0000,28.26,15.60,22.39,3,S02
11640,-9.92157,1.82199,-4.46040,-19.8171,2.9878,37.8659,27.25,17.61,21.74,3,S02
11660,-13.98932,-1.47483,2.18830,-4.1463,24.2683,52.0732,27.25,17.61,21.74,3,S02
11680,-14.33648,-4.31435,1.12767,24.1463,-26.5244,53.5366,27.25,17.61,21.74,3,S02
11700,-15.14333,-1.11091,-0.06943,40.6098,-37.6829,36.5244,27.25,17.61,21.74,3,S02
11720,-14.70758,1.69988,-1.18034,52.5610,-25.0610,20.9756,25.41,16.88,24.31,3,S02
11740,-15.19360,2.74854,-0.50278,37.4390,-14.5732,2.3780,25.41,16.88,24.31,3,S02
11760,-15.61977,1.77650,0.37589,18.9024,-8.9634,-15.3049,25.41,16.88,24.31,3,S02
11780,-14.57351,0.93134,0.51715,12.5000,-6.9512,-29.0244,26.06,14.59,23.85,3,S02
11800,-12.35648,-0.17957,0.69671,14.5122,-3.6585,-38.0488,26.06,14.59,23.85,3,S02
11820,-10.17057,-1.49877,0.50518,20.1829,-1.0976,-44.5122,26.06,14.59,23.85,3,S02
11840,-9.51935,-2.10450,0.72065,24.6951,3.6585,-49.6341,25.41,13.49,24.31,3,S02
11860,-7.56807,-1.25935,0.92416,34.5122,5.5488,-35.5488,25.41,13.49,24.31,3,S02
11880,-5.81791,-1.01754,1.23541,36.5244,1.8293,-23.3537,25.41,13.49,24.31,3,S02
11900,-4.10127,-0.65601,1.25456,36.7073,-1.1585,-16.0366,25.41,13.49,24.31,3,S02
11920,-3.15077,0.03352,1.04148,33.5366,-0.7317,-12.5610,24.50,13.67,24.77,3,S02
11940,-3.53384,0.88585,0.88825,23.7195,-6.0976,-10.1220,24.50,13.67,24.77,3,S02
11960,-3.78284,0.67756,0.16281,11.0366,-19.0244,-3.2317,24.50,13.67,24.77,3,S02
11980,-4.54898,-1.11091,-1.30484,18.0488,-19.4512,8.2927,23.94,13.58,25.23,3,S02
12000,-5.18105,-1.58496,-1.45089,14.9390,-14.3902,18.0488,23.94,13.58,25.23,3,S02
12020,-6.78517,-2.60729,-1.00556,-6.3415,-23.2927,20.1220,23.94,13.58,25.23,3,S02
12040,-14.07791,-1.30484,-0.22505,-14.5732,-42.6220,-0.4878,24.22,12.02,26.06,3,S02
12060,-18.56703,1.30245,-2.40378,-7.5000,-53.7805,-30.9756,24.22,12.02,26.06,3,S02
12080,-17.27177,0.64643,-0.13408,-8.9024,-63.9024,-16.8293,24.22,12.02,26.06,3,S02
12100,-11.65258,-2.40378,-0.09098,-4.9390,-80.7317,16.7073,24.22,12.02,26.06,3,S02
12120,-11.18810,-4.21619,1.35033,3.5366,-42.1341,16.3415,24.77,9.82,26.88,3,S02
12140,-13.86722,-2.97360,2.34392,21.9512,-8.8415,-4.4512,24.77,9.82,26.88,3,S02
12160,-14.26944,-0.98881,1.78607,49.5732,10.4878,-8.5366,24.77,9.82,26.88,3,S02
12180,-12.17930,-0.20111,1.06542,72.8049,27.0732,5.5488,22.29,12.11,28.81,3,S02
12200,-9.80426,-0.05028,0.30167,85.8537,33.7805,21.0366,22.29,12.11,28.81,3,S02
12220,-8.42520,0.01437,-0.18675,89.3293,37.0122,27.7439,22.29,12.11,28.81,3,S02
12240,-7.99185,0.52672,-0.63207,89.9390,41.1585,23.8415,18.26,13.76,29.36,3,S02
12260,-7.64229,0.70868,-0.33758,86.1585,40.3049,14.7561,18.26,13.76,29.36,3,S02
12280,-7.21373,0.77572,0.10056,81.1585,32.4390,5.5488,18.26,13.76,29.36,3,S02
12300,-6.86418,0.89783,0.52433,74.5732,21.5244,-1.1585,18.26,13.76,29.36,3,S02
12320,-7.10360,1.29526,0.76854,63.9634,6.1585,-6.0976,15.14,13.76,29.91,3,S02
12340,-7.29992,1.97522,0.94810,49.0244,-11.2805,-7.3780,15.14,13.76,29.91,3,S02
12360,-6.95755,2.25294,1.06542,31.8293,-25.6098,-3.6585,15.14,13.76,29.91,3,S02
12380,-7.05811,2.04225,1.01275,19.8171,-30.9146,2.6220,13.85,12.39,30.92,3,S02
12400,-7.98466,2.31040,1.47243,11.0976,-28.4146,8.9024,13.85,12.39,30.92,3,S02
12420,-8.18817,1.79565,2.33674,2.5610,-25.0000,17.9878,13.85,12.39,30.92,3,S02
12440,-7.78834,-0.05267,3.31597,10.2439,-22.4390,20.6098,12.57,11.74,31.56,3,S02
12460,-8.68138,-2.72221,2.77967,38.0488,-19.0854,9.3902,12.57,11.74,31.56,3,S02
12480,-12.95024,-2.45645,-0.92895,69.1463,-10.0610,-1.0976,12.57,11.74,31.56,3,S02
12500,-13.49611,-2.44687,-0.99359,83.9024,14.3902,15.6098,12.57,11.74,31.56,3,S02
12520,-12.66054,-3.31597,0.09098,99.8781,5.6098,26.8902,7.43,12.57,32.11,3,S02
12540,-12.36366,-2.95923,-0.75417,111.0976,-14.6951,16.4024,7.43,12.57,32.11,3,S02
12560,-12.39239,-0.69192,-1.36709,109.7561,-13.4146,-2.1341,7.43,12.57,32.11,3,S02
12580,-12.40196,1.34315,-0.57461,100.3659,-10.1829,-14.2073,3.39,11.93,32.29,3,S02
12600,-11.58554,0.70390,0.13647,99.3902,-10.1220,-14.4512,3.39,11.93,32.29,3,S02
12620,-10.52730,-1.13006,0.79966,102.8049,-5.3659,-16.4024,3.39,11.93,32.29,3,S02
12640,-9.78031,-1.63285,0.57940,104.6341,0.0000,-26.0976,-0.64,11.83,31.19,3,S02
12660,-9.40442,-0.61531,0.08619,100.4268,4.1463,-36.0976,-0.64,11.83,31.19,3,S02
12680,-9.11951,0.37110,-0.05267,92.9878,6.6463,-39.3902,-0.64,11.83,31.19,3,S02
12700,-8.44435,0.61531,0.08140,87.7439,7.0122,-35.0610,-0.64,11.83,31.19,3,S02
12720,-8.04691,0.22266,0.43814,81.5244,6.8293,-28.0488,-3.85,12.20,29.45,3,S02
12740,-7.84580,-0.33758,0.82361,75.5488,6.1585,-22.5000,-3.85,12.20,29.45,3,S02
12760,-7.68778,-0.71826,1.19231,71.6463,3.7805,-21.2195,-3.85,12.20,29.45,3,S02
12780,-7.55849,-0.62249,1.21625,69.1463,1.7683,-24.0854,-6.61,12.94,27.89,3,S02
12800,-7.83862,0.09098,1.07979,63.0488,1.3415,-27.6829,-6.61,12.94,27.89,3,S02
12820,-8.02536,0.80445,0.92895,50.9756,1.3415,-27.6829,-6.61,12.94,27.89,3,S02
12840,-8.08043,1.05584,0.77093,35.1829,1.9512,-23.2927,-7.52,13.94,26.70,3,S02
12860,-8.33182,0.52433,0.84276,21.0976,5.9146,-14.1463,-7.52,13.94,26.70,3,S02
12880,-9.44752,0.28970,1.07500,11.0976,9.3293,-3.6585,-7.52,13.94,26.70,3,S02
12900,-10.09156,0.87867,1.22823,-1.2805,3.4146,6.0366,-7.52,13.94,26.70,3,S02
12920,-10.61350,1.74777,0.53391,-15.5488,-8.2317,12.4390,-7.43,14.50,26.33,3,S02
12940,-11.31979,2.42054,-1.00556,-29.9390,-17.9878,13.0488,-7.43,14.50,26.33,3,S02
12960,-10.41238,0.93853,-1.24977,-42.1341,-22.3171,12.3171,-7.43,14.50,26.33,3,S02
12980,-8.85376,-1.17555,-0.31125,-39.2683,-25.6707,12.5610,-7.34,14.40,27.89,3,S02
13000,-9.19373,-2.52588,1.23062,-32.6829,-26.9512,14.4512,-7.34,14.40,27.89,3,S02
13020,-11.08276,-3.01191,2.16675,-23.6585,-26.1585,13.4756,-7.34,14.40,27.89,3,S02
13040,-11.69807,-2.40857,1.87227,-8.5366,-17.5000,12.3780,-8.17,13.58,27.61,3,S02
13060,-11.22402,-0.69432,1.42455,8.6585,-7.8049,10.3049,-8.17,13.58,27.61,3,S02
13080,-10.79067,0.47645,0.97205,18.9634,-5.3049,5.9756,-8.17,13.58,27.61,3,S02
13100,-11.15219,0.61292,0.98162,20.7317,-1.5244,2.4390,-8.17,13.58,27.61,3,S02
13120,-11.49696,0.60334,1.12527,20.2439,4.2073,2.8659,-8.26,13.85,26.51,3,S02
13140,-11.31500,0.99359,1.11570,18.5366,6.4634,6.2195,-8.26,13.85,26.51,3,S02
13160,-11.00615,1.32878,0.97444,17.5610,6.2805,9.5122,-8.26,13.85,26.51,3,S02
13180,-10.49379,1.51074,1.05105,15.7927,4.6951,11.2195,-8.17,14.04,26.15,3,S02
13200,-9.14346,1.38864,1.45328,9.8171,2.5610,6.5854,-8.17,14.04,26.15,3,S02
13220,-8.31027,1.26653,1.84114,7.8049,-1.0366,3.5976,-8.17,14.04,26.15,3,S02
13240,-7.53934,1.18513,2.41096,4.4512,-13.0488,1.8902,-7.52,13.49,26.79,3,S02
13260,-6.34942,1.25456,2.42772,0.0000,-30.3049,5.4878,-7.52,13.49,26.79,3,S02
13280,-4.58968,0.80924,1.49877,-4.0244,-40.9146,14.2073,-7.52,13.49,26.79,3,S02
13300,-4.29999,0.58419,0.73263,3.1707,-35.3659,16.1585,-7.52,13.49,26.79,3,S02
13320,-4.60166,1.01035,-0.17717,12.2561,-27.1341,15.1220,-7.06,11.74,28.53,3,S02
13340,-4.48673,0.74460,-0.85234,15.8537,-18.4756,18.2317,-7.06,11.74,28.53,3,S02
13360,-7.55610,-0.17717,-1.24977,26.5854,-8.7805,21.8293,-7.06,11.74,28.53,3,S02
13380,-12.13860,-0.64165,-2.33674,30.7927,-5.7927,34.8780,-8.44,11.28,29.54,3,S02
13400,-12.65096,-2.14281,0.33758,36.5244,3.0488,51.1585,-8.44,11.28,29.54,3,S02
13420,-12.78983,-3.01909,1.43652,49.3902,-17.8659,39.0244,-8.44,11.28,29.54,3,S02
13440,-13.39795,-1.57060,1.40061,59.7561,-35.8537,10.0610,-10.92,10.28,30.37,3,S02
13460,-13.76905,1.08697,1.61369,62.2561,-34.3293,-13.3537,-10.92,10.28,30.37,3,S02
13480,-14.33887,2.01831,2.22182,59.5732,-24.2073,-20.7317,-10.92,10.28,30.37,3,S02
13500,-13.85525,0.79009,1.85790,60.0610,-15.0000,-22.9268,-10.92,10.28,30.37,3,S02
13520,-12.54801,-0.23942,1.24259,63.5976,-3.9634,-32.6829,-13.12,10.55,30.73,3,S02
13540,-11.25275,-0.91219,1.04148,63.5366,3.3537,-45.5488,-13.12,10.55,30.73,3,S02
13560,-10.55843,-1.00078,0.93374,62.7439,8.0488,-52.3171,-13.12,10.55,30.73,3,S02
13580,-9.79707,-0.64404,0.74220,62.5610,13.5976,-48.9634,-14.68,13.58,30.73,3,S02
13600,-8.59518,-0.26336,0.71347,61.4634,19.6341,-40.4878,-14.68,13.58,30.73,3,S02
13620,-7.20415,-0.08140,1.07021,58.1098,20.1829,-34.1463,-14.68,13.58,30.73,3,S02
13640,-6.14831,-0.19154,1.75016,55.9756,13.4146,-32.6220,-14.68,15.78,28.35,3,S02
13660,-5.98790,0.02394,2.16675,53.9634,-2.1951,-32.8659,-14.68,15.78,28.35,3,S02
13680,-5.63116,0.00958,2.13084,51.2805,-20.8537,-29.2073,-14.68,15.78,28.35,3,S02
13700,-4.62320,0.03352,1.36948,51.7683,-29.2073,-22.3780,-14.68,15.78,28.35,3,S02
13720,-3.96719,0.16759,0.10534,43.5366,-26.3415,-11.8902,-15.60,15.41,26.97,3,S02
13740,-4.42209,0.09816,-0.30885,24.8171,-17.9878,0.3659,-15.60,15.41,26.97,3,S02
13760,-5.83467,-1.41737,-1.23301,12.1341,-13.0488,9.2683,-15.60,15.41,26.97,3,S02
13780,-10.67574,-1.63763,-0.56024,11.8902,-7.6829,3.2927,-17.06,16.51,28.07,3,S02
13800,-13.94383,1.56581,1.06781,-5.0000,-22.3780,-8.0488,-17.06,16.51,28.07,3,S02
13820,-13.19445,1.75256,1.51314,-13.9024,-47.5610,3.2317,-17.06,16.51,28.07,3,S02
13840,-12.08114,-0.28970,1.08697,-2.8659,-45.1829,9.9390,-22.20,14.68,32.02,3,S02
13860,-12.48097,-2.32716,2.25294,1.0976,-16.8902,-1.8902,-22.20,14.68,32.02,3,S02
13880,-14.71476,-1.48440,3.10049,11.0366,6.4024,-13.9024,-22.20,14.68,32.02,3,S02
13900,-15.18403,0.02634,2.45406,28.4146,21.0976,-8.2927,-22.20,14.68,32.02,3,S02
13920,-13.66850,0.82361,1.59214,40.1220,27.4390,6.4634,-22.75,14.04,26.61,3,S02
13940,-11.71244,1.27850,0.76614,43.5976,29.6951,16.5854,-22.75,14.04,26.61,3,S02
13960,-10.11311,1.47962,0.13408,43.2317,36.0366,20.9146,-22.75,14.04,26.61,3,S02
13980,-8.84658,1.64960,-0.18435,39.6341,42.0732,21.0976,-23.30,14.77,24.40,3,S02
14000,-7.63032,1.64003,-0.05507,32.0732,43.4756,16.4634,-23.30,14.77,24.40,3,S02
14020,-6.96952,1.41018,0.29209,25.0000,42.3780,7.4390,-23.30,14.77,24.40,3,S02
14040,-6.40928,0.58658,0.85234,21.7073,38.5366,-2.0122,-23.67,16.24,23.12,3,S02
14060,-5.80833,-0.34955,1.19710,22.2561,29.0244,-8.7195,-23.67,16.24,23.12,3,S02
14080,-5.48990,-0.07661,1.47962,17.1951,11.6463,-9.8780,-23.67,16.24,23.12,3,S02
14100,-5.54018,0.76136,1.66876,5.7927,-8.4146,-2.1341,-23.67,16.24,23.12,3,S02
14120,-5.91128,1.06781,1.17316,-0.7317,-22.4390,10.6098,-23.85,15.14,23.67,3,S02
14140,-6.24408,1.03430,0.77333,1.4634,-23.9634,17.0732,-23.85,15.14,23.67,3,S02
14160,-7.04614,0.13168,-0.13168,10.0610,-24.6951,17.7439,-23.85,15.14,23.67,3,S02
14180,-10.94150,0.19154,-2.10450,14.5122,-30.3049,20.0610,-25.23,13.49,23.67,3,S02
14200,-12.63420,-0.57221,-0.72544,17.8659,-24.3293,37.0122,-25.23,13.49,23.67,3,S02
14220,-11.91115,-3.22260,1.62087,47.8659,-32.3171,47.0122,-25.23,13.49,23.67,3,S02
14240,-12.79940,-2.78685,-0.12450,67.0732,-63.0488,29.0244,-28.07,10.73,22.48,3,S02
14260,-13.83370,1.12049,-1.15640,70.4268,-54.8171,12.3780,-28.07,10.73,22.48,3,S02
14280,-13.88637,3.16274,-1.20907,61.8293,-37.0122,4.8171,-28.07,10.73,22.48,3,S02
14300,-13.63258,2.07577,-0.08380,44.5732,-27.6829,-7.6220,-28.07,10.73,22.48,3,S02
14320,-13.67568,0.19154,0.81163,31.8293,-28.7195,-21.7073,-27.98,10.73,22.39,3,S02
14340,-13.48654,-0.85473,1.43173,27.4390,-27.1951,-32.5000,-27.98,10.73,22.39,3,S02
14360,-11.48499,-1.67355,1.19710,34.4512,-26.3415,-38.4146,-27.98,10.73,22.39,3,S02
14380,-9.21289,-1.56820,1.39343,40.5488,-28.5976,-45.3049,-26.70,12.84,21.19,3,S02
14400,-8.20732,-0.78769,1.21147,43.9634,-22.8659,-52.9878,-26.70,12.84,21.19,3,S02
14420,-7.58004,-0.04549,1.03908,48.0488,-9.2683,-54.5122,-26.70,12.84,21.19,3,S02
14440,-6.25365,-0.05267,1.25935,50.8537,9.4512,-48.9634,-26.33,15.32,17.61,3,S02
14460,-4.60405,-0.18435,1.84354,50.2439,27.8659,-42.5610,-26.33,15.32,17.61,3,S02
14480,-4.63757,0.23703,2.60729,46.5854,53.2927,-38.2927,-26.33,15.32,17.61,3,S02
14500,-5.81073,0.53151,3.40934,40.1220,56.2805,-30.0000,-26.33,15.32,17.61,3,S02
14520,-6.26084,0.39025,3.13162,31.2805,15.9756,-17.1951,-26.70,16.42,15.87,3,S02
14540,-7.16585,-0.11492,0.81163,12.0732,-17.7439,14.6951,-26.70,16.42,15.87,3,S02
14560,-8.73644,-2.53067,-1.18992,6.4634,-19.0244,28.5366,-26.70,16.42,15.87,3,S02
14580,-12.91672,-3.79960,-3.92889,17.5000,-4.8780,20.7927,-27.98,15.69,16.33,3,S02
14600,-14.30775,0.07661,0.91459,21.7683,0.5488,-5.0000,-27.98,15.69,16.33,3,S02
14620,-11.80341,2.60489,1.57299,11.1585,-61.7073,-9.8171,-27.98,15.69,16.33,3,S02
14640,-9.10754,-0.64883,0.73741,15.9146,-71.3415,-7.6829,-28.35,14.13,16.61,3,S02
14660,-11.24557,-3.89058,2.33195,40.7927,-10.4878,-19.5732,-28.35,14.13,16.61,3,S02
14680,-14.49929,-4.27844,2.73418,63.1098,13.1707,-27.9268,-28.35,14.13,16.61,3,S02
14700,-14.29338,-2.79643,1.55623,84.3902,-3.7805,-15.4268,-28.35,14.13,16.61,3,S02
14720,-13.06755,-0.48842,0.43335,101.0976,-9.2073,-0.3049,-29.27,15.78,11.83,3,S02
14740,-11.16177,1.04627,-0.73741,107.7439,-10.7317,12.1951,-29.27,15.78,11.83,3,S02
14760,-9.62708,1.99437,-1.18992,100.7317,-11.7073,16.3415,-29.27,15.78,11.83,3,S02
14780,-8.66940,2.52828,-1.39582,84.0854,-5.9146,17.0122,-30.46,15.14,8.62,3,S02
14800,-7.41005,2.31998,-0.71587,66.0976,1.2805,16.4634,-30.46,15.14,8.62,3,S02
14820,-5.71017,1.42694,-0.01437,56.8902,1.0366,10.6707,-30.46,15.14,8.62,3,S02
14840,-4.88178,0.63686,0.42377,52.6220,10.1220,-3.9634,-30.64,15.87,6.51,3,S02
14860,-5.74608,0.13408,1.19231,54.2683,38.8415,-20.4878,-30.64,15.87,6.51,3,S02
14880,-7.43160,-0.51954,2.21703,55.6098,48.1098,-29.0854,-30.64,15.87,6.51,3,S02
14900,-8.74362,-0.77572,1.89381,52.2561,18.3537,-28.9634,-30.64,15.87,6.51,3,S02
14920,-8.61673,-0.80445,2.11169,48.3537,-20.3659,-22.1951,-30.09,17.43,4.50,3,S02
14940,-7.59441,-0.89304,1.38385,53.9024,-44.1463,-15.4268,-30.09,17.43,4.50,3,S02
14960,-7.45076,-0.61770,0.28730,69.4512,-41.6463,-9.2073,-30.09,17.43,4.50,3,S02
14980,-7.01741,-0.06943,-1.10612,87.8049,-32.6220,3.5366,-30.37,17.43,2.48,3,S02
15000,-7.18500,-1.57778,-4.90333,111.7683,-21.5854,18.1098,-30.37,17.43,2.48,3,S02
15020,-12.34450,0.58419,-5.65032,107.8049,10.0000,26.4634,-30.37,17.43,2.48,3,S02
15040,-16.15607,-0.28012,0.09337,77.5000,29.3902,48.9634,-31.47,15.32,-1.01,3,S02
15060,-14.20001,-1.87466,2.06859,75.3049,-12.9878,52.5610,-31.47,15.32,-1.01,3,S02
15080,-12.11466,-2.54743,2.25534,90.3659,-55.6707,23.9024,-31.47,15.32,-1.01,3,S02
15100,-11.87285,-2.54743,1.95367,108.7805,-39.8780,-16.3415,-31.47,15.32,-1.01,3,S02
15120,-13.30458,-2.11169,3.47159,123.5366,16.5854,-37.4390,-29.91,16.61,-5.14,3,S02
15140,-13.96538,-1.24020,2.72221,127.8659,16.7683,-39.4512,-29.91,16.61,-5.14,3,S02
15160,-12.37084,-0.14126,1.44849,126.5244,-16.4024,-35.0610,-29.91,16.61,-5.14,3,S02
15180,-9.93594,0.33758,-0.29449,120.0610,-23.2927,-36.2195,-27.52,18.62,-8.99,3,S02
15200,-8.42998,-0.12210,-0.26576,115.9756,-0.9146,-44.4512,-27.52,18.62,-8.99,3,S02
15220,-8.47787,-0.69192,-0.17238,115.7317,10.1829,-53.9634,-27.52,18.62,-8.99,3,S02
15240,-8.46350,-0.76854,-0.08380,108.8415,1.2195,-53.6585,-24.13,20.83,-12.84,3,S02
15260,-7.70933,-0.89064,-0.22027,105.8537,-12.6220,-44.0854,-24.13,20.83,-12.84,3,S02
15280,-7.19458,-1.01993,-0.49560,108.5366,-15.7927,-33.5366,-24.13,20.83,-12.84,3,S02
15300,-6.77320,-1.11809,0.49321,107.8049,-11.1585,-27.1951,-24.13,20.83,-12.84,3,S02
15320,-6.66546,-1.27372,1.34794,104.4512,-2.6829,-24.7561,-21.28,21.83,-15.87,3,S02
15340,-7.30471,-1.25217,2.08774,105.1829,19.3902,-22.8659,-21.28,21.83,-15.87,3,S02
15360,-8.28154,-1.18034,2.03507,104.8781,22.3780,-18.5366,-21.28,21.83,-15.87,3,S02
15380,-8.72208,-1.18752,2.19788,95.5488,1.1585,-12.3171,-18.44,22.11,-18.62,3,S02
15400,-9.33499,-0.83558,2.65756,81.8902,-16.5854,-8.1098,-18.44,22.11,-18.62,3,S02
15420,-9.56484,-0.69432,2.80361,68.7195,-21.5244,-3.1707,-18.44,22.11,-18.62,3,S02
15440,-9.49780,-1.29766,2.96163,58.5366,-18.6585,0.8537,-17.06,22.75,-19.45,3,S02
15460,-9.61990,-2.40857,2.02549,58.6585,-15.7317,-1.2805,-17.06,22.75,-19.45,3,S02
15480,-10.12029,-2.93529,0.51236,65.9146,-6.4634,-10.3049,-17.06,22.75,-19.45,3,S02
15500,-10.90559,-1.81720,0.29928,61.9512,1.9512,-22.5610,-17.06,22.75,-19.45,3,S02
15520,-10.20888,0.54348,0.13647,39.3902,-7.0732,-31.0976,-14.95,23.49,-20.46,3,S02
15540,-8.81306,0.48602,-1.78607,25.4878,-26.4024,-28.3537,-14.95,23.49,-20.46,3,S02
15560,-8.98544,-0.86191,-1.39103,34.1463,-27.2561,-19.6341,-14.95,23.49,-20.46,3,S02
15580,-9.29908,-1.91057,0.81642,43.2317,-24.6951,-9.8171,-13.30,24.40,-20.92,3,S02
15600,-9.80665,-1.38864,1.58257,54.2683,-19.2683,-6.0976,-13.30,24.40,-20.92,3,S02
15620,-10.14663,-0.49799,1.72622,65.6098,5.7927,-4.8171,-13.30,24.40,-20.92,3,S02
15640,-11.26232,0.33279,2.31040,69.3293,25.3049,-8.1098,-10.64,23.39,-24.04,3,S02
15660,-12.63181,0.33998,2.39420,70.3049,24.6951,-9.9390,-10.64,23.39,-24.04,3,S02
15680,-13.14177,0.09098,1.42216,73.2317,1.0366,-4.8171,-10.64,23.39,-24.04,3,S02
15700,-12.08114,-0.20351,0.86191,79.5732,-21.0976,5.0000,-10.64,23.39,-24.04,3,S02
15720,-10.86489,-0.40941,0.67995,85.9756,-17.8659,9.5732,-7.80,24.22,-25.05,3,S02
15740,-10.40520,-0.00958,1.17555,89.0244,-7.1341,9.9390,-7.80,24.22,-25.05,3,S02
15760,-10.13705,0.63925,1.35991,87.7439,-12.1341,12.2561,-7.80,24.22,-25.05,3,S02
15780,-9.42118,0.38786,0.82600,90.6707,-20.8537,17.7439,-4.86,24.95,-25.78,3,S02
15800,-8.06128,0.00718,0.44053,94.9390,-13.4146,20.5488,-4.86,24.95,-25.78,3,S02
15820,-7.66145,0.50039,0.76614,92.2561,4.8780,14.3293,-4.86,24.95,-25.78,3,S02
15840,-7.51300,1.59214,1.04387,82.0122,9.2683,3.1707,-1.93,24.68,-26.97,3,S02
15860,-6.73250,1.63045,1.95846,52.9268,-7.3780,-8.1098,-1.93,24.68,-26.97,3,S02
15880,-6.92882,0.89064,1.48201,47.3171,-8.9024,-9.0244,-1.93,24.68,-26.97,3,S02
15900,-7.46512,0.34477,1.19471,43.5976,-9.3902,-6.2805,-1.93,24.68,-26.97,3,S02
15920,-7.30710,-0.28012,0.60334,47.1341,-17.7439,0.4268,-0.09,25.23,-26.88,3,S02
15940,-8.22408,-0.56024,-0.60573,62.3781,-16.8293,7.3171,-0.09,25.23,-26.88,3,S02
15960,-11.22641,-0.99120,-1.81720,89.2683,-7.8659,22.2561,-0.09,25.23,-26.88,3,S02
15980,-12.78025,-2.29125,-1.75974,108.8415,-2.9268,44.2683,2.57,25.32,-26.97,3,S02
16000,-13.16332,-1.83156,-0.98641,96.2195,-22.6829,47.3171,2.57,25.32,-26.97,3,S02
16020,-12.60547,-1.41976,-0.45011,88.4146,-53.9634,28.1707,2.57,25.32,-26.97,3,S02
16040,-11.56639,-1.35512,-0.06943,86.4634,-63.1707,6.5244,5.50,27.52,-24.40,3,S02
16060,-10.92235,-1.06063,1.18513,84.8171,-40.3659,-8.3537,5.50,27.52,-24.40,3,S02
16080,-10.32619,-0.84276,1.57299,89.1463,-8.5976,-22.5610,5.50,27.52,-24.40,3,S02
16100,-10.24000,-0.44772,1.74058,92.6829,12.5000,-36.8902,5.50,27.52,-24.40,3,S02
16120,-9.46428,-0.29688,1.30963,94.3293,15.3049,-47.6220,10.37,26.15,-24.59,3,S02
16140,-8.64786,-0.14844,1.12288,91.8293,9.9390,-56.2195,10.37,26.15,-24.59,3,S02
16160,-8.05888,-0.11971,0.81642,87.9878,11.5244,-59.3293,10.37,26.15,-24.59,3,S02
16180,-7.89129,-0.21548,0.88107,87.1951,21.1585,-56.0366,15.69,25.05,-23.94,3,S02
16200,-8.07804,-0.50757,1.14203,87.5610,23.5366,-47.8659,15.69,25.05,-23.94,3,S02
16220,-8.40365,-0.89543,1.27372,85.9146,15.9756,-37.5000,15.69,25.05,-23.94,3,S02
16240,-8.88249,-1.35033,1.46286,83.2927,6.3415,-27.3171,19.82,24.68,-22.84,3,S02
16260,-9.51695,-1.45089,1.50835,82.6829,-1.7073,-19.8171,19.82,24.68,-22.84,3,S02
16280,-9.26317,-1.18752,1.34075,80.7317,-9.2683,-16.0976,19.82,24.68,-22.84,3,S02
16300,-8.72208,-0.83797,1.30484,76.6463,-15.3049,-15.5488,19.82,24.68,-22.84,3,S02
16320,-8.27197,-0.57700,1.35512,72.8659,-11.3415,-16.2195,22.84,24.86,-20.64,3,S02
16340,-8.05649,-0.60573,1.55863,68.0488,1.4634,-15.6098,22.84,24.86,-20.64,3,S02
16360,-8.32464,-0.72065,2.00395,60.9146,15.4268,-15.6707,22.84,24.86,-20.64,3,S02
16380,-9.03811,-0.79487,2.97839,54.0244,24.0854,-16.0366,24.86,23.49,-20.09,3,S02
16400,-9.19852,-1.03190,3.01669,49.2683,18.5976,-13.6585,24.86,23.49,-20.09,3,S02
16420,-8.84179,-1.78847,2.73418,44.6341,7.6829,-9.6951,24.86,23.49,-20.09,3,S02
16440,-8.94234,-2.39420,2.58574,42.0732,7.6220,-7.5000,25.50,22.84,-18.44,3,S02
16460,-9.28471,-2.81319,2.60010,41.4024,9.5732,-4.9390,25.50,22.84,-18.44,3,S02
16480,-9.97903,-3.60567,2.09014,47.5000,6.2195,-2.1951,25.50,22.84,-18.44,3,S02
16500,-11.14740,-3.84269,1.80044,54.2073,0.2439,-4.0244,25.50,22.84,-18.44,3,S02
16520,-10.97023,-2.31519,0.24660,59.0244,0.1220,-10.4268,26.79,21.38,-17.71,3,S02
16540,-9.94073,-0.30167,-0.23224,62.9268,6.7073,-13.5366,26.79,21.38,-17.71,3,S02
16560,-9.54089,-0.59137,-0.65841,67.4390,6.7073,-12.9268,26.79,21.38,-17.71,3,S02
16580,-9.96946,-1.07979,0.57461,75.0000,0.5488,-11.4024,29.82,21.19,-16.42,3,S02
16600,-10.61589,-1.32639,1.31442,85.0000,-6.7073,-13.0488,29.82,21.19,-16.42,3,S02
16620,-11.25275,-0.72305,1.42934,99.2073,-1.2805,-14.5122,29.82,21.19,-16.42,3,S02
16640,-11.09712,0.21787,0.74699,108.7805,-2.8049,-11.4024,32.57,20.92,-12.84,3,S02
16660,-10.92474,0.99838,0.53870,107.4390,-12.9268,-8.9634,32.57,20.92,-12.84,3,S02
16680,-11.02769,1.00078,0.29928,106.4634,-15.8537,-7.5000,32.57,20.92,-12.84,3,S02
16700,-11.62864,0.61770,-0.50757,103.7805,-13.4146,-6.6463,32.57,20.92,-12.84,3,S02
16720,-11.68370,0.65841,-0.82121,93.5366,-8.1098,-1.6463,33.94,20.92,-9.17,3,S02
16740,-10.91038,1.41737,-1.11330,81.7073,-7.0732,4.8780,33.94,20.92,-9.17,3,S02
16760,-10.10114,2.28886,-0.95529,69.1463,-10.4878,9.0854,33.94,20.92,-9.17,3,S02
16780,-9.09797,2.43011,-0.40941,55.7317,-12.5610,13.0488,34.04,21.47,-7.16,3,S02
16800,-8.30788,1.54665,0.15083,42.6829,-8.5976,13.7195,34.04,21.47,-7.16,3,S02
16820,-8.08043,0.49799,0.94092,32.9268,4.2683,8.9634,34.04,21.47,-7.16,3,S02
16840,-8.16183,-0.09098,1.40779,27.8049,20.5488,3.7195,33.94,21.01,-7.16,3,S02
16860,-8.21690,0.19872,1.81720,19.7561,27.5000,3.2317,33.94,21.01,-7.16,3,S02
16880,-7.78594,0.47405,2.02789,10.7927,14.1463,6.9512,33.94,21.01,-7.16,3,S02
16900,-7.59441,0.64883,2.00155,6.3415,0.7317,8.8415,33.94,21.01,-7.16,3,S02
16920,-7.68539,0.96965,2.38223,3.5976,-2.4390,9.5732,33.39,21.38,-6.51,3,S02
16940,-6.95276,1.14922,2.11887,1.1585,-5.9756,11.7683,33.39,21.38,-6.51,3,S02
16960,-6.02381,1.10852,1.72383,-0.7927,-11.2805,12.6220,33.39,21.38,-6.51,3,S02
16980,-4.88657,0.31364,1.82199,7.8049,-17.8049,7.9878,33.21,21.47,-5.41,3,S02
17000,-5.49230,-0.83797,-0.05028,20.3049,-23.9634,0.7317,33.21,21.47,-5.41,3,S02
17020,-9.67976,0.27294,-3.96959,29.6341,4.3902,-2.4390,33.21,21.47,-5.41,3,S02
17040,-13.09868,1.45089,0.73263,24.3293,42.7439,12.7439,32.11,22.11,-4.04,3,S02
17060,-12.27028,-1.81002,2.00155,30.4878,-8.1707,42.9878,32.11,22.11,-4.04,3,S02
17080,-11.85130,-3.14838,0.21308,50.3049,-67.6220,42.0732,32.11,22.11,-4.04,3,S02
17100,-14.10185,-1.21865,0.74699,69.3902,-60.6098,18.7195,32.11,22.66,-4.04,3,S02
17120,-15.19121,-0.22745,1.18513,73.6585,-36.2805,10.9146,31.83,22.66,0.55,3,S02
17140,-15.04995,0.51954,1.39103,63.7805,-33.2927,10.1829,31.83,22.66,0.55,3,S02
17160,-14.12818,1.10373,1.15879,51.2195,-37.1951,2.8049,31.83,22.66,0.55,3,S02
17180,-11.69089,-0.13647,-0.56024,27.8659,-14.8780,-20.0610,32.20,21.74,2.11,3,S02
17200,-10.05325,-1.69749,-0.39504,22.3171,6.7683,-31.4024,32.20,21.74,2.11,3,S02
17220,-8.78672,-1.89142,0.18914,24.4512,12.6829,-36.9512,32.20,21.74,2.11,3,S02
17240,-7.50822,-1.35751,-0.75417,31.2805,-4.3293,-37.9878,33.30,19.82,2.39,3,S02
17260,-5.39414,-1.06542,-0.72065,30.7927,-12.2561,-33.7195,33.30,19.82,2.39,3,S02
17280,-3.82115,-0.44293,-0.13408,29.0244,8.8415,-29.5732,33.30,19.82,2.39,3,S02
17300,-4.24013,0.54588,0.36152,20.5488,35.7317,-27.1951,33.30,18.72,2.39,3,S02
17320,-5.87298,0.83079,1.97043,4.3293,51.2805,-23.7195,33.76,18.72,1.74,3,S02
17340,-7.82904,0.47405,3.01191,-5.3049,42.8049,-17.1341,33.76,18.72,1.74,3,S02
17360,-8.88249,-0.10056,3.79481,-10.4268,10.0610,-5.2439,33.76,18.72,1.74,3,S02
17380,-8.89446,-0.22505,4.86262,-10.9146,-20.4878,5.4878,33.39,18.90,1.28,3,S02
17400,-8.13310,-0.61292,3.65355,-8.7805,-40.4268,14.2073,33.39,18.90,1.28,3,S02
17420,-8.24084,-0.98162,1.13725,-14.5122,-38.4756,21.5854,33.39,18.90,1.28,3,S02
17440,-8.31746,-1.16598,1.08936,-28.4146,-16.8293,30.2439,32.29,19.82,1.28,3,S02
17460,-9.42837,-2.56658,0.30646,-26.7073,0.6098,32.6829,32.29,19.82,1.28,3,S02
17480,-12.19846,-3.55778,-1.75016,-9.8780,13.6585,19.0854,32.29,19.82,1.28,3,S02
17500,-12.55041,-1.59933,0.52194,-0.2439,10.6707,-0.5488,32.29,19.36,1.47,3,S02
17520,-11.22641,0.62249,1.97282,3.2317,-27.8049,-13.4756,32.11,19.36,1.47,3,S02
17540,-10.60871,-0.03112,1.71425,17.1341,-23.7805,-16.7683,32.11,19.36,1.47,3,S02
17560,-12.09072,-2.51631,1.93452,33.6585,3.2317,-11.7073,32.11,19.36,1.47,3,S02
17580,-13.48893,-3.02148,2.11408,45.4268,-6.4024,-1.5244,32.29,19.08,2.94,3,S02
17600,-12.73955,-1.18992,1.02951,62.6829,-25.1220,8.2317,32.29,19.08,2.94,3,S02
17620,-11.31979,0.16281,0.07901,80.2439,-25.3659,12.0732,32.29,19.08,2.94,3,S02
17640,-10.59674,0.06464,-1.05584,93.4146,-14.6341,12.5610,31.47,19.72,6.42,3,S02
17660,-10.05565,-0.24900,-1.10612,100.0000,2.3780,15.1829,31.47,19.72,6.42,3,S02
17680,-9.30626,0.05267,-0.88107,104.6341,12.1951,19.3293,31.47,19.72,6.42,3,S02
17700,-8.17380,0.53630,-1.53229,100.4268,5.3049,20.0000,31.47,20.28,9.36,3,S02
17720,-6.88572,1.03190,-1.10852,91.9512,-6.7073,14.6341,30.18,20.28,9.36,3,S02
17740,-5.88974,1.18992,-0.39504,81.0976,-16.6463,6.0976,30.18,20.28,9.36,3,S02
17760,-5.76763,1.13725,-0.00239,76.0976,-2.5000,-3.1098,30.18,20.28,9.36,3,S02
17780,-6.96473,1.34554,0.82121,69.2073,24.2073,-9.0244,29.82,20.18,10.83,3,S02
17800,-8.50660,1.72383,0.88346,54.8781,24.0854,-8.2927,29.82,20.18,10.83,3,S02
17820,-9.32063,1.84354,1.48680,37.3780,9.8780,-3.5976,29.82,20.18,10.83,3,S02
17840,-9.23444,1.41258,1.95846,25.6707,-1.2195,-0.7317,29.54,19.82,11.83,3,S02
17860,-9.23922,0.83558,2.23140,22.1951,-7.8049,-2.9878,29.54,19.82,11.83,3,S02
17880,-9.76116,0.65362,2.30562,21.0976,-12.5000,-5.6098,29.54,19.82,11.83,3,S02
17900,-10.31183,0.72305,2.05183,20.4268,-18.1098,-2.9878,29.27,19.27,13.30,3,S02
17920,-9.95749,1.34075,1.62327,25.3049,-24.8780,2.8659,29.27,19.27,13.30,3,S02
17940,-9.49062,1.28090,0.88585,32.6829,-27.6829,4.7561,29.27,19.27,13.30,3,S02
17960,-8.53772,0.72305,1.38145,31.0366,-24.6341,2.0732,29.27,19.27,13.30,3,S02
17980,-7.66384,0.15802,2.48997,39.7561,-26.4024,-0.7927,28.62,18.53,15.41,3,S02
18000,-7.94157,-0.89064,1.20189,71.4634,-21.0366,-6.0976,28.62,18.53,15.41,3,S02
18020,-9.77792,-1.58496,-0.84755,109.4512,11.1585,-8.5976,28.62,18.53,15.41,3,S02
18040,-11.29824,-1.45807,-0.83558,133.2317,42.8659,1.5854,25.41,19.36,18.17,3,S02
18060,-12.15297,-1.20668,0.67516,136.4024,35.9146,13.5976,25.41,19.36,18.17,3,S02
18080,-13.11065,-0.41659,1.03190,135.1829,2.0732,8.5366,25.41,19.36,18.17,3,S02
18100,-13.50330,0.90261,0.45250,128.5976,-23.6585,-11.1585,23.76,17.34,21.83,3,S02
18120,-13.01009,2.05183,0.18435,111.5854,-30.4878,-33.0488,23.76,17.34,21.83,3,S02
18140,-10.91038,1.87466,0.11492,86.7683,-26.5244,-37.1951,23.76,17.34,21.83,3,S02
18160,-9.41161,1.09415,0.10534,69.2683,-3.9024,-38.0488,23.76,17.34,21.83,3,S02
18180,-8.74841,0.26336,0.27773,56.7073,20.7927,-38.4146,23.85,16.61,22.02,3,S02
18200,-8.65743,-0.36631,0.16520,44.6341,25.6098,-38.2927,23.85,16.61,22.02,3,S02
18220,-8.65743,-0.93853,0.00479,35.2439,23.0488,-37.0732,23.85,16.61,22.02,3,S02
18240,-8.24563,-1.40300,-0.04310,33.2927,19.3902,-33.0488,24.04,15.96,22.29,3,S02
18260,-7.74285,-1.66397,0.06943,36.3415,18.0488,-28.0488,24.04,15.96,22.29,3,S02
18280,-7.59680,-1.63763,0.08619,39.8780,18.1707,-22.6829,24.04,15.96,22.29,3,S02
18300,-7.59201,-1.36709,0.07901,40.1220,15.5488,-15.5488,23.49,15.96,22.75,3,S02
18320,-7.75243,-1.01275,0.27294,37.6220,12.0122,-7.8049,23.49,15.96,22.75,3,S02
18340,-8.27197,-0.72065,0.78769,33.1098,8.2927,-2.1341,23.49,15.96,22.75,3,S02
18360,-8.60237,-0.46926,1.20189,26.7073,1.5244,1.8902,23.49,15.96,22.75,3,S02
18380,-8.77236,-0.34237,1.61609,17.7439,-4.8171,4.2683,23.49,15.78,23.49,3,S02
18400,-9.03332,-0.44532,2.15718,8.1707,-11.4634,4.5732,23.49,15.78,23.49,3,S02
18420,-9.07163,-1.20668,2.19548,2.7439,-21.8293,8.1098,23.49,15.78,23.49,3,S02
18440,-9.39006,-1.76932,1.86029,-1.2805,-32.1341,15.2439,23.67,15.05,25.05,3,S02
18460,-10.67814,-2.61207,0.95289,-3.4756,-41.1585,20.1220,23.67,15.05,25.05,3,S02
18480,-13.20881,-1.78607,-0.49081,3.9634,-47.6220,14.7561,23.67,15.05,25.05,3,S02
18500,-9.18176,0.76375,-0.46687,3.9024,-69.3293,-15.4878,24.31,12.02,27.52,3,S02
18520,-8.87770,-0.38307,-0.41659,6.4024,-78.0488,-23.7805,24.31,12.02,27.52,3,S02
18540,-10.99657,-2.39181,0.42377,22.0732,-67.1341,-20.0000,24.31,12.02,27.52,3,S02
18560,-12.10508,-2.87544,1.59693,41.6463,-54.1463,-4.8171,24.31,12.02,27.52,3,S02
18580,-11.52808,-1.31681,1.57299,66.9512,-38.5976,9.1463,22.66,10.28,30.37,3,S02
18600,-10.20169,0.35195,0.73263,91.5244,-24.3902,14.2683,22.66,10.28,30.37,3,S02
18620,-9.27753,0.90022,0.14365,103.0488,-17.5000,10.8537,22.66,10.28,30.37,3,S02
18640,-9.40682,0.75178,0.24660,107.0122,-9.4512,4.6951,17.89,10.28,33.58,3,S02
18660,-8.96150,0.39744,0.15802,108.1707,-0.7317,2.3780,17.89,10.28,33.58,3,S02
18680,-8.48745,0.65122,0.01437,107.6829,10.8537,2.0122,17.89,10.28,33.58,3,S02
18700,-8.37971,1.31442,-0.01197,106.9512,27.4390,1.1585,13.21,11.65,35.14,3,S02
18720,-8.30070,1.65679,0.04788,101.1585,37.9878,0.0000,13.21,11.65,35.14,3,S02
18740,-8.48266,1.59214,0.26815,91.0366,39.3902,-2.0122,13.21,11.65,35.14,3,S02
18760,-8.49702,1.41976,0.38547,79.6341,35.6098,-3.7805,13.21,11.65,35.14,3,S02
18780,-8.47069,1.55623,0.40941,66.8293,31.7683,-5.3049,9.91,13.03,35.78,3,S02
18800,-8.63110,1.71664,0.48602,52.0732,28.1707,-5.9756,9.91,13.03,35.78,3,S02
18820,-8.65983,1.58257,0.52912,36.1585,23.9634,-5.6707,9.91,13.03,35.78,3,S02
18840,-8.57842,1.28569,0.83079,21.3415,20.2439,-5.7927,8.53,13.85,36.15,3,S02
18860,-8.68856,1.03908,1.42216,11.2805,14.3293,-6.8902,8.53,13.85,36.15,3,S02
18880,-9.00938,0.91698,2.07817,5.4268,5.0000,-7.5610,8.53,13.85,36.15,3,S02
18900,-9.28232,0.84515,2.68629,2.9268,-4.9390,-6.4024,7.71,13.03,37.06,3,S02
18920,-9.08600,0.68474,3.06458,5.4268,-14.4512,-3.7195,7.71,13.03,37.06,3,S02
18940,-8.72926,0.60334,3.07894,11.0976,-21.3415,-0.0610,7.71,13.03,37.06,3,S02
18960,-8.63828,1.50595,2.12366,14.8780,-21.7683,5.5488,7.71,13.03,37.06,3,S02
18980,-9.34457,2.36787,1.55384,10.8537,-13.1707,15.2439,5.87,12.29,37.80,3,S02
19000,-11.23359,2.11408,1.41497,12.1341,-2.6220,24.7561,5.87,12.29,37.80,3,S02
19020,-13.59667,1.08457,0.81882,20.5488,-0.7927,38.6585,5.87,12.29,37.80,3,S02
19040,-12.75152,-1.24738,-0.36152,33.4756,-1.8902,58.5366,1.65,12.11,38.17,3,S02
19060,-10.05565,-3.18429,-1.32878,46.4634,-5.9146,61.5244,1.65,12.11,38.17,3,S02
19080,-9.02135,-3.81396,-1.34554,62.1341,-14.8171,42.7439,1.65,12.11,38.17,3,S02
19100,-10.52491,-1.90339,-0.89304,76.9512,-19.8780,18.9024,-3.03,10.83,38.26,3,S02
19120,-11.79144,1.26414,-0.79727,77.8659,-20.5488,3.9634,-3.03,10.83,38.26,3,S02
19140,-11.49935,2.65756,-0.62249,67.3781,-19.0854,-7.0122,-3.03,10.83,38.26,3,S02
19160,-10.83855,2.00634,-0.36631,51.8293,-24.2683,-21.5244,-3.03,10.83,38.26,3,S02
19180,-10.25915,0.84036,-0.10056,37.8049,-31.6463,-32.8049,-4.77,9.45,38.07,3,S02
19200,-9.88326,-0.22984,0.31364,31.4634,-32.5610,-36.7683,-4.77,9.45,38.07,3,S02
19220,-9.69173,-0.91459,0.60813,35.1220,-32.5610,-34.9390,-4.77,9.45,38.07,3,S02
19240,-9.28232,-1.17795,0.25379,42.8049,-34.8780,-34.2683,-6.61,8.17,37.80,3,S02
19260,-8.88009,-1.26174,0.11732,52.1951,-32.5610,-38.2927,-6.61,8.17,37.80,3,S02
19280,-9.14346,-1.32639,0.22745,60.9756,-19.7561,-45.4878,-6.61,8.17,37.80,3,S02
19300,-9.05966,-1.24738,-0.02155,69.6341,-11.7683,-49.8781,-9.45,8.90,36.15,3,S02
19320,-8.75560,-0.81163,0.04788,74.3293,-6.3415,-51.0976,-9.45,8.90,36.15,3,S02
19340,-8.06607,-0.42377,0.40462,74.0854,2.6220,-45.6707,-9.45,8.90,36.15,3,S02
19360,-7.26880,0.01676,0.56503,70.8537,12.1951,-38.3537,-9.45,8.90,36.15,3,S02
19380,-6.44280,0.21548,1.15401,65.7927,24.3902,-33.1707,-12.11,10.83,34.13,3,S02
19400,-6.51462,-0.00479,1.46765,60.7927,39.1463,-30.6098,-12.11,10.83,34.13,3,S02
19420,-8.42520,-0.05028,2.81558,55.0000,47.9878,-26.4634,-12.11,10.83,34.13,3,S02
19440,-9.10275,-0.10774,3.43568,50.3659,27.4390,-14.4512,-14.04,12.11,32.57,3,S02
19460,-8.59279,-0.56503,3.38780,47.9268,-4.7561,-0.7317,-14.04,12.11,32.57,3,S02
19480,-7.80989,-1.00078,2.43490,46.4634,-29.0854,11.5854,-14.04,12.11,32.57,3,S02
19500,-7.70694,-1.22344,1.16358,43.5366,-38.2927,21.8293,-16.79,10.00,31.65,3,S02
19520,-9.70131,-3.60327,-1.20428,59.9390,-30.9146,22.3780,-16.79,10.00,31.65,3,S02
19540,-13.38359,-1.31442,-0.13168,72.4390,-26.7073,7.3171,-16.79,10.00,31.65,3,S02
19560,-12.54322,2.76530,1.81480,56.0366,-57.5610,-1.2805,-16.79,10.00,31.65,3,S02
19580,-11.39640,1.38624,-0.50518,58.9634,-77.5610,-1.4634,-18.90,7.71,30.83,3,S02
19600,-11.70525,-2.21464,0.10774,57.8049,-54.2683,1.2805,-18.90,7.71,30.83,3,S02
19620,-13.68765,-2.46842,0.92416,60.4268,-23.7805,0.6707,-18.90,7.71,30.83,3,S02
19640,-13.60625,-0.58658,0.80924,68.5976,1.0366,2.2561,-20.92,8.44,28.35,3,S02
19660,-12.39718,0.72065,0.33998,75.9756,5.4268,4.7561,-20.92,8.44,28.35,3,S02
19680,-10.78588,-0.20590,0.49799,82.9268,2.5000,6.9512,-20.92,8.44,28.35,3,S02
19700,-9.82580,-1.50116,0.84036,92.4390,7.3780,7.2561,-23.94,8.81,24.77,3,S02
19720,-9.38048,-1.44370,0.56743,104.6951,15.4268,6.5244,-23.94,8.81,24.77,3,S02
19740,-8.87531,-0.69192,0.39025,114.2683,15.8537,6.9512,-23.94,8.81,24.77,3,S02
19760,-8.40844,0.11732,-0.08619,120.6098,7.0122,5.7927,-23.94,8.81,24.77,3,S02
19780,-7.72848,0.51475,-0.43574,123.7195,1.5854,2.6829,-26.61,9.17,20.83,3,S02
19800,-7.18500,0.76375,-0.85712,120.2439,1.5244,-2.5610,-26.61,9.17,20.83,3,S02
19820,-7.54174,0.82121,-0.98162,96.3415,8.1707,-4.2073,-26.61,9.17,20.83,3,S02
19840,-8.21690,0.17478,-0.37110,88.6585,9.5122,-5.2439,-28.17,9.82,17.71,3,S02
19860,-8.58800,-0.41659,0.07422,85.3659,3.7805,-10.4878,-28.17,9.82,17.71,3,S02
19880,-8.64546,-0.19872,0.17957,81.8293,0.8537,-16.6463,-28.17,9.82,17.71,3,S02
19900,-8.77475,0.59376,0.39504,75.7927,5.0610,-19.1463,-28.81,10.92,15.14,3,S02
19920,-9.09557,1.24020,0.80685,65.6098,8.1707,-16.2195,-28.81,10.92,15.14,3,S02
19940,-9.42358,1.43652,1.43413,55.5488,5.5488,-11.7073,-28.81,10.92,15.14,3,S02
19960,-9.64624,1.21625,1.94409,47.5610,-5.1220,-9.5732,-28.81,10.92,15.14,3,S02
19980,-9.70370,0.99838,2.21943,41.5854,-17.5000,-9.5122,-28.90,11.38,14.13,3,S02
20000,-9.48583,0.75896,2.37505,39.4512,-25.6707,-9.7561,-28.90,11.38,14.13,3,S02
20020,-9.33499,0.56264,2.59292,39.6341,-29.2073,-8.9634,-28.90,11.38,14.13,3,S02
20040,-9.05966,0.00718,2.62644,45.6098,-27.5610,-6.7073,-29.08,11.38,13.21,3,S02
20060,-9.78271,-0.69911,2.33674,51.4024,-23.1098,-4.4512,-29.08,11.38,13.21,3,S02
20080,-12.62702,-0.02873,0.88585,54.7561,-12.6829,0.2439,-29.08,11.38,13.21,3,S02
20100,-13.28064,-0.38068,-0.31364,63.9024,12.1341,15.5488,-29.91,11.10,10.64,3,S02
20120,-12.10030,-1.33836,-0.90261,78.4756,16.3415,22.3171,-29.91,11.10,10.64,3,S02
20140,-10.18254,-2.20985,-1.38385,97.7439,-5.7927,11.7683,-29.91,11.10,10.64,3,S02
20160,-8.77714,-1.87466,-1.69988,113.6585,-24.2683,-3.8415,-29.91,11.10,10.64,3,S02
20180,-8.76517,-0.24900,-2.16196,115.2439,-23.5976,-17.5610,-30.46,11.56,7.06,3,S02
20200,-9.78750,0.72784,-1.49638,108.9024,-4.3902,-24.4512,-30.46,11.56,7.06,3,S02
20220,-10.37168,0.22027,-1.09176,104.2073,4.2073,-24.7561,-30.46,11.56,7.06,3,S02
20240,-10.16817,-0.50278,-0.45729,102.3781,-3.4756,-25.7317,-30.18,12.57,3.39,3,S02
20260,-9.48343,-0.76614,-0.32801,103.9634,-11.1585,-32.3171,-30.18,12.57,3.39,3,S02
20280,-9.36372,-0.53391,-0.43335,106.9512,-7.9878,-42.1341,-30.18,12.57,3.39,3,S02
20300,-9.80426,0.08380,-0.69671,103.8415,0.4268,-48.5976,-29.08,14.31,-0.37,3,S02
20320,-9.91439,0.45250,-0.48842,94.0244,4.6341,-48.5976,-29.08,14.31,-0.37,3,S02
20340,-9.32781,0.24660,-0.47405,84.6341,-1.1585,-42.9268,-29.08,14.31,-0.37,3,S02
20360,-8.41562,-0.24900,-0.50996,76.0976,-7.0122,-36.7073,-29.08,14.31,-0.37,3,S02
20380,-7.76679,-0.48842,-0.31603,68.4756,-5.8537,-32.1341,-28.07,15.32,-2.39,3,S02
20400,-7.37175,-0.70629,0.28491,59.6341,5.5488,-28.2317,-28.07,15.32,-2.39,3,S02
20420,-7.77876,-1.09176,0.83318,53.8415,22.9878,-25.0610,-28.07,15.32,-2.39,3,S02
20440,-8.56885,-1.39582,1.46046,52.0732,37.8049,-21.4024,-27.43,15.60,-5.23,3,S02
20460,-9.09318,-1.81241,1.49638,51.0366,37.2561,-16.8902,-27.43,15.60,-5.23,3,S02
20480,-9.60314,-2.15957,1.63524,51.5854,29.6951,-13.2927,-27.43,15.60,-5.23,3,S02
20500,-9.88805,-2.15478,1.82917,52.8049,20.4878,-10.9756,-27.25,15.78,-7.16,3,S02
20520,-9.68215,-2.03028,1.99676,53.3537,11.0976,-8.4756,-27.25,15.78,-7.16,3,S02
20540,-9.35893,-2.04225,1.88903,53.1707,1.0976,-5.4268,-27.25,15.78,-7.16,3,S02
20560,-9.27274,-1.91057,1.98479,47.5610,-11.7073,-3.2317,-27.25,15.78,-7.16,3,S02
20580,-9.23204,-1.86508,2.14042,40.9756,-23.7195,-2.9878,-26.97,16.42,-8.17,3,S02
20600,-8.90404,-1.65200,2.15239,35.3049,-32.3171,-4.2073,-26.97,16.42,-8.17,3,S02
20620,-9.07881,-1.41976,1.74298,29.1463,-37.1341,-4.8171,-26.97,16.42,-8.17,3,S02
20640,-9.75877,-1.40061,0.73263,20.4268,-40.9146,-5.3049,-27.16,17.52,-8.07,3,S02
20660,-10.97263,0.39504,1.33836,6.5244,-43.5366,-8.8415,-27.16,17.52,-8.07,3,S02
20680,-11.31739,1.32639,-0.10295,-6.3415,-45.3049,-11.5854,-27.16,17.52,-8.07,3,S02
20700,-11.00375,0.47884,-1.12527,-10.9146,-36.4024,-8.4146,-27.16,18.26,-7.25,3,S02
20720,-10.47463,-0.95768,-0.99359,-13.7195,-27.7439,-4.3902,-27.16,18.26,-7.25,3,S02
20740,-11.25993,-1.49638,-0.37589,-10.2439,-17.1951,-6.4024,-27.16,18.26,-7.25,3,S02
20760,-12.42591,-1.09654,0.28970,-5.5488,-5.8537,-7.4390,-27.16,18.26,-7.25,3,S02
20780,-12.21761,-0.67038,0.41180,1.2805,0.9756,0.7317,-26.97,18.53,-7.71,3,S02
20800,-10.95108,-0.06464,0.10774,6.7683,0.9756,13.5366,-26.97,18.53,-7.71,3,S02
20820,-10.01016,0.37350,-0.23463,14.2683,8.5366,23.0488,-26.97,18.53,-7.71,3,S02
20840,-9.59835,0.56024,-0.20830,20.3049,17.9268,26.6463,-26.88,17.25,-9.27,3,S02
20860,-9.27035,0.66319,-0.27054,20.7927,16.2195,25.9756,-26.88,17.25,-9.27,3,S02
20880,-8.90164,0.43574,-0.31125,18.9634,12.3780,23.9634,-26.88,17.25,-9.27,3,S02
20900,-8.71489,0.32801,-0.26576,15.4878,9.9390,21.7073,-26.88,16.61,-9.72,3,S02
20920,-8.79869,0.52912,-0.14365,9.6341,7.2561,19.1463,-26.88,16.61,-9.72,3,S02
20940,-8.92558,0.66080,0.05507,4.4512,4.1463,16.4634,-26.88,16.61,-9.72,3,S02
20960,-8.86573,0.55067,0.39265,2.1951,1.0366,13.5366,-26.88,16.61,-9.72,3,S02
20980,-8.62152,0.39744,0.79248,1.0976,-2.6829,10.4878,-26.79,16.51,-9.72,3,S02
21000,-8.27676,0.12689,1.17076,2.2561,-5.3049,7.6829,-26.79,16.51,-9.72,3,S02
21020,-8.10437,-0.14844,1.55144,4.5732,-7.9878,5.7317,-26.79,16.51,-9.72,3,S02
21040,-8.25760,-0.29449,1.94409,7.0122,-12.0732,4.7561,-26.24,16.97,-9.45,3,S02
21060,-8.40365,-0.05028,2.55940,8.5366,-19.8171,5.2439,-26.24,16.97,-9.45,3,S02
21080,-8.04931,0.26097,2.89459,9.6951,-31.2805,8.5366,-26.24,16.97,-9.45,3,S02
21100,-7.20176,0.28491,2.63123,14.5732,-39.3902,12.5610,-26.06,17.34,-9.27,3,S02
21120,-6.31351,-0.10534,2.17394,27.0732,-38.7195,13.4146,-26.06,17.34,-9.27,3,S02
21140,-7.60159,-0.95529,-0.06225,65.7927,-24.2073,10.8537,-26.06,17.34,-9.27,3,S02
21160,-10.02931,-1.46525,-1.83396,86.2805,-14.8780,19.2073,-26.06,17.34,-9.27,3,S02
21180,-10.77870,-2.21464,-1.24977,100.1829,-4.2073,37.3780,-24.95,17.06,-12.11,3,S02
21200,-12.44267,-0.95050,-0.11253,94.3293,-6.2195,38.7805,-24.95,17.06,-12.11,3,S02
21220,-15.15769,1.60172,0.15323,71.8293,-22.8659,24.0854,-24.95,17.06,-12.11,3,S02
21240,-15.41626,1.35272,0.96007,58.2317,-25.6098,17.1951,-24.40,17.34,-13.30,3,S02
21260,-14.64294,0.06943,1.35512,47.3781,-26.8902,8.5366,-24.40,17.34,-13.30,3,S02
21280,-13.32852,-0.13886,1.27132,34.8780,-29.3293,-7.1951,-24.40,17.34,-13.30,3,S02
21300,-11.09712,0.12929,0.66319,22.7439,-25.4268,-20.8537,-23.12,19.27,-13.12,3,S02
21320,-8.86573,0.37589,-0.05028,8.7805,-15.2439,-31.1585,-23.12,19.27,-13.12,3,S02
21340,-7.60159,0.22745,-0.13886,-3.1098,0.4878,-39.6341,-23.12,19.27,-13.12,3,S02
21360,-7.29753,-0.61052,0.40223,-8.2317,13.5976,-44.0244,-23.12,19.27,-13.12,3,S02
21380,-7.25204,-1.67355,0.90261,-3.4756,21.4634,-41.0976,-22.02,20.55,-13.49,3,S02
21400,-7.24246,-2.10690,0.94810,6.4024,23.3537,-33.4756,-22.02,20.55,-13.49,3,S02
21420,-7.32865,-1.89142,0.89783,15.5488,21.5244,-25.7927,-22.02,20.55,-13.49,3,S02
21440,-7.58244,-1.62566,1.37427,24.4512,19.5732,-19.1463,-21.10,20.83,-14.86,3,S02
21460,-7.79073,-1.33836,1.83875,31.6463,16.2195,-13.2317,-21.10,20.83,-14.86,3,S02
21480,-8.09001,-0.79966,2.13084,36.6463,12.6829,-8.1098,-21.10,20.83,-14.86,3,S02
21500,-8.55448,-0.19632,2.50673,41.1585,9.4512,-3.9634,-20.18,21.19,-16.33,3,S02
21520,-8.47787,0.45011,2.42293,49.0244,8.4756,-2.0732,-20.18,21.19,-16.33,3,S02
21540,-7.93917,0.83079,2.57856,54.5732,14.1463,-2.2561,-20.18,21.19,-16.33,3,S02
21560,-7.54652,0.18675,1.96803,47.5000,16.8293,-2.0122,-20.18,21.19,-16.33,3,S02
21580,-7.86256,-1.01754,0.78769,40.0610,13.2927,2.3171,-19.45,21.19,-17.98,3,S02
21600,-8.96389,-2.04225,-0.81642,34.7561,6.5244,4.8171,-19.45,21.19,-17.98,3,S02
21620,-9.78750,-1.57538,-1.05824,31.5244,1.4634,-2.3780,-19.45,21.19,-17.98,3,S02
21640,-10.40041,0.38307,0.53630,17.6829,-5.1829,-17.0122,-18.81,21.65,-18.26,3,S02
21660,-10.42675,-0.00479,1.73819,15.4268,-13.4756,-18.5366,-18.81,21.65,-18.26,3,S02
21680,-10.91517,-2.50434,2.06380,34.6341,-14.1463,-7.3780,-18.81,21.65,-18.26,3,S02
21700,-12.39239,-4.16112,2.87304,55.5488,-8.5366,3.4756,-17.25,21.83,-20.09,3,S02
21720,-13.19923,-2.99993,2.59053,65.6098,-3.1098,7.6220,-17.25,21.83,-20.09,3,S02
21740,-12.64617,-1.19950,1.33357,77.0732,8.3537,8.5366,-17.25,21.83,-20.09,3,S02
21760,-11.65976,-0.39504,0.42856,91.5854,17.1341,7.0732,-17.25,21.83,-20.09,3,S02
21780,-11.07558,-0.81163,0.35674,106.1585,17.1341,4.9390,-14.13,21.56,-23.39,3,S02
21800,-10.64941,-1.07260,0.23224,122.8659,16.9512,3.0488,-14.13,21.56,-23.39,3,S02
21820,-10.28549,-0.70629,-0.01197,134.5122,16.9512,2.3780,-14.13,21.56,-23.39,3,S02
21840,-9.95270,0.13647,-0.16520,133.9634,14.6341,3.5976,-9.54,21.10,-26.42,3,S02
21860,-9.40682,1.08457,-0.22745,124.0854,12.0122,7.3171,-9.54,21.10,-26.42,3,S02
21880,-8.56406,1.81959,-0.01915,108.1098,10.4268,9.9390,-9.54,21.10,-26.42,3,S02
21900,-7.76200,1.91057,0.32082,90.6707,7.8049,9.0244,-6.88,20.92,-27.71,3,S02
21920,-7.20655,1.33836,0.60573,77.8049,4.7561,5.3049,-6.88,20.92,-27.71,3,S02
21940,-6.98867,0.71826,0.74460,68.6585,0.5488,1.0976,-6.88,20.92,-27.71,3,S02
21960,-6.91445,0.51954,0.90022,58.5366,-8.7805,-0.4268,-6.88,20.92,-27.71,3,S02
21980,-6.30633,0.47884,0.85473,47.3781,-22.6220,2.1951,-5.05,21.83,-27.52,3,S02
22000,-5.93762,0.43574,0.36392,41.6463,-33.4756,5.0000,-5.05,21.83,-27.52,3,S02
22020,-5.82270,-0.24181,-0.37350,50.0000,-34.4512,8.4146,-5.05,21.83,-27.52,3,S02
22040,-8.08282,-0.97923,-1.07979,70.7317,-30.0610,14.6951,-2.57,22.94,-27.52,3,S02
22060,-11.08515,-1.74777,-2.11169,91.0976,-26.7073,35.0610,-2.57,22.94,-27.52,3,S02
22080,-12.04762,-3.07176,-1.41976,108.4756,-5.5488,60.3049,-2.57,22.94,-27.52,3,S02
22100,-14.86560,-2.06380,-0.39983,109.3902,-0.6707,59.5122,-0.28,23.12,-27.71,3,S02
22120,-15.78976,-0.23224,0.20590,101.6463,-29.4512,45.0000,-0.28,23.12,-27.71,3,S02
22140,-14.07791,-0.75178,-0.39983,107.5000,-44.5732,23.5976,-0.28,23.12,-27.71,3,S02
22160,-13.15614,-0.59376,-0.47645,98.5976,-36.0366,-4.6341,-0.28,23.12,-27.71,3,S02
22180,-11.97340,-0.12689,-0.47166,82.8049,-23.0488,-25.9756,4.31,23.76,-27.16,3,S02
22200,-10.53928,-0.27054,-0.27533,73.1098,-9.7561,-38.6585,4.31,23.76,-27.16,3,S02
22220,-9.41879,-0.58179,-0.15323,71.5244,8.5976,-43.7195,4.31,23.76,-27.16,3,S02
22240,-8.66940,-1.11570,0.34237,72.5610,19.0854,-46.6463,8.90,22.57,-27.89,3,S02
22260,-8.12353,-1.66158,0.68714,78.6585,19.4512,-48.5976,8.90,22.57,-27.89,3,S02
22280,-8.07564,-1.68791,0.54109,88.2927,17.5610,-50.3049,8.90,22.57,-27.89,3,S02
22300,-7.91044,-1.38864,0.38547,94.0854,17.0122,-47.0122,14.04,21.47,-27.71,3,S02
22320,-7.93678,-1.22104,0.64404,94.7561,15.3049,-39.6341,14.04,21.47,-27.71,3,S02
22340,-7.84580,-0.96726,0.79009,92.8659,7.8659,-31.3415,14.04,21.47,-27.71,3,S02
22360,-7.81228,-0.66080,1.18513,89.8781,1.6463,-22.3780,14.04,21.47,-27.71,3,S02
22380,-7.92481,-0.26097,1.61369,86.8902,-4.6951,-14.4512,17.52,21.83,-26.15,3,S02
22400,-8.22408,0.09337,2.14042,81.8902,-13.9024,-8.6585,17.52,21.83,-26.15,3,S02
22420,-8.26718,0.00239,2.43251,77.2561,-22.2561,-3.0488,17.52,21.83,-26.15,3,S02
22440,-7.99424,-0.53870,2.34871,73.1707,-25.7317,2.8049,19.82,22.66,-23.94,3,S02
22460,-9.25120,-0.91698,1.39103,58.0488,-21.2805,7.2561,19.82,22.66,-23.94,3,S02
22480,-10.28549,0.20351,0.86431,46.5854,-18.0488,6.8293,19.82,22.66,-23.94,3,S02
22500,-10.41717,1.19471,0.75178,25.6707,-17.1341,5.4268,20.55,23.12,-22.84,3,S02
22520,-10.05086,0.22984,-0.51715,18.6585,-19.2683,-0.3659,20.55,23.12,-22.84,3,S02
22540,-10.25437,-2.46842,-0.26336,21.7073,-19.0244,-5.3659,20.55,23.12,-22.84,3,S02
22560,-12.22479,-3.27766,0.11013,34.2073,-13.6585,-8.1098,20.55,23.12,-22.84,3,S02
22580,-13.42908,-1.56341,0.95289,43.1707,-14.3293,-5.6707,22.02,23.03,-21.47,3,S02
22600,-12.56716,0.08140,0.74939,54.5122,-18.8415,2.8659,22.02,23.03,-21.47,3,S02
22620,-10.66617,0.35434,-0.08619,69.6341,-13.2317,10.0000,22.02,23.03,-21.47,3,S02
22640,-9.92876,-0.35195,-0.26097,79.4512,3.2927,9.7561,23.67,23.12,-19.63,3,S02
22660,-9.89045,-0.92416,-0.22984,89.5732,17.8049,7.9878,23.67,23.12,-19.63,3,S02
22680,-9.57441,-0.82121,-0.23463,99.9390,23.7805,8.0488,23.67,23.12,-19.63,3,S02
22700,-9.23683,0.02394,-0.32082,105.4268,22.7439,7.1951,26.42,22.48,-18.07,3,S02
22720,-8.95431,0.70868,-0.40223,107.2561,20.3659,6.2195,26.42,22.48,-18.07,3,S02
22740,-8.44435,0.85952,-0.37589,105.9756,15.9756,4.2683,26.42,22.48,-18.07,3,S02
22760,-8.07564,0.78530,-0.00958,99.5122,9.0854,0.1220,26.42,22.48,-18.07,3,S02
22780,-8.11156,0.68474,0.34716,91.1585,0.7317,-5.7317,28.62,22.20,-15.60,3,S02
22800,-8.24803,0.76854,0.60094,82.1951,-6.7073,-9.6951,28.62,22.20,-15.60,3,S02
22820,-8.09958,1.11091,0.76136,72.6829,-11.4024,-10.4878,28.62,22.20,-15.60,3,S02
22840,-8.14747,1.46525,1.02711,62.5000,-13.5976,-9.5732,30.28,22.02,-13.12,3,S02
22860,-8.50899,1.80762,1.74537,48.5976,-17.8659,-7.3171,30.28,22.02,-13.12,3,S02
22880,-8.68377,1.94409,2.64320,32.5000,-27.5000,-2.5000,30.28,22.02,-13.12,3,S02
22900,-8.15465,1.73580,2.90177,22.0122,-37.3171,4.3902,30.09,22.84,-10.92,3,S02
22920,-7.35259,1.35033,3.03106,21.0976,-36.1585,9.5122,30.09,22.84,-10.92,3,S02
22940,-7.07965,0.97923,3.05500,27.1341,-27.8049,10.4268,30.09,22.84,-10.92,3,S02
22960,-8.00382,0.75896,2.50434,34.0244,-18.7195,6.4024,30.09,22.84,-10.92,3,S02
22980,-11.25035,1.75495,0.24660,36.8293,-9.0244,6.0366,30.28,22.84,-9.27,3,S02
23000,-12.93348,0.91219,-0.31843,40.5488,8.6585,23.1098,30.28,22.84,-9.27,3,S02
23020,-12.60547,-2.54504,0.06225,63.2927,16.7683,41.5854,30.28,22.84,-9.27,3,S02
23040,-11.46104,-4.70700,-1.56102,77.8659,-9.9390,40.0610,29.36,24.04,-6.33,3,S02
23060,-12.04044,-2.44927,-2.34632,87.3781,-15.7317,27.3780,29.36,24.04,-6.33,3,S02
23080,-13.23515,0.95289,-1.57538,87.5610,-1.8902,23.5366,29.36,24.04,-6.33,3,S02
23100,-12.54562,1.74777,-1.63045,74.2683,2.0732,22.4390,29.36,23.85,-4.50,3,S02
23120,-11.72919,0.86910,-0.82600,57.3781,4.2683,6.1585,29.36,23.85,-4.50,3,S02
23140,-11.36528,-0.37589,-0.05267,49.8171,2.3171,-17.5000,29.36,23.85,-4.50,3,S02
23160,-10.30225,-0.91219,0.20111,46.7073,-1.2195,-31.8293,29.36,23.85,-4.50,3,S02
23180,-9.05727,-0.78051,0.24421,43.5976,-3.1707,-36.7073,31.01,22.02,-3.12,3,S02
23200,-8.04931,-0.41180,0.14126,41.7073,-2.3171,-40.1829,31.01,22.02,-3.12,3,S02
23220,-7.67342,-0.15562,0.11732,41.1585,1.5854,-44.0854,31.01,22.02,-3.12,3,S02
23240,-7.77876,-0.19154,0.09816,43.8415,8.1707,-44.4512,32.48,20.00,-2.02,3,S02
23260,-7.78594,-0.37350,0.09098,45.3659,13.6585,-40.0610,32.48,20.00,-2.02,3,S02
23280,-7.70215,-0.29928,-0.07661,43.8415,15.6707,-33.2317,32.48,20.00,-2.02,3,S02
23300,-7.69018,0.02873,-0.11971,38.3537,15.1829,-24.8780,32.84,19.17,-1.83,3,S02
23320,-7.78355,0.23942,0.26097,30.7317,14.2683,-16.3415,32.84,19.17,-1.83,3,S02
23340,-7.71172,0.16041,0.58897,25.1829,14.0854,-9.2073,32.84,19.17,-1.83,3,S02
23360,-7.91044,-0.05507,0.82361,24.5122,14.4512,-3.8415,32.84,19.17,-1.83,3,S02
23380,-8.46829,0.05028,1.22104,23.9024,12.8659,0.6098,32.57,19.27,-1.47,3,S02
23400,-8.97347,0.38068,1.63524,19.5122,6.5244,4.0854,32.57,19.27,-1.47,3,S02
23420,-9.00699,0.53630,1.68552,15.3049,0.3049,7.2561,32.57,19.27,-1.47,3,S02
23440,-8.95671,0.28252,1.86987,11.8902,0.9756,11.6463,31.83,19.54,-0.92,3,S02
23460,-9.50738,0.33040,2.25055,5.5488,2.5000,14.8780,31.83,19.54,-0.92,3,S02
23480,-10.00297,0.29449,2.06380,-5.3049,0.5488,18.8415,31.83,19.54,-0.92,3,S02
23500,-11.46823,-0.56743,0.53630,-9.6951,0.6707,21.4634,30.64,19.82,-1.19,3,S02
23520,-12.74434,-0.80685,-0.88107,-11.3415,2.6220,16.1585,30.64,19.82,-1.19,3,S02
23540,-11.66216,-0.55306,-0.74699,-20.0000,1.4024,0.6707,30.64,19.82,-1.19,3,S02
23560,-8.90883,-1.09894,-1.76692,-20.0000,-11.7073,-8.4146,30.64,19.82,-1.19,3,S02
23580,-8.95910,-2.92332,-1.83156,-13.1707,-11.5854,-5.9756,30.83,18.90,-1.19,3,S02
23600,-11.06600,-3.88340,-0.46926,1.1585,-5.9146,-8.7195,30.83,18.90,-1.19,3,S02
23620,-12.55280,-2.88262,0.73981,17.8659,-9.5122,-6.7683,30.83,18.90,-1.19,3,S02
23640,-11.58075,-1.57060,-0.00239,45.9756,-10.8537,2.3780,31.10,18.90,0.55,3,S02
23660,-9.97424,-0.70629,-0.90501,69.5732,-3.7195,7.0732,31.10,18.90,0.55,3,S02
23680,-9.63427,-0.37589,-0.89304,80.1220,3.9024,4.4512,31.10,18.90,0.55,3,S02
23700,-10.11790,-0.30167,-0.79009,89.5732,8.3537,3.7805,30.92,19.27,3.03,3,S02
23720,-10.09395,-0.26815,-0.71587,101.8902,10.1829,8.5366,30.92,19.27,3.03,3,S02
23740,-9.99340,0.03831,-0.64643,110.4268,6.0976,13.7195,30.92,19.27,3.03,3,S02
23760,-9.93354,0.67038,-0.78051,111.4634,-2.3780,18.2927,30.92,19.27,3.03,3,S02
23780,-9.25120,1.13246,-0.89304,107.8049,-8.6585,22.4390,29.72,20.00,6.70,3,S02
23800,-8.15944,1.39103,-0.12210,91.7073,-10.3049,16.4634,29.72,20.00,6.70,3,S02
23820,-8.07804,1.21386,0.24421,82.8049,-8.9024,8.6585,29.72,20.00,6.70,3,S02
23840,-8.22408,1.15161,0.54109,75.6707,-6.7683,3.6585,28.99,19.91,9.17,3,S02
23860,-8.44914,1.27372,0.88825,66.7073,-9.0854,2.3780,28.99,19.91,9.17,3,S02
23880,-8.66462,1.44370,1.43173,57.5610,-17.6220,3.3537,28.99,19.91,9.17,3,S02
23900,-8.60476,1.35512,2.14999,51.9512,-29.7561,6.8293,28.17,19.63,11.56,3,S02
23920,-7.96311,1.23780,2.31759,52.7439,-42.0122,12.4390,28.17,19.63,11.56,3,S02
23940,-7.31668,1.46525,1.85790,56.6463,-50.0000,17.3780,28.17,19.63,11.56,3,S02
23960,-7.03177,1.07739,0.75657,64.1463,-51.8902,19.5122,28.17,19.63,11.56,3,S02
23980,-9.83059,1.48680,-2.22182,70.1829,-47.8049,19.8780,26.51,19.17,15.05,3,S02
24000,-12.16015,0.43574,-3.27527,67.9878,-26.5244,33.9024,26.51,19.17,15.05,3,S02
24020,-13.18008,-3.55060,-0.36152,81.7073,-22.4390,48.5366,26.51,19.17,15.05,3,S02
24040,-14.04199,-4.38857,-1.23301,78.9024,-57.8049,38.5366,23.58,19.17,18.26,3,S02
24060,-13.04601,-1.04387,-2.34871,76.0366,-53.5976,23.2927,23.58,19.17,18.26,3,S02
24080,-12.18409,1.74298,-1.79805,61.2195,-41.7073,11.7683,23.58,19.17,18.26,3,S02
24100,-12.10987,1.88663,-1.28090,37.9268,-31.0366,-0.1829,22.94,18.07,19.63,3,S02
24120,-12.00213,0.53630,-0.39504,21.7683,-19.8171,-14.5732,22.94,18.07,19.63,3,S02
24140,-10.69250,-0.88585,-0.06943,19.0854,-12.7439,-26.8293,22.94,18.07,19.63,3,S02
24160,-8.57842,-1.43652,-0.00479,23.5366,-5.2439,-35.8537,22.94,18.07,19.63,3,S02
24180,-7.46512,-1.22823,-0.00958,31.2195,2.8659,-42.9878,23.58,16.70,19.91,3,S02
24200,-7.11796,-1.06542,0.08859,38.4146,9.2683,-45.6098,23.58,16.70,19.91,3,S02
24220,-7.26640,-0.82121,0.23224,44.0244,13.9634,-44.8780,23.58,16.70,19.91,3,S02
24240,-7.48188,-0.76614,0.29449,49.8781,14.2683,-39.1463,23.21,15.96,20.55,3,S02
24260,-7.74285,-0.81642,0.57700,55.0000,11.9512,-29.6341,23.21,15.96,20.55,3,S02
24280,-8.07085,-0.58897,1.07979,57.9268,10.6098,-21.3415,23.21,15.96,20.55,3,S02
24300,-8.33661,-0.56503,1.19950,61.4634,9.1463,-14.8171,21.93,16.15,21.56,3,S02
24320,-8.78433,-0.46687,1.41976,62.3781,7.1341,-10.4878,21.93,16.15,21.56,3,S02
24340,-9.31584,0.13168,1.70946,58.2317,1.0366,-8.1098,21.93,16.15,21.56,3,S02
24360,-9.58399,0.67756,2.09014,48.5366,-7.3780,-6.0976,21.93,16.15,21.56,3,S02
24380,-9.53132,0.50039,2.32477,36.5244,-15.7317,-4.6951,21.19,15.78,22.57,3,S02
24400,-9.46667,-0.28730,2.40617,25.8537,-21.4634,-3.5976,21.19,15.78,22.57,3,S02
24420,-9.34457,-1.07021,2.45885,15.3659,-23.9024,-2.0122,21.19,15.78,22.57,3,S02
24440,-9.20810,-1.42216,2.57377,8.4146,-24.5122,-0.7927,21.28,14.77,23.30,3,S02
24460,-9.44513,-1.99198,2.07338,9.0854,-22.6829,-0.4878,21.28,14.77,23.30,3,S02
24480,-10.53209,-2.55222,1.12527,20.6098,-17.9268,-2.3780,21.28,14.77,23.30,3,S02
24500,-11.22881,-0.77333,1.05584,22.1341,-14.8780,-10.0610,21.56,13.67,24.13,3,S02
24520,-9.82820,1.17555,0.11013,10.9146,-20.3049,-20.1829,21.56,13.67,24.13,3,S02
24540,-8.08043,0.87867,-1.02951,6.3415,-22.1951,-22.6829,21.56,13.67,24.13,3,S02
24560,-8.59518,-0.76854,-0.45011,4.8171,-13.3537,-18.5366,21.56,13.67,24.13,3,S02
24580,-11.00615,-1.88184,1.35991,10.7317,-4.6951,-13.5976,22.48,13.03,24.50,3,S02
24600,-12.24634,-1.23062,2.37026,21.8293,-5.0610,-7.6829,22.48,13.03,24.50,3,S02
24620,-11.69089,-0.17238,1.39343,40.5488,-9.5122,0.6707,22.48,13.03,24.50,3,S02
24640,-10.57040,0.90501,0.57940,51.7073,-7.3171,7.3780,21.28,13.03,26.24,3,S02
24660,-10.05565,1.30245,0.30646,53.9024,-2.8049,9.2073,21.28,13.03,26.24,3,S02
24680,-9.97185,0.92416,0.45011,57.5610,0.9756,8.7195,21.28,13.03,26.24,3,S02
24700,-9.87848,0.37828,0.72065,61.5854,1.9512,8.6585,19.72,13.21,28.07,3,S02
24720,-9.46667,0.18914,0.68474,63.7805,2.3171,9.6951,19.72,13.21,28.07,3,S02
24740,-9.20092,0.48123,0.51475,64.0244,3.6585,10.3049,19.72,13.21,28.07,3,S02
24760,-8.71968,0.86910,0.30885,62.9878,5.3659,10.5488,19.72,13.21,28.07,3,S02
24780,-8.37252,1.13964,0.31125,60.4878,8.0488,9.3293,17.80,13.76,29.72,3,S02
24800,-8.22648,1.13485,0.22027,56.5854,10.9756,6.3415,17.80,13.76,29.72,3,S02
24820,-8.21929,1.06063,0.22745,51.0976,12.9268,2.2561,17.80,13.76,29.72,3,S02
24840,-8.42520,1.02711,0.39744,44.0244,13.8415,-1.4024,16.79,14.13,31.10,3,S02
24860,-8.79390,0.94571,0.62728,37.5610,12.4390,-3.6585,16.79,14.13,31.10,3,S02
24880,-9.10036,0.81163,0.92895,33.0488,8.3537,-4.2683,16.79,14.13,31.10,3,S02
24900,-9.19134,0.82121,1.56581,29.3293,1.8902,-3.5976,15.60,13.67,32.75,3,S02
24920,-9.00220,0.96007,2.23379,27.1951,-6.4024,-0.7317,15.60,13.67,32.75,3,S02
24940,-8.73884,1.09894,2.58095,26.9512,-13.9634,3.8415,15.60,13.67,32.75,3,S02
24960,-8.12832,1.11570,2.42293,27.9268,-19.2073,8.9024,15.60,13.67,32.75,3,S02
24980,-7.72130,0.82121,2.27210,31.4024,-19.2073,12.8049,13.58,12.94,35.05,3,S02
25000,-8.36295,0.48842,1.76453,38.5366,-15.5488,12.9268,13.58,12.94,35.05,3,S02
25020,-10.06762,0.62728,0.13647,44.6951,-13.3537,15.1829,13.58,12.94,35.05,3,S02
25040,-10.47703,-0.11732,-1.13725,54.4512,-4.8780,26.7683,8.99,13.21,36.88,3,S02
25060,-9.71088,-1.68312,-0.58897,74.5732,5.8537,37.3171,8.99,13.21,36.88,3,S02
25080,-9.45949,-2.14281,-0.43574,84.0854,-5.9756,34.3902,8.99,13.21,36.88,3,S02
25100,-10.04607,-0.31125,-0.92177,79.0244,-22.9878,22.9878,4.40,11.83,38.44,3,S02
25120,-10.76912,1.92733,-0.88107,65.7927,-24.6341,16.5854,4.40,11.83,38.44,3,S02
25140,-11.41316,0.59137,1.20189,51.6463,-23.5366,6.2805,4.40,11.83,38.44,3,S02
25160,-11.67413,0.09098,1.66158,52.2561,-27.7439,-4.6951,4.40,11.83,38.44,3,S02
25180,-11.34612,0.16041,1.54665,52.0732,-24.5122,-10.5488,1.28,10.64,39.08,3,S02
25200,-10.81700,0.41899,1.45328,48.4146,-14.8780,-15.5488,1.28,10.64,39.08,3,S02
25220,-10.66856,0.48363,1.43173,44.8780,-4.2073,-24.4512,1.28,10.64,39.08,3,S02
25240,-10.71645,0.59616,1.24259,43.1707,3.5976,-35.2439,-1.10,10.83,38.72,3,S02
25260,-10.34535,0.41420,1.12767,42.2561,9.0244,-43.8415,-1.10,10.83,38.72,3,S02
25280,-9.58638,-0.00239,1.21386,42.7439,14.0244,-48.4756,-1.10,10.83,38.72,3,S02
25300,-8.68138,-0.33279,1.42934,43.4756,17.6829,-48.9024,-2.94,11.83,37.61,3,S02
25320,-7.89368,-0.32561,1.47243,41.8293,19.2073,-45.7927,-2.94,11.83,37.61,3,S02
25340,-8.04691,0.16520,1.58017,39.3902,18.2317,-40.0610,-2.94,11.83,37.61,3,S02
25360,-8.32224,0.70390,1.99676,37.3780,10.6707,-29.6951,-2.94,11.83,37.61,3,S02
25380,-7.36217,0.60334,2.20267,37.9878,-5.3049,-17.0732,-5.05,12.39,37.06,3,S02
25400,-5.87537,-0.23703,1.52750,44.3293,-18.9024,-5.6098,-5.05,12.39,37.06,3,S02
25420,-5.40850,-0.64165,0.21548,47.3781,-19.0244,5.0000,-5.05,12.39,37.06,3,S02
25440,-6.30872,-0.69192,-0.63207,38.1707,-10.9146,11.0366,-8.17,11.47,36.70,3,S02
25460,-8.29830,-1.22823,-1.74298,31.3415,-7.6829,10.3049,-8.17,11.47,36.70,3,S02
25480,-11.09712,-0.25139,-1.73101,32.9268,-12.6220,2.1341,-8.17,11.47,36.70,3,S02
25500,-11.74356,2.42054,-0.43096,16.9512,-31.2805,-5.8537,-9.54,9.72,36.70,3,S02
25520,-11.06839,2.01352,-0.12929,6.3415,-49.5732,-0.3049,-9.54,9.72,36.70,3,S02
25540,-11.31979,-1.08457,0.19632,20.1220,-41.2195,8.5976,-9.54,9.72,36.70,3,S02
25560,-12.51928,-2.99993,1.45807,24.5122,-27.1951,1.2805,-9.54,9.72,36.70,3,S02
25580,-13.70920,-1.84832,1.89621,31.8902,-18.0488,-7.6829,-11.38,8.72,36.06,3,S02
25600,-13.02206,-0.78530,1.46525,54.6341,-1.0366,-2.0732,-11.38,8.72,36.06,3,S02
25620,-11.83214,-0.90501,1.52750,76.6463,15.7927,5.8537,-11.38,8.72,36.06,3,S02
25640,-10.84573,-0.87388,1.06063,93.5366,24.8171,9.1463,-15.69,10.09,32.94,3,S02
25660,-10.07720,-0.29928,0.24900,107.8049,33.1098,10.3049,-15.69,10.09,32.94,3,S02
25680,-9.30147,0.43335,-0.22984,115.9756,37.3780,10.7927,-15.69,10.09,32.94,3,S02
25700,-8.59997,1.11330,-0.46926,119.3902,33.9024,10.5488,-20.37,11.38,28.90,3,S02
25720,-7.80510,1.25217,-0.46208,116.4634,26.3415,9.0244,-20.37,11.38,28.90,3,S02
25740,-7.29753,1.33118,-0.29449,109.3902,18.4756,5.4268,-20.37,11.38,28.90,3,S02
25760,-7.08684,1.49398,-0.36871,100.3659,12.6829,2.9878,-20.37,11.38,28.90,3,S02
25780,-7.66384,1.81959,-0.23224,90.0610,8.5366,3.5976,-23.12,11.38,25.78,3,S02
25800,-8.35816,2.32238,0.33998,74.5122,-3.8415,6.8902,-23.12,11.38,25.78,3,S02
25820,-7.93199,2.69587,0.71108,54.4512,-25.2439,10.5488,-23.12,11.38,25.78,3,S02
25840,-7.05092,2.82516,0.24660,37.0122,-38.9024,12.5610,-24.31,9.63,25.05,3,S02
25860,-6.95276,2.80840,-0.05507,26.8902,-34.7561,14.7561,-24.31,9.63,25.05,3,S02
25880,-6.91924,2.27449,0.23224,21.4634,-26.5854,20.0610,-24.31,9.63,25.05,3,S02
25900,-6.88812,0.50039,-0.21308,21.0976,-24.4512,24.2073,-25.41,8.17,23.94,3,S02
25920,-10.12987,-0.17238,-1.19231,28.4756,-22.0122,23.5366,-25.41,8.17,23.94,3,S02
25940,-13.70680,-1.18992,-1.72622,42.3171,-12.9268,34.0854,-25.41,8.17,23.94,3,S02
25960,-14.26705,-3.20584,0.04310,69.3902,-3.6585,48.2317,-25.41,8.17,23.94,3,S02
25980,-14.76025,-3.93128,0.21548,82.2561,-29.1463,41.5244,-28.07,5.87,20.83,3,S02
26000,-14.03481,-1.63045,-1.03190,86.2805,-45.1220,24.5122,-28.07,5.87,20.83,3,S02
26020,-12.31099,1.13725,-1.14922,80.6098,-32.1951,11.2195,-28.07,5.87,20.83,3,S02
26040,-11.74356,2.15718,-0.37589,63.4146,-22.3780,-4.7561,-28.81,6.06,18.81,3,S02
26060,-11.30781,1.14203,0.17478,54.8171,-16.5244,-20.8537,-28.81,6.06,18.81,3,S02
26080,-10.29267,0.10056,0.32801,55.3659,-10.1829,-32.5000,-28.81,6.06,18.81,3,S02
26100,-8.66462,-0.42856,0.05746,58.0488,-6.2805,-37.1951,-28.81,7.80,16.51,3,S02
26120,-7.49625,-0.51954,-0.14844,59.9390,-3.1098,-39.5732,-28.81,7.80,16.51,3,S02
26140,-6.93840,-0.44293,-0.18435,62.0732,1.8293,-40.2439,-28.81,7.80,16.51,3,S02
26160,-6.94318,-0.52912,-0.17957,66.9512,7.6220,-37.8049,-28.81,7.80,16.51,3,S02
26180,-7.29034,-0.85712,-0.15083,71.7683,11.7683,-32.1341,-29.08,9.45,13.49,3,S02
26200,-8.08761,-0.97683,0.06704,74.0854,12.7439,-26.0976,-29.08,9.45,13.49,3,S02
26220,-8.84418,-0.80445,0.39025,74.6341,8.0488,-20.6707,-29.08,9.45,13.49,3,S02
26240,-9.29669,-0.46687,0.67756,77.5610,-0.2439,-15.1220,-29.54,10.09,10.83,3,S02
26260,-9.35175,-0.15562,0.90261,81.6463,-7.9878,-9.3902,-29.54,10.09,10.83,3,S02
26280,-9.22486,0.07901,1.16358,81.8293,-13.9024,-4.9390,-29.54,10.09,10.83,3,S02
26300,-9.36612,0.28491,1.55384,77.5610,-20.5488,-2.1951,-29.91,10.28,8.90,3,S02
26320,-9.64145,0.33040,1.91776,69.9390,-28.9634,0.2439,-29.91,10.28,8.90,3,S02
26340,-9.46189,-0.22266,1.98958,63.2927,-35.0000,3.4146,-29.91,10.28,8.90,3,S02
26360,-9.30387,-0.88585,1.84114,56.7683,-34.4512,3.9634,-29.91,10.28,8.90,3,S02
26380,-9.35175,-1.31202,1.85551,50.4878,-26.9512,2.7439,-29.91,10.28,7.98,3,S02
26400,-9.87848,-1.80523,1.11809,51.1585,-19.4512,1.1585,-29.91,10.28,7.98,3,S02
26420,-11.37006,-1.77410,-0.01437,58.8415,-10.8537,-1.9512,-29.91,10.28,7.98,3,S02
26440,-11.35330,-0.37110,-0.35913,56.1585,-10.2439,-8.4146,-30.00,11.10,6.51,3,S02
26460,-7.83143,-0.27773,-1.06303,46.7073,-31.0366,-23.4146,-30.00,11.10,6.51,3,S02
26480,-8.96389,-1.86748,-0.51954,52.1341,-25.0000,-16.7073,-30.00,11.10,6.51,3,S02
26500,-11.95425,-1.49638,0.62249,72.6220,-15.2439,-18.5976,-29.91,11.93,4.68,3,S02
26520,-12.28465,-0.73023,0.84994,93.1098,-17.6829,-14.8171,-29.91,11.93,4.68,3,S02
26540,-11.25993,0.25379,0.31364,109.1463,-24.4512,-9.0244,-29.91,11.93,4.68,3,S02
26560,-10.12268,0.71587,-0.10534,117.0122,-26.3415,-6.2195,-29.91,11.93,4.68,3,S02
26580,-9.72525,0.36152,0.24660,122.3171,-23.1098,-7.0122,-30.00,12.29,0.73,3,S02
26600,-9.93833,-0.25379,0.51954,131.5244,-19.3293,-7.8049,-30.00,12.29,0.73,3,S02
26620,-9.80905,-0.40941,0.42138,143.5366,-13.2927,-5.6707,-30.00,12.29,0.73,3,S02
26640,-9.33739,0.19154,0.27054,149.2073,-11.0366,-2.9878,-29.27,12.75,-4.50,3,S02
26660,-8.77714,1.21865,-0.03352,148.2927,-8.7805,-1.4024,-29.27,12.75,-4.50,3,S02
26680,-8.40365,1.97282,-0.26576,141.5244,-4.2683,-0.0610,-29.27,12.75,-4.50,3,S02
26700,-8.32224,2.35111,-0.16999,126.6463,-0.1829,0.7317,-28.17,12.66,-8.72,3,S02
26720,-8.45871,2.39899,0.11971,107.3171,2.0732,0.0000,-28.17,12.66,-8.72,3,S02
26740,-8.59279,2.05183,0.41899,89.5732,1.9512,-2.1951,-28.17,12.66,-8.72,3,S02
26760,-8.33900,1.68073,0.54348,73.5976,0.6707,-3.8415,-28.17,12.66,-8.72,3,S02
26780,-8.06607,1.64003,0.54109,56.0976,0.8537,-4.1463,-27.34,12.84,-10.64,3,S02
26800,-7.97030,1.97761,0.76136,36.8293,3.3537,-3.1098,-27.34,12.84,-10.64,3,S02
26820,-8.17141,2.00634,1.08218,21.8293,6.5244,-2.4390,-27.34,12.84,-10.64,3,S02
26840,-8.70053,1.71185,1.32160,10.0000,2.6220,-2.5610,-27.52,12.75,-10.55,3,S02
26860,-9.10036,1.52271,1.56820,-1.5854,-6.7683,-2.8659,-27.52,12.75,-10.55,3,S02
26880,-9.12909,1.32399,2.03268,-9.9390,-13.7195,-1.9512,-27.52,12.75,-10.55,3,S02
26900,-8.82982,1.18992,2.23140,-15.1829,-16.5244,2.0122,-28.17,12.84,-9.36,3,S02
26920,-8.26000,1.08936,2.47321,-19.5732,-12.3171,9.6341,-28.17,12.84,-9.36,3,S02
26940,-8.02297,0.93134,2.89220,-23.5366,-5.0000,16.2805,-28.17,12.84,-9.36,3,S02
26960,-8.28154,0.47405,3.08852,-21.7073,1.0976,16.2805,-28.17,12.84,-9.36,3,S02
26980,-9.28232,0.37350,1.29526,-12.6220,6.4024,13.7195,-29.36,11.83,-8.99,3,S02
27000,-11.57357,1.50356,-0.99599,-7.6220,19.6341,15.1220,-29.36,11.83,-8.99,3,S02
27020,-12.08114,0.03112,-0.32082,5.2439,25.3659,23.2317,-29.36,11.83,-8.99,3,S02
27040,-11.90876,-1.58496,-0.37350,20.3659,3.7805,21.9512,-30.18,10.55,-10.00,3,S02
27060,-12.16733,-0.11013,-0.56264,26.1585,-6.5244,10.7317,-30.18,10.55,-10.00,3,S02
27080,-12.71560,2.34871,-0.37350,25.7317,-7.1341,-0.1829,-30.18,10.55,-10.00,3,S02
27100,-12.81377,2.45406,0.34955,18.5976,-13.3537,-4.3293,-29.72,11.01,-10.92,3,S02
27120,-12.12903,1.01754,0.37110,18.2927,-18.5366,-8.4756,-29.72,11.01,-10.92,3,S02
27140,-11.25514,-0.04788,0.39265,24.3293,-19.0854,-18.3537,-29.72,11.01,-10.92,3,S02
27160,-10.40759,0.02873,0.51954,28.1707,-17.8049,-31.1585,-29.72,11.01,-10.92,3,S02
27180,-10.02213,0.46926,0.66559,28.1707,-16.6463,-41.5854,-28.07,13.03,-12.29,3,S02
27200,-9.42597,0.72305,0.45011,24.4512,-16.0976,-46.2805,-28.07,13.03,-12.29,3,S02
27220,-8.62152,0.90501,0.41420,17.1951,-13.9634,-46.2805,-28.07,13.03,-12.29,3,S02
27240,-8.11634,0.67038,0.64883,9.3293,-12.6220,-41.7683,-26.61,15.05,-12.75,3,S02
27260,-7.65905,0.16281,0.81642,6.9512,-8.9634,-35.6707,-26.61,15.05,-12.75,3,S02
27280,-7.78116,-0.35913,0.94332,7.8049,-2.5610,-29.8171,-26.61,15.05,-12.75,3,S02
27300,-8.38450,-0.67995,1.21625,9.1463,1.6463,-23.7195,-25.50,15.69,-13.39,3,S02
27320,-8.56406,-0.69671,1.08218,9.6951,-0.7927,-16.2195,-25.50,15.69,-13.39,3,S02
27340,-8.49702,-0.50278,1.31442,8.1707,-7.6829,-7.6220,-25.50,15.69,-13.39,3,S02
27360,-8.16662,-0.55067,1.80762,7.1341,-15.4268,0.9146,-25.50,15.69,-13.39,3,S02
27380,-7.84101,-1.04627,2.22182,6.3415,-20.6707,5.6707,-25.14,16.42,-13.21,3,S02
27400,-7.74524,-1.72622,2.58813,7.6220,-25.6707,6.4024,-25.14,16.42,-13.21,3,S02
27420,-7.58722,-1.88184,2.53785,10.3659,-29.3902,7.3171,-25.14,16.42,-13.21,3,S02
27440,-7.59201,-1.46046,2.34871,11.5854,-26.9512,10.3659,-25.05,17.43,-12.94,3,S02
27460,-8.04691,-0.53870,2.06859,11.8293,-21.3415,10.9756,-25.05,17.43,-12.94,3,S02
27480,-9.05008,-0.58419,0.37110,7.3171,-16.7073,9.7561,-25.05,17.43,-12.94,3,S02
27500,-11.89200,-0.61292,-1.76932,5.4268,-7.3780,2.9878,-24.95,18.17,-12.20,3,S02
27520,-12.06678,0.95050,-0.60813,-9.8780,-10.4268,-5.4268,-24.95,18.17,-12.20,3,S02
27540,-10.85052,1.75734,-0.28730,-27.3780,-38.7805,-15.5488,-24.95,18.17,-12.20,3,S02
27560,-10.05565,-0.17238,-0.83558,-29.3293,-41.7073,-12.9268,-24.95,18.17,-12.20,3,S02
27580,-11.75314,-2.18351,0.93374,-23.8415,-18.9634,-4.6341,-25.14,19.63,-10.46,3,S02
27600,-12.54801,-1.64960,1.15161,-9.0244,-11.9512,-3.1098,-25.14,19.63,-10.46,3,S02
27620,-11.88721,0.01437,0.77093,8.7805,-12.2561,-1.5244,-25.14,19.63,-10.46,3,S02
27640,-10.68772,1.33596,0.46926,17.6829,-9.2073,2.0732,-24.59,20.09,-10.92,3,S02
27660,-9.60314,1.16598,0.52433,23.3537,-2.5610,7.3171,-24.59,20.09,-10.92,3,S02
27680,-9.11951,0.36871,0.67516,30.0000,5.0000,10.2439,-24.59,20.09,-10.92,3,S02
27700,-8.77236,-0.02394,0.51954,38.8415,11.0366,11.0976,-24.13,19.72,-12.84,3,S02
27720,-8.32943,0.33758,0.43814,46.2805,15.1829,11.7683,-24.13,19.72,-12.84,3,S02
27740,-7.92481,0.99120,0.26576,51.2805,16.5244,11.8293,-24.13,19.72,-12.84,3,S02
27760,-7.97748,1.49159,0.35195,51.8902,16.7683,10.9756,-24.13,19.72,-12.84,3,S02
27780,-7.80270,1.29287,0.43814,51.4634,14.9390,9.5122,-23.39,19.45,-14.95,3,S02
27800,-7.89847,0.82361,0.88825,49.2073,12.6829,1.4634,-23.39,19.45,-14.95,3,S02
27820,-8.12353,1.03908,1.13964,46.5244,12.9268,-1.2195,-23.39,19.45,-14.95,3,S02
27840,-8.49702,1.14682,1.41737,44.1463,13.1098,-2.9268,-22.48,19.45,-16.51,3,S02
27860,-8.97347,0.98402,1.73101,42.8049,10.2439,-4.6341,-22.48,19.45,-16.51,3,S02
27880,-9.33499,0.83558,2.26491,41.2805,4.7561,-6.4024,-22.48,19.45,-16.51,3,S02
27900,-9.48583,0.94571,2.64799,40.9756,-2.8659,-7.3171,-21.10,20.18,-17.71,3,S02
27920,-9.11951,1.08936,2.71502,42.4390,-12.6829,-5.9756,-21.10,20.18,-17.71,3,S02
27940,-8.71968,1.00796,2.44209,47.0122,-20.1220,-1.8902,-21.10,20.18,-17.71,3,S02
27960,-8.98304,0.51475,1.99437,53.6585,-21.3415,5.4878,-21.10,20.18,-17.71,3,S02
27980,-11.20486,1.27850,0.98881,56.1585,-17.5000,12.8659,-20.09,20.64,-18.62,3,S02
28000,-12.05241,1.30723,-0.30885,57.3781,-6.0366,25.7317,-20.09,20.64,-18.62,3,S02
28020,-11.32457,-1.20189,0.35434,73.5976,-6.1585,34.3293,-20.09,20.64,-18.62,3,S02
28040,-10.29028,-2.70305,0.40701,82.1341,-28.4756,27.2561,-18.90,20.37,-20.18,3,S02
28060,-10.97981,-1.37427,0.44293,91.2805,-30.0000,14.0854,-18.90,20.37,-20.18,3,S02
28080,-11.78905,0.66798,0.22027,92.0732,-21.0366,8.5976,-18.90,20.37,-20.18,3,S02
28100,-11.61188,1.05105,0.23703,84.5122,-15.9146,9.1463,-16.42,20.73,-21.74,3,S02
28120,-11.36049,-0.31364,0.65122,81.0366,-14.5122,-0.3049,-16.42,20.73,-21.74,3,S02
28140,-11.03488,-1.02711,0.62489,85.7927,-16.4024,-19.3902,-16.42,20.73,-21.74,3,S02
28160,-10.15381,-0.97205,0.64404,89.7561,-20.1829,-36.0366,-16.42,20.73,-21.74,3,S02
28180,-8.88249,-0.80685,0.53151,91.8902,-18.9634,-46.4024,-12.02,22.39,-23.30,3,S02
28200,-8.29112,-0.41659,0.37589,89.8781,-12.4390,-53.4146,-12.02,22.39,-23.30,3,S02
28220,-8.24803,-0.12929,0.52194,84.4512,-4.7561,-53.3537,-12.02,22.39,-23.30,3,S02
28240,-8.20014,-0.34955,0.63686,80.9146,0.5488,-47.3171,-7.61,23.12,-24.86,3,S02
28260,-7.90326,-0.90740,0.82600,78.1098,5.4878,-37.8049,-7.61,23.12,-24.86,3,S02
28280,-7.88889,-1.24977,1.01754,76.4024,9.6341,-29.4512,-7.61,23.12,-24.86,3,S02
28300,-8.20732,-1.07979,1.46765,73.7195,11.5244,-21.8293,-4.40,22.84,-26.24,3,S02
28320,-8.38689,-0.47884,1.72143,68.4146,9.7561,-15.1220,-4.40,22.84,-26.24,3,S02
28340,-8.60476,0.07901,1.97282,63.6585,6.4634,-8.8415,-4.40,22.84,-26.24,3,S02
28360,-8.70771,0.29209,2.48039,58.5366,0.0610,-2.5000,-4.40,22.84,-26.24,3,S02
28380,-8.26239,0.07661,2.54982,53.9634,-8.4146,2.5000,-2.48,23.21,-26.61,3,S02
28400,-7.86256,-0.25857,2.26731,48.2927,-12.3171,6.4634,-2.48,23.21,-26.61,3,S02
28420,-7.84819,-0.16281,1.70228,39.7561,-11.7073,11.1585,-2.48,23.21,-26.61,3,S02
28440,-7.91044,-0.35434,0.62489,31.4634,-6.9512,14.8780,-1.47,23.21,-26.42,3,S02
28460,-9.36372,-0.88346,-0.54109,30.7927,3.1707,12.1341,-1.47,23.21,-26.42,3,S02
28480,-11.09952,-0.76375,-0.01915,28.7805,4.6951,1.4024,-1.47,23.21,-26.42,3,S02
28500,-11.49217,0.18196,0.85473,26.4024,-18.1707,-9.3293,0.00,23.94,-26.06,3,S02
28520,-11.02051,-0.96247,1.00078,33.0488,-27.0122,-3.8415,0.00,23.94,-26.06,3,S02
28540,-12.22000,-2.39899,1.92254,46.8902,-16.6463,1.0366,0.00,23.94,-26.06,3,S02
28560,-12.93827,-1.91297,2.02549,59.7561,-13.8415,-1.2805,0.00,23.94,-26.06,3,S02
28580,-12.56716,-0.06943,1.17316,74.9390,-10.9146,-2.3780,2.84,24.04,-26.06,3,S02
28600,-11.14501,0.48123,0.48602,92.1951,-5.4268,0.0610,2.84,24.04,-26.06,3,S02
28620,-10.23042,-0.73023,0.54588,108.3537,-2.9878,-0.1829,2.84,24.04,-26.06,3,S02
28640,-10.17775,-1.46765,0.56264,125.0610,2.0732,-2.8049,7.98,23.67,-26.24,3,S02
28660,-10.05325,-0.60813,0.25139,138.2317,7.5610,-2.4390,7.98,23.67,-26.24,3,S02
28680,-9.69173,0.69911,-0.32082,145.6098,10.2439,0.0610,7.98,23.67,-26.24,3,S02
28700,-8.93037,1.59693,-0.49081,146.2805,9.5732,2.1951,13.03,23.39,-25.60,3,S02
28720,-8.35098,1.61609,0.04310,138.4146,5.7927,-0.4268,13.03,23.39,-25.60,3,S02
28740,-8.17141,0.55785,0.37110,134.3293,1.7683,-7.2561,13.03,23.39,-25.60,3,S02
28760,-8.20493,-0.03831,0.69671,131.2195,0.4878,-13.7805,13.03,23.39,-25.60,3,S02
28780,-8.13071,0.70629,0.78530,121.5854,-0.3049,-14.8171,17.61,23.12,-23.85,3,S02
28800,-7.99903,1.66876,0.84036,108.5976,-0.3659,-11.0366,17.61,23.12,-23.85,3,S02
28820,-8.11634,2.02071,1.41737,94.4512,-1.0366,-6.8902,17.61,23.12,-23.85,3,S02
28840,-8.37731,2.02549,2.21943,77.1341,-9.2683,-4.8780,20.00,23.39,-22.20,3,S02
28860,-8.24803,2.54264,2.67193,58.7805,-21.2195,-2.6829,20.00,23.39,-22.20,3,S02
28880,-7.75721,3.48596,2.41096,37.8659,-31.9512,1.9512,20.00,23.39,-22.20,3,S02
28900,-7.44836,3.02148,2.50673,26.4634,-35.3659,8.4756,20.18,24.68,-20.37,3,S02
28920,-6.86418,1.30245,2.73657,24.8780,-35.9756,12.9268,20.18,24.68,-20.37,3,S02
28940,-6.69898,-0.43096,2.71742,29.1463,-30.4878,10.7317,20.18,24.68,-20.37,3,S02
28960,-9.49062,-0.94092,0.83318,40.0000,-15.6707,5.6707,20.18,24.68,-20.37,3,S02
28980,-13.67089,-1.11091,-0.90740,52.3781,11.1585,16.0366,21.10,24.40,-19.17,3,S02
29000,-13.66850,-4.21858,-0.39504,82.6829,17.9268,41.7073,21.10,24.40,-19.17,3,S02
29020,-13.37162,-3.24175,-2.64559,86.2195,-11.8293,43.3537,21.10,24.40,-19.17,3,S02
29040,-13.87200,1.39103,-3.02867,78.7805,-7.0732,31.4634,21.74,25.23,-16.97,3,S02
29060,-13.47936,4.13718,-2.53546,54.5732,-5.5488,23.7195,21.74,25.23,-16.97,3,S02
29080,-12.57674,3.44047,-1.78607,24.5732,-10.0610,11.5244,21.74,25.23,-16.97,3,S02
29100,-11.54245,1.47962,-1.15879,5.1220,-16.1585,-13.6585,22.94,24.40,-16.06,3,S02
29120,-10.01255,-0.09337,-0.51475,-3.1707,-20.3049,-40.8537,22.94,24.40,-16.06,3,S02
29140,-7.63032,-1.09654,0.30406,-0.4268,-11.5244,-63.0488,22.94,24.40,-16.06,3,S02
29160,-7.66863,-0.96486,0.45250,3.4146,-2.1951,-60.9146,22.94,24.40,-16.06,3,S02
29180,-7.83862,-0.99359,0.42138,10.2439,4.3902,-51.8902,25.05,22.29,-15.69,3,S02
29200,-7.85777,-1.34315,0.61531,20.2439,7.0732,-39.8780,25.05,22.29,-15.69,3,S02
29220,-7.87453,-1.25935,0.73741,28.9024,6.8902,-29.4512,25.05,22.29,-15.69,3,S02
29240,-7.76200,-0.86670,0.97444,34.5122,7.5000,-20.1829,26.33,21.28,-14.86,3,S02
29260,-7.51300,-0.54827,1.12288,37.6829,10.0000,-12.8049,26.33,21.28,-14.86,3,S02
29280,-7.75482,-0.12929,1.13485,37.9268,14.0244,-7.6829,26.33,21.28,-14.86,3,S02
29300,-8.77236,0.87867,1.72861,32.2561,12.9268,-2.8659,27.16,21.19,-14.22,3,S02
29320,-9.19134,1.56102,2.67193,24.2683,1.4024,4.5122,27.16,21.19,-14.22,3,S02
29340,-8.52815,1.11330,3.07655,22.3171,-10.6707,12.9268,27.16,21.19,-14.22,3,S02
29360,-7.52019,0.10774,3.00472,20.6098,-18.2927,21.8293,27.16,21.19,-14.22,3,S02
29380,-6.94558,-0.48842,2.08774,18.4146,-21.5854,31.4634,26.42,22.39,-12.11,3,S02
29400,-6.82587,-0.57461,1.15401,16.4024,-18.7805,37.1951,26.42,22.39,-12.11,3,S02
29420,-7.90565,-2.22421,-1.12767,22.1341,-12.6220,32.3780,26.42,22.39,-12.11,3,S02
29440,-12.09790,-2.28407,-1.47243,37.5000,-2.1951,15.3049,24.50,22.39,-9.91,3,S02
29460,-14.07791,0.46208,1.10373,26.5854,-17.1341,0.2439,24.50,22.39,-9.91,3,S02
29480,-13.79300,0.86910,0.02634,32.8659,-38.5366,0.0610,24.50,22.39,-9.91,3,S02
29500,-12.37563,-3.01669,0.14844,45.9146,-31.7073,7.9268,24.68,21.10,-8.62,3,S02
29520,-12.73715,-3.96719,1.29526,45.3659,-24.4512,3.5976,24.68,21.10,-8.62,3,S02
29540,-13.21839,-1.33357,0.79248,69.6341,-12.2561,-3.1707,24.68,21.10,-8.62,3,S02
29560,-12.21522,-0.19632,0.13886,99.5732,-0.6098,0.5488,24.68,21.10,-8.62,3,S02
29580,-10.93671,-1.85551,0.59376,123.1098,4.2073,4.9390,26.70,21.56,-6.61,3,S02
29600,-10.36211,-2.50194,0.44772,146.8293,2.7439,1.2195,26.70,21.56,-6.61,3,S02
29620,-10.00537,-1.12767,-0.13886,165.6707,4.1463,0.6098,26.70,21.56,-6.61,3,S02
29640,-9.11712,0.17717,-0.56264,174.6342,4.2073,5.3659,27.80,21.47,-2.39,3,S02
29660,-8.18338,1.05584,-0.79727,175.5488,2.3171,7.0732,27.80,21.47,-2.39,3,S02
29680,-7.66623,1.56341,-0.51236,165.4268,-0.7317,2.9268,27.80,21.47,-2.39,3,S02
29700,-7.48906,1.86029,-0.24421,149.8171,-3.0488,-3.4756,28.17,21.19,1.28,3,S02
29720,-7.42442,2.13323,0.18196,133.6585,-2.8049,-5.2439,28.17,21.19,1.28,3,S02
29740,-7.19218,1.85072,0.71587,117.1341,-4.5732,-1.5244,28.17,21.19,1.28,3,S02
