timestamp,ax,ay,az,gx,gy,gz,mx,my,mz,label,subject_id
0,-9.30626,0.39265,1.51553,-4.7561,2.3780,0.1829,-7.06,13.21,33.12,4,S02
20,-9.26556,0.38307,1.49877,-4.8780,3.2927,0.6707,-7.06,13.21,33.12,4,S02
40,-9.32781,0.35434,1.49398,-5.4878,4.2073,1.1585,-7.06,13.21,33.12,4,S02
60,-9.45949,0.29209,1.43173,-5.7927,4.3902,1.0976,-7.25,13.30,33.03,4,S02
80,-9.53132,0.25139,1.34075,-5.5488,3.6585,1.0366,-7.25,13.30,33.03,4,S02
100,-9.59596,0.27294,1.28808,-5.3049,2.3780,1.2805,-7.25,13.30,33.03,4,S02
120,-9.58878,0.28012,1.27611,-5.4878,0.5488,1.6463,-7.16,13.30,33.03,4,S02
140,-9.53371,0.24421,1.24498,-5.2439,-0.9756,1.7683,-7.16,13.30,33.03,4,S02
160,-9.53132,0.26336,1.26414,-5.0610,-1.8902,1.6463,-7.16,13.30,33.03,4,S02
180,-9.53610,0.34716,1.23062,-5.1220,-3.7195,1.6463,-7.16,13.21,33.03,4,S02
200,-9.50019,0.41420,1.24259,-5.3049,-5.6098,2.3171,-7.16,13.21,33.03,4,S02
220,-9.44513,0.45490,1.32399,-5.6707,-6.7073,3.1707,-7.16,13.21,33.03,4,S02
240,-9.40203,0.49321,1.35033,-6.4634,-7.4390,3.4756,-7.16,13.21,33.03,4,S02
260,-9.38048,0.51475,1.35512,-7.2561,-7.5610,3.1098,-7.16,12.84,33.39,4,S02
280,-9.26317,0.55545,1.27132,-7.7439,-7.4390,2.7439,-7.16,12.84,33.39,4,S02
300,-9.23922,0.50996,1.13006,-7.7439,-6.5854,2.5610,-7.16,12.84,33.39,4,S02
320,-9.32542,0.33998,1.09894,-7.4390,-4.8171,2.5000,-6.88,12.75,33.49,4,S02
340,-9.37330,0.12689,1.10612,-6.8293,-4.2073,1.8293,-6.88,12.75,33.49,4,S02
360,-9.39006,-0.06225,1.06303,-5.4878,-3.4146,0.3049,-6.88,12.75,33.49,4,S02
380,-9.37091,-0.08380,1.01993,-3.9024,-1.5854,-1.2805,-6.97,12.84,33.39,4,S02
400,-9.44034,-0.19632,0.98402,0.5488,6.4024,-1.3415,-6.97,12.84,33.39,4,S02
420,-9.51216,-0.08380,1.23062,0.4878,7.5610,-0.7317,-6.97,12.84,33.39,4,S02
440,-9.48822,0.06704,1.09654,0.3049,6.3415,-1.2805,-6.97,12.84,33.39,4,S02
460,-9.28711,0.24900,0.87628,-0.1220,6.2805,-1.7073,-6.97,13.21,33.03,4,S02
480,-9.27035,0.32082,0.87628,-1.7683,6.0366,-1.4024,-6.97,13.21,33.03,4,S02
500,-9.35893,0.24421,0.69192,-2.9268,6.2195,-0.1829,-6.97,13.21,33.03,4,S02
520,-9.23444,0.33998,0.48363,-4.4512,7.6220,1.2805,-6.79,13.39,32.75,4,S02
540,-8.93995,0.60094,0.34477,-7.9878,7.6829,1.2195,-6.79,13.39,32.75,4,S02
560,-9.03332,0.79966,0.32082,-11.8902,8.6585,-1.2195,-6.79,13.39,32.75,4,S02
580,-9.33020,1.06303,0.35913,-17.8659,9.6951,-3.7805,-5.87,14.13,32.84,4,S02
600,-9.46189,1.27611,0.59616,-26.0976,10.4878,-5.3659,-5.87,14.13,32.84,4,S02
620,-9.77792,0.97923,1.40300,-30.3049,12.0122,-7.9878,-5.87,14.13,32.84,4,S02
640,-10.39084,0.58897,2.17154,-27.6829,6.4024,-10.6707,-5.87,14.13,32.84,4,S02
660,-10.12747,0.47645,2.57137,-21.0366,2.9878,-7.6220,-4.86,14.77,33.21,4,S02
680,-9.51695,0.45250,2.60250,-12.2561,6.5854,-1.7073,-4.86,14.77,33.21,4,S02
700,-9.32063,0.11492,2.62405,-1.8293,10.9146,0.8537,-4.86,14.77,33.21,4,S02
720,-9.54329,-0.40701,2.88262,10.1220,12.6829,0.9756,-5.87,15.60,32.57,4,S02
740,-9.24162,-0.37589,2.56898,22.0122,13.5366,2.3171,-5.87,15.60,32.57,4,S02
760,-9.02854,0.36631,2.12605,27.8659,14.8780,3.9634,-5.87,15.60,32.57,4,S02
780,-9.25838,1.07500,1.99916,30.3659,15.5488,4.8171,-7.52,16.33,31.74,4,S02
800,-9.81383,1.33118,1.90578,32.9878,13.5976,4.7561,-7.52,16.33,31.74,4,S02
820,-9.63666,0.88585,1.76453,33.9024,8.4146,6.0366,-7.52,16.33,31.74,4,S02
840,-8.99980,0.68474,1.33836,31.5244,4.0854,7.0732,-7.52,16.33,31.74,4,S02
860,-9.00699,1.17316,1.13964,25.9756,4.5732,5.7317,-8.99,16.24,31.28,4,S02
880,-9.20810,1.41497,1.10373,21.2805,5.0610,4.4512,-8.99,16.24,31.28,4,S02
900,-9.22486,1.36709,1.00556,17.7439,2.5000,3.2927,-8.99,16.24,31.28,4,S02
920,-9.02614,1.53229,0.86191,10.6098,-2.0122,1.9512,-9.36,16.33,30.92,4,S02
940,-8.85376,1.84354,0.66798,1.2195,-3.5366,0.7317,-9.36,16.33,30.92,4,S02
960,-8.81306,1.82917,0.50757,-6.1585,0.3049,-0.4268,-9.36,16.33,30.92,4,S02
980,-9.09797,1.31681,0.46448,-11.8902,5.3659,-2.3171,-8.72,16.70,30.73,4,S02
1000,-9.91918,0.68714,0.70150,-13.2317,10.1829,-4.8171,-8.72,16.70,30.73,4,S02
1020,-11.27190,0.50757,0.83318,-8.4146,13.4756,-4.3293,-8.72,16.70,30.73,4,S02
1040,-11.93031,0.60334,0.74699,-4.2073,13.5976,2.1341,-8.72,16.70,30.73,4,S02
1060,-11.46823,1.54426,-0.62489,-9.2073,14.1463,9.5732,-8.72,17.06,30.37,4,S02
1080,-12.95503,1.51074,1.51553,-15.1220,19.7561,11.5244,-8.72,17.06,30.37,4,S02
1100,-14.58548,1.85790,0.53391,-13.9634,12.1341,17.0122,-8.72,17.06,30.37,4,S02
1120,-13.54879,0.70390,0.41899,-12.6220,21.2195,27.2561,-8.90,17.52,29.91,4,S02
1140,-11.92552,0.21787,-1.04148,-2.1341,28.5366,22.1341,-8.90,17.52,29.91,4,S02
1160,-10.39562,-0.05028,-1.32639,10.6098,31.3415,3.1707,-8.90,17.52,29.91,4,S02
1180,-9.40921,-0.04070,-1.71664,17.8049,32.6829,-14.8780,-8.90,19.27,28.62,4,S02
1200,-9.60793,0.33758,-0.79966,12.5610,34.3902,-25.3049,-8.90,19.27,28.62,4,S02
1220,-9.87608,0.27294,-0.54348,4.1463,30.6098,-30.9756,-8.90,19.27,28.62,4,S02
1240,-9.61751,-0.07901,-0.27773,-3.6585,26.8902,-37.1341,-8.90,19.27,28.62,4,S02
1260,-9.19373,-0.61052,-0.14365,-10.6707,20.9756,-39.6341,-7.43,20.83,28.07,4,S02
1280,-8.49223,-1.13485,-0.08619,-16.5244,12.8049,-36.8902,-7.43,20.83,28.07,4,S02
1300,-8.04691,-1.20189,-0.06943,-21.8293,9.3902,-33.0488,-7.43,20.83,28.07,4,S02
1320,-8.23127,-0.89304,-0.17717,-23.2317,13.2927,-31.8902,-5.50,21.47,27.89,4,S02
1340,-8.52575,-0.45969,-0.46448,-19.9390,17.9268,-32.6220,-5.50,21.47,27.89,4,S02
1360,-8.90643,-0.09098,-0.42617,-19.7561,16.8293,-32.6220,-5.50,21.47,27.89,4,S02
1380,-9.01417,0.00000,-0.40462,-24.0244,10.9146,-30.8537,-3.76,22.11,27.71,4,S02
1400,-8.84418,-0.16281,-0.74699,-27.4390,6.0366,-28.5366,-3.76,22.11,27.71,4,S02
1420,-8.67898,-0.57940,-1.04866,-25.9146,6.2805,-26.0976,-3.76,22.11,27.71,4,S02
1440,-8.79151,-1.09415,-0.91459,-22.9878,6.6463,-23.4146,-3.76,22.11,27.71,4,S02
1460,-9.19134,-1.15879,-0.71347,-20.5488,2.9878,-21.6463,-2.48,22.39,27.98,4,S02
1480,-9.02135,-0.85952,-1.00317,-20.1220,-1.7073,-19.3293,-2.48,22.39,27.98,4,S02
1500,-8.39647,-0.78290,-1.30484,-19.5122,-0.4878,-16.2195,-2.48,22.39,27.98,4,S02
1520,-8.16902,-1.16837,-1.05824,-15.6707,4.2073,-12.9268,-1.74,22.20,27.89,4,S02
1540,-8.50181,-1.23301,-0.73981,-13.5366,3.6585,-12.1951,-1.74,22.20,27.89,4,S02
1560,-8.70053,-0.93134,-0.59855,-13.4146,0.6098,-11.1585,-1.74,22.20,27.89,4,S02
1580,-8.67419,-0.75178,-0.51715,-12.4390,-1.4024,-9.8171,-1.19,22.11,27.98,4,S02
1600,-8.56406,-0.63925,-0.42617,-10.8537,-4.2683,-9.3293,-1.19,22.11,27.98,4,S02
1620,-8.54491,-0.63446,-0.35195,-12.0732,-8.5976,-6.7073,-1.19,22.11,27.98,4,S02
1640,-8.57603,-0.79727,-0.04549,-14.6341,-11.2195,-2.1951,-1.19,22.11,27.98,4,S02
1660,-8.71729,-1.15640,0.35195,-14.2073,-12.2561,1.8902,-1.10,21.56,28.44,4,S02
1680,-9.02375,-1.62327,0.86910,-10.1220,-13.6585,4.8780,-1.10,21.56,28.44,4,S02
1700,-9.29190,-1.84114,1.17316,-5.5488,-17.0122,7.2561,-1.10,21.56,28.44,4,S02
1720,-9.54089,-1.57299,1.15879,-4.8171,-20.3049,9.2683,-1.38,21.01,28.90,4,S02
1740,-10.66377,-0.72544,0.96965,-12.3780,-25.0000,9.5732,-1.38,21.01,28.90,4,S02
1760,-11.23120,-0.33758,0.51236,-17.9878,-27.1341,9.8171,-1.38,21.01,28.90,4,S02
1780,-11.29824,-0.86431,-0.95289,-22.4390,-22.9878,10.6707,-0.73,20.28,29.72,4,S02
1800,-12.69166,-1.66397,-1.10852,-25.0610,-12.5610,10.6098,-0.73,20.28,29.72,4,S02
1820,-14.11142,-0.88825,-0.72784,-37.6829,-11.3415,8.9634,-0.73,20.28,29.72,4,S02
1840,-13.44105,-0.41420,-0.65601,-47.6220,-16.8293,10.0610,-0.73,20.28,29.72,4,S02
1860,-11.57596,-1.30005,-1.94888,-48.9634,-21.7073,15.3049,0.83,19.63,30.55,4,S02
1880,-10.30225,-2.19309,-1.97282,-49.3902,-13.4756,18.0488,0.83,19.63,30.55,4,S02
1900,-10.24718,-2.00155,-1.97761,-50.2439,-6.7683,16.7073,0.83,19.63,30.55,4,S02
1920,-10.67814,-1.17795,-1.93691,-46.8293,-1.3415,18.1707,1.93,19.82,30.64,4,S02
1940,-10.49379,-0.50996,-1.43413,-41.7073,-1.5854,24.5732,1.93,19.82,30.64,4,S02
1960,-9.90481,-0.23224,-1.05345,-36.3415,-7.4390,29.3902,1.93,19.82,30.64,4,S02
1980,-9.50498,-0.05746,-1.24020,-32.6220,-10.2439,27.3171,2.20,19.72,31.10,4,S02
2000,-9.57920,0.15323,-1.47243,-31.1585,-7.0122,25.3049,2.20,19.72,31.10,4,S02
2020,-9.99819,0.75896,-1.29526,-32.8659,-5.9756,27.5000,2.20,19.72,31.10,4,S02
2040,-9.51456,1.00796,-1.15401,-32.7439,-3.0488,33.4756,2.20,19.72,31.10,4,S02
2060,-8.30309,0.72544,-1.03669,-31.9512,-3.5976,38.0488,2.29,19.91,31.38,4,S02
2080,-7.77876,0.66319,-0.99120,-30.4878,-3.1098,34.4512,2.29,19.91,31.38,4,S02
2100,-7.36456,0.69671,-1.18752,-29.8780,-0.6707,28.9634,2.29,19.91,31.38,4,S02
2120,-6.44759,0.39025,-0.85473,-32.8659,0.0610,24.3293,2.75,20.09,31.47,4,S02
2140,-6.28957,0.24181,-0.76854,-30.3049,-0.9756,17.2561,2.75,20.09,31.47,4,S02
2160,-7.34781,0.77333,-0.82600,-25.0610,1.4024,12.8049,2.75,20.09,31.47,4,S02
2180,-7.61356,0.73741,-0.54348,-24.5732,3.8415,17.0732,3.12,20.64,31.38,4,S02
2200,-7.36935,0.79248,-0.11492,-25.4878,3.8415,21.4024,3.12,20.64,31.38,4,S02
2220,-7.58483,1.08457,0.35434,-24.3293,4.6951,19.0244,3.12,20.64,31.38,4,S02
2240,-8.09001,0.91698,0.85473,-19.2683,5.7927,13.4756,3.12,20.64,31.38,4,S02
2260,-9.30626,1.06781,0.83318,-13.2927,5.6707,8.4146,3.30,21.01,31.47,4,S02
2280,-9.95749,1.23062,1.09654,-13.5976,7.0732,8.7805,3.30,21.01,31.47,4,S02
2300,-10.40041,1.79565,1.28808,-17.1341,4.4512,8.0488,3.30,21.01,31.47,4,S02
2320,-10.98939,2.01592,1.56102,-17.3171,3.8415,3.5976,3.67,21.19,31.28,4,S02
2340,-11.63582,1.52271,1.73580,-10.9146,4.0244,-2.6220,3.67,21.19,31.28,4,S02
2360,-11.54484,1.15161,0.90261,-2.6220,1.8902,-8.1098,3.67,21.19,31.28,4,S02
2380,-12.05481,0.42617,1.00317,7.6220,-2.3780,-13.5976,3.58,21.28,31.56,4,S02
2400,-13.16093,0.83558,-0.35434,25.9756,-8.2317,-15.4878,3.58,21.28,31.56,4,S02
2420,-12.47858,1.08936,-0.99838,37.5000,-5.9756,-9.8780,3.58,21.28,31.56,4,S02
2440,-11.19529,1.28090,-1.89621,37.8049,-7.3171,-7.1951,3.58,21.28,31.56,4,S02
2460,-10.78827,1.55623,-2.49955,31.0976,-11.7683,-11.7073,2.20,21.28,32.02,4,S02
2480,-10.63026,0.98881,-2.44927,26.1585,-17.8659,-15.0610,2.20,21.28,32.02,4,S02
2500,-10.36689,0.30406,-1.96564,20.8537,-21.9512,-16.0976,2.20,21.28,32.02,4,S02
2520,-10.05804,0.08859,-1.31202,10.5488,-26.7073,-14.9390,2.11,20.18,32.84,4,S02
2540,-9.83778,-0.05507,-0.87867,1.8293,-30.0000,-11.2805,2.11,20.18,32.84,4,S02
2560,-9.89045,-0.40701,-0.52194,-1.2805,-28.4756,-6.4024,2.11,20.18,32.84,4,S02
2580,-9.42597,-0.95289,-0.44772,1.9512,-24.0244,-7.5610,2.39,19.17,33.49,4,S02
2600,-8.69574,-1.26893,-0.36152,6.9512,-20.3659,-15.6707,2.39,19.17,33.49,4,S02
2620,-7.98706,-0.92895,-0.28970,10.4268,-18.1707,-23.0488,2.39,19.17,33.49,4,S02
2640,-7.63750,-0.18675,-0.51236,10.1220,-15.4268,-24.8780,2.39,18.99,34.04,4,S02
2660,-7.27837,0.14365,-0.82121,6.4634,-10.8537,-22.0732,2.39,18.99,34.04,4,S02
2680,-6.92403,-0.05028,-0.78051,3.7805,-5.1220,-17.4390,2.39,18.99,34.04,4,S02
2700,-7.01741,-0.53870,-0.58179,2.8659,-1.4634,-14.1463,2.39,18.99,34.04,4,S02
2720,-7.35499,-0.67038,-0.30167,1.2195,-1.7073,-13.3537,2.48,19.08,34.04,4,S02
2740,-7.67342,-0.55785,-0.23224,-1.8902,-3.8415,-13.6585,2.48,19.08,34.04,4,S02
2760,-7.81467,-0.61770,-0.32561,-1.7683,-2.5000,-13.7805,2.48,19.08,34.04,4,S02
2780,-8.07085,-0.82361,-0.25857,-1.4634,0.7927,-12.4390,2.57,19.08,34.13,4,S02
2800,-8.37731,-0.85712,-0.11013,-3.7195,0.8537,-10.9756,2.57,19.08,34.13,4,S02
2820,-8.50899,-0.60094,0.14605,-5.0000,1.0366,-9.3293,2.57,19.08,34.13,4,S02
2840,-8.66222,-0.20830,0.46448,-6.0976,2.0122,-8.0488,2.75,19.17,34.04,4,S02
2860,-8.74602,-0.09098,0.35434,-6.2805,3.0488,-6.8293,2.75,19.17,34.04,4,S02
2880,-8.83939,-0.29209,0.44772,-5.9146,6.1585,-5.1829,2.75,19.17,34.04,4,S02
2900,-9.23683,-0.38547,0.71108,-5.9146,6.7683,-3.9634,2.75,19.17,34.04,4,S02
2920,-9.54808,-0.18196,1.12767,-7.3780,5.7317,-2.0122,2.75,19.54,33.76,4,S02
2940,-9.19134,0.09577,1.34315,-10.0000,2.2561,1.0366,2.75,19.54,33.76,4,S02
2960,-8.96389,0.06943,1.56341,-11.0366,-0.0610,3.3537,2.75,19.54,33.76,4,S02
2980,-9.38767,-0.15323,1.87227,-9.4512,-1.2805,4.0854,2.84,19.36,34.13,4,S02
3000,-9.96227,-0.05028,1.93452,-9.0244,-3.2927,4.3902,2.84,19.36,34.13,4,S02
3020,-10.00297,0.20590,1.68312,-13.4756,-3.7805,5.3049,2.84,19.36,34.13,4,S02
3040,-10.05086,0.21069,1.18034,-19.2073,-0.8537,6.1585,3.12,20.00,34.13,4,S02
3060,-10.42914,-0.62728,0.76614,-18.7195,5.7317,6.8293,3.12,20.00,34.13,4,S02
3080,-12.61505,-0.69432,0.93613,-22.1341,10.6707,2.5610,3.12,20.00,34.13,4,S02
3100,-12.99333,0.42377,1.05105,-28.1098,5.8537,-2.8049,3.12,20.00,34.13,4,S02
3120,-12.65336,-0.27294,0.49081,-28.2927,0.2439,-1.1585,4.13,20.09,34.31,4,S02
3140,-11.68849,-1.39821,-0.34477,-23.8415,-1.1585,4.3902,4.13,20.09,34.31,4,S02
3160,-11.05164,-2.02071,-0.70390,-24.0244,-1.2195,5.0610,4.13,20.09,34.31,4,S02
3180,-10.97742,-1.56820,-1.00317,-22.1341,-4.2683,5.0000,4.40,20.09,34.68,4,S02
3200,-10.74039,-1.09654,-1.53468,-15.6707,-6.4024,9.4512,4.40,20.09,34.68,4,S02
3220,-10.60631,-0.44053,-1.39343,-11.1585,-5.0610,13.4146,4.40,20.09,34.68,4,S02
3240,-10.56082,-0.18914,-0.82121,-8.5366,-6.5244,16.5854,3.76,20.00,34.95,4,S02
3260,-10.60631,0.02873,-0.63207,-3.3537,-9.5122,18.6585,3.76,20.00,34.95,4,S02
3280,-10.49379,0.47166,-0.64643,0.3049,-10.4268,23.2317,3.76,20.00,34.95,4,S02
3300,-9.94073,0.98881,-0.87388,0.6098,-10.4878,29.7561,3.76,20.00,34.95,4,S02
3320,-8.80587,0.87388,-0.65601,-1.9512,-9.9390,35.1220,2.39,19.91,35.41,4,S02
3340,-7.70215,0.33519,-0.38068,-3.3537,-9.6951,35.3049,2.39,19.91,35.41,4,S02
3360,-7.31668,0.27294,-0.37350,-3.9024,-8.9634,28.9024,2.39,19.91,35.41,4,S02
3380,-7.40527,0.49799,-0.46208,-4.6951,-5.6098,22.1341,1.74,19.82,35.78,4,S02
3400,-7.21852,0.64404,-0.45250,-3.9634,-3.2317,17.9878,1.74,19.82,35.78,4,S02
3420,-7.18021,0.44772,-0.27773,-2.6829,-1.4634,15.7927,1.74,19.82,35.78,4,S02
3440,-7.16824,0.25857,-0.14605,-0.6098,1.2805,12.3780,1.10,20.00,35.78,4,S02
3460,-7.29753,0.51236,0.00718,1.2195,1.8293,7.9268,1.10,20.00,35.78,4,S02
3480,-7.47230,0.85473,-0.11253,2.6220,-0.3659,3.8415,1.10,20.00,35.78,4,S02
3500,-7.98227,1.30005,-0.13886,1.7683,-2.7439,2.0122,1.10,20.00,35.78,4,S02
3520,-8.36295,1.72143,0.13647,-2.7439,-4.3902,4.1463,0.83,19.91,36.06,4,S02
3540,-8.21690,1.73580,0.37828,-7.9878,-5.5488,8.3537,0.83,19.91,36.06,4,S02
3560,-7.99903,1.60172,0.60094,-10.9756,-5.1220,8.2927,0.83,19.91,36.06,4,S02
3580,-8.39407,1.36948,0.79487,-12.8049,-1.6463,5.6707,1.01,19.82,36.24,4,S02
3600,-9.09797,1.43173,1.39582,-15.0000,3.1098,4.6341,1.01,19.82,36.24,4,S02
3620,-9.89045,1.51553,1.98958,-18.4146,4.7561,6.8293,1.01,19.82,36.24,4,S02
3640,-10.38844,1.32878,2.09493,-18.4146,5.4878,8.7805,1.28,20.37,36.15,4,S02
3660,-10.23282,0.79248,1.94888,-11.9512,9.3902,9.2073,1.28,20.37,36.15,4,S02
3680,-10.33577,0.73023,1.98000,-5.0000,13.5366,7.1341,1.28,20.37,36.15,4,S02
3700,-10.93671,1.21865,1.51314,0.5488,13.6585,4.0854,1.28,20.37,36.15,4,S02
3720,-11.45386,1.67834,0.72065,2.1341,13.9634,1.9512,0.46,21.19,35.78,4,S02
3740,-12.81616,1.78607,0.56024,5.7927,13.7805,1.7073,0.46,21.19,35.78,4,S02
3760,-13.21599,2.11647,-0.27294,6.7073,12.0122,8.0488,0.46,21.19,35.78,4,S02
3780,-12.44267,1.28329,-0.75417,10.4268,13.4756,12.6220,-1.01,21.93,35.60,4,S02
3800,-12.23676,0.88585,-2.07817,20.9146,15.1220,5.4268,-1.01,21.93,35.60,4,S02
3820,-11.53048,0.91219,-2.28886,24.3293,15.0610,-2.8049,-1.01,21.93,35.60,4,S02
3840,-10.63026,0.52194,-2.52109,23.6585,13.9634,-6.0976,-2.20,22.75,34.95,4,S02
3860,-9.84496,-0.07422,-2.20267,22.0732,13.0488,-8.7805,-2.20,22.75,34.95,4,S02
3880,-9.65821,-0.30646,-1.62087,17.1951,0.8537,-16.8293,-2.20,22.75,34.95,4,S02
3900,-9.46907,-0.52672,-1.14443,14.2073,-6.8902,-23.1707,-2.20,22.75,34.95,4,S02
3920,-9.45231,-0.24181,-0.57461,12.5610,-8.8415,-23.1098,-2.29,22.57,35.32,4,S02
3940,-9.62948,0.17238,-0.30167,10.4268,-12.0732,-19.2683,-2.29,22.57,35.32,4,S02
3960,-9.46907,0.20111,-0.27533,8.0488,-12.3780,-17.6829,-2.29,22.57,35.32,4,S02
3980,-9.01896,-0.35195,-0.23942,7.1951,-12.0122,-21.2805,-2.29,22.02,35.69,4,S02
4000,-8.45393,-0.52672,-0.02155,7.5610,-12.8049,-28.4756,-2.29,22.02,35.69,4,S02
4020,-8.09480,-0.32082,-0.01197,8.9024,-13.5976,-32.0732,-2.29,22.02,35.69,4,S02
4040,-7.70694,-0.10534,-0.11732,10.3659,-12.9878,-30.4268,-2.29,21.74,35.87,4,S02
4060,-7.56089,-0.06225,-0.43574,11.6463,-12.3780,-27.9878,-2.29,21.74,35.87,4,S02
4080,-7.68778,-0.18435,-0.40701,11.4634,-10.8537,-26.7683,-2.29,21.74,35.87,4,S02
4100,-7.87932,-0.56264,-0.13168,10.7317,-10.1829,-25.0610,-2.29,21.74,35.87,4,S02
4120,-8.04931,-0.92416,0.16041,10.4878,-11.5244,-22.6220,-2.57,21.56,35.87,4,S02
4140,-8.04452,-1.10373,0.06943,9.6951,-14.0854,-19.3293,-2.57,21.56,35.87,4,S02
4160,-7.90565,-1.16598,0.00239,8.2317,-16.3415,-17.3171,-2.57,21.56,35.87,4,S02
4180,-8.07085,-1.00078,0.08859,7.8659,-16.6463,-17.5000,-2.84,20.92,36.24,4,S02
4200,-8.34140,-0.78290,0.20830,7.6829,-14.9390,-15.4268,-2.84,20.92,36.24,4,S02
4220,-8.48266,-0.92177,0.44772,7.1341,-12.5000,-10.5488,-2.84,20.92,36.24,4,S02
4240,-8.59518,-1.23301,0.67038,8.9024,-9.5122,-6.7683,-3.76,20.83,36.15,4,S02
4260,-8.78193,-1.36470,0.99120,12.0122,-7.0732,-4.8780,-3.76,20.83,36.15,4,S02
4280,-9.00699,-1.27850,1.54187,15.4268,-6.1585,-4.2073,-3.76,20.83,36.15,4,S02
4300,-9.72285,-1.03669,2.05183,19.2073,-7.1341,-4.3902,-3.76,20.83,36.15,4,S02
4320,-10.29267,-0.69192,2.62883,19.6341,-10.7317,-2.4390,-5.05,20.46,35.96,4,S02
4340,-10.47224,-0.50278,2.66475,19.0244,-12.8659,1.7073,-5.05,20.46,35.96,4,S02
4360,-10.68772,-0.38068,2.49476,16.5244,-11.6463,5.7317,-5.05,20.46,35.96,4,S02
4380,-11.03248,-0.63446,1.68312,13.1098,-8.0488,8.0488,-6.06,20.37,36.06,4,S02
4400,-12.32535,-1.03669,1.53229,9.2073,-4.2683,9.5122,-6.06,20.37,36.06,4,S02
4420,-12.95503,-0.11492,0.96726,-10.7927,-6.2805,9.2073,-6.06,20.37,36.06,4,S02
4440,-11.02290,-0.44772,-0.28252,-14.5732,-10.6707,11.1585,-5.96,20.00,36.24,4,S02
4460,-10.47703,-1.60172,-0.57940,-11.0976,-5.6098,7.8049,-5.96,20.00,36.24,4,S02
4480,-10.96784,-1.75016,-0.27294,-6.8902,-4.1463,8.4146,-5.96,20.00,36.24,4,S02
4500,-10.83137,-1.31921,-0.38786,2.0122,-2.9268,15.5488,-5.96,20.00,36.24,4,S02
4520,-10.29267,-0.81882,-0.68953,12.0732,1.0366,21.1585,-7.25,19.72,36.06,4,S02
4540,-9.87848,-0.47405,-0.68714,18.2317,4.6951,23.1707,-7.25,19.72,36.06,4,S02
4560,-9.74440,-0.12689,-0.39983,20.4268,4.0854,23.4756,-7.25,19.72,36.06,4,S02
4580,-9.25838,0.09577,-0.51954,22.3171,2.9878,24.3293,-9.45,19.63,35.60,4,S02
4600,-8.83939,0.14844,-0.64643,24.2073,4.8171,25.3659,-9.45,19.63,35.60,4,S02
4620,-8.45632,0.23224,-0.69432,25.6098,6.3415,25.7317,-9.45,19.63,35.60,4,S02
4640,-7.73567,0.24421,-0.80924,25.3049,4.8780,24.5122,-11.65,19.54,34.86,4,S02
4660,-7.13951,0.18196,-0.79727,23.9024,3.9634,21.9512,-11.65,19.54,34.86,4,S02
4680,-6.88094,0.08619,-0.67277,22.1951,2.5610,18.5976,-11.65,19.54,34.86,4,S02
4700,-7.12036,0.19154,-0.48602,19.6951,-1.7683,13.5976,-11.65,19.54,34.86,4,S02
4720,-6.90009,0.17478,-0.59376,19.6951,-4.8780,9.2073,-12.75,19.36,34.40,4,S02
4740,-6.51223,0.14126,-0.92177,21.5854,-1.6463,5.8537,-12.75,19.36,34.40,4,S02
4760,-7.06050,0.51715,-0.73023,18.3537,3.1707,2.2561,-12.75,19.36,34.40,4,S02
4780,-7.94636,0.86910,-0.39504,12.1341,3.6585,0.7317,-13.49,19.82,34.04,4,S02
4800,-8.35816,1.07739,0.16759,7.6220,0.9146,0.7317,-13.49,19.82,34.04,4,S02
4820,-8.74123,1.27850,0.76614,3.4756,-2.5610,-1.2805,-13.49,19.82,34.04,4,S02
4840,-9.28471,1.54187,1.31202,-1.1585,-3.1707,-3.7805,-13.49,19.91,33.85,4,S02
4860,-9.53610,1.54426,1.55384,-5.0000,1.8902,-3.1098,-13.49,19.91,33.85,4,S02
4880,-10.28070,1.23062,1.74777,-7.6829,11.8293,-0.3659,-13.49,19.91,33.85,4,S02
4900,-11.52808,1.14922,1.75256,-11.1585,18.2317,2.3780,-13.49,19.91,33.85,4,S02
4920,-12.31577,1.35991,1.53708,-13.6585,19.5122,4.4512,-13.21,20.83,33.39,4,S02
4940,-12.01171,1.93691,0.57700,-11.2805,21.3415,2.9268,-13.21,20.83,33.39,4,S02
4960,-12.89038,1.18034,1.74298,0.9146,23.9024,-5.4878,-13.21,20.83,33.39,4,S02
4980,-13.68526,0.61292,-0.88346,11.8293,20.7317,-8.6585,-13.85,22.02,32.11,4,S02
5000,-13.20163,0.81882,-0.40941,14.6341,20.8537,-5.4878,-13.85,22.02,32.11,4,S02
5020,-11.99256,0.31843,-0.94571,14.6341,3.9024,-6.1585,-13.85,22.02,32.11,4,S02
5040,-10.50336,0.42377,-1.66397,12.6829,-2.6220,-9.0854,-14.22,22.02,31.83,4,S02
5060,-10.12268,0.87628,-1.84114,7.9268,0.1829,-10.4268,-14.22,22.02,31.83,4,S02
5080,-10.07001,0.69192,-1.55863,-4.0854,-0.6098,-9.5122,-14.22,22.02,31.83,4,S02
5100,-9.93833,0.15083,-1.11091,-17.0122,-3.1098,-9.8780,-14.22,22.02,31.83,4,S02
5120,-9.59357,-0.21069,-0.71108,-27.0122,-7.5610,-10.6707,-13.03,21.74,32.48,4,S02
5140,-9.17937,-0.46208,-0.40462,-33.1098,-11.0366,-9.8171,-13.03,21.74,32.48,4,S02
5160,-8.84897,-0.87867,-0.13886,-36.5854,-11.9512,-6.7683,-13.03,21.74,32.48,4,S02
5180,-8.77714,-0.96486,-0.02634,-37.1951,-12.3780,-7.1341,-11.65,21.01,33.30,4,S02
5200,-8.34858,-1.00078,-0.05267,-34.6341,-13.5366,-10.7317,-11.65,21.01,33.30,4,S02
5220,-7.65905,-1.14922,-0.17957,-30.4878,-14.3902,-15.8537,-11.65,21.01,33.30,4,S02
5240,-7.42921,-1.29766,-0.13408,-26.0976,-13.1098,-20.7317,-10.28,21.01,33.76,4,S02
5260,-7.40287,-1.34794,0.10774,-23.1707,-12.3171,-23.4146,-10.28,21.01,33.76,4,S02
5280,-7.50582,-1.13485,0.05986,-20.2439,-12.9268,-23.3537,-10.28,21.01,33.76,4,S02
5300,-7.23049,-1.23780,-0.04549,-15.6098,-11.8293,-20.0000,-10.28,21.01,33.76,4,S02
5320,-7.26880,-1.46765,0.10534,-8.7195,-7.8659,-17.1951,-9.63,20.73,33.76,4,S02
5340,-7.59920,-1.58975,0.28970,-2.2561,-5.6098,-14.5122,-9.63,20.73,33.76,4,S02
5360,-7.88171,-1.36709,0.25618,1.3415,-6.3415,-11.6463,-9.63,20.73,33.76,4,S02
5380,-7.83143,-1.30723,0.23703,4.5122,-5.6707,-8.9024,-10.09,20.64,33.58,4,S02
5400,-8.24803,-1.57060,0.54109,10.0000,-3.5366,-8.4756,-10.09,20.64,33.58,4,S02
5420,-8.83700,-1.62566,0.90980,16.4634,-4.0244,-9.0244,-10.09,20.64,33.58,4,S02
5440,-8.88967,-1.57060,1.22104,21.0366,-6.6463,-6.5854,-11.01,20.55,33.03,4,S02
5460,-8.55688,-1.46525,1.20428,24.5732,-5.7927,-3.9634,-11.01,20.55,33.03,4,S02
5480,-8.63828,-1.45328,1.05345,29.7561,-0.2439,-4.2683,-11.01,20.55,33.03,4,S02
5500,-9.19134,-1.58736,1.15161,34.1463,5.3049,-5.7927,-11.01,20.55,33.03,4,S02
5520,-9.59835,-1.54187,1.44849,36.4024,7.9878,-6.7073,-12.48,21.10,31.83,4,S02
5540,-10.26873,-1.38145,2.17154,35.3049,6.7073,-6.7073,-12.48,21.10,31.83,4,S02
5560,-11.12586,-1.30005,2.75812,32.9878,0.3049,-5.6707,-12.48,21.10,31.83,4,S02
5580,-11.27669,-1.82199,1.71664,33.4146,-4.3293,-4.9390,-13.58,21.28,31.47,4,S02
5600,-11.99256,-1.60651,1.64003,34.5122,-1.6463,-4.6951,-13.58,21.28,31.47,4,S02
5620,-13.75229,-0.47166,0.17957,18.7805,-2.0122,-2.3780,-13.58,21.28,31.47,4,S02
5640,-14.10424,1.21625,-0.30406,0.4878,2.9878,0.3049,-12.84,21.19,31.74,4,S02
5660,-12.12663,1.43413,-0.96247,-18.8415,-0.4878,4.9390,-12.84,21.19,31.74,4,S02
5680,-10.35971,0.20590,-1.50116,-26.8293,3.0488,9.9390,-12.84,21.19,31.74,4,S02
5700,-10.35492,-0.74699,-1.13964,-29.5122,11.8902,7.8049,-12.84,21.19,31.74,4,S02
5720,-10.82658,-0.74699,-0.75417,-30.3659,13.3537,9.5122,-12.20,21.56,31.65,4,S02
5740,-10.52252,-0.22984,-0.60094,-15.3659,9.2073,26.5854,-12.20,21.56,31.65,4,S02
5760,-9.81144,0.19872,-0.72784,-9.6951,8.2927,31.4634,-12.20,21.56,31.65,4,S02
5780,-9.27035,0.51236,-0.94332,-8.5366,8.9024,32.9268,-13.12,21.19,31.47,4,S02
5800,-8.76517,0.65841,-1.22104,-9.5122,8.2927,31.5854,-13.12,21.19,31.47,4,S02
5820,-8.57124,0.77812,-1.36709,-10.7927,8.1707,28.4146,-13.12,21.19,31.47,4,S02
5840,-8.41801,0.91219,-1.51792,-14.2073,8.0488,26.4024,-13.49,20.83,31.65,4,S02
5860,-8.09001,1.03190,-1.72383,-20.0610,6.5244,25.9756,-13.49,20.83,31.65,4,S02
5880,-7.70694,0.96726,-1.80762,-25.3049,5.3049,24.9390,-13.49,20.83,31.65,4,S02
5900,-7.65426,0.78051,-1.56341,-28.5976,4.9390,21.3415,-13.49,20.83,31.65,4,S02
5920,-7.69736,0.43574,-1.32639,-27.7439,3.9634,16.0366,-13.03,20.73,31.74,4,S02
5940,-7.54174,0.16281,-1.27372,-23.3537,3.4756,11.4634,-13.03,20.73,31.74,4,S02
5960,-7.63750,0.25139,-1.30723,-20.0610,6.9512,8.7195,-13.03,20.73,31.74,4,S02
5980,-7.98945,0.62489,-1.15640,-21.2195,11.5244,8.3537,-12.75,21.19,31.56,4,S02
6000,-8.18099,0.98402,-0.93134,-25.6098,11.2805,9.6951,-12.75,21.19,31.56,4,S02
6020,-8.32224,1.23062,-0.75896,-30.4268,8.2927,10.3049,-12.75,21.19,31.56,4,S02
6040,-8.34140,1.16837,-0.79487,-32.8659,7.0732,10.0000,-11.83,21.38,31.93,4,S02
6060,-8.55688,1.12767,-0.73263,-36.5244,6.9512,9.3902,-11.83,21.38,31.93,4,S02
6080,-8.98065,1.10373,-0.39265,-41.9512,6.7073,8.8415,-11.83,21.38,31.93,4,S02
6100,-9.15064,1.07260,-0.05267,-44.2073,5.6098,8.2317,-11.83,21.38,31.93,4,S02
6120,-9.08360,0.95529,-0.21069,-43.3537,4.8171,7.0732,-10.37,21.38,32.39,4,S02
6140,-9.16979,0.99120,-0.35674,-43.7805,3.7805,6.3415,-10.37,21.38,32.39,4,S02
6160,-9.13867,1.15401,-0.23703,-44.1463,3.4756,6.8293,-10.37,21.38,32.39,4,S02
6180,-9.03093,1.27372,-0.05028,-41.8293,5.4878,5.8537,-9.08,21.65,32.66,4,S02
6200,-9.10994,1.26653,0.29209,-39.9390,7.5610,2.9878,-9.08,21.65,32.66,4,S02
6220,-9.18655,1.30245,0.52194,-40.2439,5.5488,0.7317,-9.08,21.65,32.66,4,S02
6240,-9.18176,1.40779,0.54348,-41.7073,1.4024,-0.0610,-7.71,21.74,33.12,4,S02
6260,-9.14825,1.32639,0.62968,-41.6463,-0.7927,-1.1585,-7.71,21.74,33.12,4,S02
6280,-9.55526,1.18034,0.93853,-38.5976,0.0000,-3.4146,-7.71,21.74,33.12,4,S02
6300,-10.10832,1.43892,1.07739,-35.6707,1.4634,-4.2683,-7.71,21.74,33.12,4,S02
6320,-10.48660,1.89621,0.97683,-35.7927,1.8902,-2.3171,-6.42,21.93,33.21,4,S02
6340,-10.99178,2.14760,1.09176,-35.0610,2.7439,-0.2439,-6.42,21.93,33.21,4,S02
6360,-11.42513,2.02789,1.24738,-28.7195,2.6220,0.6098,-6.42,21.93,33.21,4,S02
6380,-11.69089,1.77889,0.45011,-18.2927,2.7439,1.2195,-6.06,21.93,33.12,4,S02
6400,-12.25352,1.85790,0.17238,-12.8659,3.5366,0.4878,-6.06,21.93,33.12,4,S02
6420,-13.31894,1.92973,-0.21787,-3.0488,0.8537,-1.1585,-6.06,21.93,33.12,4,S02
6440,-13.38598,1.41976,-0.44053,10.7927,-1.8902,-0.0610,-7.16,21.83,32.84,4,S02
6460,-11.92312,0.51236,-0.67516,27.0732,-4.2683,0.7317,-7.16,21.83,32.84,4,S02
6480,-10.77151,0.10774,-1.41018,38.5366,-10.4268,-4.8780,-7.16,21.83,32.84,4,S02
6500,-10.36689,0.43574,-1.71425,41.8902,-12.2561,-10.4878,-7.16,21.83,32.84,4,S02
6520,-9.95749,0.64883,-1.83635,37.1341,-13.5976,-11.7683,-8.72,21.38,32.66,4,S02
6540,-9.91678,0.19632,-1.87945,32.3171,-13.1098,-12.9878,-8.72,21.38,32.66,4,S02
6560,-9.95509,-0.45490,-1.61609,27.1951,-16.2195,-15.2439,-8.72,21.38,32.66,4,S02
6580,-9.77792,-0.79009,-1.27132,22.0122,-21.9512,-16.5854,-9.08,20.83,32.75,4,S02
6600,-9.23444,-0.73741,-1.22823,18.8415,-25.4878,-15.1829,-9.08,20.83,32.75,4,S02
6620,-8.53054,-0.60813,-1.29766,16.5854,-24.2073,-12.1951,-9.08,20.83,32.75,4,S02
6640,-8.22169,-0.50757,-1.18034,13.5366,-20.7927,-12.5610,-9.27,20.00,32.94,4,S02
6660,-8.05888,-0.60334,-1.00317,10.9146,-19.0244,-16.4634,-9.27,20.00,32.94,4,S02
6680,-8.08282,-0.60813,-0.88585,9.7561,-19.5122,-21.6463,-9.27,20.00,32.94,4,S02
6700,-8.04212,-0.62968,-0.63686,8.0488,-20.0000,-23.4146,-9.27,20.00,32.94,4,S02
6720,-7.97269,-0.53391,-0.42377,4.6341,-19.3902,-22.9878,-8.99,19.54,33.12,4,S02
6740,-8.04691,-0.50039,-0.36871,1.2195,-18.1707,-22.0122,-8.99,19.54,33.12,4,S02
6760,-8.16662,-0.68714,-0.41899,-0.3049,-15.1220,-19.8171,-8.99,19.54,33.12,4,S02
6780,-8.32464,-0.80206,-0.43335,-0.6098,-11.4024,-17.6220,-8.72,19.36,33.12,4,S02
6800,-8.44435,-0.77093,-0.26576,-2.1341,-10.9146,-15.1220,-8.72,19.36,33.12,4,S02
6820,-8.40125,-0.70150,-0.06704,-4.0854,-11.5854,-13.1098,-8.72,19.36,33.12,4,S02
6840,-8.25281,-0.99359,-0.04070,-2.5000,-9.8780,-11.1585,-8.81,19.17,33.03,4,S02
6860,-8.33422,-1.42455,0.00239,1.8902,-5.8537,-9.6951,-8.81,19.17,33.03,4,S02
6880,-8.79869,-1.26174,0.11013,3.0488,-3.8415,-8.4146,-8.81,19.17,33.03,4,S02
6900,-9.03572,-0.70868,0.21308,-0.9756,-4.8171,-4.6951,-8.81,19.17,33.03,4,S02
6920,-8.85136,-0.48602,0.30167,-5.1220,-5.9146,0.3049,-8.81,18.81,32.94,4,S02
6940,-8.62391,-0.78051,0.10056,-7.7439,-4.1463,3.5366,-8.81,18.81,32.94,4,S02
6960,-8.82024,-0.84755,0.22505,-11.4024,-0.0610,4.5732,-8.81,18.81,32.94,4,S02
6980,-9.23683,-0.31125,0.58658,-18.4756,0.7317,7.2561,-8.53,18.62,32.84,4,S02
7000,-9.44752,0.20590,1.15640,-27.4390,-2.3780,11.4634,-8.53,18.62,32.84,4,S02
7020,-9.32063,0.15323,1.37427,-31.1585,-5.9146,13.2927,-8.53,18.62,32.84,4,S02
7040,-9.19134,-0.01915,1.44849,-30.3049,-6.3415,13.7805,-7.80,18.26,33.21,4,S02
7060,-9.18416,0.28491,1.52989,-30.2439,-5.9756,14.6341,-7.80,18.26,33.21,4,S02
7080,-9.16261,1.49398,1.58257,-41.1585,-8.7805,19.8171,-7.80,18.26,33.21,4,S02
7100,-9.66300,1.64242,1.97043,-47.5610,-8.7805,20.4878,-7.80,18.26,33.21,4,S02
7120,-10.07480,1.00796,1.76932,-47.8659,-8.9634,18.4146,-6.51,17.61,33.94,4,S02
7140,-10.82179,-0.13168,1.49638,-38.2317,-3.7195,15.1829,-6.51,17.61,33.94,4,S02
7160,-12.56956,-0.27773,2.17394,-35.0000,-1.8902,10.2439,-6.51,17.61,33.94,4,S02
7180,-13.45063,1.28808,1.76213,-32.0122,-5.7927,1.1585,-5.60,17.34,34.40,4,S02
7200,-12.64617,1.40779,1.31921,-24.8171,-4.7561,-2.1341,-5.60,17.34,34.40,4,S02
7220,-12.48097,0.52912,0.76614,-17.5610,-1.7073,0.0000,-5.60,17.34,34.40,4,S02
7240,-12.18170,0.09098,0.42617,-17.1341,3.7195,1.1585,-5.23,17.43,34.40,4,S02
7260,-11.51372,0.34237,0.16759,-17.9268,5.6098,-0.1220,-5.23,17.43,34.40,4,S02
7280,-10.91756,0.41899,0.02394,-12.5610,4.6951,-2.3780,-5.23,17.43,34.40,4,S02
7300,-10.71166,0.27773,-0.18435,-4.4512,6.1585,-0.9146,-5.23,17.43,34.40,4,S02
7320,-10.38605,0.31603,-0.33998,0.1829,8.9634,4.3293,-5.41,17.61,34.13,4,S02
7340,-9.72046,0.56743,-0.50757,0.1220,9.0854,10.9146,-5.41,17.61,34.13,4,S02
7360,-9.08600,0.92177,-0.65601,-3.6585,8.7195,15.5488,-5.41,17.61,34.13,4,S02
7380,-8.66462,1.21147,-0.62968,-7.7439,9.6951,16.4634,-5.69,17.61,34.04,4,S02
7400,-8.31985,1.05584,-0.48363,-9.2073,10.5488,15.3659,-5.69,17.61,34.04,4,S02
7420,-8.14986,0.61052,-0.27773,-8.9024,10.4878,14.2073,-5.69,17.61,34.04,4,S02
7440,-8.04691,0.39025,-0.26815,-8.7195,8.7195,14.8780,-5.78,17.52,33.85,4,S02
7460,-7.87692,0.53391,-0.35674,-10.0000,7.0122,15.4878,-5.78,17.52,33.85,4,S02
7480,-7.69736,0.64165,-0.46208,-11.8293,5.4878,14.8780,-5.78,17.52,33.85,4,S02
7500,-7.67821,0.54827,-0.46926,-12.0122,3.7195,13.8415,-5.78,17.52,33.85,4,S02
7520,-7.75243,0.14365,-0.37350,-8.5366,1.5854,12.1951,-6.06,17.25,33.85,4,S02
7540,-8.26478,0.00239,-0.13168,-3.3537,0.0610,8.7195,-6.06,17.25,33.85,4,S02
7560,-8.58561,0.20111,0.00000,-0.0610,-2.3780,4.5732,-6.06,17.25,33.85,4,S02
7580,-8.50181,0.36392,-0.05507,3.0488,-5.9756,2.3780,-6.61,17.06,33.76,4,S02
7600,-8.50899,0.35674,-0.08619,8.1098,-6.4634,1.7073,-6.61,17.06,33.76,4,S02
7620,-8.78911,0.29449,0.18196,13.0488,-4.8780,1.6463,-6.61,17.06,33.76,4,S02
7640,-8.84418,0.44772,0.25857,15.7927,-5.4878,1.4634,-7.71,16.70,33.49,4,S02
7660,-8.39647,0.65362,0.03591,15.6098,-6.3415,0.1829,-7.71,16.70,33.49,4,S02
7680,-8.20732,0.81163,0.02634,14.2073,-5.4268,-2.9268,-7.71,16.70,33.49,4,S02
7700,-8.42998,0.88825,0.18914,14.2683,-4.6951,-6.4634,-7.71,16.70,33.49,4,S02
7720,-8.87531,0.89783,0.54348,14.8171,-4.0244,-8.9634,-8.35,16.70,33.21,4,S02
7740,-9.03093,0.79248,0.88107,14.4512,-4.8780,-9.6951,-8.35,16.70,33.21,4,S02
7760,-9.01417,0.71587,0.96486,14.2683,-7.1341,-10.4878,-8.35,16.70,33.21,4,S02
7780,-8.97826,0.82361,0.94092,13.8415,-7.8049,-11.7073,-8.99,16.42,32.94,4,S02
7800,-9.06205,0.95289,0.96726,12.0732,-6.6463,-12.3171,-8.99,16.42,32.94,4,S02
7820,-9.58878,1.07979,1.27372,9.5732,-6.0976,-13.1707,-8.99,16.42,32.94,4,S02
7840,-10.19212,0.93374,1.59933,9.9390,-7.0732,-12.5610,-9.45,16.24,32.75,4,S02
7860,-10.74039,0.56743,1.66876,14.3293,-6.4024,-11.4634,-9.45,16.24,32.75,4,S02
7880,-11.72919,0.46208,1.49638,20.0000,-4.4512,-10.3049,-9.45,16.24,32.75,4,S02
7900,-11.93031,0.57461,0.58179,19.3902,-6.0976,-6.7683,-9.45,16.24,32.75,4,S02
7920,-12.28465,0.76375,1.15879,9.3902,-10.3659,-2.8049,-10.28,15.60,32.39,4,S02
7940,-13.27106,1.39582,0.33279,4.3902,-15.4878,0.8537,-10.28,15.60,32.39,4,S02
7960,-13.28303,0.76854,0.42377,5.3659,-7.0732,3.4756,-10.28,15.60,32.39,4,S02
7980,-11.97819,-0.54348,0.19393,10.4268,-5.1829,2.9878,-10.83,14.77,31.93,4,S02
8000,-10.40281,-0.93374,-0.47166,8.7805,-10.1220,-2.8659,-10.83,14.77,31.93,4,S02
8020,-9.64384,-0.63207,-0.70629,-0.7927,-6.0366,-8.4146,-10.83,14.77,31.93,4,S02
8040,-9.82580,-0.72784,-0.66798,-13.9634,-1.3415,-13.7195,-9.63,14.68,31.93,4,S02
8060,-10.16339,-1.30245,-0.46926,-26.2805,-0.3049,-18.3537,-9.63,14.68,31.93,4,S02
8080,-10.16339,-1.69509,-0.31603,-34.8171,-3.5366,-20.0610,-9.63,14.68,31.93,4,S02
8100,-9.72046,-1.99916,-0.34237,-37.2561,-6.5854,-18.0488,-9.63,14.68,31.93,4,S02
8120,-9.09078,-2.21943,-0.33758,-34.0244,-6.2195,-13.7195,-7.89,13.85,31.93,4,S02
8140,-8.75560,-2.18830,-0.23703,-29.0244,-3.5366,-10.9146,-7.89,13.85,31.93,4,S02
8160,-8.71250,-1.89142,-0.24900,-24.9390,-0.4268,-10.4268,-7.89,13.85,31.93,4,S02
8180,-8.69095,-1.66876,-0.28970,-20.3049,2.8049,-11.5244,-6.97,13.67,31.74,4,S02
8200,-8.46590,-1.41018,-0.23224,-15.9146,2.9268,-13.5976,-6.97,13.67,31.74,4,S02
8220,-7.99663,-1.18513,-0.18435,-14.5122,0.4878,-14.6341,-6.97,13.67,31.74,4,S02
8240,-7.71891,-0.90501,-0.26097,-14.7561,0.2439,-15.1829,-5.78,13.94,31.38,4,S02
8260,-7.90805,-0.47166,-0.15562,-18.7805,2.1341,-15.9146,-5.78,13.94,31.38,4,S02
8280,-8.03015,-0.44532,-0.04788,-22.2561,3.1707,-16.4024,-5.78,13.94,31.38,4,S02
8300,-8.29351,-0.97205,0.25618,-18.9024,3.5366,-17.0732,-5.78,13.94,31.38,4,S02
8320,-8.50660,-1.57060,0.56982,-11.8902,1.5854,-16.4024,-5.05,13.94,31.10,4,S02
8340,-8.54251,-1.78607,0.64165,-5.3049,0.0610,-15.4878,-5.05,13.94,31.10,4,S02
8360,-8.40844,-1.68791,0.43574,1.2805,1.2805,-14.9390,-5.05,13.94,31.10,4,S02
8380,-8.45871,-1.43413,0.26576,7.0122,4.3902,-15.0000,-5.23,14.40,30.55,4,S02
8400,-8.96389,-1.24020,0.47166,15.3049,4.6951,-14.0854,-5.23,14.40,30.55,4,S02
8420,-8.86573,-1.32160,0.22266,20.7317,3.1098,-13.7195,-5.23,14.40,30.55,4,S02
8440,-8.70532,-1.33357,0.03352,22.1341,3.9024,-13.5366,-5.78,14.68,29.91,4,S02
8460,-9.00459,-1.45328,0.19872,20.9756,4.8780,-12.5000,-5.78,14.68,29.91,4,S02
8480,-9.48822,-1.53947,0.50757,19.3293,2.1341,-10.6707,-5.78,14.68,29.91,4,S02
8500,-9.47146,-1.56341,0.64404,17.2561,-2.5610,-8.4146,-5.78,14.68,29.91,4,S02
8520,-9.05248,-1.67594,0.48602,17.3780,-4.2073,-5.0000,-6.42,14.59,29.72,4,S02
8540,-8.85136,-1.64960,0.28730,17.5610,-3.2927,-2.0732,-6.42,14.59,29.72,4,S02
8560,-8.92798,-1.53229,0.28970,15.5488,-1.5244,-0.7927,-6.42,14.59,29.72,4,S02
8580,-9.00459,-1.55384,0.52912,13.2927,0.0000,-0.3659,-6.79,14.40,29.36,4,S02
8600,-8.99502,-1.69509,0.80924,12.0732,0.0000,-0.0610,-6.79,14.40,29.36,4,S02
8620,-8.94474,-1.88424,0.94810,12.9878,0.3659,0.8537,-6.79,14.40,29.36,4,S02
8640,-9.03572,-1.99916,1.11091,15.2439,1.4634,1.9512,-7.34,14.50,28.99,4,S02
8660,-9.17698,-2.02071,1.21386,18.0488,2.5000,3.2317,-7.34,14.50,28.99,4,S02
8680,-9.23444,-1.84832,1.21865,21.4634,3.9634,4.3293,-7.34,14.50,28.99,4,S02
8700,-9.11233,-1.49159,1.01035,23.1098,4.8780,5.1220,-7.34,14.50,28.99,4,S02
8720,-9.13627,-1.29766,1.05584,22.1951,5.5488,5.7317,-8.26,14.86,28.44,4,S02
8740,-9.26077,-1.34554,1.28569,20.6707,4.8171,6.7073,-8.26,14.86,28.44,4,S02
8760,-9.31344,-1.25935,1.41018,18.7195,3.6585,8.1707,-8.26,14.86,28.44,4,S02
8780,-9.42837,-1.12288,1.40061,14.8780,3.2927,10.1829,-8.81,14.95,28.07,4,S02
8800,-9.61511,-1.02951,1.44370,10.0610,3.0488,11.7683,-8.81,14.95,28.07,4,S02
8820,-9.99579,-1.15640,1.57778,6.0366,1.5854,11.9512,-8.81,14.95,28.07,4,S02
8840,-10.40759,-1.58975,1.51314,4.9390,-1.0976,10.7317,-8.99,15.05,28.26,4,S02
8860,-10.61350,-1.94409,1.65918,4.9390,0.0610,9.3902,-8.99,15.05,28.26,4,S02
8880,-11.10910,-2.23379,1.68312,7.1951,4.3293,8.0488,-8.99,15.05,28.26,4,S02
8900,-12.32774,-1.77650,1.60890,7.9878,7.6829,4.1463,-8.99,15.05,28.26,4,S02
8920,-13.42190,-0.67995,1.39582,1.7683,7.5610,1.6463,-8.62,15.50,28.07,4,S02
8940,-13.41950,-0.10295,0.75896,-7.1951,2.8659,3.0488,-8.62,15.50,28.07,4,S02
8960,-12.49534,-0.68714,-0.01437,-13.3537,-2.1951,5.4878,-8.62,15.50,28.07,4,S02
8980,-11.31979,-1.08457,-0.71108,-16.8902,-5.4878,8.3537,-7.71,15.05,28.81,4,S02
9000,-10.64462,-1.03669,-0.88107,-18.2317,-6.4634,9.8171,-7.71,15.05,28.81,4,S02
9020,-10.24958,-1.04627,-0.82600,-15.3659,-7.8049,11.4024,-7.71,15.05,28.81,4,S02
9040,-10.18972,-1.02472,-0.84515,-8.7805,-7.9268,16.0366,-7.34,14.68,29.36,4,S02
9060,-9.97424,-0.69192,-0.60813,-2.5610,-6.2805,23.7805,-7.34,14.68,29.36,4,S02
9080,-9.51456,-0.14844,-0.59137,0.6098,-8.0488,31.5854,-7.34,14.68,29.36,4,S02
9100,-8.97826,0.27294,-0.73741,2.1341,-8.5976,35.9146,-7.34,14.68,29.36,4,S02
9120,-8.83700,0.40701,-0.58419,2.6220,-6.7073,36.0366,-8.07,14.13,29.63,4,S02
9140,-8.91601,0.28252,-0.32801,1.7683,-6.4634,33.7195,-8.07,14.13,29.63,4,S02
9160,-8.76757,0.00479,-0.25379,1.4634,-7.9878,31.7683,-8.07,14.13,29.63,4,S02
9180,-8.32703,0.03831,-0.47884,1.0976,-7.8049,31.3415,-8.44,13.58,30.00,4,S02
9200,-7.80510,0.29449,-0.72784,-0.9146,-4.5122,31.3415,-8.44,13.58,30.00,4,S02
9220,-7.72609,0.46448,-0.57221,-1.8293,0.7927,30.0610,-8.44,13.58,30.00,4,S02
9240,-7.79552,0.30167,-0.33998,-0.1220,2.9878,28.3537,-8.90,13.58,29.82,4,S02
9260,-7.92481,0.05746,-0.08380,2.1341,1.2195,25.7317,-8.90,13.58,29.82,4,S02
9280,-8.05170,0.00239,-0.05507,5.1829,-0.7927,22.7439,-8.90,13.58,29.82,4,S02
9300,-8.06607,0.22745,-0.30885,7.8659,-0.3659,21.2195,-8.90,13.58,29.82,4,S02
9320,-8.28873,0.62968,-0.37828,8.2317,2.3171,20.8537,-9.63,13.76,29.82,4,S02
9340,-8.64307,0.83558,-0.09816,8.4756,5.0610,20.5488,-9.63,13.76,29.82,4,S02
9360,-8.84418,1.07021,0.09577,9.3902,5.7317,19.8171,-9.63,13.76,29.82,4,S02
9380,-8.83700,1.46046,-0.03831,8.2317,5.2439,18.2317,-10.37,13.76,29.63,4,S02
9400,-8.68377,1.80283,-0.14365,4.2683,7.2561,16.5854,-10.37,13.76,29.63,4,S02
9420,-8.82263,1.95127,0.10534,-0.1220,8.6585,14.6341,-10.37,13.76,29.63,4,S02
9440,-9.27274,1.90339,0.43335,-2.4390,6.9512,12.9878,-10.55,13.94,29.63,4,S02
9460,-9.21528,1.57299,0.49560,-0.9146,4.9390,13.7195,-10.55,13.94,29.63,4,S02
9480,-8.78433,1.39343,0.36392,2.8049,6.4024,14.5732,-10.55,13.94,29.63,4,S02
9500,-8.87291,1.76453,0.38547,4.0244,9.6951,13.9634,-10.55,13.94,29.63,4,S02
9520,-9.27035,2.16436,0.65841,2.3171,10.0610,13.9634,-11.10,14.31,29.36,4,S02
9540,-9.38288,2.29125,0.80685,1.5854,7.5000,14.5122,-11.10,14.31,29.36,4,S02
9560,-9.27274,2.03028,0.85712,4.5122,6.8902,13.7195,-11.10,14.31,29.36,4,S02
9580,-9.49301,1.97043,0.90022,9.6341,8.8415,11.8293,-11.83,14.50,29.08,4,S02
9600,-10.00058,2.25294,1.00556,10.4268,8.9024,11.2195,-11.83,14.50,29.08,4,S02
9620,-10.69969,2.64080,1.19710,7.3171,5.4268,11.8293,-11.83,14.50,29.08,4,S02
9640,-10.93671,2.61926,1.26653,7.6829,1.3415,11.7683,-12.29,14.40,28.81,4,S02
9660,-10.46027,2.28407,-0.14126,13.7195,0.8537,8.9024,-12.29,14.40,28.81,4,S02
9680,-10.71405,2.54743,0.00718,9.2683,5.6707,1.9512,-12.29,14.40,28.81,4,S02
9700,-12.55280,1.96085,1.25456,15.0000,2.3780,-1.6463,-12.29,14.40,28.81,4,S02
9720,-12.86883,1.91536,-0.37350,24.6951,2.5000,19.7561,-13.12,14.31,28.62,4,S02
9740,-11.01812,2.21943,-1.23301,19.6341,0.0000,18.8415,-13.12,14.31,28.62,4,S02
9760,-9.82820,2.89220,-1.80523,11.8902,1.2805,4.9390,-13.12,14.31,28.62,4,S02
9780,-8.89925,3.12443,-1.79565,-4.6951,0.3659,-6.4024,-12.84,14.31,28.62,4,S02
9800,-8.94953,2.47560,-1.52271,-18.2927,-0.8537,-12.8659,-12.84,14.31,28.62,4,S02
9820,-9.00938,1.60172,-1.30963,-26.2805,-0.1220,-14.4512,-12.84,14.31,28.62,4,S02
9840,-8.81066,1.19950,-1.12288,-33.7805,0.4268,-15.7317,-10.83,14.86,29.27,4,S02
9860,-8.65983,1.17076,-1.02711,-36.7683,0.6707,-18.4146,-10.83,14.86,29.27,4,S02
9880,-8.47069,0.97444,-0.84994,-34.3293,2.1951,-19.3293,-10.83,14.86,29.27,4,S02
9900,-8.44196,0.69911,-0.69432,-28.2927,4.2683,-18.8415,-10.83,14.86,29.27,4,S02
9920,-8.56885,0.70868,-0.72544,-23.7805,3.7805,-17.6829,-9.36,15.41,29.63,4,S02
9940,-8.52815,1.05345,-0.98641,-22.1951,3.4146,-15.7317,-9.36,15.41,29.63,4,S02
9960,-8.31027,1.37667,-1.11809,-22.3171,3.3537,-14.5732,-9.36,15.41,29.63,4,S02
9980,-8.24803,1.56820,-0.96965,-23.6585,2.4390,-15.3049,-8.17,15.87,29.82,4,S02
10000,-8.39407,1.71904,-0.85234,-27.7439,-0.1829,-16.0976,-8.17,15.87,29.82,4,S02
10020,-8.30788,1.61369,-0.92656,-32.9268,-1.9512,-15.0000,-8.17,15.87,29.82,4,S02
10040,-8.20014,1.30245,-0.96965,-37.9878,-1.7683,-14.0244,-6.15,15.87,30.55,4,S02
10060,-8.32224,0.96965,-0.82839,-42.1951,-1.7683,-14.2683,-6.15,15.87,30.55,4,S02
10080,-8.49942,0.67277,-0.57221,-45.3049,-4.0244,-14.6341,-6.15,15.87,30.55,4,S02
10100,-8.65265,0.54109,-0.43574,-46.6463,-6.2195,-14.2073,-6.15,15.87,30.55,4,S02
10120,-8.71250,0.46448,-0.43335,-46.1585,-6.7683,-12.6829,-4.04,15.87,31.10,4,S02
10140,-8.78672,0.40941,-0.50757,-44.6951,-5.6707,-10.9756,-4.04,15.87,31.10,4,S02
10160,-8.83460,0.28730,-0.46687,-43.4756,-3.5366,-9.5732,-4.04,15.87,31.10,4,S02
10180,-8.97586,0.10295,-0.31364,-41.6463,-1.9512,-9.1463,-2.29,15.78,31.47,4,S02
10200,-9.10515,0.06943,-0.13168,-40.0000,-2.5610,-8.9634,-2.29,15.78,31.47,4,S02
10220,-9.12430,0.11013,-0.05986,-39.8171,-3.4756,-8.4146,-2.29,15.78,31.47,4,S02
10240,-9.09797,0.18675,-0.02634,-39.8171,-2.1951,-7.9268,-0.64,15.87,31.74,4,S02
10260,-9.03811,0.07901,0.04310,-39.3902,0.7317,-7.3780,-0.64,15.87,31.74,4,S02
10280,-9.07642,-0.01676,0.18914,-37.3171,3.3537,-6.8902,-0.64,15.87,31.74,4,S02
10300,-9.07642,0.02873,0.25379,-36.2805,3.2317,-6.2195,-0.64,15.87,31.74,4,S02
10320,-9.01896,0.06704,0.39983,-36.5854,3.1707,-5.0610,0.83,15.87,31.93,4,S02
10340,-9.08360,0.04070,0.61770,-35.9146,4.2073,-3.8415,0.83,15.87,31.93,4,S02
10360,-9.08600,0.12210,0.75178,-34.3293,4.8171,-2.4390,0.83,15.87,31.93,4,S02
10380,-8.93756,0.16759,0.71587,-32.0122,6.2195,0.4268,1.93,16.15,31.93,4,S02
10400,-8.78911,0.17478,0.64643,-31.2805,8.9634,4.3902,1.93,16.15,31.93,4,S02
10420,-9.02135,0.23942,0.78769,-32.5610,12.8659,7.1951,1.93,16.15,31.93,4,S02
10440,-9.43794,0.20590,1.07739,-34.0244,13.2927,8.6585,2.84,16.61,31.83,4,S02
10460,-9.66779,0.20111,1.27850,-35.3659,8.8415,9.2073,2.84,16.61,31.83,4,S02
10480,-9.61272,0.35195,1.25217,-38.0488,3.0488,8.9634,2.84,16.61,31.83,4,S02
10500,-9.49301,0.10295,1.28090,-38.8415,1.4024,8.1098,2.84,16.61,31.83,4,S02
10520,-9.65103,-0.30646,1.52032,-35.4878,1.8293,5.1220,4.13,16.51,32.11,4,S02
10540,-9.91678,-0.49321,1.69270,-30.1829,-1.0366,-0.7317,4.13,16.51,32.11,4,S02
10560,-9.87848,-0.17238,1.71425,-26.5244,-6.4634,-8.7805,4.13,16.51,32.11,4,S02
10580,-9.74679,0.48842,1.90100,-28.4146,-12.8659,-16.3415,5.50,15.78,32.66,4,S02
10600,-9.50259,1.18513,1.98719,-36.4024,-20.9756,-20.3049,5.50,15.78,32.66,4,S02
10620,-9.33978,1.22104,1.58496,-47.6829,-26.7683,-20.6707,5.50,15.78,32.66,4,S02
10640,-9.89284,0.46448,0.89783,-55.2439,-25.6707,-21.0976,8.26,14.68,33.30,4,S02
10660,-10.91277,-0.14844,0.11253,-55.7927,-22.2561,-26.2195,8.26,14.68,33.30,4,S02
10680,-11.31979,0.21787,-0.40462,-51.8902,-20.6098,-35.5488,8.26,14.68,33.30,4,S02
10700,-10.62786,0.74939,-0.72305,-46.8902,-22.9268,-42.0732,8.26,14.68,33.30,4,S02
10720,-9.94551,0.75178,-0.93853,-43.1707,-27.3171,-41.4024,10.73,13.39,33.58,4,S02
10740,-9.23204,0.23463,-1.49159,-41.0366,-28.1707,-33.1098,10.73,13.39,33.58,4,S02
10760,-8.66222,-0.32561,-1.84354,-42.6220,-21.7683,-22.0122,10.73,13.39,33.58,4,S02
10780,-8.89925,-0.50757,-1.28808,-45.0000,-12.8049,-14.4512,12.48,12.84,33.67,4,S02
10800,-9.59596,-0.18914,-0.53630,-42.8049,-9.8780,-10.2439,12.48,12.84,33.67,4,S02
10820,-10.02452,0.46926,-0.41420,-37.9878,-10.9146,-6.6463,12.48,12.84,33.67,4,S02
10840,-9.90960,0.75896,-0.56743,-34.4512,-8.2927,-2.5000,13.76,12.75,33.49,4,S02
10860,-9.97185,0.75417,-0.50518,-32.8659,-3.9024,1.0976,13.76,12.75,33.49,4,S02
10880,-10.09635,0.72784,-0.46926,-32.8659,-1.8902,5.9146,13.76,12.75,33.49,4,S02
10900,-9.74201,0.78530,-0.53151,-36.6463,0.0000,11.9512,13.76,12.75,33.49,4,S02
10920,-9.39006,0.93134,-0.49560,-43.5976,3.9024,16.2805,15.14,13.12,33.12,4,S02
10940,-9.25598,0.96486,-0.28012,-50.8537,5.3659,18.4146,15.14,13.12,33.12,4,S02
10960,-9.15303,0.71587,-0.06704,-55.0610,4.2073,19.0244,15.14,13.12,33.12,4,S02
10980,-9.14106,0.42377,0.15083,-56.3415,3.2927,18.7195,16.97,13.58,32.29,4,S02
11000,-9.21289,0.26097,0.27773,-57.8659,3.9634,18.5366,16.97,13.58,32.29,4,S02
11020,-9.25598,0.23463,0.39265,-59.5122,4.6341,18.9634,16.97,13.58,32.29,4,S02
11040,-9.26317,0.19872,0.47166,-58.7195,6.3415,19.2683,18.81,14.22,31.47,4,S02
11060,-9.41879,0.29449,0.77572,-54.2073,8.4146,18.7805,18.81,14.22,31.47,4,S02
11080,-9.37091,0.45969,0.85712,-51.8902,7.1341,18.9634,18.81,14.22,31.47,4,S02
11100,-9.28950,0.89543,0.88585,-52.9268,6.0366,18.2927,18.81,14.22,31.47,4,S02
11120,-9.18895,1.27132,1.04866,-57.5610,4.8171,16.8293,20.46,14.86,30.46,4,S02
11140,-8.95671,1.32160,1.21625,-59.6951,2.5000,15.4268,20.46,14.86,30.46,4,S02
11160,-8.67419,1.07021,1.35512,-57.9878,1.4024,14.4512,20.46,14.86,30.46,4,S02
11180,-8.71250,0.65841,1.67594,-53.3537,2.1951,13.0488,22.39,15.23,29.54,4,S02
11200,-9.13149,0.48363,2.03028,-47.6829,0.5488,10.8537,22.39,15.23,29.54,4,S02
11220,-9.58878,0.55785,2.26491,-42.1341,-5.3049,9.6951,22.39,15.23,29.54,4,S02
11240,-9.43076,0.94332,1.79565,-37.8659,-12.1951,10.0000,23.58,15.05,29.36,4,S02
11260,-8.94953,1.17076,1.13006,-39.1463,-15.1829,10.7927,23.58,15.05,29.36,4,S02
11280,-9.60554,0.81642,1.38385,-36.0366,-13.1707,10.5488,23.58,15.05,29.36,4,S02
11300,-11.13304,0.73263,1.11570,-30.4878,-14.7561,13.0488,23.58,15.05,29.36,4,S02
11320,-12.58871,1.51792,0.24660,-29.1463,-11.5244,21.7073,24.22,15.05,29.27,4,S02
11340,-13.19684,2.05423,-0.19872,-30.4268,-3.8415,34.3293,24.22,15.05,29.27,4,S02
11360,-11.10910,0.98641,-0.22745,-24.8780,-4.2073,43.4146,24.22,15.05,29.27,4,S02
11380,-8.84418,-0.22266,-0.72544,-12.5000,-11.6463,37.2561,23.85,16.06,29.45,4,S02
11400,-8.09240,-0.57700,-1.14682,-1.8293,-12.5000,21.5244,23.85,16.06,29.45,4,S02
11420,-8.93037,0.46208,-1.17555,-3.4756,-10.6098,10.2439,23.85,16.06,29.45,4,S02
11440,-9.53132,1.70707,-1.13485,-18.9024,-10.6707,8.4756,24.40,15.96,29.45,4,S02
11460,-9.85214,2.15718,-1.06781,-39.5122,-7.5610,11.1585,24.40,15.96,29.45,4,S02
11480,-10.34295,1.67115,-0.67756,-56.2195,-4.8780,9.5122,24.40,15.96,29.45,4,S02
11500,-10.48660,0.66559,-0.49560,-64.7561,-11.7683,2.8659,24.40,15.96,29.45,4,S02
11520,-9.97903,-0.19632,-0.54348,-67.2561,-18.1098,-5.9756,26.97,15.41,28.44,4,S02
11540,-9.31823,-0.53630,-0.62489,-66.7683,-18.1098,-13.9634,26.97,15.41,28.44,4,S02
11560,-8.97586,-0.48363,-0.34955,-66.4634,-15.3659,-17.9878,26.97,15.41,28.44,4,S02
11580,-8.77714,-0.38068,0.06943,-66.4634,-13.9634,-17.0122,29.72,14.40,27.16,4,S02
11600,-8.77954,-0.26097,0.45969,-64.8171,-12.6220,-12.8659,29.72,14.40,27.16,4,S02
11620,-8.87770,-0.16759,0.88585,-62.3171,-10.6707,-7.8659,29.72,14.40,27.16,4,S02
11640,-8.93277,-0.16999,1.11809,-60.1220,-8.9024,-4.4512,31.28,14.22,25.87,4,S02
11660,-8.81545,-0.17957,1.09654,-57.2561,-5.8537,-2.5000,31.28,14.22,25.87,4,S02
11680,-8.83221,0.11971,0.96247,-56.4634,-2.5610,-1.7073,31.28,14.22,25.87,4,S02
11700,-8.82982,0.50039,0.75178,-59.2683,1.0366,-0.1829,31.28,14.22,25.87,4,S02
11720,-8.82742,0.56743,0.78290,-63.5976,5.4268,2.8659,32.75,14.59,24.13,4,S02
11740,-8.95671,0.32561,1.13964,-67.5000,8.1707,6.8293,32.75,14.59,24.13,4,S02
11760,-9.10515,-0.04788,1.68073,-68.2317,8.7195,10.0610,32.75,14.59,24.13,4,S02
11780,-9.02375,-0.25379,2.19788,-66.0976,7.3780,11.4634,33.85,15.50,22.02,4,S02
11800,-8.91361,-0.14844,2.53785,-63.7805,5.0000,11.8902,33.85,15.50,22.02,4,S02
11820,-8.95671,0.06464,2.68390,-61.9512,2.0732,12.8659,33.85,15.50,22.02,4,S02
11840,-9.20331,0.20351,2.90417,-60.8537,-1.5854,13.8415,34.59,16.15,20.28,4,S02
11860,-9.33499,0.23942,3.14598,-61.7073,-7.0732,12.9878,34.59,16.15,20.28,4,S02
11880,-9.39006,0.04070,3.17232,-63.2317,-13.4756,10.0000,34.59,16.15,20.28,4,S02
11900,-9.26796,-0.57461,3.09570,-61.3415,-17.6220,5.3659,34.59,16.15,20.28,4,S02
11920,-8.93037,-0.95050,2.93050,-56.7683,-21.5244,-0.4268,35.23,16.15,19.08,4,S02
11940,-8.59040,-1.09894,2.50194,-54.9390,-25.1829,-3.4756,35.23,16.15,19.08,4,S02
11960,-10.51533,-0.81403,1.96085,-58.7805,-24.5732,-7.5610,35.23,16.15,19.08,4,S02
11980,-12.11945,0.84276,0.77812,-61.0366,-20.9146,-16.9512,36.42,15.23,17.61,4,S02
12000,-11.49456,2.61686,0.48842,-64.4512,-21.5244,-27.1951,36.42,15.23,17.61,4,S02
12020,-11.31979,3.82115,-0.28491,-72.0732,-31.4024,-30.0000,36.42,15.23,17.61,4,S02
12040,-10.42914,2.27928,-1.58017,-76.7683,-22.6829,-14.0854,37.80,15.23,15.14,4,S02
12060,-9.84496,-0.30646,-1.12288,-79.1463,-1.6463,1.4634,37.80,15.23,15.14,4,S02
12080,-9.81383,-1.69509,-0.28012,-75.4878,9.8780,7.9878,37.80,15.23,15.14,4,S02
12100,-9.62230,-1.43173,0.29449,-65.7317,12.0732,10.9146,37.80,15.23,15.14,4,S02
12120,-9.40442,-0.57940,0.70150,-53.0488,10.7927,14.2073,37.71,16.61,13.30,4,S02
12140,-9.05248,0.23224,0.76614,-40.8537,10.7927,17.5610,37.71,16.61,13.30,4,S02
12160,-8.95671,0.70390,0.80206,-33.6585,12.8049,19.6951,37.71,16.61,13.30,4,S02
12180,-8.97347,0.65362,0.76375,-28.7805,14.3902,20.5488,37.06,17.89,12.11,4,S02
12200,-8.84897,0.46926,0.68953,-26.0366,14.3293,20.5488,37.06,17.89,12.11,4,S02
12220,-8.99502,0.48123,0.63925,-26.1585,13.5976,19.2073,37.06,17.89,12.11,4,S02
12240,-9.19373,0.59855,0.71826,-27.4390,12.8659,18.1707,36.79,19.17,11.10,4,S02
12260,-9.35175,0.66798,0.90501,-28.5366,10.3659,16.3415,36.79,19.17,11.10,4,S02
12280,-9.37091,0.81163,1.06303,-29.6341,6.5244,13.7805,36.79,19.17,11.10,4,S02
12300,-9.14825,1.05584,0.94571,-30.7927,4.6341,12.1341,36.79,19.17,11.10,4,S02
12320,-9.08360,1.20668,1.04866,-32.3171,5.5488,11.8293,36.33,20.00,9.91,4,S02
12340,-9.13867,1.07260,1.18034,-32.9268,5.9146,12.3171,36.33,20.00,9.91,4,S02
12360,-9.27514,0.87628,1.35512,-32.3780,5.7317,12.0732,36.33,20.00,9.91,4,S02
12380,-9.16022,0.79487,1.29766,-31.4634,5.1829,10.4268,36.24,20.83,8.81,4,S02
12400,-8.99502,0.91219,1.27850,-31.9512,5.8537,8.6585,36.24,20.83,8.81,4,S02
12420,-9.04290,0.91698,1.51074,-34.7561,6.2805,6.9512,36.24,20.83,8.81,4,S02
12440,-8.98304,0.84515,1.70467,-34.6951,5.9756,4.3902,36.33,21.19,7.61,4,S02
12460,-9.02614,0.86910,1.89621,-34.5122,5.0610,2.0122,36.33,21.19,7.61,4,S02
12480,-8.94474,0.84994,1.92733,-34.5122,4.3293,0.6098,36.33,21.19,7.61,4,S02
12500,-8.88249,0.73741,1.96085,-32.9878,5.2439,-0.6098,36.33,21.19,7.61,4,S02
12520,-8.95431,0.70390,1.94409,-30.3659,6.2195,-2.0732,36.15,21.28,6.61,4,S02
12540,-9.10275,0.69432,2.02789,-28.0488,5.8537,-3.1098,36.15,21.28,6.61,4,S02
12560,-9.10275,0.33998,2.16196,-23.5366,4.5732,-3.9024,36.15,21.28,6.61,4,S02
12580,-9.18176,-0.05746,2.48039,-16.6463,2.8659,-5.4268,36.15,21.19,6.15,4,S02
12600,-9.23444,0.01676,2.60250,-9.6341,-0.7927,-7.1341,36.15,21.19,6.15,4,S02
12620,-9.21289,0.39265,2.75573,-6.5244,-4.5732,-8.1707,36.15,21.19,6.15,4,S02
12640,-9.44752,0.41420,3.00472,-1.7683,-7.4390,-8.0488,35.96,21.19,6.79,4,S02
12660,-10.54885,0.49799,2.75812,6.2195,-9.9390,-5.0610,35.96,21.19,6.79,4,S02
12680,-12.36126,1.43892,1.29526,9.2073,-8.5366,3.7195,35.96,21.19,6.79,4,S02
12700,-12.98376,2.27210,0.15562,5.7927,4.2073,18.4756,35.96,21.19,6.79,4,S02
12720,-11.54005,1.96325,-0.38068,5.1829,13.4146,27.4390,34.77,22.39,7.34,4,S02
12740,-10.02931,1.48201,-0.98402,4.6951,8.8415,19.7561,34.77,22.39,7.34,4,S02
12760,-8.67180,0.90980,-1.36709,4.0244,3.9634,5.6098,34.77,22.39,7.34,4,S02
12780,-8.27436,0.88107,-1.44610,2.9878,3.1707,-3.9024,34.50,22.29,7.98,4,S02
12800,-8.89925,1.38145,-0.99359,-8.9634,2.8659,-4.8780,34.50,22.29,7.98,4,S02
12820,-9.34457,1.61369,-0.60094,-28.5976,0.4268,0.6098,34.50,22.29,7.98,4,S02
12840,-9.66779,1.58257,-0.36631,-47.8659,-1.6463,4.8780,34.68,22.20,6.61,4,S02
12860,-9.80186,1.45328,-0.41899,-63.0488,-2.5610,3.3537,34.68,22.20,6.61,4,S02
12880,-9.60075,1.06781,-0.54588,-73.7195,-4.3902,-1.6463,34.68,22.20,6.61,4,S02
12900,-9.41161,0.55545,-0.58179,-80.3659,-5.3659,-4.9390,34.68,22.20,6.61,4,S02
12920,-9.40442,0.10056,-0.17717,-85.1220,-3.9634,-4.6951,35.23,21.83,4.40,4,S02
12940,-9.39964,-0.18435,0.20351,-87.7439,-4.2683,-2.0732,35.23,21.83,4.40,4,S02
12960,-9.29669,-0.20590,0.38307,-88.5366,-4.9390,0.0610,35.23,21.83,4.40,4,S02
12980,-9.23683,0.05507,0.39744,-89.1463,-3.9024,0.7927,35.50,21.83,2.02,4,S02
13000,-9.24162,0.31843,0.40701,-90.4268,-2.1951,1.6463,35.50,21.83,2.02,4,S02
13020,-9.24880,0.50039,0.45969,-92.2561,-0.4878,3.8415,35.50,21.83,2.02,4,S02
13040,-9.15303,0.59376,0.49560,-94.5122,-0.0610,6.7073,35.23,22.11,-0.73,4,S02
13060,-9.05966,0.69671,0.39504,-97.6220,0.0000,8.9634,35.23,22.11,-0.73,4,S02
13080,-9.03811,0.84755,0.16520,-104.0854,1.9512,9.8780,35.23,22.11,-0.73,4,S02
13100,-9.20092,0.79009,0.05028,-111.8293,6.2195,9.0244,35.23,22.11,-0.73,4,S02
13120,-9.31584,0.24660,0.01676,-114.0854,11.4024,6.8902,34.77,22.20,-4.31,4,S02
13140,-9.53610,-0.61770,0.16041,-109.3902,14.6951,3.9024,34.77,22.20,-4.31,4,S02
13160,-9.71088,-1.33118,0.43814,-100.6098,13.2317,0.9146,34.77,22.20,-4.31,4,S02
13180,-9.66779,-1.56341,0.61292,-90.2439,8.8415,-1.2805,34.31,21.83,-6.88,4,S02
13200,-9.45231,-1.49638,0.79727,-80.2439,5.1829,-2.6829,34.31,21.83,-6.88,4,S02
13220,-9.32781,-1.41976,1.19710,-70.1829,3.1707,-3.1707,34.31,21.83,-6.88,4,S02
13240,-9.36372,-1.21147,1.50116,-60.6098,0.0000,-2.8659,34.04,21.47,-7.98,4,S02
13260,-9.35175,-0.73741,1.59693,-54.4512,-3.4756,-2.0122,34.04,21.47,-7.98,4,S02
13280,-9.21528,-0.19393,1.66397,-52.1341,-5.6707,-1.2195,34.04,21.47,-7.98,4,S02
13300,-9.05727,0.33998,1.74777,-51.7683,-7.0732,0.4878,34.04,21.47,-7.98,4,S02
13320,-9.01178,0.52194,2.02310,-52.6829,-9.0244,4.2073,33.58,21.65,-8.72,4,S02
13340,-9.04769,0.45729,2.27689,-53.6585,-11.1585,8.0488,33.58,21.65,-8.72,4,S02
13360,-8.97586,0.50278,2.35829,-54.0244,-11.1585,9.5732,33.58,21.65,-8.72,4,S02
13380,-8.67898,0.84276,2.15239,-55.9756,-10.0610,8.7195,32.94,21.93,-9.45,4,S02
13400,-8.46590,1.16358,2.20027,-61.3415,-6.8293,7.5610,32.94,21.93,-9.45,4,S02
13420,-8.60716,1.42216,2.22421,-65.5488,-2.6829,7.3780,32.94,21.93,-9.45,4,S02
13440,-9.57441,1.39582,1.91536,-71.4024,0.7317,9.4512,31.74,21.93,-11.19,4,S02
13460,-11.85130,1.27132,0.88107,-79.7561,3.7195,10.3049,31.74,21.93,-11.19,4,S02
13480,-13.09389,0.40941,-0.79966,-77.8659,9.0244,4.1463,31.74,21.93,-11.19,4,S02
13500,-12.80419,0.21308,-0.87149,-74.3902,9.6951,-8.4146,31.74,21.93,-11.19,4,S02
13520,-10.97742,0.32322,-1.81480,-79.3293,-4.3902,-14.5732,31.65,21.10,-12.94,4,S02
13540,-9.06205,-0.49321,-2.63123,-87.5610,-8.0488,-8.2927,31.65,21.10,-12.94,4,S02
13560,-9.29669,-1.84114,-1.70228,-94.8781,-2.2561,1.5854,31.65,21.10,-12.94,4,S02
13580,-10.40999,-2.52828,-0.06225,-93.2317,2.1341,9.4512,30.09,21.56,-15.05,4,S02
13600,-10.51533,-2.32238,0.53630,-81.5244,-0.8537,13.8415,30.09,21.56,-15.05,4,S02
13620,-10.13944,-1.46765,0.29928,-68.8415,-5.0000,16.4634,30.09,21.56,-15.05,4,S02
13640,-9.56484,-0.61531,-0.05507,-58.2317,-5.7927,19.8780,28.99,22.48,-15.60,4,S02
13660,-9.03093,-0.29209,-0.27773,-50.0000,-5.5488,23.4756,28.99,22.48,-15.60,4,S02
13680,-8.87291,-0.20111,-0.21787,-45.6098,-4.3902,24.8171,28.99,22.48,-15.60,4,S02
13700,-8.78911,-0.18435,-0.28012,-43.1098,-3.9024,24.3902,28.99,22.48,-15.60,4,S02
13720,-8.71729,-0.17957,-0.20590,-41.2195,-3.2927,23.5976,27.71,23.21,-16.15,4,S02
13740,-8.82024,-0.10774,0.12450,-40.7927,-3.1098,22.5610,27.71,23.21,-16.15,4,S02
13760,-9.22007,0.35674,0.39265,-38.7195,-4.2073,19.3293,27.71,23.21,-16.15,4,S02
13780,-9.14346,0.46926,0.26097,-37.8049,-3.1707,17.8659,26.79,23.67,-16.61,4,S02
13800,-9.27274,0.54588,0.26097,-36.4634,-2.3780,15.0610,26.79,23.67,-16.61,4,S02
13820,-9.57441,0.59616,0.46208,-34.8780,-2.9878,12.5610,26.79,23.67,-16.61,4,S02
13840,-9.59596,0.45490,0.58897,-32.5000,-4.7561,12.3171,26.24,24.13,-16.97,4,S02
13860,-9.46907,0.38786,0.62968,-28.4756,-5.3049,12.7439,26.24,24.13,-16.97,4,S02
13880,-9.31105,0.58419,0.61052,-26.0366,-5.0610,13.1098,26.24,24.13,-16.97,4,S02
13900,-9.35893,0.78051,0.63925,-25.2439,-5.0610,12.9268,26.24,24.13,-16.97,4,S02
13920,-9.52413,0.64165,0.75896,-22.6829,-4.1463,12.6220,25.60,24.59,-17.25,4,S02
13940,-9.58399,0.44532,0.95050,-18.8415,-3.9634,12.0122,25.60,24.59,-17.25,4,S02
13960,-9.34936,0.46208,0.98881,-15.5488,-5.8537,10.6098,25.60,24.59,-17.25,4,S02
13980,-8.88009,0.56982,0.97683,-12.9268,-7.0122,9.0244,25.50,24.95,-17.06,4,S02
14000,-8.53533,0.75178,0.95529,-9.6951,-5.9756,6.8902,25.50,24.95,-17.06,4,S02
14020,-8.68856,0.85234,1.10133,-7.1341,-2.4390,4.5122,25.50,24.95,-17.06,4,S02
14040,-9.01656,0.85473,1.35991,-5.1220,0.1220,2.8049,25.69,24.86,-17.16,4,S02
14060,-9.06445,0.77812,1.52271,-3.5366,1.6463,2.0732,25.69,24.86,-17.16,4,S02
14080,-9.16261,0.71108,1.71425,-2.6220,3.1098,0.4268,25.69,24.86,-17.16,4,S02
14100,-9.56484,0.51475,1.95367,0.1220,4.6341,-2.2561,25.69,24.86,-17.16,4,S02
14120,-10.29507,0.24660,2.28886,5.4268,4.3293,-5.3659,26.42,24.40,-17.06,4,S02
14140,-10.73321,0.69671,1.21147,8.4756,2.9878,-7.3780,26.42,24.40,-17.06,4,S02
14160,-12.08593,0.77812,1.95367,6.4024,5.5488,-9.3902,26.42,24.40,-17.06,4,S02
14180,-13.93425,1.28569,1.70228,11.2805,-0.7927,-5.7927,27.34,24.04,-16.51,4,S02
14200,-13.45541,0.58419,1.47483,13.0488,-0.2439,6.2805,27.34,24.04,-16.51,4,S02
14220,-11.88003,0.44772,0.36631,13.7805,3.2317,10.6707,27.34,24.04,-16.51,4,S02
14240,-11.49696,0.76854,-0.19872,18.5366,8.8415,-0.1220,28.53,23.94,-16.24,4,S02
14260,-11.30542,0.55067,-0.62728,24.9390,8.2927,-9.6951,28.53,23.94,-16.24,4,S02
14280,-11.01333,0.11253,-0.78051,28.8415,8.5976,-12.7439,28.53,23.94,-16.24,4,S02
14300,-10.86489,-0.09098,-0.84515,27.6829,9.0854,-13.9024,28.53,23.94,-16.24,4,S02
14320,-10.80503,0.17717,-0.73263,18.8415,5.2439,-18.5366,30.28,23.39,-15.60,4,S02
14340,-10.66138,0.22266,-0.60094,8.5366,0.3049,-24.1463,30.28,23.39,-15.60,4,S02
14360,-10.11071,0.04070,-0.54588,-0.7927,-3.7805,-26.3415,30.28,23.39,-15.60,4,S02
14380,-9.38048,-0.21308,-0.50518,-9.2073,-4.9390,-25.0000,31.83,22.66,-15.60,4,S02
14400,-8.69095,-0.41420,-0.55785,-14.6951,-3.9634,-22.5000,31.83,22.66,-15.60,4,S02
14420,-8.31746,-0.70868,-0.43335,-17.9878,-2.8659,-21.5244,31.83,22.66,-15.60,4,S02
14440,-8.39168,-0.93613,-0.18196,-20.3049,-4.0244,-22.3171,32.75,22.20,-15.96,4,S02
14460,-8.38928,-0.97205,-0.06464,-22.6220,-7.2561,-22.6220,32.75,22.20,-15.96,4,S02
14480,-8.19296,-0.98641,-0.03591,-22.6220,-9.2073,-21.2195,32.75,22.20,-15.96,4,S02
14500,-8.00860,-0.86431,0.01676,-20.7927,-10.4268,-20.0610,32.75,22.20,-15.96,4,S02
14520,-7.98466,-0.78290,0.04549,-19.1463,-11.9512,-17.8659,33.39,21.93,-16.15,4,S02
14540,-8.16662,-0.77812,0.11253,-18.5976,-13.2927,-14.3902,33.39,21.93,-16.15,4,S02
14560,-8.24803,-0.74939,0.11492,-20.0000,-13.9024,-10.3659,33.39,21.93,-16.15,4,S02
14580,-8.39886,-0.69192,0.18675,-22.7439,-13.4146,-8.1098,33.67,21.83,-16.33,4,S02
14600,-8.64786,-0.79727,0.23703,-24.5122,-13.5366,-8.4146,33.67,21.83,-16.33,4,S02
14620,-8.68616,-0.92656,0.18675,-25.0000,-14.8171,-10.3049,33.67,21.83,-16.33,4,S02
14640,-8.73644,-1.00556,0.21548,-25.7317,-15.1829,-11.4024,33.85,21.56,-16.51,4,S02
14660,-8.69095,-1.18513,0.30885,-26.8293,-15.8537,-10.3659,33.85,21.56,-16.51,4,S02
14680,-8.71011,-1.32160,0.37828,-28.2317,-16.2805,-9.0854,33.85,21.56,-16.51,4,S02
14700,-8.71729,-1.31442,0.37589,-30.1220,-16.2195,-8.1098,33.85,21.56,-16.51,4,S02
14720,-8.81784,-1.19950,0.48363,-32.0122,-15.0000,-6.8902,33.49,21.74,-17.06,4,S02
14740,-8.90883,-1.17076,0.53391,-33.3537,-13.8415,-5.1220,33.49,21.74,-17.06,4,S02
14760,-8.92558,-1.32399,0.55306,-33.4756,-12.3780,-4.0244,33.49,21.74,-17.06,4,S02
14780,-8.89685,-1.42694,0.74220,-33.9634,-11.1585,-4.2073,33.12,21.74,-17.71,4,S02
14800,-8.93756,-1.44610,0.78290,-34.8780,-10.6707,-5.1220,33.12,21.74,-17.71,4,S02
14820,-9.02375,-1.40779,0.77812,-35.1829,-9.5122,-5.3659,33.12,21.74,-17.71,4,S02
14840,-9.15782,-1.32399,0.89783,-35.9756,-8.2317,-4.4512,32.39,21.74,-18.62,4,S02
14860,-9.25598,-1.34794,1.06303,-36.2805,-7.6220,-3.2927,32.39,21.74,-18.62,4,S02
14880,-9.27274,-1.41258,1.15401,-35.7927,-7.8049,-2.0732,32.39,21.74,-18.62,4,S02
14900,-9.27753,-1.41497,1.15640,-34.8780,-7.0122,-0.4878,32.39,21.74,-18.62,4,S02
14920,-9.23922,-1.39103,1.17316,-33.7805,-4.7561,1.0366,31.56,21.74,-19.63,4,S02
14940,-9.20331,-1.46286,1.17555,-32.3780,-2.5610,2.0732,31.56,21.74,-19.63,4,S02
14960,-9.11951,-1.59693,1.11330,-30.3659,-0.0610,2.7439,31.56,21.74,-19.63,4,S02
14980,-9.17698,-1.62087,1.22583,-28.2927,3.0488,2.7439,30.92,21.74,-20.46,4,S02
15000,-9.37330,-1.52032,1.38864,-26.7073,4.2683,2.2561,30.92,21.74,-20.46,4,S02
15020,-9.28232,-1.55384,1.38385,-24.6951,4.6341,2.4390,30.92,21.74,-20.46,4,S02
15040,-9.16740,-1.62327,1.19710,-21.2195,6.7683,2.3780,30.37,21.38,-21.28,4,S02
15060,-9.22486,-1.56102,1.13006,-19.0244,9.6341,2.3171,30.37,21.38,-21.28,4,S02
15080,-9.17219,-1.55384,1.11091,-17.8659,11.7073,2.9878,30.37,21.38,-21.28,4,S02
15100,-9.14106,-1.66158,1.11091,-16.6463,12.9268,3.5366,30.37,21.38,-21.28,4,S02
15120,-8.91361,-1.75495,1.20907,-14.2073,12.9268,2.9878,29.91,21.19,-22.02,4,S02
15140,-8.84418,-1.77889,1.19710,-12.0122,13.9634,2.9878,29.91,21.19,-22.02,4,S02
15160,-8.95192,-1.84114,1.24259,-8.9024,16.0976,3.8415,29.91,21.19,-22.02,4,S02
15180,-9.10754,-1.81720,1.24020,-6.2195,17.1341,4.7561,29.45,20.73,-22.66,4,S02
15200,-9.10515,-1.74777,1.23301,-4.8780,17.0732,5.4268,29.45,20.73,-22.66,4,S02
15220,-9.18655,-1.74777,1.35512,-3.2317,16.4634,6.2805,29.45,20.73,-22.66,4,S02
15240,-9.33499,-1.69749,1.49398,-1.2805,13.9024,7.5610,29.27,20.64,-22.94,4,S02
15260,-9.27753,-1.57778,1.53947,0.3659,11.1585,9.0244,29.27,20.64,-22.94,4,S02
15280,-9.06445,-1.50835,1.32878,1.6463,9.9390,9.7561,29.27,20.64,-22.94,4,S02
15300,-9.11233,-1.53708,1.03190,2.9268,11.3415,9.8171,29.27,20.64,-22.94,4,S02
15320,-9.41879,-1.47722,0.85473,3.1707,14.1463,9.5732,29.17,20.83,-23.21,4,S02
15340,-9.46667,-1.52750,0.61292,2.6829,17.9268,9.3293,29.17,20.83,-23.21,4,S02
15360,-9.49062,-1.56102,0.39025,3.5366,22.9268,7.7439,29.17,20.83,-23.21,4,S02
15380,-10.02452,-1.19231,0.23703,1.5854,27.3780,4.5122,28.90,20.28,-24.04,4,S02
15400,-10.91756,-0.99599,0.15562,-3.9634,29.5122,3.1707,28.90,20.28,-24.04,4,S02
15420,-11.86088,-1.03190,0.15323,-9.6951,27.9268,3.5366,28.90,20.28,-24.04,4,S02
15440,-12.49534,-0.99120,-0.04070,-14.8780,22.0122,4.5122,28.35,19.91,-25.14,4,S02
15460,-12.69166,-0.93374,-0.26336,-19.3293,16.7073,5.5488,28.35,19.91,-25.14,4,S02
15480,-12.58153,-0.82600,-0.57700,-22.2561,14.6341,6.3415,28.35,19.91,-25.14,4,S02
15500,-12.09790,-0.59616,-0.81882,-24.6341,14.2073,7.0732,28.35,19.91,-25.14,4,S02
15520,-11.25514,-0.59855,-1.00317,-25.3049,14.9390,8.3537,27.80,19.91,-26.15,4,S02
15540,-10.65659,-0.82361,-1.00078,-24.1463,15.1829,10.0000,27.80,19.91,-26.15,4,S02
15560,-10.56082,-0.79487,-0.76614,-21.8902,14.5122,12.6829,27.80,19.91,-26.15,4,S02
15580,-10.53209,-0.54588,-0.72544,-17.0732,13.4146,17.4390,27.16,20.28,-26.97,4,S02
15600,-10.34295,-0.27054,-0.87388,-10.4268,13.7195,23.2317,27.16,20.28,-26.97,4,S02
15620,-10.07720,-0.08619,-1.10373,-5.0000,13.6585,27.3780,27.16,20.28,-26.97,4,S02
15640,-9.78031,-0.06464,-1.24977,-1.7683,10.9756,28.3537,26.79,21.10,-27.25,4,S02
15660,-9.47625,-0.18675,-1.18992,1.0976,7.2561,27.2561,26.79,21.10,-27.25,4,S02
15680,-9.19613,-0.39025,-0.98641,4.1463,4.3902,25.7317,26.79,21.10,-27.25,4,S02
15700,-8.90643,-0.64165,-0.91459,7.9878,2.9268,24.7561,26.79,21.10,-27.25,4,S02
15720,-8.73165,-0.57940,-0.97683,11.6463,2.8049,23.8415,27.06,21.83,-26.97,4,S02
15740,-8.63349,-0.33279,-1.04866,14.2683,1.7073,23.1707,27.06,21.83,-26.97,4,S02
15760,-8.54491,-0.13647,-1.03669,17.1341,-0.9146,22.6829,27.06,21.83,-26.97,4,S02
15780,-8.44196,-0.03591,-0.95289,19.2683,-4.3293,22.3780,27.52,22.84,-26.33,4,S02
15800,-8.35098,0.07901,-0.70390,18.5976,-8.9024,22.1341,27.52,22.84,-26.33,4,S02
15820,-8.36295,0.17238,-0.61531,18.0488,-13.8415,21.0366,27.52,22.84,-26.33,4,S02
15840,-8.36055,0.22027,-0.61531,18.9634,-16.3415,19.5732,27.89,24.13,-25.23,4,S02
15860,-8.41801,0.38786,-0.61770,17.9878,-17.3780,18.0488,27.89,24.13,-25.23,4,S02
15880,-8.50181,0.56982,-0.60334,16.4634,-18.1098,16.2805,27.89,24.13,-25.23,4,S02
15900,-8.58321,0.67277,-0.69911,15.5488,-19.0244,13.9634,27.89,24.13,-25.23,4,S02
15920,-8.71729,0.64643,-0.75896,13.9634,-18.7195,11.6463,28.35,25.41,-24.31,4,S02
15940,-8.92319,0.66080,-0.64643,12.8049,-17.7439,9.2073,28.35,25.41,-24.31,4,S02
15960,-8.89685,0.60573,-0.54348,12.7439,-18.5366,8.1707,28.35,25.41,-24.31,4,S02
15980,-8.81784,0.52912,-0.55306,13.6585,-19.3293,8.3537,28.72,26.24,-23.39,4,S02
16000,-8.61673,0.61531,-0.64643,14.2073,-18.5976,8.4756,28.72,26.24,-23.39,4,S02
16020,-8.57842,0.82361,-0.57221,13.5976,-16.7073,7.7439,28.72,26.24,-23.39,4,S02
16040,-8.94953,1.06542,-0.32561,11.4024,-16.4634,6.4634,28.90,27.06,-22.75,4,S02
16060,-9.13627,1.02711,-0.14126,9.9390,-17.2561,5.5488,28.90,27.06,-22.75,4,S02
16080,-8.89685,0.77812,-0.27773,10.6098,-16.1585,4.6341,28.90,27.06,-22.75,4,S02
16100,-8.69335,0.91219,-0.56503,9.5732,-10.9146,3.5366,28.90,27.06,-22.75,4,S02
16120,-8.78433,1.37188,-0.48842,3.4146,-5.0610,3.4756,29.17,27.25,-22.20,4,S02
16140,-9.03572,1.70467,-0.22984,-4.1463,-2.7439,4.0244,29.17,27.25,-22.20,4,S02
16160,-9.20331,1.59693,0.14844,-8.3537,-3.5366,3.7805,29.17,27.25,-22.20,4,S02
16180,-9.32063,1.14922,0.46687,-6.5854,-2.4390,2.2561,28.90,27.25,-22.57,4,S02
16200,-9.60554,0.82361,0.53630,-1.8293,1.0976,0.2439,28.90,27.25,-22.57,4,S02
16220,-10.10593,0.74220,0.76854,1.3415,3.6585,-0.6098,28.90,27.25,-22.57,4,S02
16240,-10.70687,0.83797,1.11330,4.0854,2.4390,-1.1585,29.17,26.79,-22.75,4,S02
16260,-10.48900,1.60172,-0.09577,0.9756,0.8537,-2.7439,29.17,26.79,-22.75,4,S02
16280,-10.89122,1.07500,1.42216,-0.5488,1.5244,-8.4146,29.17,26.79,-22.75,4,S02
16300,-12.45464,0.93613,0.59616,8.1707,-9.8171,-12.2561,29.17,26.79,-22.75,4,S02
16320,-12.93587,0.51954,-0.90980,11.6463,-6.7073,-6.2195,30.09,26.51,-22.11,4,S02
16340,-12.20325,-0.04070,-0.56982,14.1463,1.5244,0.5488,30.09,26.51,-22.11,4,S02
16360,-11.27430,-0.60573,-1.11809,20.1220,-2.9268,-4.0854,30.09,26.51,-22.11,4,S02
16380,-10.60871,-0.22266,-1.60890,22.6220,0.6707,-11.8902,31.74,25.96,-21.65,4,S02
16400,-10.30704,0.48123,-1.55144,21.5244,3.7805,-15.4268,31.74,25.96,-21.65,4,S02
16420,-10.27352,0.39265,-1.30005,18.4146,5.3049,-15.6707,31.74,25.96,-21.65,4,S02
16440,-10.32140,0.26576,-1.02232,9.8171,4.6341,-17.6220,32.94,24.95,-21.83,4,S02
16460,-10.44830,-0.00958,-0.49560,-10.9146,-2.1951,-26.0366,32.94,24.95,-21.83,4,S02
16480,-10.00297,-0.29928,-0.28970,-18.2317,-6.4634,-26.4024,32.94,24.95,-21.83,4,S02
16500,-9.51935,-0.49321,-0.29449,-23.0488,-8.4756,-24.4512,32.94,24.95,-21.83,4,S02
16520,-9.08360,-0.65122,-0.28970,-24.3293,-7.4390,-21.7073,33.67,24.31,-22.39,4,S02
16540,-8.76757,-0.75657,-0.24421,-22.8659,-5.9756,-19.3293,33.67,24.31,-22.39,4,S02
16560,-8.67419,-0.77572,-0.13886,-21.8293,-6.2805,-17.9878,33.67,24.31,-22.39,4,S02
16580,-8.61913,-0.68474,-0.18196,-21.1585,-7.1951,-17.4390,34.04,23.76,-22.66,4,S02
16600,-8.57603,-0.55306,-0.27773,-21.2195,-6.9512,-16.8293,34.04,23.76,-22.66,4,S02
16620,-8.20972,-0.53630,-0.33040,-20.6707,-7.0732,-15.8537,34.04,23.76,-22.66,4,S02
16640,-7.99424,-0.62489,-0.27773,-18.7195,-8.8415,-15.9756,34.40,23.12,-23.03,4,S02
16660,-8.12353,-0.58419,-0.17957,-17.9268,-11.5244,-15.7317,34.40,23.12,-23.03,4,S02
16680,-8.36055,-0.50518,-0.10774,-19.9390,-13.4146,-13.9634,34.40,23.12,-23.03,4,S02
16700,-8.39168,-0.52194,0.00000,-21.4634,-14.4512,-12.8659,34.40,23.12,-23.03,4,S02
16720,-8.40844,-0.71108,0.02873,-22.0122,-16.4024,-13.1707,34.59,23.03,-23.12,4,S02
16740,-8.55688,-1.02232,0.14126,-21.4024,-17.5610,-13.3537,34.59,23.03,-23.12,4,S02
16760,-8.83939,-1.28329,0.30406,-19.3293,-18.7805,-11.6463,34.59,23.03,-23.12,4,S02
16780,-8.97826,-1.27850,0.37350,-16.0976,-20.3049,-9.3293,34.59,23.03,-23.03,4,S02
16800,-8.85136,-1.13246,0.25379,-13.9634,-21.8293,-9.0244,34.59,23.03,-23.03,4,S02
16820,-8.82024,-1.15161,0.23463,-12.1341,-20.7317,-10.2439,34.59,23.03,-23.03,4,S02
16840,-9.05727,-1.42455,0.37589,-8.3537,-19.0244,-10.6707,34.86,23.03,-22.66,4,S02
16860,-9.21049,-1.59933,0.41420,-5.0000,-18.6585,-10.6098,34.86,23.03,-22.66,4,S02
16880,-9.09557,-1.62806,0.46208,-2.6829,-17.3171,-10.3049,34.86,23.03,-22.66,4,S02
16900,-8.80109,-1.68791,0.41180,0.0610,-14.9390,-10.0000,34.86,23.03,-22.66,4,S02
16920,-8.67180,-1.68552,0.29209,3.5366,-11.0976,-9.8780,35.60,22.94,-22.20,4,S02
16940,-8.71489,-1.69031,0.38307,5.9146,-7.5610,-9.5122,35.60,22.94,-22.20,4,S02
16960,-9.05248,-1.71185,0.72784,7.8049,-5.4268,-9.3902,35.60,22.94,-22.20,4,S02
16980,-9.22965,-1.63524,0.90980,9.2683,-6.2195,-9.5122,36.33,22.66,-21.74,4,S02
17000,-8.94474,-1.73340,0.88585,11.7073,-5.4878,-8.8415,36.33,22.66,-21.74,4,S02
17020,-8.76038,-1.94888,0.80445,14.9390,-2.2561,-8.8415,36.33,22.66,-21.74,4,S02
17040,-8.98783,-2.00155,1.02951,17.0732,0.3049,-9.8171,37.25,22.29,-21.01,4,S02
17060,-9.30387,-1.89381,1.29766,18.6585,-0.4878,-10.3049,37.25,22.29,-21.01,4,S02
17080,-9.21049,-1.79086,1.35033,21.0366,-2.3171,-9.3902,37.25,22.29,-21.01,4,S02
17100,-8.93995,-1.71185,1.19471,23.1707,-1.2195,-7.8049,37.25,22.29,-21.01,4,S02
17120,-8.88728,-1.64242,1.11809,22.8049,2.0732,-6.2805,38.35,22.02,-20.37,4,S02
17140,-9.14585,-1.60412,1.29287,20.2439,4.5732,-4.9390,38.35,22.02,-20.37,4,S02
17160,-9.26796,-1.62327,1.54187,18.0488,4.2073,-4.0244,38.35,22.02,-20.37,4,S02
17180,-9.08600,-1.70467,1.57538,17.1341,2.5610,-3.1098,39.08,21.93,-19.91,4,S02
17200,-8.92080,-1.81720,1.57060,16.7073,3.4146,-1.4024,39.08,21.93,-19.91,4,S02
17220,-8.86573,-1.72143,1.51074,15.7317,6.0976,0.7317,39.08,21.93,-19.91,4,S02
17240,-8.88488,-1.51314,1.49159,12.5000,8.7195,2.8049,39.36,22.11,-19.91,4,S02
17260,-8.91361,-1.43173,1.62566,8.3537,10.6098,4.8780,39.36,22.11,-19.91,4,S02
17280,-8.83460,-1.58257,1.75734,5.8537,11.8902,7.0732,39.36,22.11,-19.91,4,S02
17300,-8.80109,-1.86987,1.78607,5.6707,13.7805,9.0854,39.36,22.11,-19.91,4,S02
17320,-8.96868,-1.90100,1.72383,5.0610,15.3659,11.2195,39.17,22.66,-20.18,4,S02
17340,-9.23922,-1.82438,1.67115,2.0732,16.4024,13.4146,39.17,22.66,-20.18,4,S02
17360,-9.74440,-1.85551,1.51792,-1.8293,16.3415,14.9390,39.17,22.66,-20.18,4,S02
17380,-10.36929,-2.08535,1.17555,-4.5122,17.0732,16.0976,38.90,23.30,-21.01,4,S02
17400,-10.86010,-2.51870,0.95529,-3.6585,19.8780,16.7073,38.90,23.30,-21.01,4,S02
17420,-11.60709,-2.78685,1.18992,-1.7073,22.0122,15.8537,38.90,23.30,-21.01,4,S02
17440,-12.57914,-1.95606,1.20189,-0.9146,18.7805,14.3293,38.90,23.94,-21.65,4,S02
17460,-13.24472,-1.06542,0.97923,-5.4878,13.4146,16.4634,38.90,23.94,-21.65,4,S02
17480,-13.13220,-0.61770,0.02873,-11.8902,12.3780,22.6220,38.90,23.94,-21.65,4,S02
17500,-12.33014,-0.09816,-0.75896,-25.0000,17.5000,27.4390,38.90,23.94,-21.65,4,S02
17520,-10.97981,0.35913,-1.29287,-37.7439,19.7561,28.4756,37.61,25.14,-23.58,4,S02
17540,-10.24239,0.36392,-1.46046,-41.0976,17.1341,23.9024,37.61,25.14,-23.58,4,S02
17560,-10.75715,0.03112,-1.24738,-36.5244,15.8537,18.9024,37.61,25.14,-23.58,4,S02
17580,-10.96066,-0.27773,-1.11330,-28.4146,16.2195,21.1585,36.88,25.96,-25.05,4,S02
17600,-10.40281,-0.33040,-1.08218,-21.4024,14.5122,27.0732,36.88,25.96,-25.05,4,S02
17620,-9.83538,-0.01915,-1.23062,-15.5488,10.9146,29.6951,36.88,25.96,-25.05,4,S02
17640,-9.56244,0.50996,-1.36230,-11.2805,8.4756,28.7195,36.61,27.34,-25.14,4,S02
17660,-9.39006,0.74939,-1.29526,-8.4756,7.7439,27.3780,36.61,27.34,-25.14,4,S02
17680,-9.19134,0.59855,-1.16358,-5.9146,7.0732,27.2561,36.61,27.34,-25.14,4,S02
17700,-8.85615,0.33998,-1.05345,-2.8049,6.4634,27.7439,36.61,27.34,-25.14,4,S02
17720,-8.56885,0.22505,-0.96965,0.4268,5.7927,26.9512,36.70,28.44,-25.05,4,S02
17740,-8.43717,0.31125,-0.92656,3.2317,4.6341,25.0000,36.70,28.44,-25.05,4,S02
17760,-8.43238,0.39983,-0.89304,5.5488,3.1098,22.9268,36.70,28.44,-25.05,4,S02
17780,-8.35576,0.41899,-0.90022,7.3780,1.2805,19.8780,37.16,29.45,-24.59,4,S02
17800,-8.15226,0.42617,-0.90501,9.2073,-3.4146,13.3537,37.16,29.45,-24.59,4,S02
17820,-8.21690,0.53870,-0.71587,7.0122,-7.3780,11.2805,37.16,29.45,-24.59,4,S02
17840,-8.20253,0.60334,-0.75896,6.7683,-11.2805,9.0854,37.98,30.55,-23.85,4,S02
17860,-8.27676,0.70150,-0.83318,7.8659,-12.3171,6.7073,37.98,30.55,-23.85,4,S02
17880,-8.46829,0.78290,-0.83797,9.2073,-12.2561,3.8415,37.98,30.55,-23.85,4,S02
17900,-8.70053,0.94571,-0.73023,9.7561,-13.7805,1.6463,37.98,30.55,-23.85,4,S02
17920,-8.87531,1.03908,-0.66080,9.1463,-17.0122,0.7927,38.90,31.38,-22.84,4,S02
17940,-8.92319,1.10612,-0.65601,8.4756,-18.5366,0.6707,38.90,31.38,-22.84,4,S02
17960,-8.80587,1.14682,-0.66080,7.1951,-18.4756,-0.0610,38.90,31.38,-22.84,4,S02
17980,-8.77475,1.28329,-0.78530,5.6707,-17.4390,-2.4390,39.91,32.20,-21.74,4,S02
18000,-9.05487,1.30963,-0.79966,3.5366,-15.6098,-4.4512,39.91,32.20,-21.74,4,S02
18020,-9.30147,1.14443,-0.57700,2.8659,-14.0854,-4.0854,39.91,32.20,-21.74,4,S02
18040,-9.40921,0.94332,-0.31603,3.1098,-14.2073,-2.3780,40.37,32.66,-21.01,4,S02
18060,-9.07642,0.85952,-0.34477,2.7439,-14.9390,-1.4024,40.37,32.66,-21.01,4,S02
18080,-8.74362,0.96486,-0.38786,0.8537,-12.8049,-2.0732,40.37,32.66,-21.01,4,S02
18100,-9.06205,1.19231,-0.23942,-1.6463,-11.0366,-3.7195,40.37,32.66,-21.01,4,S02
18120,-9.28232,1.14922,0.01197,-2.4390,-10.5488,-3.4146,40.92,32.94,-20.73,4,S02
18140,-9.25359,1.07500,0.16041,-2.6829,-11.2805,-2.0122,40.92,32.94,-20.73,4,S02
18160,-8.93756,1.15401,0.06464,-3.1707,-10.6707,-0.9146,40.92,32.94,-20.73,4,S02
18180,-8.82503,1.46525,-0.09816,-6.2805,-8.1707,-0.7927,41.10,33.21,-20.55,4,S02
18200,-9.03332,1.65679,-0.03352,-11.7683,-4.3293,-0.6098,41.10,33.21,-20.55,4,S02
18220,-9.25598,1.47962,0.27533,-16.5854,-1.2195,0.2439,41.10,33.21,-20.55,4,S02
18240,-9.46428,1.16837,0.55785,-18.2317,1.0366,0.6098,40.55,33.03,-21.56,4,S02
18260,-9.88326,1.03190,0.81882,-18.1707,2.9268,0.2439,40.55,33.03,-21.56,4,S02
18280,-10.40041,0.97205,1.15640,-16.8902,3.9024,0.1220,40.55,33.03,-21.56,4,S02
18300,-10.67814,1.30484,-0.11971,-18.0488,4.0854,0.2439,40.55,33.03,-21.56,4,S02
18320,-11.44907,1.14682,1.69031,-26.5244,5.2439,-2.4390,40.09,32.75,-22.75,4,S02
18340,-13.29740,0.67995,1.69031,-17.5610,-7.5000,-6.2805,40.09,32.75,-22.75,4,S02
18360,-13.67329,-0.62249,0.01197,-1.7073,-10.3659,-1.1585,40.09,32.75,-22.75,4,S02
18380,-12.91672,-0.74220,0.20830,8.9634,-2.3171,4.8780,40.92,32.75,-21.93,4,S02
18400,-12.07396,-0.28491,-0.07422,16.4024,-9.6951,0.6098,40.92,32.75,-21.93,4,S02
18420,-10.74518,0.40941,-0.81163,22.4390,-9.8780,-4.6951,40.92,32.75,-21.93,4,S02
18440,-9.80905,1.24498,-1.12288,23.4756,-4.6951,-7.8659,43.21,31.74,-20.55,4,S02
18460,-9.83299,1.23301,-0.85712,19.3902,-2.3171,-10.6707,43.21,31.74,-20.55,4,S02
18480,-10.21366,0.84276,-0.55067,9.2683,-3.1098,-14.6951,43.21,31.74,-20.55,4,S02
18500,-10.51055,0.44532,0.05986,-2.5610,-5.0610,-20.5488,43.21,31.74,-20.55,4,S02
18520,-10.29986,0.10056,0.22266,-11.4024,-11.1585,-24.8780,45.14,30.00,-20.64,4,S02
18540,-9.69412,-0.03831,0.24421,-18.4146,-15.3049,-25.2439,45.14,30.00,-20.64,4,S02
18560,-9.08121,-0.16041,0.13168,-21.1585,-16.2805,-21.7073,45.14,30.00,-20.64,4,S02
18580,-8.40125,-0.37589,-0.10295,-21.2805,-15.1220,-17.6220,46.15,28.72,-21.01,4,S02
18600,-7.85777,-0.52912,-0.09337,-21.3415,-12.8659,-15.9756,46.15,28.72,-21.01,4,S02
18620,-7.99185,-0.45729,0.00479,-21.3415,-12.8049,-16.9512,46.15,28.72,-21.01,4,S02
18640,-8.03734,-0.47884,0.00479,-20.4268,-13.4756,-17.6829,46.97,27.16,-21.28,4,S02
18660,-7.96551,-0.61052,-0.01676,-19.1463,-14.5122,-18.0488,46.97,27.16,-21.28,4,S02
18680,-7.82904,-0.74220,0.00958,-17.9268,-14.6341,-18.0488,46.97,27.16,-21.28,4,S02
18700,-8.16662,-0.70629,0.16041,-18.4756,-14.7561,-17.1341,46.97,27.16,-21.28,4,S02
18720,-8.45871,-0.55306,0.34716,-20.8537,-15.4878,-14.2073,47.52,26.06,-21.83,4,S02
18740,-8.49942,-0.34477,0.34716,-23.4756,-16.5854,-10.4268,47.52,26.06,-21.83,4,S02
18760,-8.42998,-0.35434,0.19872,-25.6707,-16.7073,-7.9268,47.52,26.06,-21.83,4,S02
18780,-8.53054,-0.60334,0.13886,-26.2805,-15.4878,-6.9512,47.06,25.60,-22.57,4,S02
18800,-8.82024,-0.98402,0.36871,-25.7317,-14.2683,-6.4634,47.06,25.60,-22.57,4,S02
18820,-9.10994,-1.14922,0.66798,-25.6098,-15.0610,-6.2805,47.06,25.60,-22.57,4,S02
18840,-9.20331,-0.99359,0.68235,-25.1220,-15.9756,-6.1585,46.79,25.32,-23.21,4,S02
18860,-8.88009,-0.86431,0.42138,-24.8780,-14.8171,-6.2195,46.79,25.32,-23.21,4,S02
18880,-8.74841,-1.01754,0.47884,-24.6951,-10.2439,-7.4390,46.79,25.32,-23.21,4,S02
18900,-9.01656,-1.09415,0.81642,-25.0000,-8.2927,-8.8415,46.79,25.32,-23.21,4,S02
18920,-9.13627,-0.93613,1.03190,-26.4634,-10.1829,-8.9634,46.42,24.77,-24.13,4,S02
18940,-9.02375,-0.96486,1.14682,-27.0732,-10.1829,-8.0488,46.42,24.77,-24.13,4,S02
18960,-8.94234,-1.17795,1.10852,-24.8171,-6.9512,-7.6220,46.42,24.77,-24.13,4,S02
18980,-9.15782,-1.17076,1.03430,-24.3902,-3.4756,-8.0488,46.06,24.31,-25.32,4,S02
19000,-9.25120,-0.88825,0.94810,-27.4390,-2.1341,-7.6829,46.06,24.31,-25.32,4,S02
19020,-9.27035,-0.80206,1.10852,-30.5488,-2.1951,-7.5000,46.06,24.31,-25.32,4,S02
19040,-9.00459,-1.14203,1.43892,-29.6341,-2.6829,-8.1707,45.41,23.67,-26.61,4,S02
19060,-8.92080,-1.66397,1.69749,-25.6707,-2.0732,-8.1098,45.41,23.67,-26.61,4,S02
19080,-9.02135,-1.86748,1.83875,-20.9756,-0.1829,-7.5000,45.41,23.67,-26.61,4,S02
19100,-9.06684,-1.65679,1.69031,-17.0732,2.0122,-6.1585,45.41,23.67,-26.61,4,S02
19120,-8.93516,-1.33596,1.44849,-15.2439,5.0000,-4.5732,45.23,23.21,-27.52,4,S02
19140,-8.86812,-1.47483,1.50116,-10.7927,12.8049,-2.5610,45.23,23.21,-27.52,4,S02
19160,-9.06205,-1.57060,1.63045,-8.3537,13.9634,-1.6463,45.23,23.21,-27.52,4,S02
19180,-9.07163,-1.45807,1.61609,-6.9512,13.9024,-0.3659,45.23,22.57,-28.44,4,S02
19200,-9.06205,-1.26174,1.44370,-6.4024,14.6341,-0.2439,45.23,22.57,-28.44,4,S02
19220,-9.12909,-1.24498,1.43892,-6.3415,16.0366,-0.9756,45.23,22.57,-28.44,4,S02
19240,-9.23683,-1.43652,1.65679,-5.9146,16.4634,-1.2195,45.23,22.02,-29.45,4,S02
19260,-9.22965,-1.45807,1.82438,-5.7317,15.0000,-0.1829,45.23,22.02,-29.45,4,S02
19280,-9.15303,-1.30484,1.75016,-7.0732,14.9390,1.7073,45.23,22.02,-29.45,4,S02
19300,-9.42358,-1.37188,1.61848,-8.3537,16.7073,2.7439,45.23,22.02,-29.45,4,S02
19320,-9.98622,-1.40300,1.47243,-7.6220,17.0122,3.0488,45.05,21.74,-30.37,4,S02
19340,-10.50097,-1.30484,1.26174,-10.4878,15.5488,3.3537,45.05,21.74,-30.37,4,S02
19360,-11.04924,-1.45567,1.10373,-11.6463,15.6707,2.6220,45.05,21.74,-30.37,4,S02
19380,-11.83454,-1.46765,1.01514,-9.8780,15.1220,0.9146,44.77,21.28,-31.65,4,S02
19400,-12.66772,-1.25217,0.96007,-10.6707,12.6220,3.0488,44.77,21.28,-31.65,4,S02
19420,-13.01728,-0.76614,0.57461,-13.9024,10.2439,9.3902,44.77,21.28,-31.65,4,S02
19440,-12.27268,-0.53151,-0.18435,-18.4146,12.4390,15.7317,44.13,21.01,-33.12,4,S02
19460,-11.43231,-0.50518,-0.87628,-23.7805,17.6220,19.1463,44.13,21.01,-33.12,4,S02
19480,-10.85531,-0.34477,-1.41976,-30.9756,21.8902,17.9878,44.13,21.01,-33.12,4,S02
19500,-10.44830,-0.52433,-1.60651,-36.8902,23.9634,13.9024,44.13,21.01,-33.12,4,S02
19520,-10.32380,-1.07979,-1.33836,-37.5610,21.2805,12.1951,42.29,19.63,-35.78,4,S02
19540,-10.33577,-1.44610,-1.01993,-32.9878,15.7927,16.2805,42.29,19.63,-35.78,4,S02
19560,-10.24239,-1.24498,-0.99599,-26.8293,12.6829,22.0732,42.29,19.63,-35.78,4,S02
19580,-10.01255,-0.80924,-1.08218,-21.6463,12.8659,24.6341,41.01,19.08,-37.25,4,S02
19600,-9.84496,-0.59376,-1.10373,-17.3780,12.8659,23.9634,41.01,19.08,-37.25,4,S02
19620,-9.60554,-0.60094,-0.91937,-13.4146,10.7317,22.2561,41.01,19.08,-37.25,4,S02
19640,-9.11233,-0.68235,-0.97444,-9.2073,7.6829,21.0976,40.37,18.17,-37.89,4,S02
19660,-8.75320,-0.61052,-1.22344,-5.8537,6.7073,20.3659,40.37,18.17,-37.89,4,S02
19680,-8.70771,-0.37828,-1.17555,-4.5122,8.3537,20.7927,40.37,18.17,-37.89,4,S02
19700,-8.63349,-0.04310,-1.25696,-4.6951,7.1341,21.7073,40.37,18.17,-37.89,4,S02
19720,-8.16183,0.27533,-1.50116,-6.4024,5.0000,21.8293,39.54,17.71,-38.35,4,S02
19740,-7.86016,0.34477,-1.51792,-8.7195,5.3049,21.2195,39.54,17.71,-38.35,4,S02
19760,-8.04691,0.31843,-1.08936,-10.7317,3.5366,20.8537,39.54,17.71,-38.35,4,S02
19780,-8.32224,0.19154,-0.73981,-12.0122,-2.5000,21.8293,38.17,18.07,-38.90,4,S02
19800,-8.31267,0.14126,-0.68235,-12.0122,-7.8049,22.6220,38.17,18.07,-38.90,4,S02
19820,-8.22887,0.14126,-0.87149,-10.8537,-9.0244,22.1951,38.17,18.07,-38.90,4,S02
19840,-8.46111,0.32082,-0.74939,-10.5488,-9.6341,19.2683,36.79,18.81,-39.08,4,S02
19860,-8.80827,0.55306,-0.54827,-11.8902,-14.3902,15.0610,36.79,18.81,-39.08,4,S02
19880,-8.92319,0.71826,-0.47645,-13.4146,-20.3049,12.0732,36.79,18.81,-39.08,4,S02
19900,-8.83700,0.68235,-0.66559,-13.9634,-22.9268,9.8780,36.79,18.81,-39.08,4,S02
19920,-8.70771,0.68714,-0.87149,-13.9024,-21.0366,7.5610,35.60,19.82,-38.81,4,S02
19940,-8.87770,0.82839,-0.63925,-15.9146,-18.8415,5.6707,35.60,19.82,-38.81,4,S02
19960,-9.23204,0.79966,-0.30885,-17.6829,-19.7561,4.8171,35.60,19.82,-38.81,4,S02
19980,-9.23444,0.61052,-0.06943,-16.7073,-21.7073,4.3902,34.13,20.83,-38.72,4,S02
20000,-9.04051,0.43096,0.00479,-13.4146,-21.2195,3.2927,34.13,20.83,-38.72,4,S02
20020,-8.84418,0.42617,0.07661,-10.0000,-18.7805,2.5610,34.13,20.83,-38.72,4,S02
20040,-8.99023,0.55306,0.28491,-8.1707,-16.6463,2.7439,33.12,21.47,-38.44,4,S02
20060,-9.15064,0.62728,0.52433,-7.2561,-15.3659,3.6585,33.12,21.47,-38.44,4,S02
20080,-9.05487,0.62010,0.64165,-5.9756,-15.7317,3.7195,33.12,21.47,-38.44,4,S02
20100,-8.99741,0.69671,0.69911,-2.9878,-16.1585,1.7683,33.12,21.47,-38.44,4,S02
20120,-9.01656,1.02711,0.73981,-1.4634,-15.7927,-0.4878,32.48,22.20,-37.80,4,S02
20140,-9.04529,1.33596,0.85473,-2.9878,-14.6341,-1.7683,32.48,22.20,-37.80,4,S02
20160,-9.22246,1.35991,1.06303,-4.4512,-12.6220,-2.7439,32.48,22.20,-37.80,4,S02
20180,-9.59596,1.18992,1.20189,-3.0488,-10.3049,-4.0854,31.56,22.39,-37.43,4,S02
20200,-10.11071,1.14443,0.75178,0.2439,-8.7195,-6.2805,31.56,22.39,-37.43,4,S02
20220,-10.37647,1.90818,-0.08140,-4.6341,-4.1463,-8.5366,31.56,22.39,-37.43,4,S02
20240,-11.53766,1.30723,1.28329,-5.3049,-0.1829,-10.5488,30.92,22.11,-36.97,4,S02
20260,-13.15853,1.21625,-0.07901,4.2683,-10.7927,-7.3780,30.92,22.11,-36.97,4,S02
20280,-12.65336,0.45250,-0.43814,10.5488,-1.7073,3.8415,30.92,22.11,-36.97,4,S02
20300,-12.42591,-0.05267,-0.13647,14.4512,0.4878,7.1951,30.92,22.11,-36.97,4,S02
20320,-12.26789,-0.25857,-0.18196,23.1098,-3.2317,0.1829,30.83,21.47,-36.06,4,S02
20340,-11.58794,-0.02155,-0.53870,30.7927,-3.5976,-7.9878,30.83,21.47,-36.06,4,S02
20360,-10.76433,0.17238,-0.69192,33.4756,-2.8659,-14.0854,30.83,21.47,-36.06,4,S02
20380,-10.56322,-0.05986,-0.44053,28.1098,-3.1707,-16.1585,31.93,20.00,-34.95,4,S02
20400,-10.49139,-0.29209,-0.09577,16.2805,-4.1463,-15.6098,31.93,20.00,-34.95,4,S02
20420,-10.53928,-0.29928,0.14605,1.7073,-7.1341,-16.4634,31.93,20.00,-34.95,4,S02
20440,-10.22085,-0.24660,0.21548,-9.9390,-10.7927,-17.2561,30.83,19.54,-35.05,4,S02
20460,-9.56962,-0.34955,0.05746,-16.8293,-12.8049,-16.4024,30.83,19.54,-35.05,4,S02
20480,-9.24401,-0.71347,0.23703,-22.5000,-12.6220,-13.5976,30.83,19.54,-35.05,4,S02
20500,-8.89685,-1.04387,0.19393,-21.7683,-13.2317,-10.7927,30.83,19.54,-35.05,4,S02
20520,-8.27915,-1.42934,0.11013,-20.0000,-12.9268,-9.5732,29.36,19.36,-35.14,4,S02
20540,-7.88650,-1.56102,0.14126,-17.6829,-12.0122,-12.2561,29.36,19.36,-35.14,4,S02
20560,-7.83862,-1.31202,0.07183,-16.2195,-12.1341,-15.6098,29.36,19.36,-35.14,4,S02
20580,-7.90805,-0.93134,0.05746,-17.6220,-11.2195,-17.1951,28.72,18.81,-35.14,4,S02
20600,-7.89129,-0.68953,0.10056,-19.8780,-9.9390,-16.0366,28.72,18.81,-35.14,4,S02
20620,-7.92960,-0.72065,0.34955,-21.0976,-9.6951,-14.2073,28.72,18.81,-35.14,4,S02
20640,-8.11874,-0.94092,0.53391,-20.9756,-11.0976,-12.2561,27.80,18.81,-35.23,4,S02
20660,-8.31746,-1.16598,0.54109,-20.2439,-12.5000,-10.1829,27.80,18.81,-35.23,4,S02
20680,-8.38210,-1.23301,0.56982,-18.5976,-12.3171,-8.2317,27.80,18.81,-35.23,4,S02
20700,-8.40844,-1.24259,0.58179,-16.4024,-11.4634,-6.3415,27.80,18.81,-35.23,4,S02
20720,-8.38928,-1.35751,0.70150,-13.3537,-10.8537,-4.4512,26.97,19.08,-34.95,4,S02
20740,-8.65743,-1.39821,0.80206,-9.2683,-10.0000,-3.7195,26.97,19.08,-34.95,4,S02
20760,-8.90164,-1.24977,0.86670,-7.0732,-10.1220,-3.9024,26.97,19.08,-34.95,4,S02
20780,-8.85136,-1.07739,0.81882,-6.6463,-10.1220,-4.4512,26.88,19.36,-34.95,4,S02
20800,-8.81545,-1.11091,0.70390,-5.0000,-8.2927,-5.5488,26.88,19.36,-34.95,4,S02
20820,-8.98065,-1.27611,0.85712,-2.9878,-5.9756,-6.4024,26.88,19.36,-34.95,4,S02
20840,-9.21768,-1.40779,1.05345,-1.6463,-5.6098,-6.4634,26.88,19.36,-34.86,4,S02
20860,-9.19134,-1.42694,1.17076,-0.9756,-6.0366,-6.2805,26.88,19.36,-34.86,4,S02
20880,-8.88728,-1.50116,1.04627,1.7073,-4.7561,-6.4634,26.88,19.36,-34.86,4,S02
20900,-8.94713,-1.46286,1.03190,4.8780,-1.0366,-7.5610,26.88,18.81,-34.86,4,S02
20920,-9.43316,-1.36709,1.29047,6.2805,0.9146,-8.2317,27.52,18.81,-34.77,4,S02
20940,-9.54568,-1.34075,1.40061,7.5000,-0.9146,-8.3537,27.52,18.81,-34.77,4,S02
20960,-9.08360,-1.46765,1.27850,9.8171,-2.2561,-8.9024,27.52,18.81,-34.77,4,S02
20980,-8.73884,-1.62566,1.15161,12.8049,0.7927,-9.5732,28.44,18.44,-34.68,4,S02
21000,-8.88967,-1.69031,1.20907,15.4878,5.7927,-10.5488,28.44,18.44,-34.68,4,S02
21020,-9.33020,-1.59693,1.46765,17.1341,7.8659,-10.9756,28.44,18.44,-34.68,4,S02
21040,-9.34696,-1.52032,1.54426,18.7805,6.2805,-10.2439,29.72,17.71,-34.59,4,S02
21060,-8.94713,-1.52271,1.39582,20.9146,6.4634,-8.6585,29.72,17.71,-34.59,4,S02
21080,-8.83939,-1.47722,1.42694,22.5000,10.1829,-7.0122,29.72,17.71,-34.59,4,S02
21100,-9.22246,-1.43892,1.68552,23.2317,13.0488,-5.6098,29.72,16.70,-34.50,4,S02
21120,-9.39724,-1.35751,1.78129,23.1707,12.6220,-4.3293,31.01,16.70,-34.50,4,S02
21140,-9.04529,-1.42216,1.67594,22.8049,12.1951,-2.8659,31.01,16.70,-34.50,4,S02
21160,-8.71729,-1.55384,1.58496,23.4756,14.6341,-1.4634,31.01,16.70,-34.50,4,S02
21180,-8.76038,-1.58257,1.63763,24.3293,17.9268,-0.0610,31.93,15.87,-34.40,4,S02
21200,-8.93995,-1.50356,1.70707,24.8171,20.0000,1.6463,31.93,15.87,-34.40,4,S02
21220,-9.00220,-1.35751,1.71904,24.0854,20.7927,3.1098,31.93,15.87,-34.40,4,S02
21240,-8.95431,-1.30245,1.59693,22.8049,21.6463,3.9024,32.94,14.95,-34.59,4,S02
21260,-9.08121,-1.33836,1.64003,21.1585,23.4756,4.5732,32.94,14.95,-34.59,4,S02
21280,-9.33260,-1.35751,1.68791,18.5366,23.5976,5.8537,32.94,14.95,-34.59,4,S02
21300,-9.44513,-1.50595,1.69749,15.7927,22.5610,6.9512,33.49,14.22,-34.68,4,S02
21320,-9.63187,-1.75974,1.36470,15.1829,20.8537,7.0122,33.49,14.22,-34.68,4,S02
21340,-10.15142,-1.97522,1.03908,15.7317,19.8780,6.3415,33.49,14.22,-34.68,4,S02
21360,-10.80982,-1.70467,0.63925,13.3537,18.1098,4.6341,33.49,14.22,-34.68,4,S02
21380,-11.22402,-1.13725,0.42856,7.0122,17.0122,1.0976,33.76,13.30,-35.05,4,S02
21400,-11.46344,-0.40941,0.41180,-0.9146,17.0732,-2.8049,33.76,13.30,-35.05,4,S02
21420,-11.65497,-0.47645,0.40701,-10.0000,16.4024,-2.5610,33.76,13.30,-35.05,4,S02
21440,-11.88721,-1.00556,-0.03831,-15.0610,17.3171,-0.3659,32.84,12.20,-36.24,4,S02
21460,-11.87764,-1.53229,-0.48123,-19.1463,21.1585,5.0610,32.84,12.20,-36.24,4,S02
21480,-11.65976,-1.51792,-0.82121,-23.9634,22.2561,12.8049,32.84,12.20,-36.24,4,S02
21500,-11.29584,-1.04148,-1.26414,-26.4634,21.0366,16.2805,30.83,11.47,-37.43,4,S02
21520,-11.00375,-0.45250,-1.71425,-24.0244,21.0976,15.5488,30.83,11.47,-37.43,4,S02
21540,-10.94629,-0.13408,-1.92733,-18.9024,22.3780,16.4024,30.83,11.47,-37.43,4,S02
21560,-11.02769,-0.15323,-1.85790,-14.5732,22.1951,20.5488,30.83,11.47,-37.43,4,S02
21580,-10.79546,-0.22027,-1.72143,-10.3049,19.6951,24.7561,29.54,11.10,-37.80,4,S02
21600,-10.43632,-0.12210,-1.63285,-5.7317,16.4024,25.7317,29.54,11.10,-37.80,4,S02
21620,-10.14184,0.04310,-1.45089,-1.8293,13.6585,23.8415,29.54,11.10,-37.80,4,S02
21640,-9.76595,-0.01197,-1.25456,1.5854,10.0610,21.7683,28.90,11.01,-37.34,4,S02
21660,-9.48104,-0.12210,-1.07500,4.9390,6.1585,20.6707,28.90,11.01,-37.34,4,S02
21680,-9.17219,-0.07901,-0.98641,7.9878,3.2317,20.1829,28.90,11.01,-37.34,4,S02
21700,-8.93756,0.11253,-1.00796,9.3293,1.0976,19.8780,28.62,11.38,-36.88,4,S02
21720,-8.67898,0.27533,-1.00796,9.7561,0.0610,18.5976,28.62,11.38,-36.88,4,S02
21740,-8.37252,0.32082,-1.07739,11.8293,-0.1220,16.6463,28.62,11.38,-36.88,4,S02
21760,-8.13310,0.26576,-1.19471,13.4756,-0.2439,15.9146,28.62,11.38,-36.88,4,S02
21780,-8.14268,0.40223,-1.03669,11.6463,-1.3415,16.2805,28.44,11.83,-36.24,4,S02
21800,-8.10916,0.61292,-1.02951,8.7805,-5.9756,16.6463,28.44,11.83,-36.24,4,S02
21820,-7.92002,0.77333,-1.08697,2.9878,-12.1951,16.9512,28.44,11.83,-36.24,4,S02
21840,-8.14268,0.65362,-1.07739,1.3415,-12.6220,15.7927,27.89,13.12,-35.69,4,S02
21860,-8.59518,0.66559,-0.85952,-0.6707,-14.9390,14.3293,27.89,13.12,-35.69,4,S02
21880,-8.88249,0.74220,-0.71826,-3.0488,-19.8171,14.6951,27.89,13.12,-35.69,4,S02
21900,-8.82982,0.86431,-0.75178,-5.9146,-23.8415,15.2439,26.97,14.68,-35.32,4,S02
21920,-8.62391,0.84276,-0.82839,-8.7805,-23.9634,14.3293,26.97,14.68,-35.32,4,S02
21940,-8.87052,0.75896,-0.66798,-10.0610,-22.6220,11.7073,26.97,14.68,-35.32,4,S02
21960,-8.98544,0.65362,-0.44532,-9.8171,-23.2927,9.7561,26.97,14.68,-35.32,4,S02
21980,-9.10036,0.62249,-0.33758,-9.6341,-23.9024,8.6585,26.24,16.33,-34.86,4,S02
22000,-9.04051,0.66559,-0.40941,-9.6341,-22.1951,8.5976,26.24,16.33,-34.86,4,S02
22020,-8.84658,0.84994,-0.44532,-10.4268,-18.8415,8.4756,26.24,16.33,-34.86,4,S02
22040,-8.87291,1.09415,-0.26336,-12.9878,-16.5854,7.5000,25.41,17.25,-34.68,4,S02
22060,-9.09797,1.12767,-0.00958,-15.1829,-16.7073,5.9756,25.41,17.25,-34.68,4,S02
22080,-9.11712,1.01993,0.19872,-15.6707,-17.1951,4.5732,25.41,17.25,-34.68,4,S02
22100,-8.83700,0.99120,0.18914,-16.1585,-16.5244,2.9878,24.59,18.44,-34.59,4,S02
22120,-8.75799,1.04148,0.18675,-18.1098,-14.1463,0.9756,24.59,18.44,-34.59,4,S02
22140,-9.02375,1.09894,0.29928,-18.9634,-10.8537,-0.4268,24.59,18.44,-34.59,4,S02
22160,-9.20331,1.18513,0.42856,-18.4146,-7.9268,-0.7927,24.59,18.44,-34.59,4,S02
22180,-9.15782,1.24020,0.55785,-18.8415,-6.8293,-0.9146,23.67,18.90,-34.59,4,S02
22200,-8.95192,1.24498,0.52194,-19.5732,-6.6463,-1.2195,23.67,18.90,-34.59,4,S02
22220,-8.83939,1.24977,0.46208,-19.6341,-4.5732,-1.8293,23.67,18.90,-34.59,4,S02
22240,-9.02135,1.20907,0.56743,-18.9634,-1.0366,-2.9878,22.84,19.17,-34.95,4,S02
22260,-9.40203,1.18274,0.96486,-18.2317,-0.3659,-4.2683,22.84,19.17,-34.95,4,S02
22280,-9.63906,1.19471,1.23301,-17.3171,-3.5976,-4.2073,22.84,19.17,-34.95,4,S02
22300,-9.75398,1.38864,1.14922,-17.3171,-5.4268,-2.6220,21.93,19.82,-34.95,4,S02
22320,-9.97664,1.68312,0.46208,-19.8171,-3.9634,-1.8293,21.93,19.82,-34.95,4,S02
22340,-10.62068,2.00395,0.86670,-27.3171,-0.6707,-3.4756,21.93,19.82,-34.95,4,S02
22360,-11.72201,1.70707,1.55144,-27.0732,-4.5122,-6.6463,21.93,19.82,-34.95,4,S02
22380,-12.70603,1.80283,0.50278,-21.7073,-10.6098,-4.8171,20.73,20.64,-34.95,4,S02
22400,-12.26550,0.56503,0.40223,-14.0854,-1.3415,4.2683,20.73,20.64,-34.95,4,S02
22420,-12.39718,0.18914,0.48842,-6.0366,0.0610,6.6463,20.73,20.64,-34.95,4,S02
22440,-12.48576,0.28970,0.25857,3.7195,-2.5610,3.4146,20.55,20.83,-34.40,4,S02
22460,-11.56878,0.11732,-0.12450,13.6585,-1.8293,-0.7317,20.55,20.83,-34.40,4,S02
22480,-10.96784,0.30885,-0.45011,23.2317,-0.7927,-6.9512,20.55,20.83,-34.40,4,S02
22500,-10.64941,0.01437,-0.26815,25.6098,-1.7073,-10.5488,21.83,20.83,-33.58,4,S02
22520,-10.35971,0.06225,-0.10056,21.4634,-2.7439,-12.1341,21.83,20.83,-33.58,4,S02
22540,-10.42196,0.45729,0.08380,13.3537,-2.3171,-15.1220,21.83,20.83,-33.58,4,S02
22560,-10.36929,0.47645,-0.02155,4.8780,-4.2073,-18.0488,21.83,20.83,-33.58,4,S02
22580,-9.90960,0.17717,-0.14365,-3.4146,-7.0122,-18.9024,22.02,20.83,-33.21,4,S02
22600,-9.39245,-0.13886,-0.11971,-9.8780,-9.3293,-18.2927,22.02,20.83,-33.21,4,S02
22620,-8.95910,-0.34955,-0.07661,-14.5122,-10.8537,-15.9146,22.02,20.83,-33.21,4,S02
22640,-8.75320,-0.33758,-0.03591,-19.8171,-11.0976,-13.2927,21.19,21.38,-33.03,4,S02
22660,-8.59279,-0.32801,0.06464,-24.5732,-10.8537,-11.7073,21.19,21.38,-33.03,4,S02
22680,-8.33182,-0.42617,0.02873,-26.5854,-11.8293,-11.0366,21.19,21.38,-33.03,4,S02
22700,-7.98227,-0.56264,-0.04310,-26.8293,-12.9268,-11.0976,20.18,21.65,-32.84,4,S02
22720,-7.81946,-0.54827,-0.04070,-27.4390,-13.6585,-11.8902,20.18,21.65,-32.84,4,S02
22740,-8.09480,-0.34716,0.22984,-30.0610,-14.5122,-11.8293,20.18,21.65,-32.84,4,S02
22760,-8.22408,-0.16520,0.35674,-33.2317,-16.7683,-9.6341,20.18,21.65,-32.84,4,S02
22780,-8.02058,-0.31603,0.21787,-34.6951,-17.7439,-6.0976,18.90,22.39,-32.66,4,S02
22800,-8.01100,-0.62010,0.13168,-34.2683,-15.5488,-4.1463,18.90,22.39,-32.66,4,S02
22820,-8.50420,-0.77093,0.41659,-35.6707,-14.2683,-3.7805,18.90,22.39,-32.66,4,S02
22840,-8.87052,-0.74460,0.66798,-37.6829,-16.3415,-2.8659,17.34,22.94,-32.57,4,S02
22860,-8.79151,-0.76614,0.70868,-36.6463,-19.0854,-1.7073,17.34,22.94,-32.57,4,S02
22880,-8.63349,-0.95289,0.67995,-33.0488,-19.2073,-0.6098,17.34,22.94,-32.57,4,S02
22900,-8.67180,-1.16598,0.73263,-29.3902,-15.9146,-0.7317,16.24,23.76,-32.29,4,S02
22920,-8.79390,-1.03669,0.71826,-28.4756,-13.1098,-2.4390,16.24,23.76,-32.29,4,S02
22940,-8.91601,-0.74220,0.83558,-30.0610,-11.0976,-4.6341,16.24,23.76,-32.29,4,S02
22960,-8.78672,-0.75417,1.00078,-29.7561,-10.6098,-5.9756,16.24,23.76,-32.29,4,S02
22980,-8.42998,-1.07739,1.04387,-25.9146,-9.2073,-6.5854,15.41,23.85,-32.57,4,S02
23000,-8.61434,-1.41018,1.25935,-21.8293,-3.4756,-6.4024,15.41,23.85,-32.57,4,S02
23020,-9.19852,-1.26893,1.39821,-20.1829,1.6463,-6.1585,15.41,23.85,-32.57,4,S02
23040,-9.48343,-0.84515,1.25456,-21.7683,4.0854,-6.0366,14.68,23.67,-33.21,4,S02
23060,-9.30387,-0.84994,1.12527,-23.1707,4.9390,-6.4634,14.68,23.67,-33.21,4,S02
23080,-9.10994,-1.19231,1.29287,-20.3049,5.9146,-7.6829,14.68,23.67,-33.21,4,S02
23100,-9.13388,-1.62327,1.56341,-14.0244,4.0854,-9.1463,14.68,23.39,-33.39,4,S02
23120,-9.19852,-1.75734,1.72861,-8.1707,1.1585,-10.4878,14.68,23.39,-33.39,4,S02
23140,-8.92558,-1.50835,1.68791,-4.6341,0.1220,-10.4268,14.68,23.39,-33.39,4,S02
23160,-8.70292,-1.32399,1.95127,1.4024,6.8293,-9.0854,14.68,23.39,-33.39,4,S02
23180,-9.17458,-1.42216,2.14760,7.8049,9.0854,-9.5122,15.14,23.12,-33.67,4,S02
23200,-9.19134,-1.32639,2.04944,12.3171,11.0366,-9.9390,15.14,23.12,-33.67,4,S02
23220,-9.17698,-0.90022,2.04465,12.0122,13.7195,-9.8171,15.14,23.12,-33.67,4,S02
23240,-9.28232,-0.75896,1.51553,8.3537,15.4878,-7.8659,15.87,22.66,-34.22,4,S02
23260,-9.76355,-0.90261,1.29047,12.6220,19.6951,-4.3902,15.87,22.66,-34.22,4,S02
23280,-11.10670,-0.68235,2.01113,0.9756,21.4024,1.3415,15.87,22.66,-34.22,4,S02
23300,-12.66772,-0.79727,1.80283,-5.0610,18.2927,2.0122,15.69,21.83,-34.77,4,S02
23320,-13.11544,-0.26097,1.09654,-6.0976,19.9390,-4.1463,15.69,21.83,-34.77,4,S02
23340,-12.72518,-0.38547,1.01993,-13.7805,18.8415,-0.5488,15.69,21.83,-34.77,4,S02
23360,-11.86566,-0.26576,0.23703,-21.8902,14.0854,6.2195,15.69,21.83,-34.77,4,S02
23380,-11.08276,-0.32322,-0.73263,-29.2073,17.1951,10.1829,14.13,21.65,-35.50,4,S02
23400,-10.77151,-0.46208,-0.94092,-38.9634,23.6585,12.0732,14.13,21.65,-35.50,4,S02
23420,-10.48660,-0.64165,-0.81403,-47.0122,23.8415,15.0610,14.13,21.65,-35.50,4,S02
23440,-10.58477,-0.77812,-0.48842,-46.4024,19.5122,18.1707,11.28,21.01,-36.42,4,S02
23460,-10.83616,-0.79248,-0.28491,-39.8171,13.2317,21.7073,11.28,21.01,-36.42,4,S02
23480,-10.71166,-0.82361,-0.43814,-30.9756,8.2317,26.2805,11.28,21.01,-36.42,4,S02
23500,-10.33098,-0.75657,-0.63925,-22.2561,7.4390,29.5122,9.45,21.19,-36.51,4,S02
23520,-9.94551,-0.54348,-0.68714,-16.0976,6.2805,30.7317,9.45,21.19,-36.51,4,S02
23540,-9.35893,-0.43335,-0.77333,-8.9024,0.3049,29.8171,9.45,21.19,-36.51,4,S02
23560,-8.95431,-0.29209,-0.87867,-2.6829,-4.7561,27.0122,9.45,21.19,-36.51,4,S02
23580,-8.77954,-0.02634,-0.94571,-1.8293,-1.1585,24.8780,8.81,21.83,-35.96,4,S02
23600,-8.60237,0.21548,-1.05345,-4.5122,5.3049,23.8415,8.81,21.83,-35.96,4,S02
23620,-8.37492,0.41180,-1.05105,-7.8049,6.6463,22.9268,8.81,21.83,-35.96,4,S02
23640,-8.32703,0.54588,-0.82121,-11.8902,5.2439,21.4634,7.61,21.74,-36.06,4,S02
23660,-8.27676,0.46208,-0.53870,-15.0000,2.9268,19.5732,7.61,21.74,-36.06,4,S02
23680,-8.15705,0.08380,-0.44053,-15.1829,-1.0976,18.2317,7.61,21.74,-36.06,4,S02
23700,-8.29591,-0.00958,-0.24181,-14.6341,-2.2561,18.4756,6.33,22.20,-35.96,4,S02
23720,-8.37252,0.25379,-0.15323,-15.4268,-3.0488,19.6341,6.33,22.20,-35.96,4,S02
23740,-8.18578,0.44053,-0.25618,-14.8780,-5.6098,20.2439,6.33,22.20,-35.96,4,S02
23760,-8.23845,0.39983,-0.14844,-12.5610,-6.8293,18.4146,6.33,22.20,-35.96,4,S02
23780,-8.45632,0.47884,0.00958,-10.2439,-8.3537,15.1220,5.32,22.84,-35.60,4,S02
23800,-8.65504,0.68714,-0.00718,-9.2683,-10.3659,12.9268,5.32,22.84,-35.60,4,S02
23820,-8.69335,0.92177,-0.19154,-8.6585,-10.7317,12.9268,5.32,22.84,-35.60,4,S02
23840,-8.62631,1.07500,-0.18914,-9.5122,-10.4268,14.1463,4.40,23.39,-35.32,4,S02
23860,-8.86333,1.16837,0.11732,-11.7683,-11.2195,14.1463,4.40,23.39,-35.32,4,S02
23880,-8.96629,1.11330,0.38786,-12.3780,-13.8415,13.0488,4.40,23.39,-35.32,4,S02
23900,-8.71489,1.03190,0.27773,-10.3049,-14.6341,10.9146,3.58,24.22,-34.77,4,S02
23920,-8.59040,1.16598,0.10295,-10.1220,-11.5244,7.7439,3.58,24.22,-34.77,4,S02
23940,-8.71011,1.36230,0.13647,-12.0732,-8.2927,4.6341,3.58,24.22,-34.77,4,S02
23960,-8.84897,1.38385,0.33519,-13.0488,-6.0976,2.0122,3.58,24.22,-34.77,4,S02
23980,-8.82742,1.25217,0.56503,-13.1098,-5.5488,-0.6098,3.03,24.50,-34.68,4,S02
24000,-8.99741,1.24977,0.76854,-13.9024,-5.3049,-2.9878,3.03,24.50,-34.68,4,S02
24020,-9.28471,1.38624,0.87149,-14.6341,-4.6341,-3.7195,3.03,24.50,-34.68,4,S02
24040,-9.49062,1.36470,0.98641,-13.9634,-3.2927,-3.4146,2.48,24.50,-34.22,4,S02
24060,-9.74919,1.07979,1.35751,-11.1585,-2.3171,-3.7805,2.48,24.50,-34.22,4,S02
24080,-9.82820,1.26653,0.40462,-6.5244,-2.9878,-5.0000,2.48,24.50,-34.22,4,S02
24100,-10.09156,1.89860,1.29287,-12.1951,0.9146,-6.9512,2.29,24.59,-34.13,4,S02
24120,-11.35570,1.30723,2.42533,-6.2195,-2.8049,-10.4878,2.29,24.59,-34.13,4,S02
24140,-13.46260,1.52750,1.16837,1.7683,-12.9268,-9.2073,2.29,24.59,-34.13,4,S02
24160,-12.63181,0.49560,0.24421,10.9146,-2.7439,1.5854,2.29,24.59,-34.13,4,S02
24180,-12.19846,0.55067,0.32561,17.1341,0.7927,2.5610,3.21,24.50,-33.67,4,S02
24200,-12.19846,0.48363,0.34477,26.1585,-6.1585,-5.1829,3.21,24.50,-33.67,4,S02
24220,-11.63343,0.56264,-0.39265,30.8537,-9.3293,-8.5366,3.21,24.50,-33.67,4,S02
24240,-11.02051,0.69911,-0.63207,32.3780,-6.4024,-9.5122,5.23,24.77,-33.12,4,S02
24260,-10.64701,0.32561,-0.72305,29.8780,-5.7317,-11.0976,5.23,24.77,-33.12,4,S02
24280,-10.57758,0.27533,-0.52672,19.9390,-6.2195,-15.0610,5.23,24.77,-33.12,4,S02
24300,-10.70926,0.33998,-0.19393,9.5122,-8.1707,-19.6341,6.24,24.95,-32.57,4,S02
24320,-10.51294,0.15323,-0.21308,0.9146,-12.5000,-21.5244,6.24,24.95,-32.57,4,S02
24340,-9.97664,-0.15323,-0.20830,-6.2195,-14.6951,-20.4878,6.24,24.95,-32.57,4,S02
24360,-9.34936,-0.39744,-0.21548,-10.0000,-14.5122,-17.7439,6.24,24.95,-32.57,4,S02
24380,-8.72447,-0.64404,-0.24181,-10.9756,-13.2317,-14.8171,6.51,25.41,-32.11,4,S02
24400,-8.33182,-0.82361,-0.12210,-11.3415,-13.1098,-13.5366,6.51,25.41,-32.11,4,S02
24420,-8.21451,-0.73981,0.02873,-12.4390,-14.5122,-13.2317,6.51,25.41,-32.11,4,S02
24440,-7.96072,-0.64165,0.00239,-13.7805,-14.6951,-13.3537,6.61,25.78,-31.56,4,S02
24460,-7.70454,-0.43814,-0.06225,-15.1829,-12.7439,-14.6341,6.61,25.78,-31.56,4,S02
24480,-7.69975,-0.38307,-0.01197,-16.4634,-11.4024,-15.4878,6.61,25.78,-31.56,4,S02
24500,-8.02058,-0.67756,0.28491,-17.1341,-11.2195,-12.8659,6.42,26.06,-31.10,4,S02
24520,-8.19056,-0.61052,0.21308,-18.1098,-10.5488,-9.3902,6.42,26.06,-31.10,4,S02
24540,-8.34858,-0.59137,0.20830,-19.6951,-10.0000,-7.0732,6.42,26.06,-31.10,4,S02
24560,-8.48745,-0.76854,0.25379,-19.3293,-10.1829,-6.6463,6.42,26.06,-31.10,4,S02
24580,-8.71489,-1.01035,0.47884,-18.4756,-12.1341,-6.7073,5.96,26.33,-30.73,4,S02
24600,-8.92798,-1.20189,0.65601,-15.9756,-14.4512,-6.4024,5.96,26.33,-30.73,4,S02
24620,-8.85855,-1.24498,0.55067,-11.9512,-14.8780,-6.7073,5.96,26.33,-30.73,4,S02
24640,-8.68616,-1.16358,0.36392,-9.6341,-13.2317,-8.1707,6.06,26.70,-30.28,4,S02
24660,-8.80109,-1.13485,0.43096,-8.8415,-10.4878,-10.0000,6.06,26.70,-30.28,4,S02
24680,-9.22965,-1.07260,0.67516,-8.2927,-8.7805,-10.7317,6.06,26.70,-30.28,4,S02
24700,-9.17698,-1.09415,0.73981,-7.3780,-8.1707,-10.3659,6.42,27.06,-30.09,4,S02
24720,-8.72687,-1.32639,0.56982,-4.7561,-4.3293,-11.2195,6.42,27.06,-30.09,4,S02
24740,-8.79869,-1.63285,0.60094,-1.1585,1.5854,-13.2317,6.42,27.06,-30.09,4,S02
24760,-9.37091,-1.63763,0.82839,1.6463,5.1829,-14.6951,6.42,27.06,-30.09,4,S02
24780,-9.64145,-1.45807,1.05824,4.2683,5.4268,-15.3049,7.16,26.42,-30.55,4,S02
24800,-9.35175,-1.40540,1.10373,6.6463,3.4146,-15.6098,7.16,26.42,-30.55,4,S02
24820,-8.99502,-1.52511,1.16119,8.8415,3.2927,-15.8537,7.16,26.42,-30.55,4,S02
24840,-8.89207,-1.65679,1.24020,11.5244,4.8171,-16.2805,8.35,26.06,-30.64,4,S02
24860,-9.15064,-1.54426,1.32399,14.1463,5.9146,-16.4024,8.35,26.06,-30.64,4,S02
24880,-9.18416,-1.47483,1.41976,15.5488,6.3415,-15.0000,8.35,26.06,-30.64,4,S02
24900,-9.01656,-1.49159,1.47962,16.8902,6.5244,-12.8659,9.45,25.69,-31.10,4,S02
24920,-8.90883,-1.55863,1.62087,18.9634,7.6829,-11.0366,9.45,25.69,-31.10,4,S02
24940,-8.86573,-1.68552,1.71664,21.8902,9.3902,-9.3293,9.45,25.69,-31.10,4,S02
24960,-8.92319,-1.72622,1.73340,25.0610,11.5244,-7.6220,9.45,25.69,-31.10,4,S02
24980,-9.09557,-1.57299,1.74298,26.8902,14.1463,-5.7927,10.83,25.23,-31.28,4,S02
25000,-9.20810,-1.35272,1.71904,26.5854,15.8537,-3.5976,10.83,25.23,-31.28,4,S02
25020,-9.17219,-1.15401,1.67834,24.3293,16.4634,-1.3415,10.83,25.23,-31.28,4,S02
25040,-9.12909,-1.13485,1.76932,21.0976,16.8902,0.4878,11.56,24.68,-31.83,4,S02
25060,-9.14825,-1.24020,1.80044,18.7805,16.7073,1.7073,11.56,24.68,-31.83,4,S02
25080,-9.28711,-1.35272,1.87705,16.8293,16.7073,2.5000,11.56,24.68,-31.83,4,S02
25100,-9.27274,-1.86269,1.60172,17.1951,16.6463,2.7439,12.39,24.13,-32.20,4,S02
25120,-9.39485,-2.60010,1.29287,25.6707,17.8049,2.3780,12.39,24.13,-32.20,4,S02
25140,-10.08677,-2.53785,1.06303,29.4512,17.8049,2.6829,12.39,24.13,-32.20,4,S02
25160,-10.46506,-1.74298,0.55545,29.1463,18.8415,1.7073,12.39,24.13,-32.20,4,S02
25180,-10.62547,-0.44053,0.29209,23.2317,22.0732,-2.6220,13.49,23.30,-32.94,4,S02
25200,-11.18571,-0.38786,0.31843,14.6951,20.7927,-3.2927,13.49,23.30,-32.94,4,S02
25220,-11.93270,-1.31681,0.27533,12.4390,17.7439,-0.1829,13.49,23.30,-32.94,4,S02
25240,-12.10508,-1.92973,0.20590,9.8780,16.0976,3.8415,13.49,23.03,-33.39,4,S02
25260,-11.88242,-1.93691,-0.11253,3.0488,14.5732,7.5000,13.49,23.03,-33.39,4,S02
25280,-11.41077,-1.49877,-0.40701,-3.5366,13.7195,11.0976,13.49,23.03,-33.39,4,S02
25300,-10.97502,-0.91937,-0.76136,-6.4634,14.6951,13.5976,12.75,22.84,-34.04,4,S02
25320,-10.92953,-0.45729,-1.05345,-7.0732,15.2439,15.6098,12.75,22.84,-34.04,4,S02
25340,-11.00615,-0.08140,-0.92895,-9.0244,13.0488,20.0000,12.75,22.84,-34.04,4,S02
25360,-10.77630,0.14365,-0.83558,-11.7683,7.9268,24.6951,12.75,22.84,-34.04,4,S02
25380,-10.41238,0.04070,-0.92177,-11.3415,5.1220,26.3415,11.56,23.21,-34.04,4,S02
25400,-10.19212,-0.02155,-1.11330,-8.6585,4.8780,24.9390,11.56,23.21,-34.04,4,S02
25420,-10.06044,0.08380,-1.24259,-6.2805,5.4268,22.4390,11.56,23.21,-34.04,4,S02
25440,-9.70849,0.14365,-1.23301,-4.6951,6.4634,21.4634,11.01,23.39,-34.13,4,S02
25460,-9.30147,0.06943,-1.02232,-2.9268,6.8902,22.6829,11.01,23.39,-34.13,4,S02
25480,-9.14346,0.02394,-0.82600,-0.4268,6.1585,24.6951,11.01,23.39,-34.13,4,S02
25500,-9.03093,0.09337,-0.76136,1.7683,4.7561,25.8537,10.73,23.49,-33.94,4,S02
25520,-8.81784,0.10774,-0.73741,4.5732,3.7195,25.7317,10.73,23.49,-33.94,4,S02
25540,-8.58082,-0.12450,-0.69192,9.9390,3.2317,24.6341,10.73,23.49,-33.94,4,S02
25560,-8.29351,-0.43096,-0.68474,16.2805,2.7439,23.2927,10.73,23.49,-33.94,4,S02
25580,-8.10198,-0.39744,-0.59855,20.7927,1.5854,21.3415,11.28,23.85,-33.76,4,S02
25600,-7.75721,-0.05986,-0.68714,21.6463,-2.0122,19.8780,11.28,23.85,-33.76,4,S02
25620,-7.57765,0.46687,-0.86191,18.2927,-5.6098,19.5732,11.28,23.85,-33.76,4,S02
25640,-7.83143,0.76854,-0.74939,13.5366,-7.6829,20.2439,11.19,24.77,-33.30,4,S02
25660,-8.26478,0.87628,-0.49081,10.4878,-10.4268,20.3049,11.19,24.77,-33.30,4,S02
25680,-8.64546,0.85234,-0.33519,7.8659,-14.4512,19.0244,11.19,24.77,-33.30,4,S02
25700,-8.67898,0.78769,-0.45011,6.4634,-17.1341,15.1829,11.19,25.69,-32.57,4,S02
25720,-8.71729,0.85712,-0.63686,5.9146,-17.6829,9.8780,11.19,25.69,-32.57,4,S02
25740,-8.91122,0.79009,-0.53870,6.0976,-17.3171,6.5244,11.19,25.69,-32.57,4,S02
25760,-9.25838,0.68235,-0.29688,6.4024,-17.3171,5.1829,11.19,25.69,-32.57,4,S02
25780,-9.31344,0.69671,-0.28012,6.2195,-17.2561,4.4512,11.56,26.61,-32.02,4,S02
25800,-9.09557,0.81642,-0.45490,5.5488,-15.9146,3.4756,11.56,26.61,-32.02,4,S02
25820,-9.04529,1.00796,-0.38547,3.9024,-13.7805,2.4390,11.56,26.61,-32.02,4,S02
25840,-9.47864,1.13725,0.08380,0.4878,-12.8659,3.4146,11.65,27.25,-31.56,4,S02
25860,-9.48343,1.03669,0.09098,0.7927,-13.2317,3.5976,11.65,27.25,-31.56,4,S02
25880,-9.31584,1.03908,0.02394,-1.0976,-14.2683,2.6220,11.65,27.25,-31.56,4,S02
25900,-9.18176,1.05345,0.13647,-4.6951,-15.2439,1.3415,11.65,27.89,-31.10,4,S02
25920,-9.26796,0.96247,0.43814,-7.0732,-17.0732,0.2439,11.65,27.89,-31.10,4,S02
25940,-9.23683,0.77812,0.65601,-7.1951,-18.5366,-0.1220,11.65,27.89,-31.10,4,S02
25960,-8.93995,0.56982,0.57940,-6.2195,-17.3171,0.3049,11.65,27.89,-31.10,4,S02
25980,-8.99502,0.71108,0.60573,-5.7927,-13.5366,0.3049,11.47,28.62,-30.37,4,S02
26000,-9.37330,1.00078,0.68953,-6.4024,-11.4634,0.2439,11.47,28.62,-30.37,4,S02
26020,-9.50738,1.14922,0.72305,-7.6829,-11.1585,0.8537,11.47,28.62,-30.37,4,S02
26040,-9.23444,1.13246,0.65601,-8.0488,-9.8780,0.9146,11.19,28.90,-30.09,4,S02
26060,-8.94474,1.19471,0.66080,-8.9024,-7.8049,-0.2439,11.19,28.90,-30.09,4,S02
26080,-8.91122,1.25696,0.68235,-10.6707,-5.7927,-1.5244,11.19,28.90,-30.09,4,S02
26100,-9.32302,1.18992,0.73502,-11.6463,-3.0488,-2.7439,10.83,28.90,-30.18,4,S02
26120,-9.38527,0.98402,0.92416,-11.8902,-0.4878,-2.8659,10.83,28.90,-30.18,4,S02
26140,-8.90164,0.91219,0.87388,-11.6463,0.7317,-2.9878,10.83,28.90,-30.18,4,S02
26160,-8.65025,1.15879,0.64404,-12.1951,4.8780,-3.7195,10.83,28.90,-30.18,4,S02
26180,-9.26556,1.67355,0.64643,-16.0976,10.2439,-3.8415,10.55,28.62,-30.55,4,S02
26200,-9.85932,1.78847,0.83558,-21.0976,11.8293,-1.3415,10.55,28.62,-30.55,4,S02
26220,-9.69173,1.40061,1.02472,-24.2073,9.3902,1.7683,10.55,28.62,-30.55,4,S02
26240,-8.95910,1.12049,1.10852,-24.7561,6.8293,2.4390,9.27,28.17,-30.83,4,S02
26260,-8.62870,1.21386,1.11091,-25.3049,6.6463,0.5488,9.27,28.17,-30.83,4,S02
26280,-8.86333,1.30963,1.19471,-25.7317,8.8415,-1.2195,9.27,28.17,-30.83,4,S02
26300,-9.16022,1.11809,1.47722,-24.5122,10.9756,-1.8293,8.53,27.61,-31.28,4,S02
26320,-9.32781,0.96247,1.75256,-21.4024,11.2195,-3.0488,8.53,27.61,-31.28,4,S02
26340,-9.59596,1.15879,1.77410,-18.1707,10.6098,-4.2073,8.53,27.61,-31.28,4,S02
26360,-9.77553,1.43173,1.61848,-16.8902,10.6707,-3.3537,8.53,27.61,-31.28,4,S02
26380,-9.92636,1.36948,1.32878,-17.3171,12.0732,-1.7073,7.98,27.16,-31.74,4,S02
26400,-10.54885,1.25935,0.79487,-16.7683,14.9390,-1.8293,7.98,27.16,-31.74,4,S02
26420,-11.89439,1.58257,0.66319,-18.3537,17.5610,-3.1707,7.98,27.16,-31.74,4,S02
26440,-13.54879,1.90818,0.37350,-17.5610,14.9390,-0.9146,7.34,26.33,-32.11,4,S02
26460,-14.07312,1.07021,-0.14365,-14.4512,12.1951,8.9024,7.34,26.33,-32.11,4,S02
26480,-13.02685,0.14126,-0.40701,-8.9634,11.0366,16.0366,7.34,26.33,-32.11,4,S02
26500,-12.32535,0.09337,-1.18752,0.2439,10.6707,7.0122,7.80,25.60,-32.02,4,S02
26520,-11.94707,0.29928,-1.41497,10.2439,11.7683,-8.3537,7.80,25.60,-32.02,4,S02
26540,-11.55921,0.13168,-1.16837,15.7927,6.7683,-18.1098,7.80,25.60,-32.02,4,S02
26560,-11.24317,-0.39983,-0.64643,14.9390,1.4634,-20.4878,7.80,25.60,-32.02,4,S02
26580,-10.89841,-0.28252,-0.44053,6.0366,-2.9878,-21.5244,9.63,25.50,-31.47,4,S02
26600,-10.62786,0.08859,-0.25379,-9.7561,-5.8537,-24.6341,9.63,25.50,-31.47,4,S02
26620,-10.11311,0.04310,-0.14365,-22.8659,-8.9634,-27.0732,9.63,25.50,-31.47,4,S02
26640,-9.30866,-0.31843,-0.11013,-29.2073,-12.1341,-26.4634,9.82,26.06,-30.92,4,S02
26660,-8.82982,-0.50757,-0.08619,-32.4390,-13.0488,-24.3293,9.82,26.06,-30.92,4,S02
26680,-8.60237,-0.37828,0.07422,-35.5488,-13.2927,-21.4024,9.82,26.06,-30.92,4,S02
26700,-8.28154,-0.24900,0.13408,-37.9268,-15.1220,-19.3902,9.45,26.42,-30.28,4,S02
26720,-7.86016,-0.13408,-0.02873,-39.0854,-17.3780,-19.5732,9.45,26.42,-30.28,4,S02
26740,-7.34302,-0.09816,-0.31603,-40.2439,-20.2439,-19.5122,9.45,26.42,-30.28,4,S02
26760,-6.97670,-0.00479,-0.28012,-42.3780,-24.2683,-18.3537,9.45,26.42,-30.28,4,S02
26780,-6.84502,0.22745,-0.05986,-47.5000,-26.7683,-15.7317,8.72,26.97,-29.36,4,S02
26800,-7.15627,0.37589,-0.01915,-53.2317,-25.0610,-12.1341,8.72,26.97,-29.36,4,S02
26820,-7.56807,0.23703,-0.08380,-56.5854,-21.3415,-7.2561,8.72,26.97,-29.36,4,S02
26840,-8.11874,-0.02634,-0.01915,-59.6341,-19.7561,-2.5610,6.42,27.34,-28.62,4,S02
26860,-8.60237,-0.27773,0.05507,-64.0854,-19.4512,2.0732,6.42,27.34,-28.62,4,S02
26880,-8.73644,-0.53151,-0.04310,-67.6220,-17.5610,6.2805,6.42,27.34,-28.62,4,S02
26900,-8.86812,-0.69911,0.01197,-67.3781,-15.2439,8.1098,4.04,27.43,-27.89,4,S02
26920,-9.03093,-0.84515,0.05746,-65.0000,-15.0610,8.3537,4.04,27.43,-27.89,4,S02
26940,-9.09797,-0.92177,0.05507,-62.5000,-14.5122,8.2317,4.04,27.43,-27.89,4,S02
26960,-9.10515,-0.84515,0.15562,-60.7927,-13.0488,7.5610,4.04,27.43,-27.89,4,S02
26980,-8.92319,-0.74939,0.31125,-59.8781,-12.9268,6.3415,1.93,27.71,-27.34,4,S02
27000,-8.85615,-0.67277,0.57221,-58.4146,-12.6220,3.8415,1.93,27.71,-27.34,4,S02
27020,-8.95910,-0.65841,0.84755,-56.3415,-12.0122,0.9756,1.93,27.71,-27.34,4,S02
27040,-8.95431,-0.73741,0.98881,-54.3902,-10.9146,-0.3049,0.46,27.71,-26.88,4,S02
27060,-8.99741,-0.80924,1.15879,-51.4024,-7.4390,-0.3659,0.46,27.71,-26.88,4,S02
27080,-9.04529,-0.86670,1.37906,-47.9878,-4.5732,0.0000,0.46,27.71,-26.88,4,S02
27100,-8.98065,-0.67038,1.49398,-45.1220,-4.1463,0.1220,-0.83,27.61,-26.51,4,S02
27120,-8.76038,-0.39504,1.53708,-43.9024,-4.6951,0.1220,-0.83,27.61,-26.51,4,S02
27140,-8.59279,-0.29209,1.67355,-43.4146,-4.2073,-0.1220,-0.83,27.61,-26.51,4,S02
27160,-8.52096,-0.48842,1.94888,-41.7073,-2.3780,-0.9146,-0.83,27.61,-26.51,4,S02
27180,-8.70292,-0.66798,2.20027,-36.8293,1.9512,-1.5854,-1.74,27.25,-26.42,4,S02
27200,-8.71729,-0.49799,2.11169,-36.4634,3.4756,-2.0122,-1.74,27.25,-26.42,4,S02
27220,-8.62391,-0.26336,2.04704,-38.3537,4.9390,-2.8659,-1.74,27.25,-26.42,4,S02
27240,-8.72687,-0.28252,2.14999,-41.0976,6.5854,-3.9024,-2.75,26.70,-26.33,4,S02
27260,-9.20092,-0.58179,2.34871,-43.2317,6.1585,-4.6951,-2.75,26.70,-26.33,4,S02
27280,-9.66539,-0.74939,2.45166,-44.0244,2.3780,-5.3049,-2.75,26.70,-26.33,4,S02
27300,-9.44991,-0.61770,2.24337,-48.2927,-2.5610,-5.7317,-3.85,26.42,-25.78,4,S02
27320,-9.06205,-0.47166,2.24576,-54.6341,-3.7195,-7.2561,-3.85,26.42,-25.78,4,S02
27340,-9.06924,-0.34955,2.57856,-59.7561,-4.0854,-9.9390,-3.85,26.42,-25.78,4,S02
27360,-9.23444,-0.22745,2.99754,-65.2439,-6.7683,-11.8902,-3.85,26.42,-25.78,4,S02
27380,-9.39006,-0.12450,3.13162,-71.6463,-9.5732,-10.5488,-5.41,26.33,-24.86,4,S02
27400,-10.46506,-0.99838,2.46124,-75.0610,-7.6829,-6.7073,-5.41,26.33,-24.86,4,S02
27420,-12.70124,-2.68390,0.97923,-61.5244,-0.6098,-7.8659,-5.41,26.33,-24.86,4,S02
27440,-13.25909,-2.28407,-0.49321,-39.9390,9.3902,-21.7073,-5.87,25.60,-24.86,4,S02
27460,-12.58632,-0.29688,-1.16598,-44.3293,12.9268,-32.0122,-5.87,25.60,-24.86,4,S02
27480,-10.69490,1.70228,-2.72939,-57.3781,9.2073,-23.5976,-5.87,25.60,-24.86,4,S02
27500,-9.24641,0.90261,-4.30238,-63.2927,12.5610,-8.9634,-7.43,24.59,-24.95,4,S02
27520,-9.79229,-1.37667,-3.26569,-69.3293,20.6098,1.5244,-7.43,24.59,-24.95,4,S02
27540,-10.04368,-2.72460,-1.94649,-70.0000,16.8902,9.3293,-7.43,24.59,-24.95,4,S02
27560,-9.99819,-2.58813,-1.49638,-62.7439,10.8537,13.1098,-7.43,24.59,-24.95,4,S02
27580,-10.24239,-1.61609,-1.39582,-51.1585,6.8902,15.4268,-9.63,23.58,-24.77,4,S02
27600,-9.97664,-0.81642,-1.41976,-42.5610,0.6098,19.4512,-9.63,23.58,-24.77,4,S02
27620,-9.46907,-0.30167,-1.33836,-41.0976,-5.0610,23.9634,-9.63,23.58,-24.77,4,S02
27640,-9.04529,0.05746,-1.05345,-45.7317,-7.2561,27.1341,-11.47,22.84,-24.04,4,S02
27660,-8.62391,0.15083,-0.91698,-52.1951,-6.5244,28.3537,-11.47,22.84,-24.04,4,S02
27680,-8.48505,0.15083,-1.00078,-59.6341,-3.9634,27.4390,-11.47,22.84,-24.04,4,S02
27700,-8.55688,0.19872,-0.97205,-67.2561,-0.8537,25.4268,-14.31,21.93,-23.03,4,S02
27720,-8.63110,0.16999,-0.84276,-72.9878,-0.0610,23.1098,-14.31,21.93,-23.03,4,S02
27740,-8.80587,0.01676,-0.68714,-74.5732,-0.3659,20.1829,-14.31,21.93,-23.03,4,S02
27760,-9.01656,-0.09577,-0.40223,-74.0854,-1.0976,16.8293,-14.31,21.93,-23.03,4,S02
27780,-9.27274,-0.00958,-0.23703,-73.4756,-3.1707,13.8415,-16.79,21.47,-21.65,4,S02
27800,-9.26796,-0.05028,-0.11013,-71.2805,-4.6951,12.8659,-16.79,21.47,-21.65,4,S02
27820,-9.46907,0.04788,0.06225,-68.1707,-4.9390,12.2561,-16.79,21.47,-21.65,4,S02
27840,-9.44991,0.18675,0.09337,-65.7317,-5.7317,13.3537,-18.81,21.01,-20.37,4,S02
27860,-9.12430,0.23463,0.27533,-62.5000,-5.7927,15.4268,-18.81,21.01,-20.37,4,S02
27880,-8.99262,0.37110,0.66319,-58.0488,-6.5244,15.8537,-18.81,21.01,-20.37,4,S02
27900,-9.25838,0.69432,1.23301,-55.1829,-9.4512,14.2683,-20.73,20.64,-19.08,4,S02
27920,-9.47864,1.01035,1.67594,-52.6829,-14.7561,12.1951,-20.73,20.64,-19.08,4,S02
27940,-9.55526,1.47004,1.87227,-51.4634,-20.3049,10.7927,-20.73,20.64,-19.08,4,S02
27960,-9.45710,1.85551,1.69270,-54.1463,-25.0610,11.3415,-20.73,20.64,-19.08,4,S02
27980,-9.22246,1.92733,1.34794,-57.7439,-26.7073,14.2683,-22.57,20.28,-17.06,4,S02
28000,-9.28232,1.45567,1.04627,-59.4512,-24.0854,18.5976,-22.57,20.28,-17.06,4,S02
28020,-10.26394,0.86191,0.86910,-56.8293,-19.4512,22.2561,-22.57,20.28,-17.06,4,S02
28040,-11.71483,0.30646,1.65918,-46.8293,-15.4878,25.0610,-24.59,19.27,-15.87,4,S02
28060,-11.32697,-0.29449,1.63285,-32.2561,-14.4512,29.9390,-24.59,19.27,-15.87,4,S02
28080,-9.85693,-0.10534,0.12210,-23.9634,-14.0244,30.0610,-24.59,19.27,-15.87,4,S02
28100,-9.72046,0.82600,-1.54665,-16.3415,-7.2561,21.7683,-25.41,18.07,-16.06,4,S02
28120,-10.05804,1.27132,-2.03747,-12.6829,-3.2927,15.3659,-25.41,18.07,-16.06,4,S02
28140,-10.43154,1.14682,-1.65918,-22.6829,-6.0976,13.7805,-25.41,18.07,-16.06,4,S02
28160,-10.70448,0.95050,-0.97923,-39.5122,-7.5610,13.8415,-25.41,18.07,-16.06,4,S02
28180,-10.52730,0.77572,-0.57700,-50.8537,-9.9390,10.9756,-27.16,17.43,-14.40,4,S02
28200,-10.05565,0.43335,-0.43335,-55.8537,-13.7195,3.7195,-27.16,17.43,-14.40,4,S02
28220,-9.70131,0.05986,-0.38068,-58.6585,-16.8902,-5.0610,-27.16,17.43,-14.40,4,S02
28240,-9.40203,-0.37110,-0.23942,-61.4024,-18.3537,-10.1220,-28.26,17.80,-12.39,4,S02
28260,-9.14585,-0.64643,-0.07422,-65.2439,-18.9634,-10.1829,-28.26,17.80,-12.39,4,S02
28280,-8.90643,-0.86191,0.18675,-68.0488,-18.1098,-7.0122,-28.26,17.80,-12.39,4,S02
28300,-8.69813,-0.90261,0.36871,-66.7073,-16.8293,-3.7195,-29.63,17.71,-10.09,4,S02
28320,-8.62152,-0.72784,0.22505,-62.6220,-14.8171,-1.2195,-29.63,17.71,-10.09,4,S02
28340,-8.63828,-0.44772,0.30646,-60.4268,-10.7927,0.3049,-29.63,17.71,-10.09,4,S02
28360,-8.61673,-0.23703,0.33040,-59.2683,-8.2317,1.2195,-29.63,17.71,-10.09,4,S02
28380,-8.41083,-0.26336,0.22505,-57.2561,-5.7317,2.0122,-30.92,17.43,-8.35,4,S02
28400,-8.48745,-0.18196,0.25618,-57.0122,-1.5854,1.7073,-30.92,17.43,-8.35,4,S02
28420,-8.96629,-0.01437,0.73023,-59.3902,1.5854,0.8537,-30.92,17.43,-8.35,4,S02
28440,-9.19852,-0.03591,1.09654,-60.0610,0.3659,1.0976,-31.93,17.06,-6.61,4,S02
28460,-9.15303,-0.21548,1.31921,-58.9024,-1.0366,2.1341,-31.93,17.06,-6.61,4,S02
28480,-8.91840,-0.23463,1.53229,-57.9268,-0.5488,3.9024,-31.93,17.06,-6.61,4,S02
28500,-8.61913,-0.11013,1.78129,-57.6829,0.7317,6.4634,-33.12,16.42,-4.68,4,S02
28520,-8.70053,-0.08859,2.49236,-58.3537,3.9024,10.2439,-33.12,16.42,-4.68,4,S02
28540,-9.14825,-0.16759,2.78685,-57.0732,1.1585,12.1951,-33.12,16.42,-4.68,4,S02
28560,-9.36851,-0.26336,2.78925,-54.6341,-5.0610,14.6951,-33.12,16.42,-4.68,4,S02
28580,-9.33499,-0.90022,2.63362,-48.5366,-9.7561,14.3902,-34.40,15.69,-2.75,4,S02
28600,-9.44991,-1.23301,2.75333,-38.9024,-11.7073,8.7805,-34.40,15.69,-2.75,4,S02
28620,-9.43794,-0.42138,3.49553,-37.2561,-18.5366,-0.1220,-34.40,15.69,-2.75,4,S02
28640,-9.37091,0.60813,3.28245,-45.3659,-29.5732,-5.9756,-34.86,15.78,-1.01,4,S02
28660,-10.86010,0.77572,2.37984,-53.4146,-25.9756,-7.8659,-34.86,15.78,-1.01,4,S02
28680,-12.27028,0.58419,1.24738,-49.0244,-10.0000,-14.2683,-34.86,15.78,-1.01,4,S02
28700,-12.11945,0.75417,-0.13408,-54.4512,-14.3293,-25.6707,-35.14,16.88,1.28,4,S02
28720,-10.88165,1.48680,-1.33357,-73.1707,-24.0854,-29.2073,-35.14,16.88,1.28,4,S02
28740,-10.23282,0.98881,-2.15718,-85.0610,-24.2073,-17.7439,-35.14,16.88,1.28,4,S02
28760,-10.74757,-0.60334,-1.31921,-84.5732,-14.7561,-3.2927,-35.14,16.88,1.28,4,S02
28780,-11.21444,-2.03986,-0.12689,-71.7073,-8.6585,9.5732,-35.69,16.70,4.59,4,S02
28800,-10.99178,-2.23618,0.31364,-52.4390,-10.4878,17.3780,-35.69,16.70,4.59,4,S02
28820,-10.13705,-1.60172,0.24900,-34.7561,-12.8049,23.2317,-35.69,16.70,4.59,4,S02
28840,-9.13388,-0.85712,0.18435,-20.3049,-10.1220,29.5732,-36.70,14.86,5.05,4,S02
28860,-8.37492,-0.20351,0.35434,-12.8049,-3.3537,34.5732,-36.70,14.86,5.05,4,S02
28880,-8.18338,0.28970,0.58897,-10.9146,1.9512,34.9390,-36.70,14.86,5.05,4,S02
28900,-8.20493,0.43335,0.63207,-9.8171,4.1463,32.6829,-37.61,13.39,4.95,4,S02
28920,-8.38450,0.48123,0.61292,-7.8049,7.1341,29.6951,-37.61,13.39,4.95,4,S02
28940,-8.42759,0.57940,0.55067,-7.5610,10.0610,26.5854,-37.61,13.39,4.95,4,S02
28960,-8.45871,0.77572,0.45969,-10.7927,12.6829,22.9878,-37.61,13.39,4.95,4,S02
28980,-8.68138,1.06303,0.70868,-16.2805,14.2073,19.1463,-38.17,12.57,5.05,4,S02
29000,-8.97107,1.18274,1.03908,-21.4634,13.4146,16.4024,-38.17,12.57,5.05,4,S02
29020,-9.12430,0.94810,1.27132,-22.8049,11.9512,15.2439,-38.17,12.57,5.05,4,S02
29040,-9.13627,0.61770,1.36470,-20.5488,12.2561,14.5122,-38.53,11.93,5.60,4,S02
29060,-9.18655,0.48842,1.53229,-18.4756,13.1098,13.2317,-38.53,11.93,5.60,4,S02
29080,-9.04769,0.41659,1.67594,-16.1585,12.6829,11.3415,-38.53,11.93,5.60,4,S02
29100,-8.83221,0.37828,1.81720,-12.3780,12.1951,8.5366,-38.90,11.74,5.50,4,S02
29120,-8.59518,0.39504,2.03028,-8.0488,12.4390,6.0366,-38.90,11.74,5.50,4,S02
29140,-8.48266,0.32561,2.19548,-3.4756,12.5610,3.9634,-38.90,11.74,5.50,4,S02
29160,-8.78911,0.35913,2.50194,1.5244,10.9756,-0.7317,-38.90,11.74,5.50,4,S02
29180,-9.20810,0.64404,2.74136,6.2195,4.1463,-4.2073,-38.99,12.02,4.95,4,S02
29200,-9.08600,0.90980,2.47560,7.5000,-4.3293,-4.3293,-38.99,12.02,4.95,4,S02
29220,-8.72926,1.44610,1.45807,3.5366,-7.1341,-3.9634,-38.99,12.02,4.95,4,S02
29240,-8.79151,2.22421,0.72305,-7.1951,-2.5610,-3.2927,-39.17,12.20,5.32,4,S02
29260,-9.68215,2.20745,2.04225,-16.9512,0.7317,-0.9146,-39.17,12.20,5.32,4,S02
29280,-10.48660,0.61531,3.87142,-8.7805,-5.0610,4.9390,-39.17,12.20,5.32,4,S02
29300,-11.03248,-1.19471,3.99832,12.8659,-9.9390,11.2195,-39.54,11.56,4.40,4,S02
29320,-12.48097,-0.94092,2.69348,31.7073,-6.2805,15.2439,-39.54,11.56,4.40,4,S02
29340,-12.98854,0.90740,0.70629,41.9512,0.0610,26.7683,-39.54,11.56,4.40,4,S02
29360,-10.82419,1.47483,-0.71347,44.9390,8.2317,46.1585,-39.54,11.56,4.40,4,S02
29380,-8.04212,0.77333,-1.81002,51.8902,12.6220,52.9878,-40.64,8.62,1.56,4,S02
29400,-7.14909,0.12689,-2.42293,62.7439,12.5610,41.5854,-40.64,8.62,1.56,4,S02
29420,-8.80587,0.96486,-2.21943,61.5854,7.4390,25.6098,-40.64,8.62,1.56,4,S02
29440,-10.52252,2.29604,-1.59214,41.2195,-5.2439,18.3537,-41.10,7.89,-0.18,4,S02
29460,-10.80743,2.92093,-0.94571,12.9878,-14.6951,18.2927,-41.10,7.89,-0.18,4,S02
29480,-10.44111,2.39181,-0.60334,-5.7317,-17.3780,13.2317,-41.10,7.89,-0.18,4,S02
29500,-10.14423,1.33836,-0.32801,-14.0244,-17.6220,0.7317,-41.01,8.17,1.47,4,S02
29520,-9.79947,0.79966,-0.21308,-19.8171,-18.2927,-12.0122,-41.01,8.17,1.47,4,S02
29540,-9.15303,0.63925,-0.18196,-26.5244,-17.2561,-18.9024,-41.01,8.17,1.47,4,S02
29560,-8.58321,0.45729,0.16041,-31.7683,-15.4878,-22.0732,-41.01,8.17,1.47,4,S02
29580,-8.35337,0.28012,0.49081,-31.5854,-12.3780,-23.4756,-40.55,9.45,3.12,4,S02
29600,-8.54730,0.34955,0.79248,-29.5732,-6.7683,-22.9878,-40.55,9.45,3.12,4,S02
29620,-8.65743,0.60573,1.09176,-30.1220,-2.6829,-19.5732,-40.55,9.45,3.12,4,S02
29640,-8.57603,0.76854,1.34075,-31.4634,-1.4024,-14.4512,-40.46,9.82,4.59,4,S02
29660,-8.39647,0.71587,1.53229,-31.7073,-0.5488,-9.0854,-40.46,9.82,4.59,4,S02
29680,-8.42998,0.68474,1.68552,-30.7927,1.1585,-4.3293,-40.46,9.82,4.59,4,S02
29700,-8.67659,0.60813,1.92254,-29.2073,3.7195,-0.7317,-40.37,9.82,5.87,4,S02
29720,-8.90883,0.55545,2.16196,-27.6220,5.1829,1.0366,-40.37,9.82,5.87,4,S02
29740,-8.85615,0.71826,2.36308,-27.3171,3.7195,1.7073,-40.37,9.82,5.87,4,S02
29760,-8.70532,0.85473,2.59771,-28.9634,0.7317,2.5610,-40.37,9.82,5.87,4,S02
