timestamp,ax,ay,az,gx,gy,gz,mx,my,mz,label,subject_id
0,-9.38527,0.33040,1.60412,-4.5122,4.3293,0.5488,-22.84,6.24,37.89,5,S02
20,-9.38048,0.33040,1.60172,-4.6341,3.2927,0.6098,-22.66,6.51,37.89,5,S02
40,-9.39245,0.30406,1.59933,-4.5732,2.8659,0.6707,-22.66,6.51,37.89,5,S02
60,-9.38527,0.28970,1.58496,-4.4512,2.6220,0.7317,-22.66,6.51,37.89,5,S02
80,-9.36372,0.28730,1.55623,-4.5732,2.1951,0.6098,-22.66,6.51,37.89,5,S02
100,-9.35893,0.27294,1.54665,-4.6951,1.8902,0.5488,-22.84,6.61,37.71,5,S02
120,-9.36612,0.24181,1.55623,-4.6951,1.6463,0.5488,-22.84,6.61,37.71,5,S02
140,-9.36372,0.22984,1.54187,-4.3902,1.4634,0.6098,-22.84,6.61,37.71,5,S02
160,-9.37569,0.24900,1.53229,-4.0854,1.2195,0.5488,-22.75,6.79,37.80,5,S02
180,-9.39245,0.28970,1.49638,-3.9634,0.9146,0.5488,-22.75,6.79,37.80,5,S02
200,-9.37809,0.30406,1.46525,-4.0854,0.5488,0.5488,-22.75,6.79,37.80,5,S02
220,-9.38527,0.28730,1.45567,-4.1463,0.3049,0.5488,-22.75,6.79,37.71,5,S02
240,-9.39245,0.28252,1.47004,-4.2683,-0.0610,0.6098,-22.75,6.79,37.71,5,S02
260,-9.39724,0.28491,1.45328,-4.3902,-0.6707,0.6707,-22.75,6.79,37.71,5,S02
280,-9.39485,0.29928,1.43652,-4.6341,-1.4024,0.6707,-22.75,6.79,37.71,5,S02
300,-9.39964,0.31603,1.45328,-4.9390,-1.9512,0.6098,-22.75,6.79,37.71,5,S02
320,-9.39485,0.31843,1.47004,-5.2439,-2.5000,0.5488,-22.75,6.79,37.71,5,S02
340,-9.39964,0.29928,1.47483,-5.4268,-3.1098,0.5488,-22.75,6.79,37.71,5,S02
360,-9.38767,0.26576,1.46765,-5.3049,-3.5366,0.6098,-22.66,6.79,37.89,5,S02
380,-9.39964,0.25379,1.47962,-5.0610,-3.7195,0.6098,-22.66,6.79,37.89,5,S02
400,-9.38048,0.27294,1.50116,-5.0000,-4.0244,0.6707,-22.66,6.79,37.89,5,S02
420,-9.35654,0.29688,1.52989,-5.1220,-4.1463,0.6707,-22.66,6.51,37.89,5,S02
440,-9.39485,0.28970,1.52032,-5.0610,-3.4146,0.7317,-22.66,6.51,37.89,5,S02
460,-9.39485,0.27054,1.54905,-4.8780,-2.8049,0.7927,-22.66,6.51,37.89,5,S02
480,-9.40921,0.26576,1.51792,-4.3902,-3.2927,0.7317,-22.66,6.51,37.89,5,S02
500,-9.39724,0.30646,1.49877,-4.3293,-3.9634,0.4878,-22.75,6.51,37.89,5,S02
520,-9.37330,0.33998,1.51314,-4.4512,-3.6585,0.3659,-22.75,6.51,37.89,5,S02
540,-9.35654,0.31843,1.54426,-4.5122,-3.5976,0.4268,-22.75,6.51,37.89,5,S02
560,-9.37091,0.25857,1.57299,-4.3902,-3.3537,0.5488,-22.66,6.33,38.07,5,S02
580,-9.39724,0.24660,1.57060,-4.3293,-3.0488,0.6098,-22.66,6.33,38.07,5,S02
600,-9.38527,0.27533,1.55384,-4.4512,-3.0488,0.6707,-22.66,6.33,38.07,5,S02
620,-9.36851,0.29928,1.56820,-4.5732,-2.9268,0.6707,-22.66,6.42,37.98,5,S02
640,-9.36851,0.30406,1.57538,-4.8780,-2.7439,0.6707,-22.66,6.42,37.98,5,S02
660,-9.38527,0.30885,1.59454,-5.1220,-2.4390,0.6707,-22.66,6.42,37.98,5,S02
680,-9.39006,0.28730,1.59933,-5.1829,-2.4390,0.5488,-22.66,6.42,37.98,5,S02
700,-9.37809,0.25618,1.58257,-5.1829,-2.5000,0.3659,-22.57,6.33,37.98,5,S02
720,-9.39485,0.26576,1.60890,-5.0610,-2.6220,0.1220,-22.57,6.33,37.98,5,S02
740,-9.39964,0.29209,1.64003,-5.3049,-2.9268,0.0000,-22.57,6.33,37.98,5,S02
760,-9.36612,0.32082,1.62087,-5.6707,-2.9878,-0.4878,-22.48,6.24,38.07,5,S02
780,-9.34936,0.38547,1.61130,-5.7317,-2.6220,-1.2195,-22.48,6.24,38.07,5,S02
800,-9.32063,0.41420,1.58496,-5.6707,-2.5610,-1.6463,-22.48,6.24,38.07,5,S02
820,-9.28711,0.37828,1.53229,-5.3049,-2.6829,-1.7683,-22.48,6.42,38.07,5,S02
840,-9.31105,0.39983,1.53708,-4.6341,-2.8049,-1.5854,-22.48,6.42,38.07,5,S02
860,-9.33978,0.45250,1.58017,-4.2683,-3.5366,-0.8537,-22.48,6.42,38.07,5,S02
880,-9.34936,0.47166,1.63763,-3.9634,-4.3902,-0.1220,-22.48,6.42,38.07,5,S02
900,-9.37330,0.50996,1.63763,-3.2927,-5.0610,-0.1829,-22.48,6.06,38.17,5,S02
920,-9.36612,0.56024,1.58257,-2.9878,-5.8537,-0.1829,-22.48,6.06,38.17,5,S02
940,-9.35175,0.61052,1.57538,-3.2927,-6.2805,0.0000,-22.48,6.06,38.17,5,S02
960,-9.45231,0.60573,1.64721,-4.2073,-7.8659,1.0366,-22.39,5.87,38.17,5,S02
980,-9.47146,0.66080,1.63045,-5.3659,-8.7195,1.6463,-22.39,5.87,38.17,5,S02
1000,-9.42837,0.68714,1.54426,-7.2561,-9.5122,1.6463,-22.39,5.87,38.17,5,S02
1020,-9.45231,0.55306,1.45567,-8.2927,-9.2683,0.9146,-22.11,5.32,38.26,5,S02
1040,-9.39485,0.29688,1.45807,-7.6829,-8.7805,0.2439,-22.11,5.32,38.26,5,S02
1060,-9.35415,0.13647,1.45089,-6.5244,-8.8415,0.1829,-22.11,5.32,38.26,5,S02
1080,-9.30626,0.11732,1.54665,-6.0976,-9.0244,1.2195,-22.11,5.32,38.26,5,S02
1100,-9.29908,0.09816,1.76692,-5.8537,-9.6951,2.5000,-22.11,4.95,38.44,5,S02
1120,-9.38767,0.16999,1.99437,-5.8537,-11.4024,3.4146,-22.11,4.95,38.44,5,S02
1140,-9.39006,0.22027,2.18830,-6.2195,-12.5000,4.0244,-22.11,4.95,38.44,5,S02
1160,-9.39245,0.31843,2.43011,-7.8049,-13.6585,3.9634,-21.83,4.22,38.62,5,S02
1180,-9.42118,0.44532,2.60250,-11.4634,-14.9390,3.1098,-21.83,4.22,38.62,5,S02
1200,-9.32063,0.39025,2.61686,-14.8780,-14.8171,1.9512,-21.83,4.22,38.62,5,S02
1220,-9.15303,0.22745,2.50673,-16.7073,-13.5976,0.3659,-21.19,3.76,39.08,5,S02
1240,-9.07881,0.05267,2.45885,-17.7439,-11.6463,-1.7073,-21.19,3.76,39.08,5,S02
1260,-9.11233,-0.04310,2.40857,-17.7439,-10.5488,-3.1098,-21.19,3.76,39.08,5,S02
1280,-9.08121,-0.04788,2.31280,-18.0488,-10.1220,-3.6585,-21.19,3.76,39.08,5,S02
1300,-9.13627,-0.05267,2.37026,-18.1707,-9.1463,-3.7195,-20.55,3.39,39.54,5,S02
1320,-9.11233,-0.14844,2.50673,-17.2561,-9.3293,-3.1707,-20.55,3.39,39.54,5,S02
1340,-9.08360,-0.22505,2.54264,-15.4268,-10.0610,-2.5000,-20.55,3.39,39.54,5,S02
1360,-9.03332,-0.19632,2.52109,-13.9634,-9.4512,-2.4390,-20.00,3.21,39.82,5,S02
1380,-8.98065,-0.06943,2.51631,-13.2927,-8.0488,-2.9268,-20.00,3.21,39.82,5,S02
1400,-9.01896,0.03112,2.56898,-13.2927,-6.5854,-3.1098,-20.00,3.21,39.82,5,S02
1420,-9.03811,0.03112,2.62883,-13.1707,-4.6341,-2.6829,-19.54,3.12,39.91,5,S02
1440,-9.05248,-0.08859,2.77009,-12.2561,-2.5000,-2.0122,-19.54,3.12,39.91,5,S02
1460,-9.05487,-0.17478,2.77967,-10.9756,-1.2805,-1.5244,-19.54,3.12,39.91,5,S02
1480,-9.03811,-0.10774,2.63362,-10.7317,-0.4268,-1.4024,-19.54,3.12,39.91,5,S02
1500,-9.02854,0.01437,2.51391,-11.3415,1.4024,-1.4024,-19.08,3.30,40.18,5,S02
1520,-9.03811,0.06943,2.50194,-12.0122,3.1098,-0.9756,-19.08,3.30,40.18,5,S02
1540,-9.00220,-0.00958,2.53785,-12.2561,3.6585,-0.0610,-19.08,3.30,40.18,5,S02
1560,-9.03093,-0.17957,2.65756,-12.0732,3.1707,0.6098,-18.62,3.39,40.28,5,S02
1580,-9.11473,-0.34477,2.77488,-11.0976,1.7073,0.8537,-18.62,3.39,40.28,5,S02
1600,-9.06924,-0.45969,2.73897,-8.9024,-0.1829,1.0976,-18.62,3.39,40.28,5,S02
1620,-9.10036,-0.42377,2.84431,-5.4878,-2.9878,0.7317,-18.62,3.12,40.37,5,S02
1640,-9.01417,-0.37110,2.84671,-2.8049,-10.7317,-0.1220,-18.62,3.12,40.37,5,S02
1660,-9.05727,-0.26815,2.77488,-4.5122,-14.6951,-0.6098,-18.62,3.12,40.37,5,S02
1680,-9.18655,-0.12689,2.64559,-6.6463,-13.2317,0.0610,-18.62,3.12,40.37,5,S02
1700,-9.13627,-0.08859,2.62165,-6.9512,-13.1707,0.6707,-18.44,2.48,40.55,5,S02
1720,-9.01896,-0.13168,2.64320,-5.7927,-11.5854,0.3049,-18.44,2.48,40.55,5,S02
1740,-8.82263,-0.09098,2.58813,-5.7317,-9.2073,-0.0610,-18.44,2.48,40.55,5,S02
1760,-8.72926,0.11492,2.61926,-7.5000,-7.0122,0.0610,-18.07,2.20,40.64,5,S02
1780,-8.86333,0.19632,2.95684,-9.4512,-4.4512,1.0366,-18.07,2.20,40.64,5,S02
1800,-8.85136,-0.01915,3.26569,-9.0854,-3.2317,2.4390,-18.07,2.20,40.64,5,S02
1820,-8.80348,-0.25139,3.46680,-6.5244,-1.8902,2.5610,-18.17,2.20,40.83,5,S02
1840,-8.73884,-0.35195,3.52426,-2.6829,1.0976,1.6463,-18.17,2.20,40.83,5,S02
1860,-8.65504,-0.27294,3.33033,1.7073,5.0610,1.0976,-18.17,2.20,40.83,5,S02
1880,-8.66462,-0.00239,3.07894,4.3293,7.9268,1.4024,-18.17,2.20,40.83,5,S02
1900,-8.78433,0.26815,3.04064,4.5122,6.7073,2.6220,-18.72,2.66,40.64,5,S02
1920,-8.72447,0.24660,2.88022,3.6585,4.0244,4.3293,-18.72,2.66,40.64,5,S02
1940,-8.67898,0.19872,2.74376,1.7073,6.2195,5.1829,-18.72,2.66,40.64,5,S02
1960,-8.65265,0.26576,2.62883,-2.1951,8.6585,4.7561,-18.53,2.84,40.64,5,S02
1980,-8.60955,0.29928,2.52828,-7.3171,9.0854,3.5366,-18.53,2.84,40.64,5,S02
2000,-8.69095,0.20351,2.41096,-11.6463,9.4512,2.1951,-18.53,2.84,40.64,5,S02
2020,-8.61434,-0.06704,2.35589,-13.4756,12.1341,3.3537,-17.89,3.39,40.55,5,S02
2040,-8.28633,-0.54588,2.65996,-12.1951,14.7561,5.3659,-17.89,3.39,40.55,5,S02
2060,-8.05888,-0.73502,2.60489,-9.3902,15.0000,3.9634,-17.89,3.39,40.55,5,S02
2080,-7.94636,-0.54588,2.17394,-8.0488,17.3780,0.0610,-17.89,3.39,40.55,5,S02
2100,-7.55849,-0.31843,1.46765,-8.4146,20.2439,-2.3780,-17.43,4.50,40.64,5,S02
2120,-7.08684,-0.29928,1.19231,-8.2927,22.0732,-2.8049,-17.43,4.50,40.64,5,S02
2140,-6.94079,-0.54588,1.79805,-4.0854,24.5122,-2.0732,-17.43,4.50,40.64,5,S02
2160,-7.02698,-0.80206,2.27210,2.7439,28.7805,-0.6707,-17.80,6.06,39.91,5,S02
2180,-7.14190,-0.82839,2.15718,9.8171,32.3780,0.4878,-17.80,6.06,39.91,5,S02
2200,-7.03895,-0.67756,1.64482,14.0854,33.8415,0.0000,-17.80,6.06,39.91,5,S02
2220,-7.09881,-0.37828,1.56581,15.3659,34.9390,-2.2561,-18.44,7.71,39.08,5,S02
2240,-7.44357,0.00000,1.73580,13.4146,33.2317,-2.5610,-18.44,7.71,39.08,5,S02
2260,-7.46751,-0.06943,1.36948,10.1220,30.1220,-0.2439,-18.44,7.71,39.08,5,S02
2280,-7.48906,-0.74699,2.20985,8.8415,27.9878,-0.0610,-18.44,7.71,39.08,5,S02
2300,-10.14423,-1.55863,1.80762,19.0854,13.7805,-14.8780,-18.81,8.44,38.62,5,S02
2320,-12.41633,0.56024,-0.39744,14.6951,16.8293,-23.2927,-18.81,8.44,38.62,5,S02
2340,-13.19684,2.08056,-0.48363,2.4390,14.8780,-20.1220,-18.81,8.44,38.62,5,S02
2360,-13.15614,2.00874,0.11253,-7.5000,-7.5000,-11.2805,-18.07,8.35,38.81,5,S02
2380,-14.16888,1.32878,1.28808,-21.0366,-19.9390,-8.1707,-18.07,8.35,38.81,5,S02
2400,-14.74828,-0.00479,1.29766,-17.5000,-15.4878,-12.3171,-18.07,8.35,38.81,5,S02
2420,-14.18325,-0.59376,2.27449,-6.3415,-18.1098,-13.7805,-17.25,7.43,39.27,5,S02
2440,-13.20402,0.08380,3.01430,-3.0488,-31.4024,-1.1585,-17.25,7.43,39.27,5,S02
2460,-12.24395,0.70629,2.70305,-1.2195,-34.5732,19.5122,-17.25,7.43,39.27,5,S02
2480,-11.24078,1.02232,2.27210,-0.0610,-27.9878,23.6585,-17.25,7.43,39.27,5,S02
2500,-10.24000,0.89304,1.47004,0.9756,-23.4756,13.4756,-17.43,5.41,39.54,5,S02
2520,-9.21049,1.00796,0.78769,2.7439,-16.1585,4.4512,-17.43,5.41,39.54,5,S02
2540,-8.39407,1.09654,0.16759,6.0366,-4.6341,4.4512,-17.43,5.41,39.54,5,S02
2560,-7.86016,0.79727,-0.09816,7.0732,7.5610,7.8049,-17.61,5.96,39.08,5,S02
2580,-7.89608,0.70868,0.22027,2.0732,15.4878,8.3537,-17.61,5.96,39.08,5,S02
2600,-8.29351,0.77333,0.61770,-7.6829,16.4634,5.7317,-17.61,5.96,39.08,5,S02
2620,-8.47308,0.71587,0.82600,-15.5488,14.2073,2.5610,-16.51,6.97,39.17,5,S02
2640,-8.42280,0.73502,0.73981,-18.6585,13.3537,-0.3049,-16.51,6.97,39.17,5,S02
2660,-8.53772,0.73981,0.66798,-19.1463,13.1707,-2.7439,-16.51,6.97,39.17,5,S02
2680,-8.64067,0.55785,0.84994,-17.3171,11.5244,-4.3902,-16.51,6.97,39.17,5,S02
2700,-8.56885,0.42377,1.21865,-14.2683,6.3415,-5.6098,-15.32,7.61,38.90,5,S02
2720,-7.82665,0.35674,1.28090,-9.8171,-0.5488,-5.4268,-15.32,7.61,38.90,5,S02
2740,-6.61518,0.26336,1.14203,-4.2073,-4.6341,-3.7805,-15.32,7.61,38.90,5,S02
2760,-5.96396,0.16999,1.38145,-0.3659,-4.2683,-1.8293,-15.23,7.43,38.53,5,S02
2780,-6.03578,0.23463,1.67834,1.7683,-3.7195,0.1829,-15.23,7.43,38.53,5,S02
2800,-6.17704,0.36631,1.91297,5.2439,-4.0244,0.7927,-15.23,7.43,38.53,5,S02
2820,-6.27760,1.03908,1.97282,7.6220,-5.6707,-0.1220,-15.23,7.34,37.98,5,S02
2840,-6.20338,1.67115,1.49398,7.6829,-6.7073,-0.6098,-15.23,7.34,37.98,5,S02
2860,-6.32548,1.95367,0.94810,8.4146,-3.3537,-1.1585,-15.23,7.34,37.98,5,S02
2880,-7.32147,2.79403,1.64482,-2.3171,-3.2317,-0.5488,-15.23,7.34,37.98,5,S02
2900,-7.79552,3.52426,1.80283,-20.6098,-11.4024,4.0244,-14.04,7.16,37.71,5,S02
2920,-6.85460,2.60729,0.38068,-26.1585,-13.7805,8.3537,-14.04,7.16,37.71,5,S02
2940,-7.26161,1.04866,-1.31442,-20.5488,-6.7073,7.1341,-14.04,7.16,37.71,5,S02
2960,-8.98065,-1.01275,-0.82839,-17.8049,-3.9024,11.4024,-13.30,6.88,37.34,5,S02
2980,-14.60702,-3.64876,3.13640,-19.0854,-18.1098,20.1829,-13.30,6.88,37.34,5,S02
3000,-21.64598,0.32561,-0.33519,-33.9024,-42.5000,40.0610,-13.30,6.88,37.34,5,S02
3020,-16.65167,-2.03747,4.79080,-37.0732,-5.0000,84.1463,-12.20,3.58,37.89,5,S02
3040,-13.70680,-0.28012,1.61130,-44.7561,-32.9268,60.3659,-12.20,3.58,37.89,5,S02
3060,-14.59505,1.07500,3.45483,-36.8293,-25.7927,11.8293,-12.20,3.58,37.89,5,S02
3080,-14.56393,0.05267,1.92015,-18.4146,-32.8049,-5.1220,-12.20,3.58,37.89,5,S02
3100,-13.45541,-0.49560,1.90100,-23.7805,-14.2683,-0.1220,-11.10,3.49,37.71,5,S02
3120,-11.54005,-1.35033,1.59454,-32.6220,-4.1463,1.3415,-11.10,3.49,37.71,5,S02
3140,-9.96227,-1.96803,1.77171,-39.9390,-1.6463,-11.0976,-11.10,3.49,37.71,5,S02
3160,-9.32302,-1.85551,1.85790,-36.2195,3.7195,-22.9268,-9.27,4.40,37.61,5,S02
3180,-8.95671,-1.74298,2.10211,-24.5122,10.0610,-23.6585,-9.27,4.40,37.61,5,S02
3200,-8.87770,-1.57538,2.10211,-12.1951,14.1463,-20.1829,-9.27,4.40,37.61,5,S02
3220,-8.52336,-1.34794,1.73580,-3.0488,16.2805,-16.4634,-9.08,5.78,36.79,5,S02
3240,-7.95833,-1.21386,1.27372,2.6220,17.6829,-14.8780,-9.08,5.78,36.79,5,S02
3260,-7.73327,-1.08218,0.99359,5.7927,17.0122,-15.3659,-9.08,5.78,36.79,5,S02
3280,-7.54413,-0.91937,0.84515,7.5610,14.5732,-13.2927,-9.08,5.78,36.79,5,S02
3300,-7.44836,-0.66319,1.02472,7.1951,11.8293,-8.2317,-8.90,6.79,36.24,5,S02
3320,-7.35978,-0.35195,1.50356,4.1463,8.1707,-2.7439,-8.90,6.79,36.24,5,S02
3340,-7.20894,-0.21308,1.81241,1.7683,2.6220,1.1585,-8.90,6.79,36.24,5,S02
3360,-7.00783,-0.11971,1.60172,1.6463,0.0000,4.3902,-8.90,7.52,36.06,5,S02
3380,-6.66546,-0.18914,1.27372,2.1951,4.5732,9.3293,-8.90,7.52,36.06,5,S02
3400,-6.16986,-0.50278,1.58017,6.4634,12.5610,15.6098,-8.90,7.52,36.06,5,S02
3420,-5.71975,-1.03190,1.94888,12.2561,17.1951,20.6098,-10.37,8.99,35.05,5,S02
3440,-5.51145,-1.48440,1.89142,18.7195,19.8780,20.9756,-10.37,8.99,35.05,5,S02
3460,-5.95917,-1.02951,1.22583,25.0000,22.5610,15.4878,-10.37,8.99,35.05,5,S02
3480,-6.69179,0.01915,0.91459,23.9024,21.8293,12.5610,-10.37,8.99,35.05,5,S02
3500,-6.78038,0.28730,0.37110,24.7561,20.9146,16.8902,-12.11,10.09,33.67,5,S02
3520,-6.74686,-0.10534,0.37110,28.3537,25.8537,17.6829,-12.11,10.09,33.67,5,S02
3540,-6.89770,-0.09337,1.04148,25.0610,21.8902,9.2683,-12.11,10.09,33.67,5,S02
3560,-7.12754,0.02155,1.19471,13.7195,1.5244,-1.8293,-12.39,10.46,33.03,5,S02
3580,-8.45632,0.20351,0.44772,6.2195,-9.8171,-12.4390,-12.39,10.46,33.03,5,S02
3600,-10.92235,1.18752,-0.28252,-1.7683,-6.5854,-17.8049,-12.39,10.46,33.03,5,S02
3620,-20.05623,2.44687,-0.50757,-7.5000,9.7561,-6.1585,-12.11,11.56,32.11,5,S02
3640,-18.63168,2.87783,3.17471,4.0854,-1.1585,-10.1220,-12.11,11.56,32.11,5,S02
3660,-15.37556,2.12126,1.87227,-5.3049,-43.2927,-12.2561,-12.11,11.56,32.11,5,S02
3680,-13.30937,0.55545,1.58017,-11.5244,-36.0366,-4.0854,-12.11,11.56,32.11,5,S02
3700,-13.02206,0.86431,1.98240,-18.1707,-17.5610,-9.8780,-11.38,10.28,32.66,5,S02
3720,-12.68927,2.06620,1.18274,-18.4756,-4.6341,-16.5244,-11.38,10.28,32.66,5,S02
3740,-11.11867,2.67193,0.46926,-14.8780,7.8659,-11.8293,-11.38,10.28,32.66,5,S02
3760,-9.38288,1.76932,0.29209,-6.6463,15.6098,-0.9756,-11.01,11.47,31.93,5,S02
3780,-8.90164,0.57940,0.48602,-5.4268,22.6829,2.9268,-11.01,11.47,31.93,5,S02
3800,-8.96389,0.04070,0.63686,-14.0244,24.4512,1.0366,-11.01,11.47,31.93,5,S02
3820,-8.94474,0.21069,0.45250,-23.9024,20.6707,-1.1585,-10.46,12.57,31.65,5,S02
3840,-8.67180,0.47166,0.49321,-26.9512,15.5488,0.3659,-10.46,12.57,31.65,5,S02
3860,-8.54969,0.76375,0.64165,-25.3049,11.5244,3.0488,-10.46,12.57,31.65,5,S02
3880,-8.56167,1.04148,0.58658,-26.7683,7.3780,5.3659,-10.46,12.57,31.65,5,S02
3900,-8.08522,0.87149,0.17717,-29.7561,5.1829,4.8780,-9.91,12.84,31.56,5,S02
3920,-8.13071,0.69432,0.19393,-30.6098,5.9146,-0.6707,-9.91,12.84,31.56,5,S02
3940,-8.32464,0.55785,0.50757,-29.1463,4.1463,-6.2805,-9.91,12.84,31.56,5,S02
3960,-8.61673,0.70868,0.62728,-28.0488,0.9146,-7.6220,-9.17,13.30,31.56,5,S02
3980,-8.75081,0.99838,0.63686,-25.6707,0.7927,-4.5732,-9.17,13.30,31.56,5,S02
4000,-8.81306,1.43413,0.62249,-20.3659,0.6098,-2.0732,-9.17,13.30,31.56,5,S02
4020,-8.50181,1.47722,0.71826,-14.1463,0.0610,-1.3415,-9.27,13.76,31.10,5,S02
4040,-7.69257,1.05824,0.81403,-6.8293,0.6098,-2.5610,-9.27,13.76,31.10,5,S02
4060,-6.93121,0.51236,0.66080,0.7927,2.2561,-7.5000,-9.27,13.76,31.10,5,S02
4080,-6.21535,0.16281,0.64883,7.6220,4.5732,-13.9024,-9.27,13.76,31.10,5,S02
4100,-5.68144,0.29449,0.88107,8.9634,3.7805,-16.7073,-9.72,14.50,30.46,5,S02
4120,-5.12838,0.54827,0.93613,5.9756,0.5488,-14.2073,-9.72,14.50,30.46,5,S02
4140,-4.47716,0.61531,0.38786,5.3049,0.1220,-10.3049,-9.72,14.50,30.46,5,S02
4160,-4.50589,1.18513,0.05267,3.5976,2.3780,-8.9024,-10.09,14.68,30.00,5,S02
4180,-5.50666,2.56419,0.74220,-16.3415,-3.3537,-8.3537,-10.09,14.68,30.00,5,S02
4200,-6.24408,3.37343,1.31202,-41.2805,-15.9756,-3.5366,-10.09,14.68,30.00,5,S02
4220,-6.29675,2.70066,0.08619,-44.2073,-20.9146,1.7683,-9.72,14.13,30.18,5,S02
4240,-7.58004,0.65362,-1.37906,-22.0732,-13.2927,3.8415,-9.72,14.13,30.18,5,S02
4260,-12.29901,-6.14352,0.60094,13.5366,-7.4390,8.1707,-9.72,14.13,30.18,5,S02
4280,-23.99469,-4.64236,-1.42694,25.7927,-29.0854,26.8293,-9.72,14.13,30.18,5,S02
4300,-21.08574,-5.61680,4.58729,6.0976,8.9634,95.0000,-13.12,12.57,29.27,5,S02
4320,-17.38669,0.19632,0.92416,-19.2073,-6.8902,102.1951,-13.12,12.57,29.27,5,S02
4340,-16.68998,6.55293,1.02711,-29.3293,0.3659,54.2073,-13.12,12.57,29.27,5,S02
4360,-15.48091,4.75488,0.00000,-46.7073,-22.2561,13.0488,-11.01,11.10,30.73,5,S02
4380,-14.09706,0.06704,0.29449,-73.1707,-29.3902,-10.4878,-11.01,11.10,30.73,5,S02
4400,-12.29183,-3.01909,0.79009,-76.1585,-12.4390,-21.4024,-11.01,11.10,30.73,5,S02
4420,-9.44273,-3.48596,0.43096,-71.8293,-4.7561,-23.0488,-7.98,11.83,31.19,5,S02
4440,-7.02459,-2.81558,-0.29928,-64.1463,5.8537,-21.7683,-7.98,11.83,31.19,5,S02
4460,-6.59124,-2.02310,-0.22745,-55.1829,14.1463,-22.3780,-7.98,11.83,31.19,5,S02
4480,-6.97192,-1.68791,0.34716,-47.8659,11.3415,-21.8293,-7.98,11.83,31.19,5,S02
4500,-6.73010,-1.65918,0.58658,-38.7195,1.7073,-18.1707,-6.33,12.57,31.19,5,S02
4520,-6.81629,-1.38864,0.57940,-26.7683,-4.8171,-15.1220,-6.33,12.57,31.19,5,S02
4540,-8.02776,-0.83318,1.18992,-17.5000,-6.8902,-12.6220,-6.33,12.57,31.19,5,S02
4560,-9.22007,-0.51954,1.71664,-11.8902,-12.3780,-7.8659,-6.06,12.20,31.19,5,S02
4580,-9.62948,-0.59855,2.04704,-9.7561,-20.1220,-2.1951,-6.06,12.20,31.19,5,S02
4600,-8.88488,-0.84515,2.17872,-9.8780,-22.8049,2.9878,-6.06,12.20,31.19,5,S02
4620,-7.73327,-0.92895,2.06620,-8.7195,-22.1341,5.2439,-6.24,11.56,31.47,5,S02
4640,-7.14190,-1.00078,2.14999,-5.5488,-22.3171,2.8659,-6.24,11.56,31.47,5,S02
4660,-6.39731,-1.29766,1.85072,-1.0366,-22.5000,-1.6463,-6.24,11.56,31.47,5,S02
4680,-5.66468,-1.75016,1.27132,4.3902,-13.9024,-7.1341,-6.24,11.56,31.47,5,S02
4700,-5.04458,-2.09014,1.54426,10.9146,1.8293,-12.5000,-6.51,12.02,30.92,5,S02
4720,-4.92008,-2.04704,2.33435,18.9024,11.3415,-15.1220,-6.51,12.02,30.92,5,S02
4740,-5.48033,-1.79086,2.30322,28.0488,15.1829,-12.9268,-6.51,12.02,30.92,5,S02
4760,-6.67264,-1.20428,1.93212,42.4390,23.3537,-4.5732,-8.81,13.94,29.36,5,S02
4780,-7.49385,-0.96726,1.40779,52.9878,31.3415,7.7439,-8.81,13.94,29.36,5,S02
4800,-7.85298,-1.39103,1.08697,57.6220,30.7317,15.1220,-8.81,13.94,29.36,5,S02
4820,-7.52976,-0.98881,0.85473,56.2805,20.6707,12.2561,-11.19,14.77,27.89,5,S02
4840,-6.84981,0.21308,1.23301,49.1463,6.7073,7.2561,-11.19,14.77,27.89,5,S02
4860,-6.58645,0.68474,0.46926,39.8780,-6.0976,8.2927,-11.19,14.77,27.89,5,S02
4880,-8.13071,1.38385,-0.94810,30.1220,-6.6463,9.5122,-11.19,14.77,27.89,5,S02
4900,-10.39562,1.48440,-1.34794,12.8049,-0.0610,7.8659,-12.11,15.05,27.43,5,S02
4920,-13.52963,-1.35033,1.29287,-0.1220,-4.5732,6.0366,-12.11,15.05,27.43,5,S02
4940,-21.96680,0.48842,2.79882,-6.2195,-20.1220,-7.8659,-12.11,15.05,27.43,5,S02
4960,-17.44655,0.96965,0.57221,26.7073,-47.0122,-6.6463,-12.57,14.04,27.89,5,S02
4980,-13.66132,0.27533,1.45567,28.2317,-45.0000,8.9634,-12.57,14.04,27.89,5,S02
5000,-11.34133,1.56341,1.58736,14.0244,-32.6829,28.2927,-12.57,14.04,27.89,5,S02
5020,-9.99819,1.79805,0.96965,4.1463,-11.0976,31.7683,-13.30,13.49,27.89,5,S02
5040,-10.24000,1.24020,1.00556,2.2561,10.5488,21.2195,-13.30,13.49,27.89,5,S02
5060,-10.25197,1.14922,1.03908,7.9268,16.2805,10.3049,-13.30,13.49,27.89,5,S02
5080,-9.30626,0.96965,0.65601,20.0610,16.7683,7.8049,-13.30,13.49,27.89,5,S02
5100,-7.86735,0.51236,0.46208,25.4268,18.9024,9.5122,-13.85,14.31,26.97,5,S02
5120,-7.37654,0.34955,0.13886,19.5732,20.5488,6.4634,-13.85,14.31,26.97,5,S02
5140,-8.07804,0.24660,0.50278,8.9024,22.4390,1.7683,-13.85,14.31,26.97,5,S02
5160,-8.67898,0.07422,1.13246,1.2195,17.5000,0.1829,-13.85,15.23,26.33,5,S02
5180,-8.64307,0.18196,1.17076,-2.6220,8.5366,-0.0610,-13.85,15.23,26.33,5,S02
5200,-8.20253,0.56503,1.04148,-4.5732,5.1220,-2.3780,-13.85,15.23,26.33,5,S02
5220,-7.93917,0.90980,1.15640,-3.7195,2.8049,-7.7439,-13.21,15.78,26.42,5,S02
5240,-7.79552,1.04148,1.61609,-2.9268,-3.6585,-13.6585,-13.21,15.78,26.42,5,S02
5260,-6.89770,0.67516,1.64960,0.5488,-13.5976,-16.5244,-13.21,15.78,26.42,5,S02
5280,-5.49469,0.18675,1.09415,8.1707,-19.1463,-16.7683,-13.21,15.78,26.42,5,S02
5300,-4.57053,0.26576,0.96726,10.4878,-16.9512,-13.7195,-13.03,15.69,26.42,5,S02
5320,-4.32393,0.56024,0.59137,10.0610,-12.8659,-4.8780,-13.03,15.69,26.42,5,S02
5340,-4.82432,0.84276,0.85952,12.6220,-4.8780,3.1098,-13.03,15.69,26.42,5,S02
5360,-5.30076,1.67834,1.57538,7.9268,-4.6951,6.3415,-13.21,15.60,26.15,5,S02
5380,-5.52103,1.98479,1.66636,-0.1220,-12.2561,8.2927,-13.21,15.60,26.15,5,S02
5400,-5.62398,1.85790,1.14443,2.4390,-13.0488,7.2561,-13.21,15.60,26.15,5,S02
5420,-5.41329,1.33118,0.36871,4.8780,-10.1829,4.7561,-12.94,15.96,25.87,5,S02
5440,-6.90727,1.16837,-0.39265,4.3293,-11.2805,3.5976,-12.94,15.96,25.87,5,S02
5460,-9.64624,1.06303,0.16759,-8.2317,-17.0122,9.8171,-12.94,15.96,25.87,5,S02
5480,-15.96693,-1.80044,1.84593,-11.3415,-24.9390,19.9390,-12.94,15.96,25.87,5,S02
5500,-22.88139,-0.54348,-0.45969,-29.6951,-17.4390,38.9024,-12.39,15.14,26.51,5,S02
5520,-19.02193,-3.15316,5.13077,-39.1463,14.0854,75.6098,-12.39,15.14,26.51,5,S02
5540,-17.12572,-0.01915,3.22260,-46.5854,-30.0610,38.5976,-12.39,15.14,26.51,5,S02
5560,-17.49204,1.67834,3.54102,-16.6463,-31.8293,-7.0732,-11.19,14.13,27.80,5,S02
5580,-15.33965,0.01197,2.76291,-4.9390,-41.7683,-18.2927,-11.19,14.13,27.80,5,S02
5600,-13.12741,-1.59454,2.48518,-0.9146,-21.8902,-18.3537,-11.19,14.13,27.80,5,S02
5620,-10.72842,-2.02549,2.12605,2.5610,-2.3171,-24.7561,-10.09,15.23,27.98,5,S02
5640,-8.99502,-1.44849,1.14203,-0.7317,9.8171,-34.6951,-10.09,15.23,27.98,5,S02
5660,-8.22169,-0.26576,0.64643,-6.4634,23.9024,-39.8780,-10.09,15.23,27.98,5,S02
5680,-7.76440,-0.29209,0.96247,-5.9756,33.0488,-34.5122,-10.09,15.23,27.98,5,S02
5700,-7.43639,-0.97683,1.37188,1.2195,33.5366,-26.8902,-9.08,16.88,27.52,5,S02
5720,-7.07965,-1.47722,1.40540,10.1220,27.2561,-20.7927,-9.08,16.88,27.52,5,S02
5740,-7.23288,-1.42455,1.25696,15.3659,19.5122,-19.1463,-9.08,16.88,27.52,5,S02
5760,-7.52258,-1.31442,1.07500,18.5976,12.1951,-18.2927,-9.27,17.61,27.34,5,S02
5780,-8.05888,-1.31202,1.17076,21.9512,7.8659,-14.3902,-9.27,17.61,27.34,5,S02
5800,-8.65265,-1.15161,1.73101,24.3293,5.7927,-7.0122,-9.27,17.61,27.34,5,S02
5820,-8.62152,-0.73981,1.84832,24.2683,2.1951,1.2805,-10.46,17.71,27.61,5,S02
5840,-7.86735,-0.66319,1.75495,22.6829,1.2195,7.1341,-10.46,17.71,27.61,5,S02
5860,-7.80749,-0.82600,2.24576,26.0366,3.5976,7.6829,-10.46,17.71,27.61,5,S02
5880,-7.75482,-1.00796,2.20267,34.2683,3.7805,7.0732,-10.46,17.71,27.61,5,S02
5900,-7.16345,-0.88825,1.39582,39.0244,9.7561,7.1951,-12.20,18.07,27.16,5,S02
5920,-6.56490,-0.46448,0.68953,37.3171,25.5488,4.8171,-12.20,18.07,27.16,5,S02
5940,-6.15789,-0.28730,0.34955,28.6585,39.0854,0.4268,-12.20,18.07,27.16,5,S02
5960,-6.16268,-0.42377,0.21787,20.0610,43.7195,-4.4512,-12.94,19.82,26.15,5,S02
5980,-6.46195,-0.42138,0.00958,14.5732,40.4878,-7.4390,-12.94,19.82,26.15,5,S02
6000,-6.43322,-0.70390,0.03352,10.9146,37.0122,-6.9512,-12.94,19.82,26.15,5,S02
6020,-6.24887,-1.27850,0.50518,9.8780,29.6951,-7.5610,-13.67,20.55,25.87,5,S02
6040,-6.37576,-1.60651,1.48201,10.1220,15.4268,-10.4268,-13.67,20.55,25.87,5,S02
6060,-6.49307,-1.53708,1.64482,10.7927,0.0000,-10.6707,-13.67,20.55,25.87,5,S02
6080,-7.04374,-1.55384,0.35913,7.4390,-7.0122,-8.5366,-13.67,20.55,25.87,5,S02
6100,-8.38450,-0.78769,-1.37188,0.3659,-0.6098,-10.1220,-14.31,20.64,26.33,5,S02
6120,-10.72363,0.90501,-0.94092,-20.1220,2.7439,-12.8049,-14.31,20.64,26.33,5,S02
6140,-17.16164,1.77650,0.55067,-38.9024,-9.3293,-11.1585,-14.31,20.64,26.33,5,S02
6160,-20.45127,1.16837,-2.08774,-25.7317,-32.9878,-7.7439,-14.22,20.00,27.71,5,S02
6180,-17.04672,1.22104,-0.44293,-3.5976,-30.5488,-9.3293,-14.22,20.00,27.71,5,S02
6200,-14.79856,0.18196,0.38547,12.4390,-44.3902,-7.5000,-14.22,20.00,27.71,5,S02
6220,-14.82729,0.36152,2.12845,9.6341,-50.9756,4.6951,-15.32,18.26,28.90,5,S02
6240,-13.75948,1.58496,1.22104,-4.2073,-40.5488,13.2317,-15.32,18.26,28.90,5,S02
6260,-13.06995,1.87705,1.13485,-5.7317,-6.3415,10.6707,-15.32,18.26,28.90,5,S02
6280,-12.64617,2.11169,1.00078,8.0488,14.0244,1.4024,-15.32,18.26,28.90,5,S02
6300,-8.93756,1.15161,-0.43335,27.8659,6.3415,13.2927,-16.51,19.27,27.89,5,S02
6320,-7.84580,0.49799,-0.20351,20.1220,13.4146,14.4512,-16.51,19.27,27.89,5,S02
6340,-7.99185,0.29928,0.30406,9.3902,20.7317,8.2927,-16.51,19.27,27.89,5,S02
6360,-8.23845,0.27533,0.45729,4.8171,21.9512,2.9878,-17.06,20.00,27.34,5,S02
6380,-8.16662,0.40462,0.21069,4.3293,19.2683,3.5976,-17.06,20.00,27.34,5,S02
6400,-8.15226,0.61052,-0.21548,5.3659,15.8537,6.7683,-17.06,20.00,27.34,5,S02
6420,-8.54730,0.86910,-0.30406,4.5122,11.9512,8.6585,-17.71,20.09,27.06,5,S02
6440,-8.81545,0.92416,-0.07422,1.8902,5.7317,7.5610,-17.71,20.09,27.06,5,S02
6460,-8.88249,0.85712,0.23224,0.4268,-0.4878,2.9268,-17.71,20.09,27.06,5,S02
6480,-8.92080,0.98402,0.55785,-2.3780,-4.6341,-1.4024,-17.71,20.09,27.06,5,S02
6500,-8.80587,1.18752,0.75657,-7.4390,-7.6829,-1.5244,-17.89,20.09,27.43,5,S02
6520,-8.68616,1.08936,0.60573,-10.9146,-7.3171,1.0366,-17.89,20.09,27.43,5,S02
6540,-8.79151,1.09176,0.54348,-13.6585,-1.8902,1.7073,-17.89,20.09,27.43,5,S02
6560,-8.81784,1.08697,0.66559,-16.9512,2.0732,-0.3659,-17.71,20.00,28.07,5,S02
6580,-8.71729,0.82600,0.46926,-16.4634,1.9512,-2.9268,-17.71,20.00,28.07,5,S02
6600,-8.05649,0.66080,-0.09337,-12.9878,4.0854,-4.3902,-17.71,20.00,28.07,5,S02
6620,-7.53695,0.82600,-0.12929,-13.4756,9.0244,-4.5122,-17.43,20.55,28.44,5,S02
6640,-7.44118,1.19710,0.25857,-20.6098,9.5122,-3.2317,-17.43,20.55,28.44,5,S02
6660,-7.66384,0.97683,0.47405,-25.6707,5.5488,-0.9146,-17.43,20.55,28.44,5,S02
6680,-7.78594,0.39744,0.43574,-26.3415,1.2805,-1.7683,-17.43,20.55,28.44,5,S02
6700,-7.65187,0.60094,0.69671,-27.8659,-2.3780,-5.6707,-16.79,20.46,29.27,5,S02
6720,-6.99825,1.07739,0.89064,-34.5122,-9.1463,-5.4268,-16.79,20.46,29.27,5,S02
6740,-6.63912,1.19471,0.81403,-39.6951,-16.3415,-2.6220,-16.79,20.46,29.27,5,S02
6760,-6.92403,1.04387,1.07021,-40.7927,-18.7195,-0.9756,-15.69,19.82,31.01,5,S02
6780,-7.65187,1.39343,2.06859,-44.8780,-21.4634,-0.7317,-15.69,19.82,31.01,5,S02
6800,-8.12113,1.70946,2.45406,-50.9146,-30.7927,0.6707,-15.69,19.82,31.01,5,S02
6820,-7.41963,1.14443,1.09176,-44.3293,-34.7561,2.1951,-15.23,18.62,33.03,5,S02
6840,-6.78756,0.09337,0.45729,-24.2073,-23.0488,1.2805,-15.23,18.62,33.03,5,S02
6860,-8.06128,1.01754,1.36948,-18.4146,-20.3049,4.2683,-15.23,18.62,33.03,5,S02
6880,-9.81383,2.25534,1.30723,-30.4878,-36.4634,19.7561,-15.23,18.62,33.03,5,S02
6900,-11.30303,-1.06781,0.98162,-25.5488,-45.8537,38.0488,-16.24,16.24,34.95,5,S02
6920,-20.40578,-1.55863,-0.30646,-11.7683,-46.2195,45.4878,-16.24,16.24,34.95,5,S02
6940,-17.43697,-3.40455,2.28646,-20.4878,-22.1341,73.3537,-16.24,16.24,34.95,5,S02
6960,-14.55196,-1.09415,1.78607,-39.2683,-46.3415,63.3537,-16.97,13.03,36.97,5,S02
6980,-14.17846,2.85389,2.54743,-40.7927,-55.4878,24.7561,-16.97,13.03,36.97,5,S02
7000,-13.60625,2.54743,2.59531,-37.9268,-53.4146,7.1951,-16.97,13.03,36.97,5,S02
7020,-12.39957,0.84276,2.89220,-49.3902,-40.9146,8.4756,-15.32,11.74,38.99,5,S02
7040,-11.56160,-0.76375,3.02148,-54.3902,-18.4146,11.7073,-15.32,11.74,38.99,5,S02
7060,-10.04128,-1.76692,2.42054,-56.8902,-6.4634,6.2195,-15.32,11.74,38.99,5,S02
7080,-9.02614,-1.84832,1.86748,-56.7683,-0.3049,-5.0610,-15.32,11.74,38.99,5,S02
7100,-8.57842,-1.49638,1.71185,-49.4512,5.4268,-12.5610,-13.76,12.48,40.09,5,S02
7120,-8.14986,-1.31442,1.66158,-35.1220,11.8902,-12.5000,-13.76,12.48,40.09,5,S02
7140,-7.47470,-1.40779,1.58736,-19.7561,16.4634,-10.0000,-13.76,12.48,40.09,5,S02
7160,-7.56089,-1.42694,1.53229,-7.9268,18.6585,-11.4634,-14.13,13.94,39.82,5,S02
7180,-7.96551,-1.37906,1.41258,-0.7317,19.7561,-14.1463,-14.13,13.94,39.82,5,S02
7200,-8.12113,-1.24020,1.32399,2.2561,19.8171,-13.6585,-14.13,13.94,39.82,5,S02
7220,-8.06846,-1.09654,1.50595,3.0488,18.1707,-10.4878,-15.05,15.32,39.27,5,S02
7240,-7.91284,-1.17555,1.61130,5.1220,14.2683,-7.3171,-15.05,15.32,39.27,5,S02
7260,-8.02776,-1.02472,1.92015,7.0122,9.5122,-7.1951,-15.05,15.32,39.27,5,S02
7280,-8.33422,-0.73023,2.47800,7.5610,1.6463,-7.9268,-15.05,15.32,39.27,5,S02
7300,-8.13071,-0.77812,2.63362,9.8171,-7.8049,-6.8293,-16.24,15.78,38.81,5,S02
7320,-7.53934,-0.96486,2.31998,12.9878,-10.6098,-5.0610,-16.24,15.78,38.81,5,S02
7340,-6.88812,-1.25696,2.12126,17.8659,-4.8171,-3.0488,-16.24,15.78,38.81,5,S02
7360,-6.19859,-1.38385,1.69988,22.8049,2.3780,-2.9268,-17.98,16.97,37.34,5,S02
7380,-6.28239,-1.30484,1.50835,27.3780,9.3293,-6.2195,-17.98,16.97,37.34,5,S02
7400,-6.87136,-1.48440,1.42216,35.8537,13.3537,-8.9024,-17.98,16.97,37.34,5,S02
7420,-7.14909,-1.34554,1.23301,43.8415,14.4512,-10.1220,-20.09,18.62,34.95,5,S02
7440,-7.59920,-1.11330,1.44370,43.1098,13.5976,-9.1463,-20.09,18.62,34.95,5,S02
7460,-7.93678,-1.29766,2.63123,42.0732,9.3902,-5.4268,-20.09,18.62,34.95,5,S02
7480,-7.48427,-1.51314,2.54743,43.9634,0.3049,-4.9390,-20.09,18.62,34.95,5,S02
7500,-6.97670,-1.21147,2.28167,42.0732,-4.8780,-11.7073,-21.47,19.63,33.03,5,S02
7520,-7.15627,-0.84036,2.69827,37.1341,-7.4390,-19.9390,-21.47,19.63,33.03,5,S02
7540,-8.31506,-1.06781,2.42533,32.0732,-11.5244,-24.2683,-21.47,19.63,33.03,5,S02
7560,-10.35013,-1.07500,1.21625,29.5732,-10.9146,-26.0976,-21.38,20.64,31.65,5,S02
7580,-12.12903,0.32322,0.18675,22.3780,-6.8902,-25.7927,-21.38,20.64,31.65,5,S02
7600,-12.55280,2.04704,1.22104,10.9756,-12.1951,-18.5976,-21.38,20.64,31.65,5,S02
7620,-15.18642,0.84755,1.09176,16.1585,-27.4390,-12.0122,-21.28,20.46,31.38,5,S02
7640,-14.74349,1.00556,2.12605,22.0122,-22.2561,-18.9024,-21.28,20.46,31.38,5,S02
7660,-14.65012,2.61686,2.60010,20.6707,-33.7195,-22.0732,-21.28,20.46,31.38,5,S02
7680,-14.42506,1.91776,2.81319,29.5732,-27.1341,-9.0854,-21.28,20.46,31.38,5,S02
7700,-13.86961,0.79487,2.71502,32.7439,-17.9878,-0.6098,-22.11,20.37,30.83,5,S02
7720,-13.20881,0.73741,2.05183,32.1341,-11.2805,-4.0244,-22.11,20.37,30.83,5,S02
7740,-11.83454,1.67594,1.27132,31.2195,-7.0732,-8.1707,-22.11,20.37,30.83,5,S02
7760,-9.72525,2.26491,0.41180,28.2927,-0.6707,-5.4268,-23.21,20.64,29.63,5,S02
7780,-8.11634,1.87227,-0.09098,24.2683,15.1220,-0.3659,-23.21,20.64,29.63,5,S02
7800,-7.34781,0.96486,0.16520,16.1585,30.1829,2.0732,-23.21,20.64,29.63,5,S02
7820,-7.42442,0.48363,0.65122,5.8537,37.1341,1.8902,-23.76,22.29,28.07,5,S02
7840,-7.57047,0.15323,0.96726,-0.6098,39.5122,2.9268,-23.76,22.29,28.07,5,S02
7860,-7.64469,0.01915,1.01275,-1.9512,40.0000,3.6585,-23.76,22.29,28.07,5,S02
7880,-7.84580,0.18675,1.00796,-2.9878,37.5610,2.1341,-23.76,22.29,28.07,5,S02
7900,-8.20253,0.33519,1.14203,-4.8780,32.7439,-0.3049,-23.94,23.76,26.70,5,S02
7920,-8.51618,0.47884,1.36709,-5.0610,27.3780,-2.6220,-23.94,23.76,26.70,5,S02
7940,-8.58321,0.66319,1.55623,-4.4512,22.1951,-4.3293,-23.94,23.76,26.70,5,S02
7960,-8.52096,0.94092,1.69031,-4.6341,17.4390,-4.5732,-23.85,24.59,25.96,5,S02
7980,-8.15705,0.95050,1.59214,-4.7561,12.6220,-3.1707,-23.85,24.59,25.96,5,S02
8000,-8.16183,0.82600,1.58736,-5.1220,10.0610,-1.9512,-23.85,24.59,25.96,5,S02
8020,-8.62631,1.22104,1.86508,-8.9634,6.8293,-2.9878,-23.58,25.05,25.96,5,S02
8040,-8.54251,1.53708,1.77410,-15.0610,-0.4878,-3.4756,-23.58,25.05,25.96,5,S02
8060,-8.29830,1.69749,1.12527,-17.3780,-5.3049,-3.5976,-23.58,25.05,25.96,5,S02
8080,-7.55849,1.86269,0.45250,-18.7195,-4.5732,-3.1707,-23.58,25.05,25.96,5,S02
8100,-6.84263,2.08056,0.33758,-25.3049,-1.7683,0.0000,-23.21,25.50,26.24,5,S02
8120,-6.75644,2.43011,0.69432,-39.0854,-1.9512,6.3415,-23.21,25.50,26.24,5,S02
8140,-6.83066,1.81241,1.22823,-49.4512,-7.3780,14.2073,-23.21,25.50,26.24,5,S02
8160,-6.61757,0.77572,1.27611,-51.0976,-13.9634,17.1951,-22.29,25.14,27.89,5,S02
8180,-6.50265,0.33998,1.28329,-51.0366,-17.6220,12.1951,-22.29,25.14,27.89,5,S02
8200,-6.49068,0.52194,1.76932,-49.8781,-20.6098,5.9146,-22.29,25.14,27.89,5,S02
8220,-6.43083,0.38547,1.79565,-45.0000,-27.0732,4.9390,-21.01,24.95,29.27,5,S02
8240,-8.54251,0.52912,1.24259,-38.6585,-32.8049,7.9878,-21.01,24.95,29.27,5,S02
8260,-11.54723,-0.12210,0.63686,-32.1341,-36.8902,20.3659,-21.01,24.95,29.27,5,S02
8280,-12.34450,-1.59693,0.73023,-25.3049,-41.2195,37.3780,-21.01,24.95,29.27,5,S02
8300,-17.83680,-3.34231,3.78523,-26.0976,-49.8781,39.6951,-21.74,22.48,31.10,5,S02
8320,-18.48084,-1.72622,2.07098,-19.5732,-51.2195,49.5122,-21.74,22.48,31.10,5,S02
8340,-13.21360,-1.09176,2.82755,-26.8293,-46.0366,61.1585,-21.74,22.48,31.10,5,S02
8360,-12.44985,1.18034,1.99198,-31.3415,-44.8171,36.0366,-21.93,20.37,32.66,5,S02
8380,-13.04601,1.44131,3.23457,-33.3537,-35.1220,14.0244,-21.93,20.37,32.66,5,S02
8400,-12.69645,-0.17238,3.55300,-37.6220,-37.0122,5.3049,-21.93,20.37,32.66,5,S02
8420,-11.77229,-0.89064,3.41413,-42.1951,-21.5854,6.0976,-20.73,20.18,33.85,5,S02
8440,-10.19690,-0.54827,2.42054,-47.1951,-8.1707,8.1098,-20.73,20.18,33.85,5,S02
8460,-8.76996,-0.15083,1.52750,-56.6463,-2.6829,5.3659,-20.73,20.18,33.85,5,S02
8480,-7.99903,-0.30406,1.60412,-67.0122,3.3537,-0.8537,-20.73,20.18,33.85,5,S02
8500,-7.66145,-0.85473,1.68791,-69.3293,9.4512,-5.1220,-18.17,21.10,34.86,5,S02
8520,-7.30232,-1.42455,1.69509,-63.6585,15.2439,-3.9024,-18.17,21.10,34.86,5,S02
8540,-7.57765,-1.72143,1.88903,-53.9634,18.4756,-1.0366,-18.17,21.10,34.86,5,S02
8560,-8.16902,-1.96085,2.10690,-43.2927,18.0488,2.1341,-17.16,22.02,34.77,5,S02
8580,-8.59279,-1.81959,2.13802,-33.9024,16.0366,5.6707,-17.16,22.02,34.77,5,S02
8600,-8.58082,-1.22583,1.87227,-29.8780,15.8537,9.8780,-17.16,22.02,34.77,5,S02
8620,-8.42280,-0.90740,2.08296,-27.4390,18.8415,13.2317,-16.61,22.39,34.50,5,S02
8640,-8.49702,-0.82839,2.57377,-22.9878,15.3659,12.1341,-16.61,22.39,34.50,5,S02
8660,-8.66701,-0.89304,2.78446,-19.8780,5.1829,7.5000,-16.61,22.39,34.50,5,S02
8680,-8.56645,-1.04866,2.85868,-15.5488,-3.0488,3.7805,-16.61,22.39,34.50,5,S02
8700,-8.16902,-1.16119,2.74376,-9.6341,-6.8293,1.9512,-16.33,22.29,34.59,5,S02
8720,-7.48906,-1.33596,2.42054,-2.6829,-4.6951,0.7317,-16.33,22.29,34.59,5,S02
8740,-6.60560,-1.38145,1.81241,3.4146,2.4390,-1.7683,-16.33,22.29,34.59,5,S02
8760,-6.17704,-1.44849,1.58257,10.4268,13.6585,-6.2805,-16.51,23.39,33.21,5,S02
8780,-7.24725,-1.63763,1.98719,21.0366,19.3902,-10.4878,-16.51,23.39,33.21,5,S02
8800,-8.49702,-1.90818,2.68151,33.8415,13.2317,-9.8780,-16.51,23.39,33.21,5,S02
8820,-8.01100,-1.78129,2.48279,43.1707,3.5366,-6.2195,-17.71,23.67,31.56,5,S02
8840,-6.98628,-1.27132,1.81480,46.7683,2.8049,-7.0122,-17.71,23.67,31.56,5,S02
8860,-6.43801,-0.83318,1.49877,49.5732,5.1829,-12.3171,-17.71,23.67,31.56,5,S02
8880,-6.78517,-0.54109,2.29604,50.4878,2.6829,-17.7439,-17.71,23.67,31.56,5,S02
8900,-7.07247,-0.52912,2.96163,48.5976,-3.2927,-18.5366,-18.44,23.94,30.18,5,S02
8920,-6.81629,-0.72544,3.04782,46.2195,-5.3049,-16.4024,-18.44,23.94,30.18,5,S02
8940,-6.67264,-1.01035,2.52349,44.1463,-2.4390,-15.9756,-18.44,23.94,30.18,5,S02
8960,-10.93192,-1.03190,1.69031,34.2073,-3.5366,-28.0488,-18.17,24.31,29.17,5,S02
8980,-13.14417,-0.10056,1.98958,31.0366,-8.3537,-32.8659,-18.17,24.31,29.17,5,S02
9000,-12.75152,0.99359,1.71425,26.5854,-17.2561,-28.6585,-18.17,24.31,29.17,5,S02
9020,-14.60942,1.54187,1.86508,18.1098,-18.5976,-28.4146,-17.61,24.22,28.99,5,S02
9040,-17.31965,2.07577,2.07338,11.7683,-13.9024,-34.6341,-17.61,24.22,28.99,5,S02
9060,-16.46493,0.88825,2.20267,16.7073,-20.3659,-40.9146,-17.61,24.22,28.99,5,S02
9080,-14.38915,-0.77572,2.17633,28.5366,-28.3537,-35.4268,-17.61,24.22,28.99,5,S02
9100,-11.29106,-1.56581,2.61686,35.3659,-25.0000,-12.1951,-17.71,24.13,28.90,5,S02
9120,-9.67736,0.08380,2.43730,31.4634,-12.0122,9.9390,-17.71,24.13,28.90,5,S02
9140,-9.41640,1.93212,2.09972,22.1951,5.7927,21.4634,-17.71,24.13,28.90,5,S02
9160,-9.61033,2.35589,2.12845,20.0610,18.9024,23.7195,-19.36,24.04,27.80,5,S02
9180,-9.75637,1.86029,2.03507,22.8659,19.5122,17.5000,-19.36,24.04,27.80,5,S02
9200,-9.09557,1.06303,1.74298,27.1341,17.4390,9.5122,-19.36,24.04,27.80,5,S02
9220,-8.46111,0.52433,1.38624,28.5976,17.1951,3.2317,-20.09,24.68,26.51,5,S02
9240,-8.13550,0.26815,1.21865,21.0366,16.0976,0.3049,-20.09,24.68,26.51,5,S02
9260,-8.41801,0.55545,1.33836,7.9878,13.4756,0.5488,-20.09,24.68,26.51,5,S02
9280,-8.81545,0.80924,1.47243,-2.1341,8.5976,2.5000,-20.09,24.68,26.51,5,S02
9300,-9.01178,0.92416,1.58975,-5.9756,5.0000,3.4756,-19.72,24.86,26.33,5,S02
9320,-8.95431,0.93853,1.61369,-5.9756,3.6585,1.8293,-19.72,24.86,26.33,5,S02
9340,-8.78193,0.86670,1.69988,-6.5244,2.5610,-1.2805,-19.72,24.86,26.33,5,S02
9360,-8.63349,0.76375,1.70707,-8.2927,0.9756,-3.7195,-18.99,24.86,26.06,5,S02
9380,-8.49702,0.66319,1.71425,-11.0976,-0.5488,-5.5488,-18.99,24.86,26.06,5,S02
9400,-8.53054,0.59855,1.96803,-12.8049,-2.3171,-7.3780,-18.99,24.86,26.06,5,S02
9420,-8.57842,0.52912,2.07577,-12.6220,-4.8171,-6.8293,-18.35,24.59,26.24,5,S02
9440,-8.40125,0.51236,1.90578,-11.7073,-5.2439,-3.6585,-18.35,24.59,26.24,5,S02
9460,-8.24563,0.65122,1.85790,-11.8293,-3.2927,-0.4878,-18.35,24.59,26.24,5,S02
9480,-8.38450,0.90022,2.04704,-12.8659,-1.4634,1.3415,-18.35,24.59,26.24,5,S02
9500,-8.59040,1.11570,2.04704,-14.5122,-2.4390,1.1585,-18.26,24.22,26.33,5,S02
9520,-8.46111,1.33118,1.69031,-15.3659,-3.8415,-0.1220,-18.26,24.22,26.33,5,S02
9540,-7.84101,1.59693,1.34794,-16.8902,-3.3537,1.7073,-18.26,24.22,26.33,5,S02
9560,-6.87375,1.69031,1.11570,-18.6585,-0.1829,8.1098,-17.98,23.94,26.79,5,S02
9580,-6.00705,1.73580,1.14682,-23.1707,4.1463,16.0366,-17.98,23.94,26.79,5,S02
9600,-5.49230,1.57060,1.42934,-30.9756,6.4024,22.1951,-17.98,23.94,26.79,5,S02
9620,-5.42047,1.37667,1.79805,-37.8659,5.3659,23.7195,-17.25,23.39,27.71,5,S02
9640,-5.74608,1.52271,2.17872,-43.5976,2.6829,20.7927,-17.25,23.39,27.71,5,S02
9660,-6.41407,2.27689,2.99036,-53.0488,-2.1951,17.6829,-17.25,23.39,27.71,5,S02
9680,-6.63194,2.13084,3.19626,-60.3049,-9.2073,18.2317,-17.25,23.39,27.71,5,S02
9700,-7.13951,1.35991,1.94170,-55.6098,-11.5854,17.4390,-15.41,22.57,29.45,5,S02
9720,-9.05727,0.17478,0.44772,-49.9390,-7.5610,16.5854,-15.41,22.57,29.45,5,S02
9740,-10.78827,-1.36709,0.84515,-41.5244,-9.8171,23.2317,-15.41,22.57,29.45,5,S02
9760,-13.55358,-3.10767,2.16675,-37.9268,-29.1463,32.4390,-14.86,20.73,31.10,5,S02
9780,-20.30762,-1.34554,2.58334,-35.6707,-38.1707,40.4878,-14.86,20.73,31.10,5,S02
9800,-17.75301,-2.14520,5.91128,-28.5366,-18.8415,64.6341,-14.86,20.73,31.10,5,S02
9820,-14.70998,-0.37828,3.57694,-38.7805,-36.0366,50.7927,-14.13,18.81,32.39,5,S02
9840,-13.80736,1.78129,4.16831,-45.6098,-31.4024,14.6951,-14.13,18.81,32.39,5,S02
9860,-12.21761,1.01514,3.77326,-46.5244,-37.0122,-0.4268,-14.13,18.81,32.39,5,S02
9880,-11.18092,-1.06781,3.70862,-54.3293,-21.2195,-2.5000,-14.13,18.81,32.39,5,S02
9900,-10.51294,-2.13563,3.55539,-58.4756,4.7561,-2.0122,-11.93,18.99,33.21,5,S02
9920,-8.94713,-1.88663,2.40617,-60.4878,19.3902,-4.7561,-11.93,18.99,33.21,5,S02
9940,-8.08522,-0.99599,1.73340,-65.1220,27.3171,-11.8902,-11.93,18.99,33.21,5,S02
9960,-7.68299,-0.67756,1.62327,-65.6707,32.9878,-14.3902,-8.90,20.55,32.84,5,S02
9980,-7.32865,-1.05824,1.71904,-57.9878,35.9756,-9.6951,-8.90,20.55,32.84,5,S02
10000,-7.19458,-1.47004,2.03028,-48.0488,36.1585,-4.4512,-8.90,20.55,32.84,5,S02
10020,-7.35020,-1.51074,2.11887,-37.3171,33.1098,-0.6707,-7.80,22.02,32.29,5,S02
10040,-7.83622,-1.24259,1.99916,-27.6829,27.9268,1.8293,-7.80,22.02,32.29,5,S02
10060,-8.26718,-1.02472,2.00874,-22.4390,24.0854,4.8171,-7.80,22.02,32.29,5,S02
10080,-8.50420,-1.07500,2.26731,-19.5732,21.4634,8.9024,-7.80,22.02,32.29,5,S02
10100,-8.33182,-1.41258,2.64559,-15.4878,18.2317,13.2927,-7.80,22.39,31.83,5,S02
10120,-8.04691,-1.59214,2.91135,-9.8780,13.1707,15.4878,-7.80,22.39,31.83,5,S02
10140,-7.61596,-1.55863,2.54504,-4.5122,8.6585,14.1463,-7.80,22.39,31.83,5,S02
10160,-6.91685,-1.41497,1.85072,-0.4878,9.7561,8.5976,-7.61,22.66,31.47,5,S02
10180,-6.31830,-1.37667,1.29047,3.6585,16.8293,1.1585,-7.61,22.66,31.47,5,S02
10200,-6.96473,-1.68073,2.41096,12.0122,22.4390,-4.3293,-7.61,22.66,31.47,5,S02
10220,-8.17380,-1.85072,3.54342,23.6585,15.4268,-4.3902,-8.44,22.84,30.92,5,S02
10240,-8.29112,-2.05183,3.03106,32.8659,5.5488,-1.1585,-8.44,22.84,30.92,5,S02
10260,-7.73088,-2.35589,2.35111,40.7927,8.4146,-1.6463,-8.44,22.84,30.92,5,S02
10280,-9.69652,-2.45166,5.22894,62.6829,-3.7805,-9.8780,-8.44,22.84,30.92,5,S02
10300,-9.94791,-1.73819,5.34146,72.8049,-16.0976,-4.0244,-10.09,22.39,30.37,5,S02
10320,-8.90164,-1.03669,4.16831,74.9390,-9.6951,7.0122,-10.09,22.39,30.37,5,S02
10340,-8.08282,-0.32082,3.09331,71.7073,9.1463,9.4512,-10.09,22.39,30.37,5,S02
10360,-7.79791,0.00479,2.89459,66.8293,24.7561,1.1585,-12.20,22.29,29.36,5,S02
10380,-8.30788,-0.20830,3.06458,59.0244,36.2805,-10.4878,-12.20,22.29,29.36,5,S02
10400,-9.37569,0.44772,2.41336,44.2683,35.8537,-18.9634,-12.20,22.29,29.36,5,S02
10420,-10.58716,0.76854,-0.08380,31.7683,35.3049,-23.4146,-12.02,23.76,28.17,5,S02
10440,-11.40358,-0.08859,-1.63045,27.5000,38.9024,-22.9268,-12.02,23.76,28.17,5,S02
10460,-11.48738,-0.53870,-2.55222,21.4634,31.7683,-19.9390,-12.02,23.76,28.17,5,S02
10480,-12.02368,-0.49799,-2.44927,14.8780,24.9390,-18.2927,-12.02,23.76,28.17,5,S02
10500,-13.85046,-0.80685,-0.97205,19.3293,12.5000,-17.8659,-11.56,24.13,27.80,5,S02
10520,-14.77222,-0.60813,-0.68714,34.7561,-7.8659,-12.4390,-11.56,24.13,27.80,5,S02
10540,-14.04439,-0.14126,-0.66080,47.4390,-15.9146,-1.0976,-11.56,24.13,27.80,5,S02
10560,-12.59829,0.57461,-0.72784,51.9512,-16.4634,8.9634,-13.58,22.94,27.80,5,S02
10580,-10.85531,0.76854,-0.45011,52.3171,-12.5000,14.6341,-13.58,22.94,27.80,5,S02
10600,-9.59117,0.47166,-0.11253,54.3902,-3.1707,15.1220,-13.58,22.94,27.80,5,S02
10620,-8.96150,-0.05507,0.07183,59.6951,10.9756,13.6585,-15.78,22.75,26.42,5,S02
10640,-8.67419,-0.23463,0.15802,67.9878,23.3537,12.7439,-15.78,22.75,26.42,5,S02
10660,-8.61673,0.24421,0.24421,72.4390,26.4024,12.0122,-15.78,22.75,26.42,5,S02
10680,-8.26478,1.06542,0.32082,69.3293,24.4512,11.2805,-15.78,22.75,26.42,5,S02
10700,-7.94396,1.73101,0.62489,61.4634,22.6829,8.4756,-17.98,23.21,24.40,5,S02
10720,-7.69975,1.95606,0.91698,54.4512,18.5366,5.0000,-17.98,23.21,24.40,5,S02
10740,-7.30471,1.59933,0.98162,49.6341,13.5366,3.6585,-17.98,23.21,24.40,5,S02
10760,-7.02219,0.89783,1.30484,46.5854,12.0732,2.8659,-19.08,23.21,23.39,5,S02
10780,-7.55610,0.41420,1.95846,45.0000,9.5732,-0.1220,-19.08,23.21,23.39,5,S02
10800,-8.55209,0.83558,2.77249,40.4268,-0.6707,-3.5976,-19.08,23.21,23.39,5,S02
10820,-8.82982,1.90818,2.94726,32.6220,-14.3902,-2.9878,-19.54,22.39,23.67,5,S02
10840,-9.06684,3.05021,2.36068,23.5366,-20.1829,3.2317,-19.54,22.39,23.67,5,S02
10860,-9.05727,2.28167,3.12922,19.3902,-19.5732,13.7805,-19.54,22.39,23.67,5,S02
10880,-8.36295,0.16041,4.21380,30.7927,-24.8780,19.3902,-19.54,22.39,23.67,5,S02
10900,-7.73567,-1.88184,4.58250,50.3659,-27.3780,14.8780,-21.10,20.55,23.76,5,S02
10920,-9.16500,-2.44209,2.54982,74.4512,-25.7317,3.4146,-21.10,20.55,23.76,5,S02
10940,-15.73230,2.18830,-3.80678,83.5366,-11.8902,5.0610,-21.10,20.55,23.76,5,S02
10960,-14.80574,-0.58897,-1.43173,87.9878,40.5488,56.6463,-25.05,18.90,20.46,5,S02
10980,-14.93264,-4.65912,-1.05824,105.3659,14.8780,72.8049,-25.05,18.90,20.46,5,S02
11000,-16.08664,-3.54581,-1.96325,106.6463,-24.9390,40.4268,-25.05,18.90,20.46,5,S02
11020,-14.46577,1.31681,-2.91135,101.3415,-38.2927,14.4512,-26.97,17.25,18.90,5,S02
11040,-12.24634,3.29682,-2.08056,83.5976,-45.9146,0.1220,-26.97,17.25,18.90,5,S02
11060,-10.96305,1.65918,-0.92416,70.1220,-41.7683,-15.6098,-26.97,17.25,18.90,5,S02
11080,-9.84256,-0.30167,-0.29928,67.9878,-35.4268,-34.0244,-26.97,17.25,18.90,5,S02
11100,-8.31267,-1.02711,-0.43814,67.0122,-29.6951,-47.9878,-26.70,17.98,16.97,5,S02
11120,-7.17303,-0.94571,-0.50996,58.1707,-23.2317,-57.9878,-26.70,17.98,16.97,5,S02
11140,-6.57208,-0.63686,-0.57461,50.4268,-14.3293,-62.4390,-26.70,17.98,16.97,5,S02
11160,-6.64870,-0.20830,-0.44772,49.2073,0.4878,-59.6951,-25.50,20.28,14.86,5,S02
11180,-6.86418,0.07422,-0.30406,51.0366,13.4756,-49.1463,-25.50,20.28,14.86,5,S02
11200,-7.36935,0.16759,-0.05507,48.9634,17.9268,-35.9146,-25.50,20.28,14.86,5,S02
11220,-7.79552,0.17717,0.36871,44.0244,16.7683,-24.8171,-25.32,21.28,12.94,5,S02
11240,-8.05170,0.13886,0.69192,38.5976,11.3415,-18.7805,-25.32,21.28,12.94,5,S02
11260,-8.23366,0.15323,0.87149,31.9512,6.4024,-17.0122,-25.32,21.28,12.94,5,S02
11280,-8.47308,0.12210,1.36948,22.2561,3.9024,-14.3902,-25.32,21.28,12.94,5,S02
11300,-8.82024,0.22266,2.21703,10.8537,2.4390,-9.4512,-25.14,21.93,12.75,5,S02
11320,-9.06205,0.45969,3.08852,-0.1220,-0.6707,-1.5244,-25.14,21.93,12.75,5,S02
11340,-9.03093,0.72544,3.73495,-11.0366,-3.4756,8.5366,-25.14,21.93,12.75,5,S02
11360,-8.78672,1.10133,4.06535,-24.2073,-7.0732,16.9512,-25.41,20.55,14.68,5,S02
11380,-8.18099,0.74220,2.90656,-36.8293,-12.1951,25.1829,-25.41,20.55,14.68,5,S02
11400,-8.42280,-1.69270,0.51236,-27.1341,-2.6829,35.4878,-25.41,20.55,14.68,5,S02
11420,-11.67173,-3.13162,2.82995,-19.5732,7.3780,30.5488,-25.50,18.99,15.96,5,S02
11440,-14.87996,-1.15401,4.04141,-30.9146,-15.7317,8.9634,-25.50,18.99,15.96,5,S02
11460,-14.95179,-0.55067,0.41180,-28.4146,-38.2317,-6.5854,-25.50,18.99,15.96,5,S02
11480,-13.18487,-1.41737,-1.26653,-23.8415,-37.1951,-22.9268,-25.50,18.99,15.96,5,S02
11500,-11.23599,-2.16915,-1.20428,-30.5488,-40.8537,-44.8780,-23.49,19.54,17.71,5,S02
11520,-9.29429,-2.72700,-0.80924,-32.3171,-43.7195,-44.3902,-23.49,19.54,17.71,5,S02
11540,-8.31746,-3.12683,-0.31125,-11.8902,-27.1951,-30.4878,-23.49,19.54,17.71,5,S02
11560,-8.69335,-4.03902,0.22984,21.4024,-9.3293,-16.6463,-24.04,19.63,15.96,5,S02
11580,-9.00938,-4.09887,0.29928,58.5976,0.4878,-1.5854,-24.04,19.63,15.96,5,S02
11600,-8.88009,-3.09091,-0.63446,86.8902,1.1585,9.1463,-24.04,19.63,15.96,5,S02
11620,-8.82742,0.33758,-2.06859,106.9512,10.3049,8.9634,-25.87,19.63,11.93,5,S02
11640,-9.10754,0.76136,-1.81959,112.1951,17.4390,8.0488,-25.87,19.63,11.93,5,S02
11660,-9.62948,0.21069,-1.14203,116.0366,20.3659,9.5732,-25.87,19.63,11.93,5,S02
11680,-9.83059,-0.19154,-0.81642,114.5732,17.2561,11.7073,-25.87,19.63,11.93,5,S02
11700,-9.98861,0.09337,-0.55306,109.5122,13.5976,13.0488,-26.97,19.45,7.80,5,S02
11720,-9.69652,0.55306,-0.35195,106.2195,9.5732,14.8171,-26.97,19.45,7.80,5,S02
11740,-9.20331,0.93134,-0.31603,103.9634,5.0000,14.8171,-26.97,19.45,7.80,5,S02
11760,-8.65504,1.38145,-0.23463,97.8049,3.7805,13.2317,-27.71,19.08,4.59,5,S02
11780,-8.46829,1.89142,0.00479,87.5000,7.4390,10.1829,-27.71,19.08,4.59,5,S02
11800,-8.50420,2.18351,0.41420,74.8781,12.6220,5.8537,-27.71,19.08,4.59,5,S02
11820,-8.39168,1.98000,0.92656,61.0976,15.2439,0.4878,-27.80,18.99,2.48,5,S02
11840,-8.34379,1.19231,1.51074,50.4878,16.5244,-5.1829,-27.80,18.99,2.48,5,S02
11860,-8.38210,0.53870,1.82199,43.1707,16.7683,-10.0000,-27.80,18.99,2.48,5,S02
11880,-8.50899,0.53151,1.89381,36.5854,16.3415,-12.1341,-27.80,18.99,2.48,5,S02
11900,-8.52096,0.96726,1.87945,28.7805,13.0488,-11.3415,-27.06,19.54,1.19,5,S02
11920,-8.54730,1.35033,1.90100,20.7317,6.2195,-9.7561,-27.06,19.54,1.19,5,S02
11940,-8.79630,1.70228,1.44370,13.3537,-0.9756,-8.7805,-27.06,19.54,1.19,5,S02
11960,-9.32781,2.56658,0.70390,1.2195,-5.3049,-6.2195,-26.51,19.91,1.83,5,S02
11980,-9.61033,2.18591,1.47483,-10.0610,-3.7195,2.2561,-26.51,19.91,1.83,5,S02
12000,-9.12909,0.33040,2.94487,-2.8659,-2.8049,12.4390,-26.51,19.91,1.83,5,S02
12020,-9.22725,-1.78368,3.11486,14.9390,-7.9878,15.9756,-26.42,19.27,2.11,5,S02
12040,-12.80419,-1.15640,0.40941,32.0122,-9.3902,17.1341,-26.42,19.27,2.11,5,S02
12060,-14.42985,-0.44772,-1.53229,40.1829,13.0488,37.6829,-26.42,19.27,2.11,5,S02
12080,-12.77307,-2.44448,-0.67995,50.7317,27.8049,56.5854,-26.42,19.27,2.11,5,S02
12100,-11.24317,-4.24731,-2.08296,74.4512,5.4878,46.1585,-27.43,17.34,0.00,5,S02
12120,-10.54885,-3.31836,-3.43807,89.7561,-7.0732,22.3780,-27.43,17.34,0.00,5,S02
12140,-10.66617,0.05028,-3.65116,86.5244,-6.4024,1.7683,-27.43,17.34,0.00,5,S02
12160,-10.94390,2.67672,-3.07655,64.3902,-9.6951,-10.8537,-26.97,18.26,-1.56,5,S02
12180,-11.00854,2.25055,-1.82678,44.0244,-13.0488,-19.5122,-26.97,18.26,-1.56,5,S02
12200,-10.46027,0.65841,-1.00556,33.3537,-20.0610,-26.2805,-26.97,18.26,-1.56,5,S02
12220,-9.64863,-0.28970,-0.82121,25.0610,-25.1829,-33.1098,-26.06,19.45,-1.19,5,S02
12240,-8.58082,-0.64404,-0.80206,18.2927,-21.5244,-37.5610,-26.06,19.45,-1.19,5,S02
12260,-8.17141,-0.66798,-0.59137,15.4878,-13.2927,-39.8780,-26.06,19.45,-1.19,5,S02
12280,-8.16662,-0.84515,-0.45969,17.2561,-6.2805,-37.8659,-26.06,19.45,-1.19,5,S02
12300,-7.94636,-1.24498,-0.39983,22.6220,0.7927,-33.2927,-25.05,20.55,-1.65,5,S02
12320,-7.98706,-1.50595,-0.32801,31.2805,6.6463,-29.1463,-25.05,20.55,-1.65,5,S02
12340,-8.07564,-1.53947,-0.27533,40.4878,10.7927,-25.0610,-25.05,20.55,-1.65,5,S02
12360,-8.24803,-1.29526,-0.17717,48.4146,12.5610,-20.7317,-24.59,21.19,-3.76,5,S02
12380,-8.58561,-0.95768,-0.06943,54.2683,12.5000,-16.5244,-24.59,21.19,-3.76,5,S02
12400,-9.02375,-0.71587,0.10056,57.4390,10.5488,-12.6829,-24.59,21.19,-3.76,5,S02
12420,-9.42597,-0.54588,0.39983,58.0488,7.6220,-9.6341,-24.31,21.38,-5.78,5,S02
12440,-9.39964,-0.30885,0.71826,56.0366,3.9024,-6.5854,-24.31,21.38,-5.78,5,S02
12460,-9.07642,-0.14605,0.93134,52.0732,0.3049,-3.5976,-24.31,21.38,-5.78,5,S02
12480,-9.06445,0.01676,1.30963,46.5854,-2.1951,-1.1585,-24.31,21.38,-5.78,5,S02
12500,-9.31105,0.32082,1.69749,38.4146,-6.3415,1.0976,-24.50,21.65,-6.61,5,S02
12520,-9.21049,0.50757,1.98000,28.5976,-11.0976,4.5122,-24.50,21.65,-6.61,5,S02
12540,-8.95431,0.35913,2.18591,19.2073,-14.3293,8.2317,-24.50,21.65,-6.61,5,S02
12560,-8.66462,0.04070,2.00634,11.0976,-16.1585,11.7683,-25.41,21.19,-5.87,5,S02
12580,-8.78672,-0.16520,1.46525,5.1829,-13.5366,14.8780,-25.41,21.19,-5.87,5,S02
12600,-9.29429,-0.62489,0.86431,4.2683,-7.6829,15.4878,-25.41,21.19,-5.87,5,S02
12620,-10.53928,-0.74939,1.68791,3.9634,-5.3659,12.6829,-26.33,21.01,-5.50,5,S02
12640,-12.22719,0.40941,2.28886,-3.6585,-18.2317,4.6341,-26.33,21.01,-5.50,5,S02
12660,-13.23275,1.01035,0.45011,-11.3415,-34.7561,-4.6341,-26.33,21.01,-5.50,5,S02
12680,-13.29261,-0.10774,-0.56264,-16.0366,-36.5854,-14.5732,-26.33,21.01,-5.50,5,S02
12700,-11.88961,-1.07979,-1.07021,-17.6220,-41.7073,-29.6341,-26.15,22.39,-3.58,5,S02
12720,-9.02375,-1.78368,-1.69988,-18.9024,-51.4024,-38.5366,-26.15,22.39,-3.58,5,S02
12740,-7.64947,-2.00634,-1.18034,-21.4024,-50.0610,-38.2927,-26.15,22.39,-3.58,5,S02
12760,-8.37971,-2.30083,-0.38307,-16.1585,-44.0244,-32.4390,-25.78,23.58,-2.48,5,S02
12780,-9.90721,-2.66714,0.20351,3.4756,-35.3049,-20.0610,-25.78,23.58,-2.48,5,S02
12800,-10.45548,-2.90177,0.76614,28.4146,-24.8780,-4.3902,-25.78,23.58,-2.48,5,S02
12820,-10.12029,-2.55461,0.60094,51.8293,-20.9756,5.4878,-25.96,23.49,-4.95,5,S02
12840,-9.42118,-1.56581,-0.47166,70.1220,-21.9512,6.4024,-25.96,23.49,-4.95,5,S02
12860,-8.85136,-0.54109,-1.01993,79.6341,-13.7805,4.7561,-25.96,23.49,-4.95,5,S02
12880,-8.98065,0.25618,-0.70390,81.6463,-4.4512,4.4512,-25.96,23.49,-4.95,5,S02
12900,-9.34696,0.56982,-0.06225,79.0854,-1.2805,6.0366,-25.60,23.21,-7.98,5,S02
12920,-9.16979,0.52672,0.21787,74.3293,-2.5000,9.6951,-25.60,23.21,-7.98,5,S02
12940,-8.69095,0.24900,0.77812,61.2195,-0.0610,13.2317,-25.60,23.21,-7.98,5,S02
12960,-8.64067,0.26576,0.97444,55.1220,-0.3049,12.0732,-25.32,22.66,-10.00,5,S02
12980,-8.69335,0.62968,1.23062,47.5000,-0.6098,9.6341,-25.32,22.66,-10.00,5,S02
13000,-8.54969,0.78769,1.38864,39.5732,0.3659,7.7439,-25.32,22.66,-10.00,5,S02
13020,-8.48984,0.71826,1.55863,33.4756,3.2317,5.4268,-25.05,22.48,-11.10,5,S02
13040,-8.51857,0.46448,1.76692,28.4146,6.2805,2.5610,-25.05,22.48,-11.10,5,S02
13060,-8.54251,0.15323,1.93691,24.3902,7.3780,-0.6098,-25.05,22.48,-11.10,5,S02
13080,-8.53772,0.10056,2.18112,21.3415,7.6829,-3.5976,-25.05,22.48,-11.10,5,S02
13100,-8.63349,0.26815,2.53067,19.4512,7.3780,-6.1585,-24.68,22.57,-12.48,5,S02
13120,-8.76517,0.40941,2.67672,20.3049,6.1585,-7.6220,-24.68,22.57,-12.48,5,S02
13140,-8.73405,0.41659,2.66475,23.0488,3.7805,-7.8049,-24.68,22.57,-12.48,5,S02
13160,-9.00938,0.44532,2.63362,26.3415,0.3049,-7.3171,-23.94,22.48,-13.67,5,S02
13180,-9.73722,1.82678,1.81241,21.0976,-4.8780,-4.7561,-23.94,22.48,-13.67,5,S02
13200,-10.60871,3.36625,1.44370,4.3293,-5.6098,6.8293,-23.94,22.48,-13.67,5,S02
13220,-10.22324,2.51152,2.78446,-1.7073,-3.4756,23.1707,-24.95,21.65,-13.58,5,S02
13240,-9.41161,0.65362,3.34709,5.1829,-8.9024,28.1707,-24.95,21.65,-13.58,5,S02
13260,-9.71328,-0.79487,3.12683,12.9268,-8.8415,20.3049,-24.95,21.65,-13.58,5,S02
13280,-11.85369,-0.70390,1.41737,20.6707,-1.7073,12.9268,-24.95,21.65,-13.58,5,S02
13300,-12.79222,0.10774,0.45011,24.1463,12.5610,21.8293,-24.77,20.73,-14.95,5,S02
13320,-11.03727,-0.62489,0.09337,26.0366,15.9756,34.8780,-24.77,20.73,-14.95,5,S02
13340,-9.88805,-2.07338,-0.53870,37.9878,10.4878,29.5122,-24.77,20.73,-14.95,5,S02
13360,-9.80665,-2.62644,-0.86431,53.2317,7.0732,13.5976,-24.13,19.63,-17.34,5,S02
13380,-10.40281,-1.26893,-0.71587,57.5610,3.2927,0.4878,-24.13,19.63,-17.34,5,S02
13400,-11.00854,0.49799,-0.26097,47.1951,-0.1829,-6.3415,-24.13,19.63,-17.34,5,S02
13420,-10.45548,0.83558,0.08380,35.8537,-4.7561,-8.5976,-22.57,20.00,-18.62,5,S02
13440,-9.88326,-0.10056,0.42617,32.5610,-6.8293,-14.0854,-22.57,20.00,-18.62,5,S02
13460,-9.43794,-1.17076,0.62968,36.0366,-5.3659,-21.6463,-22.57,20.00,-18.62,5,S02
13480,-8.75799,-1.47004,0.50518,40.0610,-5.3659,-28.9024,-22.57,20.00,-18.62,5,S02
13500,-8.15465,-1.22344,0.05028,42.2561,-4.6951,-33.2317,-20.28,20.73,-20.28,5,S02
13520,-8.05649,-0.92416,-0.18196,44.5122,-0.6098,-35.2439,-20.28,20.73,-20.28,5,S02
13540,-8.48505,-0.76375,-0.25139,48.2927,3.7805,-35.6707,-20.28,20.73,-20.28,5,S02
13560,-8.93277,-1.08697,0.10774,52.3781,5.8537,-34.6341,-17.43,21.19,-22.20,5,S02
13580,-9.31584,-1.50595,0.62728,57.1951,4.2073,-32.6829,-17.43,21.19,-22.20,5,S02
13600,-9.45710,-1.55623,0.83558,61.8293,2.3171,-31.2805,-17.43,21.19,-22.20,5,S02
13620,-9.29429,-1.30484,0.86191,64.3902,2.5000,-30.2439,-14.04,21.56,-24.13,5,S02
13640,-9.04290,-0.94092,0.87628,65.4268,3.7195,-28.9024,-14.04,21.56,-24.13,5,S02
13660,-8.89446,-0.64165,1.00317,65.6098,5.1829,-26.8293,-14.04,21.56,-24.13,5,S02
13680,-8.86333,-0.50278,1.34554,65.6707,7.1951,-23.2927,-14.04,21.56,-24.13,5,S02
13700,-8.96150,-0.39265,1.75495,65.1220,8.2317,-18.2317,-11.01,21.38,-25.78,5,S02
13720,-8.88249,-0.15802,2.00155,62.5000,7.3171,-11.5854,-11.01,21.38,-25.78,5,S02
13740,-8.46829,0.00239,2.13802,57.4390,5.8537,-3.8415,-11.01,21.38,-25.78,5,S02
13760,-8.20493,-0.17957,2.32238,51.8902,4.8780,2.1341,-9.08,20.73,-26.79,5,S02
13780,-8.28633,-0.50039,2.29843,49.4512,4.2683,5.4268,-9.08,20.73,-26.79,5,S02
13800,-8.59997,-0.55545,1.72143,47.4390,5.1220,8.6585,-9.08,20.73,-26.79,5,S02
13820,-8.81306,-1.07260,0.66080,46.1585,8.9634,12.3780,-7.43,19.91,-27.71,5,S02
13840,-9.76834,-1.60172,0.92416,52.1341,13.1707,13.8415,-7.43,19.91,-27.71,5,S02
13860,-11.18332,0.19393,2.27689,44.6341,4.3902,8.9634,-7.43,19.91,-27.71,5,S02
13880,-11.81539,2.15478,2.21224,21.7073,-15.2439,4.5732,-7.43,19.91,-27.71,5,S02
13900,-12.89996,1.98958,1.16358,4.0244,-27.0732,2.3780,-6.79,20.55,-26.88,5,S02
13920,-13.11544,0.17957,0.07422,-6.2805,-28.9634,-3.8415,-6.79,20.55,-26.88,5,S02
13940,-11.31500,-1.49159,-1.12288,-13.0488,-28.4146,-14.0854,-6.79,20.55,-26.88,5,S02
13960,-8.61673,-2.48997,-1.71185,-11.2805,-23.4146,-20.0610,-6.06,21.19,-26.24,5,S02
13980,-7.61596,-2.78925,-1.13246,-6.1585,-15.2439,-24.7561,-6.06,21.19,-26.24,5,S02
14000,-8.27436,-2.61926,-0.29928,0.9146,-11.5244,-27.7439,-6.06,21.19,-26.24,5,S02
14020,-9.61511,-2.32956,0.27294,13.0488,-9.5732,-22.9878,-4.31,21.38,-26.61,5,S02
14040,-10.05325,-2.41814,0.38547,31.1585,-4.3293,-11.4024,-4.31,21.38,-26.61,5,S02
14060,-9.68215,-2.70066,0.06225,53.5976,2.1341,-2.9268,-4.31,21.38,-26.61,5,S02
14080,-9.40921,-2.37984,-0.66080,75.7927,8.7195,-2.6220,-4.31,21.38,-26.61,5,S02
14100,-9.53371,-1.31442,-0.88825,86.5244,16.6463,-3.2317,-0.73,20.64,-28.17,5,S02
14120,-9.86890,-0.16281,-0.64165,86.8902,20.8537,-0.4878,-0.73,20.64,-28.17,5,S02
14140,-9.87369,0.33519,-0.35913,84.4512,20.0000,4.3293,-0.73,20.64,-28.17,5,S02
14160,-9.38527,0.35195,-0.13168,82.1951,17.0732,9.5122,2.02,19.91,-28.90,5,S02
14180,-8.90643,0.29209,0.15083,78.4146,14.1463,13.3537,2.02,19.91,-28.90,5,S02
14200,-8.72208,0.23942,0.42138,73.3537,11.8293,14.4512,2.02,19.91,-28.90,5,S02
14220,-8.94713,0.32322,0.62728,68.6585,9.5122,13.4146,4.22,19.45,-28.99,5,S02
14240,-8.93037,0.56264,0.66080,63.9634,6.7073,11.8902,4.22,19.45,-28.99,5,S02
14260,-8.79151,1.00796,0.93613,51.0366,-4.1463,5.8537,4.22,19.45,-28.99,5,S02
14280,-8.76996,1.17076,1.13006,40.6707,-8.3537,2.6829,4.22,19.45,-28.99,5,S02
14300,-8.67419,1.07260,1.31681,29.4512,-7.5610,1.0366,5.87,19.63,-28.53,5,S02
14320,-8.58561,0.63207,1.60412,19.9390,-3.4146,0.0610,5.87,19.63,-28.53,5,S02
14340,-8.76038,0.01915,1.90100,15.7317,1.1585,-0.4268,5.87,19.63,-28.53,5,S02
14360,-9.21289,-0.35674,2.18351,17.3171,4.3902,-0.7317,6.51,19.36,-28.44,5,S02
14380,-9.51216,-0.34716,2.41336,20.1220,4.2073,-1.0976,6.51,19.36,-28.44,5,S02
14400,-9.46907,-0.20111,2.60250,23.7805,-0.0610,-0.8537,6.51,19.36,-28.44,5,S02
14420,-9.15064,0.30646,2.24576,27.5610,-5.4878,0.3659,7.71,19.36,-27.98,5,S02
14440,-9.16022,1.26414,1.30005,23.5976,-8.1098,4.0244,7.71,19.36,-27.98,5,S02
14460,-9.69652,2.32238,0.96965,10.9146,-7.6829,9.9390,7.71,19.36,-27.98,5,S02
14480,-10.16578,1.89381,1.75016,-0.6707,-10.6707,16.2805,7.71,19.36,-27.98,5,S02
14500,-11.39640,0.31125,2.36308,3.1707,-12.0122,18.7805,7.25,19.72,-27.52,5,S02
14520,-13.36443,-0.99359,1.28329,11.8902,-6.1585,23.1098,7.25,19.72,-27.52,5,S02
14540,-13.38119,-2.01831,0.68714,20.4268,7.5610,36.4634,7.25,19.72,-27.52,5,S02
14560,-10.32859,-2.41336,-0.14126,38.3537,13.7195,47.8659,7.43,19.27,-27.52,5,S02
14580,-7.75243,-1.67355,-1.89621,54.5122,8.7805,42.0732,7.43,19.27,-27.52,5,S02
14600,-7.71412,0.18435,-3.47399,60.7927,10.1829,24.2683,7.43,19.27,-27.52,5,S02
14620,-9.61272,2.45885,-3.64398,50.4878,9.9390,8.8415,8.99,18.72,-27.34,5,S02
14640,-11.08515,2.77249,-2.31040,28.5366,1.0976,2.8049,8.99,18.72,-27.34,5,S02
14660,-11.27908,1.10852,-0.90022,12.4390,-9.5732,-0.7317,8.99,18.72,-27.34,5,S02
14680,-10.75475,-0.82839,-0.01915,6.5854,-15.0000,-9.6341,8.99,18.72,-27.34,5,S02
14700,-9.81623,-1.58496,0.09098,7.7439,-16.1585,-21.5854,10.00,19.08,-26.61,5,S02
14720,-9.05966,-1.21147,-0.07422,8.5366,-18.1098,-30.7927,10.00,19.08,-26.61,5,S02
14740,-8.81066,-0.64883,-0.11492,8.7195,-19.8780,-34.2073,10.00,19.08,-26.61,5,S02
14760,-8.64067,-0.45011,-0.02155,10.7927,-17.1341,-33.7805,11.47,19.27,-26.15,5,S02
14780,-8.47787,-0.54588,0.20590,14.8780,-10.0000,-33.0488,11.47,19.27,-26.15,5,S02
14800,-8.57124,-0.62249,0.38307,18.3537,-3.6585,-33.2927,11.47,19.27,-26.15,5,S02
14820,-8.72208,-0.57221,0.46448,19.4512,0.0000,-32.4390,13.12,18.72,-26.15,5,S02
14840,-8.75799,-0.39504,0.43814,19.2073,1.8293,-29.5732,13.12,18.72,-26.15,5,S02
14860,-8.83221,-0.20351,0.60094,18.2317,2.7439,-24.7561,13.12,18.72,-26.15,5,S02
14880,-8.86812,-0.22505,0.87867,17.6829,2.5610,-18.7195,13.12,18.72,-26.15,5,S02
14900,-8.77954,-0.31603,1.25935,17.5610,2.3780,-13.2317,14.13,18.53,-26.06,5,S02
14920,-8.68856,-0.43814,1.66636,18.1098,2.5610,-9.0854,14.13,18.53,-26.06,5,S02
14940,-8.64786,-0.55306,2.03028,19.4512,2.9878,-5.9146,14.13,18.53,-26.06,5,S02
14960,-8.82263,-0.33279,2.45645,18.7195,1.8902,-2.1951,14.68,18.44,-25.69,5,S02
14980,-8.84658,0.10774,2.70545,14.2073,-2.8049,3.4756,14.68,18.44,-25.69,5,S02
15000,-8.77236,0.05028,2.83234,7.5000,-8.7195,10.6098,14.68,18.44,-25.69,5,S02
15020,-9.12430,-0.55785,2.48997,6.8902,-10.9146,14.6341,14.40,19.17,-25.23,5,S02
15040,-9.04769,-1.51314,1.39343,9.7561,-7.8049,16.3415,14.40,19.17,-25.23,5,S02
15060,-9.44034,-2.06620,1.54426,10.6707,-2.9878,13.8415,14.40,19.17,-25.23,5,S02
15080,-10.30464,-1.06303,2.06859,12.6220,-7.2561,3.0488,14.40,19.17,-25.23,5,S02
15100,-11.10191,0.15323,1.24498,7.8049,-22.3780,-5.9146,14.68,19.72,-24.40,5,S02
15120,-11.88961,0.39265,0.34716,2.6220,-33.4146,-13.2317,14.68,19.72,-24.40,5,S02
15140,-12.52646,0.44053,0.61292,0.7927,-38.1707,-25.6707,14.68,19.72,-24.40,5,S02
15160,-11.57596,0.37589,-0.41659,-4.3902,-44.9390,-35.1220,15.50,20.83,-23.21,5,S02
15180,-10.43632,0.34477,-0.89783,-18.1707,-39.8171,-28.6585,15.50,20.83,-23.21,5,S02
15200,-9.44273,0.19872,-0.96965,-33.0488,-27.7439,-14.2073,15.50,20.83,-23.21,5,S02
15220,-9.01178,-0.43814,-0.14605,-39.0244,-19.3902,-2.2561,14.13,21.47,-23.21,5,S02
15240,-9.74919,-0.90022,0.81163,-30.6098,-13.9634,0.8537,14.13,21.47,-23.21,5,S02
15260,-10.03889,-1.25935,1.06542,-13.7195,-11.7073,-0.0610,14.13,21.47,-23.21,5,S02
15280,-9.67976,-1.20668,1.06781,1.9512,-10.2439,-0.7317,14.13,21.47,-23.21,5,S02
15300,-9.28471,-0.84755,0.81163,12.5610,-9.6951,1.2195,14.86,21.93,-22.75,5,S02
15320,-9.04290,-0.45250,0.63925,18.5976,-7.1951,5.7927,14.86,21.93,-22.75,5,S02
15340,-8.81306,-0.21308,0.58419,22.8049,-2.2561,9.6951,14.86,21.93,-22.75,5,S02
15360,-8.67898,-0.16759,0.50278,26.4024,1.8293,11.0366,15.23,22.02,-22.39,5,S02
15380,-8.61673,-0.16759,0.42856,29.4512,4.3902,10.6098,15.23,22.02,-22.39,5,S02
15400,-8.67180,-0.10056,0.54348,30.2439,6.2195,9.5732,15.23,22.02,-22.39,5,S02
15420,-8.65025,-0.05746,0.78530,29.5732,7.1951,8.1707,15.96,22.11,-22.11,5,S02
15440,-8.48505,-0.14605,0.85952,30.0610,7.9878,6.1585,15.96,22.11,-22.11,5,S02
15460,-8.53772,-0.25139,0.96726,32.4390,10.6098,3.4756,15.96,22.11,-22.11,5,S02
15480,-9.16022,0.12450,1.37188,31.7073,11.1585,1.9512,15.96,22.11,-22.11,5,S02
15500,-9.51695,0.47645,1.50835,28.7805,7.3171,3.3537,16.88,22.02,-21.74,5,S02
15520,-9.08121,0.47884,1.27850,27.8659,5.3049,4.6951,16.88,22.02,-21.74,5,S02
15540,-8.42998,0.30885,1.14203,26.2805,6.5244,1.6463,16.88,22.02,-21.74,5,S02
15560,-7.99424,0.05028,1.35033,24.6341,6.4634,-4.6341,17.89,21.74,-21.47,5,S02
15580,-7.27837,-0.52433,1.53229,26.4634,-4.6341,-10.9756,17.89,21.74,-21.47,5,S02
15600,-6.70616,-0.02634,1.34315,29.5732,-8.4146,-12.4390,17.89,21.74,-21.47,5,S02
15620,-6.34224,1.01514,0.90261,26.8902,-15.6707,-10.9146,18.90,21.83,-20.37,5,S02
15640,-5.87537,1.81480,0.39025,17.8049,-22.0122,-4.9390,18.90,21.83,-20.37,5,S02
15660,-5.19063,2.20745,0.04310,6.7073,-18.7805,3.7195,18.90,21.83,-20.37,5,S02
15680,-5.24330,2.37026,0.43814,-8.1707,-10.7317,11.5244,18.90,21.83,-20.37,5,S02
15700,-6.23690,2.49236,2.49476,-36.4634,-9.8780,15.8537,17.98,22.20,-20.09,5,S02
15720,-7.15387,2.32477,2.59053,-52.9878,-13.9634,15.1220,17.98,22.20,-20.09,5,S02
15740,-7.46751,2.20267,1.61369,-64.9390,-8.6585,10.0000,17.98,22.20,-20.09,5,S02
15760,-6.90967,1.24977,0.13647,-68.0488,1.0366,5.0000,15.87,22.29,-21.10,5,S02
15780,-7.02698,0.18675,-1.89621,-66.5854,5.0610,7.1341,15.87,22.29,-21.10,5,S02
15800,-8.06367,-0.67995,-2.35111,-67.9878,11.4024,18.9634,15.87,22.29,-21.10,5,S02
15820,-9.48583,-1.91536,-0.65841,-68.4146,8.2927,31.0366,13.21,22.39,-21.93,5,S02
15840,-15.69160,-2.60729,2.95205,-75.1829,-17.8049,31.4024,13.21,22.39,-21.93,5,S02
15860,-21.30121,1.40061,2.24337,-77.6829,-22.3780,37.1341,13.21,22.39,-21.93,5,S02
15880,-16.69477,-1.21386,4.16352,-70.3049,-14.8780,65.1829,13.21,22.39,-21.93,5,S02
15900,-15.67005,-0.12929,3.05500,-64.9390,-36.0976,41.2195,9.63,23.94,-20.92,5,S02
15920,-15.09544,0.09816,3.57694,-53.5976,-35.3049,13.6585,9.63,23.94,-20.92,5,S02
15940,-13.51527,-0.24421,3.37822,-51.6463,-39.6951,-2.8049,9.63,23.94,-20.92,5,S02
15960,-12.20803,-0.49321,3.24654,-47.3171,-25.4268,-16.0976,9.91,24.40,-20.18,5,S02
15980,-10.23761,-0.56743,2.69827,-45.9756,-13.1707,-25.6098,9.91,24.40,-20.18,5,S02
16000,-8.47069,-0.22505,2.42054,-50.7317,2.6829,-31.7683,9.91,24.40,-20.18,5,S02
16020,-7.88171,0.39744,1.73819,-56.1585,18.2927,-31.4024,9.63,23.49,-21.47,5,S02
16040,-7.66145,0.30885,1.64721,-59.5732,33.9024,-22.9268,9.63,23.49,-21.47,5,S02
16060,-7.12514,-0.62968,1.57778,-57.5000,44.2073,-9.7561,9.63,23.49,-21.47,5,S02
16080,-6.49786,-1.33118,1.47004,-53.3537,45.0610,0.1829,9.63,23.49,-21.47,5,S02
16100,-6.01184,-1.01993,1.09654,-49.2683,37.9878,5.5488,8.26,22.20,-23.12,5,S02
16120,-5.49469,-0.69192,1.47243,-45.5488,28.2317,9.3902,8.26,22.20,-23.12,5,S02
16140,-4.30238,-1.49638,1.84354,-35.2439,18.8415,12.2561,8.26,22.20,-23.12,5,S02
16160,-2.88741,-3.19387,0.81163,-14.8171,13.9634,10.9756,8.07,22.02,-23.58,5,S02
16180,-2.86347,-3.53384,-0.75657,1.1585,14.4512,-0.7317,8.07,22.02,-23.58,5,S02
16200,-3.82115,-2.66954,-0.23703,5.4268,18.5366,-11.4024,8.07,22.02,-23.58,5,S02
16220,-4.56814,-2.22182,0.98641,16.8293,14.4512,-13.4756,9.82,21.83,-23.67,5,S02
16240,-4.69982,-1.66158,1.37906,33.4756,1.8293,-10.0610,9.82,21.83,-23.67,5,S02
16260,-5.46117,-1.33836,-0.00718,43.2317,-3.9634,-6.3415,9.82,21.83,-23.67,5,S02
16280,-8.63349,-0.58419,-0.96007,40.1829,-2.8049,-4.8780,9.82,21.83,-23.67,5,S02
16300,-12.33253,-0.61052,0.52433,22.4390,-12.1341,-0.3659,11.10,22.20,-23.12,5,S02
16320,-20.39620,0.90022,0.55306,30.2439,-14.2683,2.7439,11.10,22.20,-23.12,5,S02
16340,-18.61013,1.87945,0.03591,66.7683,-5.6707,0.0610,11.10,22.20,-23.12,5,S02
16360,-17.03714,3.33033,2.89459,68.2317,-21.6463,-5.7317,13.94,22.57,-21.65,5,S02
16380,-18.55506,2.80840,3.04542,65.6707,-22.6829,-2.1341,13.94,22.57,-21.65,5,S02
16400,-18.13129,1.74777,3.11964,45.0000,-12.7439,11.6463,13.94,22.57,-21.65,5,S02
16420,-16.22790,1.48919,2.76530,34.9390,-8.2927,12.6829,14.86,22.84,-21.10,5,S02
16440,-14.00129,2.11408,1.66397,38.4756,-2.3780,9.8780,14.86,22.84,-21.10,5,S02
16460,-11.26232,2.76291,1.07500,36.7073,-1.0976,14.0854,14.86,22.84,-21.10,5,S02
16480,-8.87531,2.54264,0.49560,28.1707,1.0976,19.7561,14.86,22.84,-21.10,5,S02
16500,-7.95114,1.80283,0.43574,16.2805,13.6585,15.0000,15.41,23.12,-21.28,5,S02
16520,-7.57525,0.95289,0.27054,5.1220,28.4146,4.5732,15.41,23.12,-21.28,5,S02
16540,-7.23767,0.14605,-0.14126,-1.5244,37.5610,-3.3537,15.41,23.12,-21.28,5,S02
16560,-6.69658,-0.22027,-0.09098,-3.2317,40.9756,-8.7195,16.42,21.74,-22.75,5,S02
16580,-6.24647,-0.13647,-0.09816,-0.1220,38.0488,-13.4146,16.42,21.74,-22.75,5,S02
16600,-6.10282,-0.21308,0.04070,6.0976,36.2805,-15.6707,16.42,21.74,-22.75,5,S02
16620,-6.39012,-0.32322,0.52672,10.0610,33.5976,-17.0732,17.71,20.55,-23.39,5,S02
16640,-6.70855,-0.21069,1.34075,9.8780,24.1463,-18.9634,17.71,20.55,-23.39,5,S02
16660,-6.44040,0.25857,1.69988,8.5366,7.1341,-19.7561,17.71,20.55,-23.39,5,S02
16680,-6.21295,0.75896,1.31202,6.7683,-8.9024,-18.2927,17.71,20.55,-23.39,5,S02
16700,-6.13155,1.70467,0.69432,0.8537,-15.5488,-12.3780,18.44,21.01,-22.84,5,S02
16720,-6.12437,2.68869,-0.31125,-9.6951,-13.8415,-2.9878,18.44,21.01,-22.84,5,S02
16740,-6.23211,3.55060,-0.75896,-25.8537,-7.3171,5.2439,18.44,21.01,-22.84,5,S02
16760,-6.08367,3.11725,-1.22583,-41.4634,2.8049,9.5732,16.97,21.19,-24.22,5,S02
16780,-5.86819,1.55144,-1.35751,-54.8171,19.5122,8.9634,16.97,21.19,-24.22,5,S02
16800,-5.75806,-0.07661,-0.66080,-68.4756,27.6220,6.6463,16.97,21.19,-24.22,5,S02
16820,-7.23288,0.20111,-0.63686,-76.3415,12.8659,7.7439,13.85,21.65,-25.69,5,S02
16840,-9.70609,0.49321,-0.49081,-77.9268,-3.4756,17.5610,13.85,21.65,-25.69,5,S02
16860,-12.20085,-2.47321,-0.62010,-59.9390,-15.4878,29.4512,13.85,21.65,-25.69,5,S02
16880,-19.78329,-3.02627,-1.95127,-38.4146,-32.4390,30.0610,13.85,21.65,-25.69,5,S02
16900,-18.43296,-3.55778,0.02634,-28.0488,-34.4512,45.5488,11.47,23.85,-24.68,5,S02
16920,-15.05474,3.28484,1.28329,-22.6829,-50.9146,22.5610,11.47,23.85,-24.68,5,S02
16940,-16.12256,3.02867,1.93930,-22.3780,-44.2073,9.1463,11.47,23.85,-24.68,5,S02
16960,-14.74349,0.38786,2.45885,-32.5000,-43.4756,2.0122,10.92,25.32,-23.21,5,S02
16980,-12.82095,-1.87945,2.85149,-34.7561,-38.9024,-10.3049,10.92,25.32,-23.21,5,S02
17000,-11.21205,-2.54743,2.52588,-31.8902,-33.8415,-24.8780,10.92,25.32,-23.21,5,S02
17020,-10.41478,-1.65200,1.82678,-29.1463,-23.8415,-32.5000,11.65,25.50,-22.66,5,S02
17040,-9.59596,-0.09577,1.48919,-30.3659,-10.4878,-29.8171,11.65,25.50,-22.66,5,S02
17060,-8.58800,0.50278,1.23541,-32.4390,0.6098,-22.0732,11.65,25.50,-22.66,5,S02
17080,-7.49864,0.20830,0.94810,-32.1341,9.1463,-15.7317,11.65,25.50,-22.66,5,S02
17100,-6.70137,-0.35674,0.89304,-32.9878,16.4634,-12.0122,11.47,24.86,-23.49,5,S02
17120,-6.42843,-0.73502,0.82600,-32.8659,23.2317,-10.6707,11.47,24.86,-23.49,5,S02
17140,-6.71574,-0.91219,0.84755,-30.7927,28.1098,-8.1707,11.47,24.86,-23.49,5,S02
17160,-7.08923,-0.90980,1.01754,-29.6951,28.1707,-2.5000,10.64,23.76,-24.77,5,S02
17180,-7.08444,-0.90740,1.23541,-28.8415,22.8049,4.3902,10.64,23.76,-24.77,5,S02
17200,-6.64391,-0.87388,1.41018,-25.7927,15.2439,9.6951,10.64,23.76,-24.77,5,S02
17220,-6.41407,-0.57461,1.73819,-21.7683,7.5000,12.0732,9.54,23.76,-25.14,5,S02
17240,-6.20577,-0.35434,1.63285,-16.6463,0.3049,14.8171,9.54,23.76,-25.14,5,S02
17260,-5.65989,-0.81882,1.67355,-8.1707,0.6098,18.0488,9.54,23.76,-25.14,5,S02
17280,-5.14035,-1.62566,1.47962,4.4512,6.6463,18.3537,9.54,23.76,-25.14,5,S02
17300,-5.20739,-2.02071,1.34075,15.1829,12.8659,13.1098,9.54,23.85,-25.41,5,S02
17320,-6.07888,-1.79805,1.34315,27.4390,15.1829,5.8537,9.54,23.85,-25.41,5,S02
17340,-6.79474,-1.25696,1.13964,39.6951,14.9390,2.8049,9.54,23.85,-25.41,5,S02
17360,-7.16106,-0.88346,1.20668,46.7073,14.2683,3.2317,11.38,23.39,-25.32,5,S02
17380,-7.32865,-0.57700,2.08774,46.4634,3.8415,1.3415,11.38,23.39,-25.32,5,S02
17400,-7.38851,-1.01275,2.32956,41.1585,-16.7073,-3.6585,11.38,23.39,-25.32,5,S02
17420,-8.94713,-1.52032,1.70946,42.9268,-30.0610,-13.1098,13.30,24.22,-23.58,5,S02
17440,-10.89601,-0.85473,0.37110,39.2073,-34.9390,-22.1951,13.30,24.22,-23.58,5,S02
17460,-16.05552,0.47166,1.23780,22.0122,-35.6707,-26.1585,13.30,24.22,-23.58,5,S02
17480,-20.23819,3.45962,-0.39265,27.5000,-41.5854,-22.3780,13.30,24.22,-23.58,5,S02
17500,-16.78575,4.54419,2.62405,13.9024,-57.7439,-1.7683,14.13,25.69,-21.56,5,S02
17520,-14.31493,1.89860,2.43730,6.2805,-59.4512,20.1829,14.13,25.69,-21.56,5,S02
17540,-13.74272,0.21069,4.10127,-12.6220,-42.9268,30.4268,14.13,25.69,-21.56,5,S02
17560,-14.65491,1.00317,4.02226,-31.0976,-29.8171,23.0488,12.66,26.42,-20.28,5,S02
17580,-14.11861,2.11408,3.16035,-21.4634,-9.8171,11.5244,12.66,26.42,-20.28,5,S02
17600,-11.89439,2.42054,1.64482,-10.7927,-0.1220,6.5244,12.66,26.42,-20.28,5,S02
17620,-9.74919,2.07338,0.53391,-7.0732,13.9024,5.7927,13.12,25.69,-21.56,5,S02
17640,-8.23127,1.38864,-0.05507,-9.8780,30.3659,4.9390,13.12,25.69,-21.56,5,S02
17660,-7.79073,0.79248,-0.15083,-21.4634,40.8537,2.5000,13.12,25.69,-21.56,5,S02
17680,-7.87692,0.60334,-0.07422,-33.7195,43.8415,0.6707,13.12,25.69,-21.56,5,S02
17700,-7.47709,0.57461,-0.09098,-40.0610,40.4268,2.3780,12.48,24.40,-23.39,5,S02
17720,-7.31668,0.60813,-0.17957,-41.9512,35.1829,3.2927,12.48,24.40,-23.39,5,S02
17740,-7.50343,0.76136,-0.15802,-42.1951,30.1829,2.8659,12.48,24.40,-23.39,5,S02
17760,-7.96311,0.72305,0.14605,-41.2805,23.7805,1.3415,11.83,23.67,-24.50,5,S02
17780,-8.41801,0.24421,0.76136,-36.3415,14.8780,-0.9756,11.83,23.67,-24.50,5,S02
17800,-8.46111,-0.34237,1.27372,-25.0610,4.2073,-3.9024,11.83,23.67,-24.50,5,S02
17820,-7.92241,-0.66080,1.48680,-13.2927,-4.9390,-7.5000,12.57,23.67,-24.31,5,S02
17840,-6.83784,-0.54827,1.27850,-2.0122,-8.5976,-10.0610,12.57,23.67,-24.31,5,S02
17860,-5.74848,0.01437,0.87867,9.1463,-4.8171,-9.2073,12.57,23.67,-24.31,5,S02
17880,-5.12120,0.66319,0.80685,16.1585,4.3902,-5.0610,12.57,23.67,-24.31,5,S02
17900,-5.44681,1.02232,0.71587,20.2439,11.8293,-2.8659,13.85,22.84,-24.59,5,S02
17920,-5.69820,1.05824,0.30646,23.3537,14.3293,-2.5000,13.85,22.84,-24.59,5,S02
17940,-6.32548,1.94409,0.49560,15.3049,13.7805,-2.6829,13.85,22.84,-24.59,5,S02
17960,-6.98628,3.01191,0.79248,-3.6585,5.3659,-0.4878,14.04,22.48,-24.95,5,S02
17980,-6.96234,3.24175,0.53391,-19.8780,-7.8659,3.9024,14.04,22.48,-24.95,5,S02
18000,-6.22014,1.96085,-0.01197,-27.3780,-11.8902,6.3415,14.04,22.48,-24.95,5,S02
18020,-7.75003,1.29526,-0.05986,-30.7317,-10.1829,3.8415,12.84,23.30,-25.14,5,S02
18040,-10.25197,1.00556,0.22027,-43.3537,-19.5732,6.5854,12.84,23.30,-25.14,5,S02
18060,-12.10030,-1.80762,0.34716,-40.9146,-29.2683,16.4024,12.84,23.30,-25.14,5,S02
18080,-18.13129,-3.30400,-1.32399,-32.3780,-24.8171,20.6098,12.84,23.30,-25.14,5,S02
18100,-16.45056,-3.70383,1.49877,-42.4390,4.3293,40.0610,10.09,23.76,-25.50,5,S02
18120,-15.43542,-1.34075,2.28646,-59.8781,-10.8537,43.1098,10.09,23.76,-25.50,5,S02
18140,-17.24065,2.13323,1.61130,-53.7805,-10.9756,23.3537,10.09,23.76,-25.50,5,S02
18160,-17.34838,1.96803,1.59454,-46.0976,-7.9268,13.4756,8.53,24.40,-25.41,5,S02
18180,-15.34683,-0.44772,1.72143,-48.5366,-16.5244,6.0366,8.53,24.40,-25.41,5,S02
18200,-13.16572,-2.59771,2.00155,-44.8171,-16.3415,-4.2683,8.53,24.40,-25.41,5,S02
18220,-10.94150,-3.00233,1.66876,-38.4146,-13.8415,-15.1829,8.62,24.59,-25.78,5,S02
18240,-8.54491,-0.80206,0.83079,-34.0244,2.5610,-22.8659,8.62,24.59,-25.78,5,S02
18260,-7.98945,-0.20830,0.62968,-31.0366,13.9634,-17.4390,8.62,24.59,-25.78,5,S02
18280,-7.55610,-0.33040,0.66319,-27.6220,21.5854,-12.0122,8.62,24.59,-25.78,5,S02
18300,-7.18261,-0.58897,0.68474,-25.5488,24.0244,-9.3902,8.26,23.30,-26.97,5,S02
18320,-7.13472,-0.81163,0.67516,-23.7805,23.9024,-9.6341,8.26,23.30,-26.97,5,S02
18340,-7.47709,-0.93374,0.73741,-20.9146,22.7439,-9.0244,8.26,23.30,-26.97,5,S02
18360,-7.95354,-1.00556,0.86670,-18.1098,20.8537,-4.7561,8.17,22.48,-27.98,5,S02
18380,-8.24084,-1.05584,1.13964,-16.4024,19.3293,2.5000,8.17,22.48,-27.98,5,S02
18400,-8.32703,-0.96007,1.55623,-14.5732,16.0366,9.2073,8.17,22.48,-27.98,5,S02
18420,-7.86735,-0.64883,1.49877,-11.8293,9.2683,13.2927,7.52,22.20,-28.44,5,S02
18440,-6.83545,-0.29928,1.20668,-9.1463,5.4268,14.3293,7.52,22.20,-28.44,5,S02
18460,-6.39491,-0.25618,1.36230,-5.9756,6.3415,13.9024,7.52,22.20,-28.44,5,S02
18480,-6.46434,-0.30646,1.26174,-0.8537,8.4756,16.1585,7.52,22.20,-28.44,5,S02
18500,-6.04057,-0.86910,1.16837,3.2927,13.6585,22.0122,7.16,21.83,-28.99,5,S02
18520,-5.92086,-1.89381,1.52989,13.7805,21.0366,23.9634,7.16,21.83,-28.99,5,S02
18540,-6.18901,-2.33195,1.16358,29.0854,24.4512,18.4756,7.16,21.83,-28.99,5,S02
18560,-6.69658,-1.58736,0.23463,37.6220,24.7561,10.1829,8.53,20.73,-29.82,5,S02
18580,-7.19218,-0.64643,0.11971,39.3293,24.8780,5.7317,8.53,20.73,-29.82,5,S02
18600,-7.80510,-0.33998,1.25217,43.5366,18.5366,5.7317,8.53,20.73,-29.82,5,S02
18620,-8.03973,-0.40223,1.82199,49.0244,1.8293,5.4878,10.55,20.55,-29.82,5,S02
18640,-7.42203,-0.51715,1.48440,47.8049,-13.6585,1.6463,10.55,20.55,-29.82,5,S02
18660,-7.67342,-1.00317,0.76375,45.1829,-19.2683,-7.8049,10.55,20.55,-29.82,5,S02
18680,-9.63666,-0.61531,0.44053,47.3781,-21.6463,-19.8780,10.55,20.55,-29.82,5,S02
18700,-11.18332,0.05746,0.55067,34.4512,-31.1585,-23.5976,12.94,21.28,-28.99,5,S02
18720,-16.97250,1.50116,1.24020,21.9512,-32.6220,-21.2805,12.94,21.28,-28.99,5,S02
18740,-18.54788,1.42694,-0.37828,42.6220,-20.3049,-18.8415,12.94,21.28,-28.99,5,S02
18760,-15.96214,1.43173,1.32399,45.0000,-33.4756,-22.1341,15.32,22.29,-28.07,5,S02
18780,-14.48971,0.38547,0.87867,46.2805,-38.5366,-21.8293,15.32,22.29,-28.07,5,S02
18800,-14.60224,0.50039,2.06380,32.2561,-25.0000,-5.0000,15.32,22.29,-28.07,5,S02
18820,-14.82490,1.69988,1.67834,14.2683,-17.4390,7.3171,15.69,22.75,-27.89,5,S02
18840,-14.07072,1.79086,1.19471,14.5732,-4.5122,10.0610,15.69,22.75,-27.89,5,S02
18860,-12.09311,1.47722,0.13647,26.2195,-1.5854,7.1951,15.69,22.75,-27.89,5,S02
18880,-9.56005,0.91459,-0.41659,36.7073,0.8537,7.0122,15.69,22.75,-27.89,5,S02
18900,-7.70454,0.34955,-0.56743,42.9878,9.8780,5.6098,17.52,22.39,-28.07,5,S02
18920,-6.82108,-0.22745,-0.54348,42.6829,18.7195,0.7317,17.52,22.39,-28.07,5,S02
18940,-7.05811,-0.44772,-0.18914,37.7439,24.5122,-5.1220,17.52,22.39,-28.07,5,S02
18960,-7.16824,-0.50757,-0.06943,34.1463,24.2683,-7.1341,19.36,21.28,-28.53,5,S02
18980,-7.47709,-0.47405,-0.02634,32.6829,20.1220,-9.2073,19.36,21.28,-28.53,5,S02
19000,-7.94157,-0.35674,-0.05028,35.6098,15.9756,-12.5610,19.36,21.28,-28.53,5,S02
19020,-8.42520,-0.26576,0.10295,41.3415,10.9756,-17.0732,21.83,20.55,-28.07,5,S02
19040,-8.34140,-0.36392,0.40462,46.0976,4.5122,-21.4024,21.83,20.55,-28.07,5,S02
19060,-7.77397,-0.38068,0.48123,49.5732,-1.1585,-25.0610,21.83,20.55,-28.07,5,S02
19080,-6.92643,-0.46448,0.27054,52.8049,-1.0366,-26.7073,21.83,20.55,-28.07,5,S02
19100,-6.21535,-0.16281,0.17957,54.8781,3.6585,-26.0366,24.68,19.54,-27.25,5,S02
19120,-6.40928,1.11570,0.58897,48.9024,6.0976,-22.1341,24.68,19.54,-27.25,5,S02
19140,-6.51462,2.44209,0.49081,37.2561,2.5000,-11.5854,24.68,19.54,-27.25,5,S02
19160,-5.77721,2.78446,-0.27054,30.7317,2.2561,3.5366,25.23,19.45,-27.06,5,S02
19180,-5.69820,3.21302,0.60573,19.2073,6.8293,14.5122,25.23,19.45,-27.06,5,S02
19200,-6.46195,4.03184,1.74777,-7.3780,-1.7683,16.6463,25.23,19.45,-27.06,5,S02
19220,-7.35978,3.92410,0.92656,-26.5854,-14.6951,13.4146,22.94,19.91,-27.89,5,S02
19240,-7.32386,2.83234,-0.44532,-34.9390,-16.2195,6.2195,22.94,19.91,-27.89,5,S02
19260,-6.49786,1.12527,-1.45089,-37.7439,-18.3537,0.9146,22.94,19.91,-27.89,5,S02
19280,-7.46751,0.75178,-2.66475,-46.0366,-22.1951,2.5610,22.94,19.91,-27.89,5,S02
19300,-8.73884,0.07422,-2.11408,-56.6463,-18.5366,16.7073,19.63,20.64,-28.53,5,S02
19320,-11.76990,-5.06134,0.09577,-56.8293,-21.5244,31.8902,19.63,20.64,-28.53,5,S02
19340,-21.57655,-2.11408,-0.89304,-64.9390,-35.5488,36.4634,19.63,20.64,-28.53,5,S02
19360,-18.87110,-2.95923,3.52905,-73.2317,-24.0244,70.1829,14.04,23.39,-28.07,5,S02
19380,-15.34204,0.12210,-0.23224,-79.5732,-69.3293,67.3171,14.04,23.39,-28.07,5,S02
19400,-15.83286,2.82037,1.02472,-70.4268,-46.8902,34.8171,14.04,23.39,-28.07,5,S02
19420,-15.12896,1.37906,1.24738,-79.3902,-44.4512,16.0366,11.47,23.67,-27.80,5,S02
19440,-13.35486,-1.40540,1.82199,-83.6585,-31.7683,5.1220,11.47,23.67,-27.80,5,S02
19460,-11.54963,-3.52666,2.67672,-78.4146,-19.3902,-10.2439,11.47,23.67,-27.80,5,S02
19480,-10.62786,-3.45962,2.80361,-69.2683,-6.8902,-27.5610,11.47,23.67,-27.80,5,S02
19500,-10.52730,-1.62806,2.33435,-55.8537,7.3780,-36.7683,11.38,22.66,-28.62,5,S02
19520,-9.61511,-0.36631,1.58975,-43.5366,15.6707,-30.4268,11.38,22.66,-28.62,5,S02
19540,-8.38210,-0.16520,1.12527,-36.6463,19.6951,-19.3902,11.38,22.66,-28.62,5,S02
19560,-7.52976,-0.51475,1.05824,-35.0610,25.4268,-12.5000,10.83,21.47,-30.00,5,S02
19580,-7.36217,-0.50996,0.88107,-37.7439,31.6463,-13.2927,10.83,21.47,-30.00,5,S02
19600,-7.59441,-0.22984,1.02232,-42.0732,28.4756,-9.5122,10.83,21.47,-30.00,5,S02
19620,-7.62793,-0.42617,1.34794,-44.0854,23.7195,-1.8293,9.17,20.37,-30.83,5,S02
19640,-7.75961,-0.87628,1.76932,-40.6098,18.1707,6.1585,9.17,20.37,-30.83,5,S02
19660,-7.82425,-1.00078,1.64721,-34.8171,12.2561,12.4390,9.17,20.37,-30.83,5,S02
19680,-7.68778,-0.81642,1.17555,-30.9756,10.9756,18.9024,9.17,20.37,-30.83,5,S02
19700,-7.63990,-0.87628,1.29766,-27.6220,15.6098,24.9390,7.25,19.63,-31.19,5,S02
19720,-7.52258,-1.12527,1.54187,-21.0976,16.3415,26.0366,7.25,19.63,-31.19,5,S02
19740,-7.15148,-1.43892,1.43652,-12.8049,13.4146,19.3902,7.25,19.63,-31.19,5,S02
19760,-7.45554,-1.38145,1.55623,-3.2927,11.8902,6.8902,6.42,18.81,-31.38,5,S02
19780,-8.11874,-1.41976,1.67115,8.2317,6.7683,-1.3415,6.42,18.81,-31.38,5,S02
19800,-8.02297,-1.74058,1.45567,22.8659,0.4268,-1.3415,6.42,18.81,-31.38,5,S02
19820,-7.31189,-1.83875,1.31921,37.3780,-1.3415,-0.1829,8.17,18.62,-31.47,5,S02
19840,-7.08444,-1.61369,2.06859,48.1707,-1.2195,-0.8537,8.17,18.62,-31.47,5,S02
19860,-6.71334,-1.24738,1.91776,57.8049,-6.4024,-0.6707,8.17,18.62,-31.47,5,S02
19880,-6.02860,-0.54827,0.65362,61.6463,-7.1951,-0.8537,8.17,18.62,-31.47,5,S02
19900,-6.02860,0.43574,-0.10774,55.0000,3.3537,-2.1341,10.18,18.35,-31.19,5,S02
19920,-6.95755,0.43335,0.54348,45.3659,12.9268,0.1220,10.18,18.35,-31.19,5,S02
19940,-8.37971,-1.06542,0.95529,43.9024,9.4512,3.9024,10.18,18.35,-31.19,5,S02
19960,-10.58237,-2.21703,0.23703,50.7927,-3.3537,-0.3049,11.38,17.89,-31.19,5,S02
19980,-12.63420,-0.58419,0.01437,44.6951,-11.8293,-5.6707,11.38,17.89,-31.19,5,S02
20000,-14.31972,0.33519,0.48842,30.3659,-22.5000,-0.1829,11.38,17.89,-31.19,5,S02
20020,-18.53830,2.61686,-0.75657,30.0610,-28.9634,7.7439,11.65,18.99,-30.55,5,S02
20040,-16.86954,2.35350,0.04549,18.7805,-23.6585,15.1220,11.65,18.99,-30.55,5,S02
20060,-15.36838,1.64960,1.26414,2.9268,-30.0000,17.6829,11.65,18.99,-30.55,5,S02
20080,-14.56632,0.87867,1.78847,-7.3171,-31.9512,19.1463,11.65,18.99,-30.55,5,S02
20100,-13.83849,2.10929,1.72622,-32.8659,-33.2927,21.7073,9.82,20.37,-29.54,5,S02
20120,-12.74194,2.41336,0.87149,-52.8049,-20.5488,20.3049,9.82,20.37,-29.54,5,S02
20140,-11.69807,1.76213,-0.00958,-56.3415,6.7683,13.0488,9.82,20.37,-29.54,5,S02
20160,-10.03889,1.13485,-0.93134,-54.1463,18.7805,8.2317,7.61,19.72,-30.46,5,S02
20180,-8.19535,0.34477,-1.37188,-47.6829,21.3415,7.9878,7.61,19.72,-30.46,5,S02
20200,-6.90967,-0.45250,-1.58736,-41.9512,24.9390,5.4878,7.61,19.72,-30.46,5,S02
20220,-6.65349,-0.77093,-0.84515,-42.2561,26.0976,0.6707,6.51,18.81,-31.38,5,S02
20240,-7.01501,-0.77333,-0.27294,-41.9512,20.6707,-4.2683,6.51,18.81,-31.38,5,S02
20260,-7.54892,-0.65841,0.13168,-37.6829,11.2195,-8.9024,6.51,18.81,-31.38,5,S02
20280,-8.10677,-0.65601,0.24421,-30.2439,1.5854,-12.3780,6.51,18.81,-31.38,5,S02
20300,-8.60237,-0.81642,0.27294,-19.2683,-1.8293,-15.5488,6.33,18.53,-31.28,5,S02
20320,-9.03332,-0.79966,0.45969,-9.6341,-1.4024,-20.6098,6.33,18.53,-31.28,5,S02
20340,-9.27274,-0.81882,0.67516,-1.7073,-1.0976,-25.7317,6.33,18.53,-31.28,5,S02
20360,-9.34696,-0.90022,0.85234,5.9146,0.7927,-30.0610,7.71,18.26,-31.19,5,S02
20380,-9.69412,-0.87867,0.97923,13.3537,4.0244,-31.4634,7.71,18.26,-31.19,5,S02
20400,-10.11071,-0.58419,1.09415,19.6951,7.3171,-27.6829,7.71,18.26,-31.19,5,S02
20420,-10.24000,-0.35913,1.22823,24.3293,8.3537,-20.1220,9.63,17.80,-31.28,5,S02
20440,-10.08917,-0.23703,1.38145,31.2195,7.1341,-13.3537,9.63,17.80,-31.28,5,S02
20460,-9.76355,-0.13408,1.41737,40.7927,3.5366,-9.8171,9.63,17.80,-31.28,5,S02
20480,-9.39006,0.14126,1.40540,47.9878,-1.9512,-8.4756,9.63,17.80,-31.28,5,S02
20500,-9.42358,0.48363,1.59933,51.2195,-9.1463,-7.5610,12.20,18.07,-30.73,5,S02
20520,-9.30866,0.96247,1.77171,52.9268,-17.3780,-4.5122,12.20,18.07,-30.73,5,S02
20540,-8.65265,1.45089,1.65679,50.8537,-23.9024,1.1585,12.20,18.07,-30.73,5,S02
20560,-7.75482,1.95846,1.08218,43.6585,-25.5488,6.0366,13.67,18.90,-29.72,5,S02
20580,-6.56490,1.80762,0.34477,37.7439,-18.4756,10.3049,13.67,18.90,-29.72,5,S02
20600,-5.76763,1.61848,0.07183,33.5976,-5.0000,14.5732,13.67,18.90,-29.72,5,S02
20620,-5.55215,1.83875,0.25618,22.6829,5.1829,20.3659,13.58,17.98,-30.00,5,S02
20640,-5.04219,1.70467,0.26336,10.8537,11.5854,27.9268,13.58,17.98,-30.00,5,S02
20660,-4.64475,1.31921,0.30885,4.6341,17.8049,31.4024,13.58,17.98,-30.00,5,S02
20680,-5.78679,2.20267,1.87705,-9.1463,17.7439,26.5854,13.58,17.98,-30.00,5,S02
20700,-7.13233,3.23935,2.87065,-28.2927,0.7317,20.6098,11.74,17.43,-30.28,5,S02
20720,-7.22570,2.91135,1.43892,-36.0366,-16.4024,16.8902,11.74,17.43,-30.28,5,S02
20740,-6.11240,1.06781,-0.35913,-27.5000,-15.6098,11.9512,11.74,17.43,-30.28,5,S02
20760,-5.76284,0.15323,0.08619,-20.7317,-13.9024,6.1585,10.64,17.43,-30.28,5,S02
20780,-6.86178,0.67038,0.17478,-25.9756,-27.2561,9.7561,10.64,17.43,-30.28,5,S02
20800,-8.47547,0.12929,0.79248,-29.3902,-33.0488,23.4146,10.64,17.43,-30.28,5,S02
20820,-16.09861,-3.55778,3.02627,-17.6829,-32.9268,33.8415,8.07,18.53,-29.91,5,S02
20840,-24.21735,-2.29604,2.35111,-26.5244,-31.0976,56.8902,8.07,18.53,-29.91,5,S02
20860,-17.02517,-4.65193,4.72376,-16.7683,-12.3780,93.1707,8.07,18.53,-29.91,5,S02
20880,-14.56393,-0.34716,2.66954,-13.5976,-32.2561,52.9268,8.07,18.53,-29.91,5,S02
20900,-15.33247,2.25534,3.67749,-11.4634,-28.9024,-18.1098,8.07,19.54,-29.08,5,S02
20920,-13.22557,-0.27294,3.69186,-17.8659,-19.7561,-15.3659,8.07,19.54,-29.08,5,S02
20940,-11.76750,-1.97761,3.38061,-20.4268,-9.0244,-18.9024,8.07,19.54,-29.08,5,S02
20960,-9.67258,-1.91536,1.84114,-19.6341,-0.7927,-35.7317,8.72,19.36,-29.08,5,S02
20980,-7.98227,-0.63686,0.56503,-19.3293,7.8659,-43.2927,8.72,19.36,-29.08,5,S02
21000,-7.49864,-0.06704,0.25379,-20.7317,17.1951,-39.1463,8.72,19.36,-29.08,5,S02
21020,-7.05092,-0.21787,0.37350,-18.9634,25.1829,-32.0122,9.17,18.35,-30.18,5,S02
21040,-6.64391,-0.73023,0.63446,-15.1829,29.2683,-25.4268,9.17,18.35,-30.18,5,S02
21060,-6.95516,-1.06303,0.83797,-11.6463,29.8780,-23.0488,9.17,18.35,-30.18,5,S02
21080,-7.69257,-1.24498,0.97444,-8.0488,27.3780,-21.7683,9.17,18.35,-30.18,5,S02
21100,-8.37013,-1.47004,1.20668,-3.7805,21.8902,-17.6829,9.82,17.16,-30.83,5,S02
21120,-8.77236,-1.71425,1.58017,1.7683,16.5854,-9.9390,9.82,17.16,-30.83,5,S02
21140,-8.95671,-1.71664,1.96085,8.3537,9.6951,-1.3415,9.82,17.16,-30.83,5,S02
21160,-8.61194,-1.49877,2.18112,14.6951,3.6585,4.3902,10.37,17.34,-31.01,5,S02
21180,-8.11634,-1.22823,2.35350,22.8659,1.9512,5.1220,10.37,17.34,-31.01,5,S02
21200,-7.49864,-1.18034,2.05183,32.1341,3.2927,2.1951,10.37,17.34,-31.01,5,S02
21220,-7.08444,-1.08697,1.40779,38.9634,6.7683,-0.5488,12.11,17.06,-30.83,5,S02
21240,-7.08923,-1.10612,0.98641,41.8902,12.2561,-2.3171,12.11,17.06,-30.83,5,S02
21260,-6.81150,-1.75016,0.73263,45.6707,18.7195,-3.5976,12.11,17.06,-30.83,5,S02
21280,-6.16268,-2.06859,0.15562,52.0122,26.0976,-5.1829,12.11,17.06,-30.83,5,S02
21300,-5.77003,-1.74058,-0.12929,51.4024,33.6585,-6.0366,14.22,15.50,-31.10,5,S02
21320,-5.93762,-1.34794,0.37350,50.4268,36.4634,-7.1341,14.22,15.50,-31.10,5,S02
21340,-6.19619,-0.61770,0.76375,49.0854,28.6585,-11.3415,14.22,15.50,-31.10,5,S02
21360,-6.49786,0.17957,0.90501,43.4756,17.8659,-14.0854,16.15,14.13,-31.19,5,S02
21380,-6.96473,0.27533,1.17795,35.6098,10.5488,-9.1463,16.15,14.13,-31.19,5,S02
21400,-7.17542,-0.45250,1.65200,23.1707,3.1098,0.1829,16.15,14.13,-31.19,5,S02
21420,-8.04452,-1.86748,1.17316,10.4268,-8.7195,3.0488,15.96,14.59,-31.01,5,S02
21440,-10.41478,-2.49955,-0.12210,4.1463,-17.1951,-5.3049,15.96,14.59,-31.01,5,S02
21460,-14.15931,-3.51708,-0.27773,-6.0366,-14.2683,-15.7927,15.96,14.59,-31.01,5,S02
21480,-21.78245,-0.10774,-2.40617,9.5732,-10.2439,-20.1829,15.96,14.59,-31.01,5,S02
21500,-19.79526,2.24337,-0.03831,29.5732,-20.1220,-11.6463,16.70,14.77,-30.28,5,S02
21520,-16.34043,3.28484,0.12450,29.2073,-42.4390,3.7805,16.70,14.77,-30.28,5,S02
21540,-13.67807,1.68073,1.00317,27.5610,-34.2683,16.0976,16.70,14.77,-30.28,5,S02
21560,-14.00369,1.62327,1.60412,2.5000,-26.8902,13.6585,16.42,16.70,-29.36,5,S02
21580,-13.99411,1.73819,1.59933,-9.2683,-11.0366,7.9268,16.42,16.70,-29.36,5,S02
21600,-12.29901,1.87227,1.12049,6.3415,4.4512,5.4878,16.42,16.70,-29.36,5,S02
21620,-9.39245,0.84515,0.22984,29.6341,9.3293,9.2073,17.98,16.33,-28.81,5,S02
21640,-7.53695,-0.12450,-0.16281,46.0366,14.2683,8.4146,17.98,16.33,-28.81,5,S02
21660,-6.68940,-0.50518,-0.27054,48.5976,18.9634,3.1707,17.98,16.33,-28.81,5,S02
21680,-6.96473,0.07183,-0.12210,39.2683,24.2683,-0.6707,17.98,16.33,-28.81,5,S02
21700,-7.61835,0.60573,0.16281,26.5854,23.9024,1.0976,19.36,15.60,-28.62,5,S02
21720,-7.98227,0.63446,0.21787,17.2561,16.7073,5.5488,19.36,15.60,-28.62,5,S02
21740,-8.24803,0.67756,-0.08380,14.5122,7.9268,6.5854,19.36,15.60,-28.62,5,S02
21760,-8.47069,0.61531,-0.07422,15.9146,4.0854,3.4756,19.82,15.69,-28.26,5,S02
21780,-8.42041,0.44772,0.30406,17.3780,2.2561,-1.4024,19.82,15.69,-28.26,5,S02
21800,-8.23605,0.47166,0.70629,17.0732,0.1829,-5.7317,19.82,15.69,-28.26,5,S02
21820,-8.03015,0.63207,0.89783,13.9634,-1.3415,-7.6829,20.83,15.69,-27.80,5,S02
21840,-7.60159,0.58658,0.95289,10.2439,-1.0976,-6.3415,20.83,15.69,-27.80,5,S02
21860,-7.01262,0.55545,0.84994,8.5366,2.5610,-2.2561,20.83,15.69,-27.80,5,S02
21880,-6.74686,0.79487,0.89543,5.6707,8.1707,2.4390,20.83,15.69,-27.80,5,S02
21900,-6.73728,1.06063,0.72065,1.9512,12.0122,6.9512,20.92,15.14,-27.80,5,S02
21920,-6.56969,0.90022,0.12210,-3.2927,15.7927,11.7073,20.92,15.14,-27.80,5,S02
21940,-6.80432,0.96247,0.17478,-12.6220,19.0854,15.4878,20.92,15.14,-27.80,5,S02
21960,-7.28316,1.81720,0.79487,-20.1220,10.7927,21.3415,19.45,15.23,-28.35,5,S02
21980,-7.60638,2.86347,1.38385,-32.1341,-10.8537,30.6098,19.45,15.23,-28.35,5,S02
22000,-6.85460,3.10767,0.49081,-42.9268,-32.9268,36.1585,19.45,15.23,-28.35,5,S02
22020,-6.21295,2.69587,0.03591,-54.6341,-33.0488,31.7683,17.16,16.42,-28.53,5,S02
22040,-6.27041,2.05423,0.43574,-62.1341,-18.4756,18.7805,17.16,16.42,-28.53,5,S02
22060,-6.87615,1.80762,1.76213,-70.2439,-19.6951,7.1341,17.16,16.42,-28.53,5,S02
22080,-7.72848,1.55623,1.09415,-80.5488,-37.0122,0.4268,17.16,16.42,-28.53,5,S02
22100,-9.71088,0.81642,-1.01035,-80.8537,-37.1341,0.7927,15.05,17.34,-28.53,5,S02
22120,-12.11227,-1.93452,0.54827,-70.5488,-25.7927,11.3415,15.05,17.34,-28.53,5,S02
22140,-21.46162,0.18675,1.42694,-65.6707,-27.0122,21.2195,15.05,17.34,-28.53,5,S02
22160,-19.29248,-0.69192,2.72939,-68.5366,2.7439,56.0976,11.38,18.07,-28.81,5,S02
22180,-14.15452,-0.16520,2.49955,-72.1951,-14.5122,54.6341,11.38,18.07,-28.81,5,S02
22200,-14.87757,2.79643,3.12683,-68.9634,-26.2195,-1.2195,11.38,18.07,-28.81,5,S02
22220,-15.61738,1.32160,4.47476,-49.3293,-29.8780,-28.0488,12.29,19.08,-27.98,5,S02
22240,-12.44267,-3.87142,3.79242,-0.4878,-22.3171,-28.1707,12.29,19.08,-27.98,5,S02
22260,-10.44111,-3.50511,2.65038,17.8049,-18.3537,-39.2683,12.29,19.08,-27.98,5,S02
22280,-8.53772,-1.24020,0.12929,24.3293,-14.5732,-50.6707,12.29,19.08,-27.98,5,S02
22300,-7.09402,0.96726,-0.40941,18.7805,2.5000,-50.3659,15.41,18.90,-27.34,5,S02
22320,-6.31830,1.35991,-0.53391,15.4878,14.9390,-40.5488,15.41,18.90,-27.34,5,S02
22340,-5.79397,0.31603,0.08619,16.3415,21.5854,-28.5366,15.41,18.90,-27.34,5,S02
22360,-6.09803,-0.69432,0.87628,19.7561,23.5976,-18.9634,17.25,17.52,-27.71,5,S02
22380,-6.89291,-1.05824,1.13964,22.5610,18.8415,-11.8902,17.25,17.52,-27.71,5,S02
22400,-7.40048,-0.81882,1.02232,23.3537,10.7317,-6.7683,17.25,17.52,-27.71,5,S02
22420,-7.24485,-0.78051,1.30005,23.0488,3.5366,-2.9268,18.81,17.34,-27.16,5,S02
22440,-7.00304,-0.97683,1.63285,24.3293,-2.2561,-0.3659,18.81,17.34,-27.16,5,S02
22460,-6.21774,-0.96965,0.93853,22.3171,-3.8415,1.2195,18.81,17.34,-27.16,5,S02
22480,-5.30076,-1.10612,0.57940,16.2805,2.8659,0.2439,18.81,17.34,-27.16,5,S02
22500,-5.00628,-1.25217,1.52271,13.7805,8.5366,-5.9146,20.00,16.88,-26.88,5,S02
22520,-5.24809,-1.37427,1.75256,17.0732,8.9024,-14.2073,20.00,16.88,-26.88,5,S02
22540,-5.93044,-1.81959,1.64003,29.2683,16.7683,-18.4756,20.00,16.88,-26.88,5,S02
22560,-6.93840,-1.80762,1.53947,38.8415,29.5122,-14.5732,22.20,15.14,-26.61,5,S02
22580,-7.65187,-1.63763,2.88741,44.6341,38.4146,-4.5732,22.20,15.14,-26.61,5,S02
22600,-7.34781,-1.51792,2.76530,53.4756,29.6951,1.7683,22.20,15.14,-26.61,5,S02
22620,-7.61835,-1.62806,1.72622,59.6341,21.5854,-3.4756,25.50,13.58,-25.41,5,S02
22640,-9.28711,-1.52989,-0.59376,64.0244,20.2439,-17.1341,25.50,13.58,-25.41,5,S02
22660,-10.98939,0.39744,-1.57778,56.2195,19.2073,-26.1585,25.50,13.58,-25.41,5,S02
22680,-12.81856,0.99599,-1.05345,45.1829,4.3293,-22.0732,25.50,13.58,-25.41,5,S02
22700,-17.60456,1.65679,-0.22505,35.0000,-16.9512,-19.8780,28.35,12.11,-23.85,5,S02
22720,-17.64287,-0.04549,-1.77889,42.9268,-29.8171,-15.9756,28.35,12.11,-23.85,5,S02
22740,-15.79694,-0.88825,-0.05746,57.1951,-33.2927,-11.9512,28.35,12.11,-23.85,5,S02
22760,-14.31254,-0.85952,1.68073,56.7683,-33.9634,-4.9390,30.92,12.66,-21.01,5,S02
22780,-14.16649,0.75657,2.14520,44.8780,-27.5610,9.3293,30.92,12.66,-21.01,5,S02
22800,-14.04439,1.99676,1.69509,26.5244,-13.4146,23.5366,30.92,12.66,-21.01,5,S02
22820,-12.70363,2.20506,1.09415,13.9634,-2.3780,31.0366,31.19,13.76,-20.28,5,S02
22840,-10.69969,1.93452,0.91698,10.9146,3.2317,30.0000,31.19,13.76,-20.28,5,S02
22860,-8.67659,1.03908,0.84276,13.8415,12.9268,24.8780,31.19,13.76,-20.28,5,S02
22880,-7.43639,-0.14605,1.25935,15.5488,25.7927,17.0732,31.19,13.76,-20.28,5,S02
22900,-7.46033,-0.25139,1.69270,14.8171,31.9512,6.6463,32.48,13.39,-20.28,5,S02
22920,-7.67342,0.53630,1.86987,10.9756,30.1220,-0.1829,32.48,13.39,-20.28,5,S02
22940,-7.35020,0.96726,1.69988,6.4634,24.2073,-2.3171,32.48,13.39,-20.28,5,S02
22960,-6.94797,1.09894,1.36709,7.3171,22.3780,-4.4512,34.13,12.75,-20.64,5,S02
22980,-7.01980,1.03908,1.46046,10.6098,23.5976,-9.0854,34.13,12.75,-20.64,5,S02
23000,-7.22091,0.99120,2.00155,12.9878,21.6463,-14.3902,34.13,12.75,-20.64,5,S02
23020,-7.26161,1.00317,2.43011,15.3049,15.6707,-19.0854,36.15,11.65,-20.64,5,S02
23040,-7.21612,1.07260,2.51870,18.3537,11.7683,-21.4634,36.15,11.65,-20.64,5,S02
23060,-6.98867,1.06781,2.47082,20.5488,11.6463,-21.2195,36.15,11.65,-20.64,5,S02
23080,-6.88333,1.35033,2.37744,19.8171,13.2317,-21.7683,36.15,11.65,-20.64,5,S02
23100,-7.51061,2.02310,2.39899,12.1951,15.7317,-20.3049,38.17,10.64,-20.55,5,S02
23120,-8.28394,2.98318,2.35589,0.6707,19.0244,-16.7683,38.17,10.64,-20.55,5,S02
23140,-8.45393,3.83312,1.77410,-13.1707,19.2683,-11.8293,38.17,10.64,-20.55,5,S02
23160,-8.00382,3.26809,1.39103,-22.3780,18.1707,-5.4268,38.44,10.64,-22.39,5,S02
23180,-8.07804,1.64721,1.47483,-22.7439,10.1829,1.3415,38.44,10.64,-22.39,5,S02
23200,-7.13712,-0.08619,1.52271,-17.1951,-11.0976,9.8171,38.44,10.64,-22.39,5,S02
23220,-5.59046,-1.23780,1.23301,-1.8902,-21.4024,14.0244,39.27,12.75,-21.47,5,S02
23240,-6.65828,-0.42617,-0.99838,17.0122,-15.0000,10.4268,39.27,12.75,-21.47,5,S02
23260,-8.82982,-0.90022,-1.36948,31.2195,2.9268,10.9756,39.27,12.75,-21.47,5,S02
23280,-11.42992,-3.85466,-1.46286,53.4756,6.2805,14.0244,39.27,12.75,-21.47,5,S02
23300,-18.53352,-2.44687,-3.46202,58.8415,15.3049,17.5610,40.09,13.67,-18.99,5,S02
23320,-22.74492,-1.47004,-2.71742,39.3293,46.3415,50.3049,40.09,13.67,-18.99,5,S02
23340,-19.54147,-1.56820,-3.31118,4.2073,11.2195,80.0610,40.09,13.67,-18.99,5,S02
23360,-17.59499,0.64165,-2.73897,-30.3049,-13.4756,61.1585,37.80,15.87,-20.09,5,S02
23380,-15.30374,1.46286,-1.50835,-47.4390,-18.7195,18.7805,37.80,15.87,-20.09,5,S02
23400,-12.02368,0.46448,-0.55545,-55.0610,-25.9756,-15.4268,37.80,15.87,-20.09,5,S02
23420,-9.37330,-0.98162,0.59137,-58.7805,-23.2317,-37.7439,37.80,13.85,-21.65,5,S02
23440,-7.36696,-2.18351,0.80685,-60.3659,-13.4146,-50.4878,37.80,13.85,-21.65,5,S02
23460,-6.68940,-2.60729,0.81403,-61.6463,6.8902,-55.9146,37.80,13.85,-21.65,5,S02
23480,-6.22732,-2.56180,0.60573,-58.0488,27.3171,-51.7073,37.80,13.85,-21.65,5,S02
23500,-5.76763,-2.66475,0.81642,-52.1951,33.0488,-38.9634,37.34,11.01,-24.13,5,S02
23520,-5.51624,-1.97522,1.03430,-46.4024,22.8049,-24.9390,37.34,11.01,-24.13,5,S02
23540,-5.89931,-0.86910,1.61848,-43.9024,6.9512,-11.0976,37.34,11.01,-24.13,5,S02
23560,-6.85221,0.77093,2.95444,-40.3049,-14.4512,2.0122,36.51,11.93,-24.77,5,S02
23580,-7.40527,0.14844,3.18429,-28.8415,-22.1341,3.2317,36.51,11.93,-24.77,5,S02
23600,-8.12353,-0.52433,2.59292,-14.2683,-29.3293,5.6707,36.51,11.93,-24.77,5,S02
23620,-9.10275,-0.34955,2.26491,-10.6707,-30.4268,14.8780,36.33,13.76,-23.58,5,S02
23640,-8.77475,0.46687,2.04225,-19.8171,-28.9634,26.4024,36.33,13.76,-23.58,5,S02
23660,-8.74362,-0.74939,-0.24421,-34.6341,-25.8537,27.1951,36.33,13.76,-23.58,5,S02
23680,-12.39957,-2.67672,-4.09169,-29.3293,-8.4756,6.8293,36.33,13.76,-23.58,5,S02
23700,-15.83525,-1.74058,-3.39737,-35.8537,-4.1463,-22.7439,35.41,13.12,-23.49,5,S02
23720,-16.91025,0.79487,-2.98078,-66.2805,-40.0000,-29.6951,35.41,13.12,-23.49,5,S02
23740,-14.90869,-0.17478,-3.37582,-70.3049,-60.1829,-13.2317,35.41,13.12,-23.49,5,S02
23760,-12.05002,-3.78523,-2.68869,-55.3659,-51.4634,2.6829,33.67,14.40,-23.76,5,S02
23780,-11.20247,-5.97832,-0.45490,-43.5976,-35.3659,4.6341,33.67,14.40,-23.76,5,S02
23800,-11.61906,-4.43406,-0.19154,-15.7317,-21.8902,-2.4390,33.67,14.40,-23.76,5,S02
23820,-11.35330,-2.54982,-0.33519,17.3780,-10.5488,-2.5000,34.59,14.31,-22.20,5,S02
23840,-9.73243,-1.81002,-0.55067,45.3049,0.1220,6.4634,34.59,14.31,-22.20,5,S02
23860,-8.12353,-1.21865,-0.46448,67.1951,10.6098,14.0854,34.59,14.31,-22.20,5,S02
23880,-7.95354,-0.04549,-0.53151,81.4634,14.2683,17.3780,34.59,14.31,-22.20,5,S02
23900,-7.80031,0.29688,-0.79727,90.0000,13.6585,21.5244,36.51,14.40,-18.72,5,S02
23920,-7.62553,-0.07183,-0.36871,94.4512,13.4146,22.8659,36.51,14.40,-18.72,5,S02
23940,-7.78355,-0.15083,0.12210,95.8537,9.2683,18.2927,36.51,14.40,-18.72,5,S02
23960,-8.21211,0.03831,0.64883,94.5122,2.5000,12.3780,38.44,14.50,-14.59,5,S02
23980,-8.33900,0.27054,0.88346,92.6220,-4.2683,10.5488,38.44,14.50,-14.59,5,S02
24000,-8.37013,0.66559,1.04148,86.1585,-8.4756,10.0610,38.44,14.50,-14.59,5,S02
24020,-8.28633,0.94092,1.28090,74.0244,-8.0488,8.4146,39.36,14.68,-10.73,5,S02
24040,-8.13071,1.06542,1.59214,60.5488,-4.4512,5.3049,39.36,14.68,-10.73,5,S02
24060,-8.23605,0.90022,1.95127,47.6220,-0.6707,2.3171,39.36,14.68,-10.73,5,S02
24080,-8.44674,0.56982,2.17394,36.4634,0.9146,-0.0610,39.36,14.68,-10.73,5,S02
24100,-8.86333,0.30646,2.54025,28.5366,-0.4878,-2.0732,39.72,13.67,-8.81,5,S02
24120,-8.96150,0.54588,2.55222,22.0122,-6.4024,-3.5976,39.72,13.67,-8.81,5,S02
24140,-8.91840,1.12767,1.69270,16.0366,-10.3659,-0.6707,39.72,13.67,-8.81,5,S02
24160,-9.15543,1.49398,1.49877,11.0366,-7.4390,5.9756,39.27,13.39,-7.34,5,S02
24180,-9.30626,0.89064,2.44209,11.4024,-7.1951,10.3659,39.27,13.39,-7.34,5,S02
24200,-9.55287,-0.44053,3.23935,20.3659,-10.8537,9.9390,39.27,13.39,-7.34,5,S02
24220,-11.49217,-2.01831,2.79643,32.5000,-9.8780,8.5976,38.99,13.39,-5.05,5,S02
24240,-13.81454,-1.84114,0.26097,46.1585,6.0366,14.5122,38.99,13.39,-5.05,5,S02
24260,-12.88559,-1.43892,-0.54588,51.5854,21.0366,32.6829,38.99,13.39,-5.05,5,S02
24280,-10.91038,-1.56341,-1.11330,61.4634,15.0000,37.9878,38.99,13.39,-5.05,5,S02
24300,-9.80186,-1.81959,-1.70946,77.1951,8.7195,25.3049,38.26,14.40,-2.11,5,S02
24320,-9.72285,-1.78847,-1.85551,89.8171,8.1707,6.8902,38.26,14.40,-2.11,5,S02
24340,-10.40520,-0.84994,-1.58975,90.4268,2.6829,-10.6707,38.26,14.40,-2.11,5,S02
24360,-10.42675,-0.13168,-0.81403,78.1098,-5.3049,-20.6707,38.62,12.75,1.28,5,S02
24380,-10.10593,-0.08619,-0.06943,65.1829,-8.9634,-24.9390,38.62,12.75,1.28,5,S02
24400,-9.48583,-0.53870,-0.02394,58.4756,-9.0854,-25.8537,38.62,12.75,1.28,5,S02
24420,-9.04051,-1.00556,-0.03112,55.4268,-7.2561,-27.8659,38.72,10.92,3.58,5,S02
24440,-8.87770,-1.23062,-0.21069,53.0488,-7.6829,-30.1220,38.72,10.92,3.58,5,S02
24460,-8.98304,-1.27850,-0.35913,52.5610,-5.1829,-32.9268,38.72,10.92,3.58,5,S02
24480,-8.97347,-1.50116,-0.32801,54.3293,-1.4634,-34.2073,38.72,10.92,3.58,5,S02
24500,-8.98065,-1.93691,-0.12689,59.5122,1.0366,-34.6951,38.81,8.81,6.06,5,S02
24520,-9.24162,-2.18591,-0.03112,68.1098,1.4634,-34.5122,38.81,8.81,6.06,5,S02
24540,-9.18416,-2.28167,0.05028,77.4390,0.4268,-32.3171,38.81,8.81,6.06,5,S02
24560,-8.85136,-2.30801,-0.08380,87.0122,-2.0732,-29.3902,37.98,7.25,9.54,5,S02
24580,-8.58082,-2.09972,-0.10774,93.5976,-2.3780,-26.8293,37.98,7.25,9.54,5,S02
24600,-8.49702,-1.67115,-0.01676,97.4390,-1.5854,-23.4756,37.98,7.25,9.54,5,S02
24620,-8.47308,-1.22823,0.16520,99.1463,-0.3659,-18.0488,36.51,6.70,13.21,5,S02
24640,-8.34379,-0.89064,0.28012,98.2317,2.9878,-12.3780,36.51,6.70,13.21,5,S02
24660,-8.40604,-0.66080,0.68714,93.0488,6.3415,-7.5610,36.51,6.70,13.21,5,S02
24680,-8.87052,-0.41899,1.42694,83.4756,5.2439,-3.3537,36.51,6.70,13.21,5,S02
24700,-8.94953,-0.54109,2.15478,73.2927,-0.2439,0.9756,34.68,6.70,15.78,5,S02
24720,-8.91840,-1.20189,2.80600,67.8049,-4.0244,6.3415,34.68,6.70,15.78,5,S02
24740,-9.21768,-1.94649,2.91374,68.5976,-4.2073,12.8659,34.68,6.70,15.78,5,S02
24760,-9.30387,-2.17394,1.95606,71.8293,-4.0854,21.9512,32.02,7.43,18.35,5,S02
24780,-9.83059,-1.86508,1.59214,75.7317,-4.6951,27.6220,32.02,7.43,18.35,5,S02
24800,-10.53688,0.05028,2.42772,69.9390,-13.7195,19.5122,32.02,7.43,18.35,5,S02
24820,-10.17057,1.48680,1.72861,55.6098,-30.6707,9.0244,30.18,6.15,20.18,5,S02
24840,-10.47942,1.11809,-0.26097,43.2927,-36.7073,0.6707,30.18,6.15,20.18,5,S02
24860,-11.12346,-0.63446,-1.41976,23.6585,-32.9268,-8.7805,30.18,6.15,20.18,5,S02
24880,-12.28465,-2.90417,-0.11013,12.9878,-39.8171,-23.4146,30.18,6.15,20.18,5,S02
24900,-11.81539,-2.79882,0.31843,36.1585,-35.7317,-17.3780,29.72,4.13,20.83,5,S02
24920,-10.57758,-2.68151,0.59137,58.1707,-30.6707,-6.8293,29.72,4.13,20.83,5,S02
24940,-9.39964,-2.59292,0.54827,79.3293,-26.0976,3.5366,29.72,4.13,20.83,5,S02
24960,-8.47069,-2.37265,0.33519,101.4024,-19.3902,7.3780,26.88,4.31,23.49,5,S02
24980,-7.98706,-2.01831,-0.47645,120.9146,-11.6463,4.4512,26.88,4.31,23.49,5,S02
25000,-7.97748,-1.38145,-0.75417,133.7805,1.0366,-2.0122,26.88,4.31,23.49,5,S02
25020,-8.75081,-0.63686,-0.42377,143.5976,11.1585,-7.0122,22.57,5.14,26.33,5,S02
25040,-9.64145,-0.15323,0.05507,150.6098,15.6707,-8.4756,22.57,5.14,26.33,5,S02
25060,-9.78989,0.39983,0.31843,151.8902,12.6220,-6.5854,22.57,5.14,26.33,5,S02
25080,-9.49062,0.52194,0.34955,150.4268,8.4146,-3.7805,22.57,5.14,26.33,5,S02
25100,-9.16979,0.08859,0.32322,151.6464,9.6951,-1.5244,17.71,6.06,28.72,5,S02
25120,-9.04529,-0.14605,0.42856,153.4756,14.6341,0.0610,17.71,6.06,28.72,5,S02
25140,-9.15543,0.44772,0.35913,150.1829,18.9634,1.7683,17.71,6.06,28.72,5,S02
25160,-9.17698,1.24259,0.43096,142.2561,21.7073,3.7805,12.57,7.61,30.18,5,S02
25180,-9.02854,1.71185,0.44293,133.0488,20.0610,4.1463,12.57,7.61,30.18,5,S02
25200,-8.91601,2.11169,0.61292,119.9390,16.8902,2.6220,12.57,7.61,30.18,5,S02
25220,-8.89685,2.32238,0.94332,103.1707,14.2683,0.9146,9.08,8.81,30.55,5,S02
25240,-8.85376,2.22421,1.21147,86.6463,11.4024,0.7317,9.08,8.81,30.55,5,S02
25260,-8.80109,1.96564,1.55144,70.8537,9.1463,1.4634,9.08,8.81,30.55,5,S02
25280,-8.75081,1.74777,1.92494,56.8902,7.6829,1.5854,9.08,8.81,30.55,5,S02
25300,-8.59279,1.49159,2.10929,45.8537,6.3415,1.1585,7.52,9.63,30.37,5,S02
25320,-8.68138,1.17555,2.15957,37.5610,5.3049,0.4268,7.52,9.63,30.37,5,S02
25340,-9.17458,1.09176,2.17394,31.0976,3.5366,0.7927,7.52,9.63,30.37,5,S02
25360,-9.66539,1.26174,2.01831,22.8049,-1.7073,3.9634,6.97,10.55,30.09,5,S02
25380,-10.03410,1.47004,2.08535,12.5610,-8.7195,9.0244,6.97,10.55,30.09,5,S02
25400,-9.56723,0.74699,2.86347,6.0976,-19.0244,12.3171,6.97,10.55,30.09,5,S02
25420,-8.73165,-1.19950,3.88340,16.4634,-28.1098,7.8659,6.42,10.55,30.37,5,S02
25440,-8.33182,-2.92332,4.22098,39.4512,-27.1341,0.2439,6.42,10.55,30.37,5,S02
25460,-9.11951,-3.03585,3.71820,60.1220,-18.3537,-5.9756,6.42,10.55,30.37,5,S02
25480,-12.00692,-1.38624,0.95768,76.7683,-9.0244,-2.3171,6.42,10.55,30.37,5,S02
25500,-13.39316,0.83558,-2.08296,92.0732,14.4512,25.4878,3.21,12.57,30.28,5,S02
25520,-11.39401,0.86431,-2.93050,94.6341,30.6707,60.3659,3.21,12.57,30.28,5,S02
25540,-11.04206,1.61130,-3.10767,75.1829,9.5122,62.0122,3.21,12.57,30.28,5,S02
25560,-10.77391,2.89938,-3.84269,48.6585,-12.2561,44.9390,0.46,13.49,30.46,5,S02
25580,-10.70687,3.99113,-3.82115,23.6585,-15.9146,22.0122,0.46,13.49,30.46,5,S02
25600,-10.69011,3.37582,-2.75573,-3.1098,-22.1341,-0.6098,0.46,13.49,30.46,5,S02
25620,-10.49139,1.37427,-1.63285,-18.0488,-29.0244,-19.9390,2.11,13.30,31.38,5,S02
25640,-9.71328,-0.81403,-0.41899,-18.1098,-28.7195,-33.6585,2.11,13.30,31.38,5,S02
25660,-8.81306,-2.06620,0.22027,-14.2683,-26.3415,-42.4390,2.11,13.30,31.38,5,S02
25680,-8.32224,-1.60890,0.21787,-12.5610,-24.2683,-47.7439,2.11,13.30,31.38,5,S02
25700,-7.90805,-0.40701,0.14365,-11.5244,-20.8537,-48.9634,3.94,13.58,32.02,5,S02
25720,-8.02058,0.26815,0.09816,-6.7683,-16.1585,-47.8659,3.94,13.58,32.02,5,S02
25740,-8.59279,0.25139,0.50518,0.3049,-8.1098,-44.7561,3.94,13.58,32.02,5,S02
25760,-8.65265,0.14126,0.75178,6.2195,-4.6951,-39.5732,5.05,14.31,31.74,5,S02
25780,-8.56885,0.08140,0.80445,8.2927,-5.9146,-34.0854,5.05,14.31,31.74,5,S02
25800,-8.53294,0.07422,1.10612,8.3537,-5.8537,-29.2683,5.05,14.31,31.74,5,S02
25820,-8.61673,0.06943,1.34315,10.9146,-4.3293,-25.0610,5.32,14.77,31.38,5,S02
25840,-8.59518,0.09816,1.51314,15.7927,-2.4390,-21.8293,5.32,14.77,31.38,5,S02
25860,-8.54012,0.07901,1.70467,19.4512,-1.1585,-18.9634,5.32,14.77,31.38,5,S02
25880,-8.56885,0.19632,1.86029,20.0610,-1.2195,-15.9146,5.32,14.77,31.38,5,S02
25900,-8.81784,0.47405,2.14042,16.3415,-2.4390,-12.3171,4.95,15.69,31.47,5,S02
25920,-8.87531,0.56982,2.47800,10.4268,-4.5122,-8.0488,4.95,15.69,31.47,5,S02
25940,-8.56645,0.22505,2.76051,5.7317,-5.2439,-2.1341,4.95,15.69,31.47,5,S02
25960,-8.44674,-0.52912,2.75812,1.2805,-2.9878,2.6829,5.14,16.51,31.74,5,S02
25980,-8.60476,-1.34554,1.83635,3.3537,2.5000,2.9878,5.14,16.51,31.74,5,S02
26000,-9.12909,-1.76453,1.00796,8.2317,9.0854,1.0366,5.14,16.51,31.74,5,S02
26020,-10.46745,-1.30005,2.56419,11.8902,7.6829,-5.7317,5.60,17.06,32.11,5,S02
26040,-11.42992,0.17957,4.19704,9.8171,-10.7927,-19.5122,5.60,17.06,32.11,5,S02
26060,-11.35809,1.14922,3.08134,6.2195,-32.1341,-29.8171,5.60,17.06,32.11,5,S02
26080,-12.05481,0.02634,0.97444,6.7683,-33.2317,-32.1341,5.60,17.06,32.11,5,S02
26100,-13.38598,-1.66876,0.16281,7.9878,-22.6829,-36.4634,6.70,16.24,33.21,5,S02
26120,-12.70124,-1.69749,-0.37110,5.1220,-21.0366,-42.9268,6.70,16.24,33.21,5,S02
26140,-10.46745,-1.06303,-1.52271,4.3293,-26.4024,-42.9878,6.70,16.24,33.21,5,S02
26160,-8.78433,-0.80206,-1.81720,2.2561,-25.5488,-35.7927,7.71,15.60,33.94,5,S02
26180,-8.53294,-1.00796,-0.96486,-0.7317,-21.7073,-26.1585,7.71,15.60,33.94,5,S02
26200,-9.65821,-2.24816,0.40701,22.0732,-14.8780,-5.3659,7.71,15.60,33.94,5,S02
26220,-9.96706,-2.49476,0.62010,40.7927,-13.8415,-0.4268,6.33,15.32,34.77,5,S02
26240,-9.76834,-1.60412,0.37350,52.9878,-13.7805,2.7439,6.33,15.32,34.77,5,S02
26260,-9.22246,-0.33758,-0.02155,55.1829,-9.8780,6.5854,6.33,15.32,34.77,5,S02
26280,-8.85855,0.59137,-0.16041,50.9756,-2.1341,9.9390,6.33,15.32,34.77,5,S02
26300,-8.81066,0.89783,0.09816,43.9634,3.6585,11.8902,3.94,15.69,35.14,5,S02
26320,-8.73644,0.54109,0.48842,37.6829,5.2439,12.5000,3.94,15.69,35.14,5,S02
26340,-8.75799,0.09816,0.86191,32.6829,5.6098,11.8293,3.94,15.69,35.14,5,S02
26360,-8.88009,-0.04788,1.08936,27.9878,4.6951,9.9390,2.84,16.24,35.23,5,S02
26380,-8.98783,0.14365,1.24259,23.4146,3.5976,8.5976,2.84,16.24,35.23,5,S02
26400,-8.74123,0.36392,1.34075,18.0488,2.6220,8.5366,2.84,16.24,35.23,5,S02
26420,-8.61673,0.55067,1.40540,12.5610,2.6829,7.1951,2.29,16.61,35.32,5,S02
26440,-8.67419,0.52912,1.63524,8.1098,3.9634,4.7561,2.29,16.61,35.32,5,S02
26460,-8.73405,0.30885,1.87466,5.2439,3.4146,2.1951,2.29,16.61,35.32,5,S02
26480,-8.70292,0.08140,1.96325,3.7195,2.5610,0.3049,2.29,16.61,35.32,5,S02
26500,-8.65025,0.11013,2.16436,2.1951,3.1098,-0.6707,2.39,17.25,35.41,5,S02
26520,-8.73644,0.27773,2.46603,-0.4878,2.0122,-1.2805,2.39,17.25,35.41,5,S02
26540,-8.73644,0.31603,2.78685,-0.9756,-1.4024,-3.9024,2.39,17.25,35.41,5,S02
26560,-8.55209,0.00000,3.11725,4.5732,-5.0000,-7.0122,2.75,17.43,35.60,5,S02
26580,-8.56406,-0.39265,3.37582,14.7561,-9.2683,-9.5122,2.75,17.43,35.60,5,S02
26600,-8.64546,-0.58897,3.25372,25.7317,-14.2073,-10.7927,2.75,17.43,35.60,5,S02
26620,-9.11712,0.58897,2.52109,30.2439,-16.2195,-9.8171,1.83,17.06,36.42,5,S02
26640,-9.90481,2.18112,1.97522,24.5732,-12.8659,-3.8415,1.83,17.06,36.42,5,S02
26660,-9.88326,2.39181,2.39181,23.2927,-10.7927,5.7927,1.83,17.06,36.42,5,S02
26680,-9.27993,1.09894,2.56180,29.6951,-15.9146,12.6829,1.83,17.06,36.42,5,S02
26700,-10.07959,-0.48363,2.26491,39.4512,-15.0000,13.3537,0.18,16.70,37.06,5,S02
26720,-12.04762,-0.25618,0.52912,44.4512,-4.4512,16.2805,0.18,16.70,37.06,5,S02
26740,-12.90475,0.47884,0.46448,36.2805,11.1585,31.9512,0.18,16.70,37.06,5,S02
26760,-11.88721,-0.48842,0.87628,36.5244,10.5488,46.2195,-2.57,17.34,36.97,5,S02
26780,-10.94629,-2.36068,0.30885,57.1951,4.7561,41.4024,-2.57,17.34,36.97,5,S02
26800,-10.43632,-2.77249,-0.32322,79.1463,2.6220,22.1341,-2.57,17.34,36.97,5,S02
26820,-10.12987,-1.58017,-0.47405,83.6585,-2.0122,5.4268,-6.70,17.43,36.42,5,S02
26840,-9.97424,-0.14365,-0.36871,71.5244,-5.6098,-2.0732,-6.70,17.43,36.42,5,S02
26860,-9.73243,0.67756,-0.04549,54.4512,-5.9146,-5.6707,-6.70,17.43,36.42,5,S02
26880,-9.32302,0.55067,0.25618,38.1098,-7.1951,-7.8659,-6.70,17.43,36.42,5,S02
26900,-9.27274,-0.11013,0.71108,25.4268,-8.0488,-12.5610,-7.52,17.43,36.42,5,S02
26920,-9.08839,-0.86910,1.02472,20.2439,-9.2073,-17.7439,-7.52,17.43,36.42,5,S02
26940,-8.87052,-1.20907,1.01993,20.1220,-10.1220,-21.7073,-7.52,17.43,36.42,5,S02
26960,-8.76517,-0.93613,1.03430,19.1463,-7.6829,-23.8415,-7.98,17.34,36.51,5,S02
26980,-8.61913,-0.67995,1.12767,16.5244,-4.7561,-23.6585,-7.98,17.34,36.51,5,S02
27000,-8.67659,-0.61052,1.28808,14.2073,-3.1707,-22.8659,-7.98,17.34,36.51,5,S02
27020,-8.84179,-0.55545,1.31202,12.7439,-1.8902,-21.0976,-8.35,17.61,36.42,5,S02
27040,-8.87770,-0.46687,1.32160,9.6341,0.2439,-17.5000,-8.35,17.61,36.42,5,S02
27060,-8.86812,-0.44532,1.35512,5.2439,1.8902,-13.7195,-8.35,17.61,36.42,5,S02
27080,-8.94713,-0.41659,1.29047,1.3415,3.4146,-11.2195,-8.35,17.61,36.42,5,S02
27100,-9.06684,-0.38307,1.30963,-2.5000,5.4878,-10.3049,-8.26,17.89,36.33,5,S02
27120,-9.24401,-0.39025,1.51074,-6.2805,6.0366,-10.0000,-8.26,17.89,36.33,5,S02
27140,-9.36372,-0.51236,1.81241,-8.5976,5.9756,-10.3049,-8.26,17.89,36.33,5,S02
27160,-9.25598,-0.71826,1.94888,-8.4756,5.1220,-10.0610,-7.89,18.35,36.51,5,S02
27180,-9.12670,-0.72784,1.88663,-8.8415,4.3293,-10.8537,-7.89,18.35,36.51,5,S02
27200,-8.87531,-0.69671,1.87945,-10.6098,4.3293,-10.6707,-7.89,18.35,36.51,5,S02
27220,-8.76038,-0.65122,2.01592,-12.0732,3.6585,-10.1220,-7.34,18.44,36.51,5,S02
27240,-8.83700,-0.68714,2.36308,-12.1341,1.2805,-8.7195,-7.34,18.44,36.51,5,S02
27260,-8.65025,-0.91459,2.54504,-10.2439,-2.0732,-5.1829,-7.34,18.44,36.51,5,S02
27280,-8.27436,-1.13964,2.46603,-5.9146,-3.9024,-0.9146,-7.34,18.44,36.51,5,S02
27300,-7.72130,-1.05824,1.94888,-2.6829,-3.8415,2.8659,-7.61,17.98,36.70,5,S02
27320,-6.93361,-0.72065,1.08697,-3.8415,-0.4878,5.4268,-7.61,17.98,36.70,5,S02
27340,-6.36618,-0.70868,0.55306,-7.0122,6.8902,5.9756,-7.61,17.98,36.70,5,S02
27360,-6.48350,-0.78530,0.65122,-7.5000,11.8293,4.6951,-7.52,18.53,36.51,5,S02
27380,-6.66067,-0.79727,0.91937,-8.7805,10.6098,5.0610,-7.52,18.53,36.51,5,S02
27400,-6.43322,-1.03669,1.64242,-9.0244,7.8049,7.6829,-7.52,18.53,36.51,5,S02
27420,-6.10043,-1.02711,2.08056,-7.7439,2.3780,9.5122,-7.71,17.89,36.79,5,S02
27440,-5.94480,-0.79009,2.14042,-8.2927,-3.2927,8.7805,-7.71,17.89,36.79,5,S02
27460,-6.52420,-0.31603,1.83156,-9.3293,-4.3293,8.2927,-7.71,17.89,36.79,5,S02
27480,-7.13712,-0.07422,1.73580,-13.5366,-0.5488,13.7805,-7.71,17.89,36.79,5,S02
27500,-7.18979,-0.89543,2.21943,-17.4390,5.7317,20.5488,-7.52,17.43,37.16,5,S02
27520,-6.95516,-1.71904,1.56581,-26.6463,-8.4146,5.0000,-7.52,17.43,37.16,5,S02
27540,-8.02058,-1.51792,0.56024,-33.5976,-17.0732,-8.7805,-7.52,17.43,37.16,5,S02
27560,-10.32859,-0.56982,-0.79966,-30.2439,-22.0122,-14.9390,-5.87,16.06,38.07,5,S02
27580,-13.35725,-1.31442,-0.16999,-43.4146,-22.5000,-10.0610,-5.87,16.06,38.07,5,S02
27600,-22.22777,1.35512,-0.37350,-48.6585,-18.3537,-8.7195,-5.87,16.06,38.07,5,S02
27620,-18.80167,0.96247,-0.37589,-8.9024,-20.4268,-8.9024,-4.68,14.68,38.62,5,S02
27640,-17.44176,2.41575,0.89304,0.5488,-46.6463,-11.4024,-4.68,14.68,38.62,5,S02
27660,-15.30374,0.20351,3.15795,-3.9024,-52.3781,13.5976,-4.68,14.68,38.62,5,S02
27680,-12.90475,0.59855,2.88262,-18.9024,-49.9390,31.5854,-4.68,14.68,38.62,5,S02
27700,-12.32056,0.94571,2.79164,-21.4634,-16.5244,21.8293,-4.95,11.93,39.63,5,S02
27720,-12.61026,1.09176,1.99198,-4.8171,8.7195,-1.2805,-4.95,11.93,39.63,5,S02
27740,-10.59674,1.22583,1.19231,13.4756,10.8537,-7.5610,-4.95,11.93,39.63,5,S02
27760,-8.02536,0.75417,0.41420,21.5244,10.3049,1.2805,-6.33,13.03,38.72,5,S02
27780,-5.99987,0.18196,0.18435,19.0854,17.2561,5.3049,-6.33,13.03,38.72,5,S02
27800,-6.44040,0.43574,0.67516,5.8537,26.8902,0.5488,-6.33,13.03,38.72,5,S02
27820,-7.57525,0.56024,1.31681,-9.1463,29.4512,-2.6220,-6.33,14.68,38.17,5,S02
27840,-8.13789,0.43574,1.49877,-18.8415,23.0488,-1.4634,-6.33,14.68,38.17,5,S02
27860,-8.33422,0.20111,1.18992,-16.2805,15.9146,-0.7317,-6.33,14.68,38.17,5,S02
27880,-8.87531,0.18196,1.20668,-7.6829,12.8659,-2.8659,-6.33,14.68,38.17,5,S02
27900,-9.50738,0.26576,1.48680,-2.0122,7.0122,-5.8537,-6.24,15.05,37.80,5,S02
27920,-9.42837,0.47166,1.66636,0.0000,-1.8293,-7.8049,-6.24,15.05,37.80,5,S02
27940,-8.83221,0.79727,1.63763,-0.4878,-8.4146,-9.0244,-6.24,15.05,37.80,5,S02
27960,-8.71968,1.01275,1.54187,-0.9756,-9.6341,-9.1463,-6.24,14.77,38.07,5,S02
27980,-9.01896,0.90261,1.52511,-0.8537,-6.4024,-5.3659,-6.24,14.77,38.07,5,S02
28000,-9.30147,0.50278,1.58736,-0.4878,-2.0732,-0.4268,-6.24,14.77,38.07,5,S02
28020,-8.98544,0.11971,1.54426,3.2317,0.7927,1.7073,-6.88,14.68,38.07,5,S02
28040,-8.70771,0.12929,1.25935,9.5732,1.8902,0.1829,-6.88,14.68,38.07,5,S02
28060,-8.42759,0.44053,1.07500,13.4146,2.8659,-2.5610,-6.88,14.68,38.07,5,S02
28080,-7.96311,0.95050,0.96486,12.7439,2.6829,-3.5976,-6.88,14.68,38.07,5,S02
28100,-7.34302,1.22583,0.62968,8.4756,3.5976,-1.7683,-7.52,15.14,37.80,5,S02
28120,-6.72292,0.90501,0.36392,6.1585,7.4390,1.5244,-7.52,15.14,37.80,5,S02
28140,-6.66785,0.79009,0.69911,1.5854,9.1463,2.1341,-7.52,15.14,37.80,5,S02
28160,-6.71813,0.80924,1.18034,-7.0122,5.3049,0.7317,-7.61,15.32,37.80,5,S02
28180,-6.83066,1.01754,1.29526,-11.8902,0.0000,-1.6463,-7.61,15.32,37.80,5,S02
28200,-6.80432,0.97444,1.38145,-13.7805,-3.6585,-2.9268,-7.61,15.32,37.80,5,S02
28220,-7.52737,1.47004,2.74376,-20.4268,-10.6098,-2.5610,-6.42,14.40,38.72,5,S02
28240,-8.78433,2.51152,4.05338,-40.3659,-27.1951,-0.1829,-6.42,14.40,38.72,5,S02
28260,-8.79390,2.82276,3.11246,-51.5854,-39.6341,2.9878,-6.42,14.40,38.72,5,S02
28280,-7.02219,1.12049,1.46525,-38.9634,-30.4878,0.3659,-6.42,14.40,38.72,5,S02
28300,-6.65349,-0.52672,1.01514,-22.6220,-17.8049,-7.1951,-5.14,13.03,40.00,5,S02
28320,-8.34140,-0.63446,1.29766,-26.7073,-18.7195,-0.7927,-5.14,13.03,40.00,5,S02
28340,-10.36211,-0.92656,0.99838,-24.5122,-23.2927,21.0976,-5.14,13.03,40.00,5,S02
28360,-11.07558,-2.24816,1.05345,-12.4390,-21.1585,41.9512,-5.60,11.65,40.92,5,S02
28380,-14.36760,-3.67989,2.78206,-10.1829,-19.7561,43.7195,-5.60,11.65,40.92,5,S02
28400,-20.19270,-1.03430,2.43969,-2.5000,-14.8780,38.1098,-5.60,11.65,40.92,5,S02
28420,-17.02996,-2.01592,3.71820,6.7073,-14.0244,50.6098,-6.70,9.54,41.47,5,S02
28440,-13.66371,-0.40223,2.16675,-4.7561,-37.9878,35.5488,-6.70,9.54,41.47,5,S02
28460,-12.31338,1.23541,2.42293,-13.2927,-35.7927,8.1098,-6.70,9.54,41.47,5,S02
28480,-11.60948,0.55545,2.45885,-14.6951,-34.5122,-10.6098,-6.70,9.54,41.47,5,S02
28500,-10.61828,-0.91698,2.47321,-17.4390,-20.0000,-17.5000,-5.69,8.62,42.02,5,S02
28520,-9.56484,-1.69749,2.11408,-17.2561,-4.8171,-19.1463,-5.69,8.62,42.02,5,S02
28540,-8.41562,-1.53229,1.76453,-17.0122,5.7317,-19.0244,-5.69,8.62,42.02,5,S02
28560,-8.00142,-1.38385,1.66636,-16.0976,14.0854,-20.3659,-5.14,10.00,41.47,5,S02
28580,-7.61356,-1.27372,1.71904,-12.8049,18.7195,-21.6463,-5.14,10.00,41.47,5,S02
28600,-7.52976,-1.36709,1.96803,-6.9512,20.1829,-19.8780,-5.14,10.00,41.47,5,S02
28620,-8.04212,-1.28329,2.28646,-0.1829,19.8171,-15.5488,-5.50,11.38,41.01,5,S02
28640,-8.54969,-1.07739,2.34153,6.4024,19.4512,-8.9634,-5.50,11.38,41.01,5,S02
28660,-8.76757,-0.98162,2.19548,11.4634,19.5732,-2.9878,-5.50,11.38,41.01,5,S02
28680,-8.95431,-0.98162,2.08774,12.6829,17.8659,-0.5488,-5.50,11.38,41.01,5,S02
28700,-8.95431,-1.07979,1.95606,10.8537,13.2927,-0.4878,-6.61,12.02,40.73,5,S02
28720,-9.01417,-1.09654,2.15718,8.7805,8.3537,-0.5488,-6.61,12.02,40.73,5,S02
28740,-9.18895,-0.95529,2.71742,7.3171,2.3780,0.1220,-6.61,12.02,40.73,5,S02
28760,-9.14106,-0.99838,3.25611,8.4146,-4.3293,0.6707,-7.43,11.65,40.55,5,S02
28780,-8.90404,-1.03669,3.21541,12.9268,-7.9878,-1.4634,-7.43,11.65,40.55,5,S02
28800,-8.66462,-0.91459,2.88980,16.1585,-7.5610,-4.2683,-7.43,11.65,40.55,5,S02
28820,-8.18578,-0.82361,2.29365,17.1341,-5.4878,-5.0610,-8.44,11.83,40.00,5,S02
28840,-7.06768,-0.94571,0.65601,15.7927,13.5976,-6.9512,-8.44,11.83,40.00,5,S02
28860,-6.54575,-0.74939,0.13408,12.0122,26.2805,-7.3780,-8.44,11.83,40.00,5,S02
28880,-6.46913,-0.97683,1.12527,9.8171,32.3780,-7.4390,-8.44,11.83,40.00,5,S02
28900,-7.41005,-1.06542,2.20027,13.3537,25.9756,-6.4024,-9.08,13.58,39.17,5,S02
28920,-7.85059,-0.70868,1.52989,17.7439,19.3902,0.9146,-9.08,13.58,39.17,5,S02
28940,-7.54892,-0.36392,0.64404,19.5122,26.0366,10.6098,-9.08,13.58,39.17,5,S02
28960,-7.59441,-0.22505,1.30963,17.8049,30.9756,13.8415,-10.46,14.59,38.07,5,S02
28980,-7.69257,-0.23703,1.33836,12.6829,22.0122,11.7073,-10.46,14.59,38.07,5,S02
29000,-7.53455,-0.19154,1.22823,4.0244,13.4146,9.2683,-10.46,14.59,38.07,5,S02
29020,-7.53934,-0.13168,1.69270,-5.7927,6.7073,8.3537,-10.55,14.50,37.98,5,S02
29040,-7.78594,-0.36152,2.10450,-11.9512,0.5488,10.1829,-10.55,14.50,37.98,5,S02
29060,-7.65426,-0.45011,1.68073,-17.1341,-3.2927,13.2317,-10.55,14.50,37.98,5,S02
29080,-7.24964,-0.50518,1.18752,-24.5122,-3.9634,13.9024,-10.55,14.50,37.98,5,S02
29100,-8.11156,-1.18034,1.34794,-29.6951,-7.1341,10.4878,-9.82,13.85,38.44,5,S02
29120,-10.10114,-1.88903,0.63446,-29.8780,-15.1829,3.7195,-9.82,13.85,38.44,5,S02
29140,-11.70046,-1.48680,-0.04788,-32.1341,-16.7683,-2.6829,-9.82,13.85,38.44,5,S02
29160,-18.05228,1.48680,1.44610,-39.8171,-16.6463,-8.3537,-8.07,12.84,39.08,5,S02
29180,-18.88067,1.82917,0.76614,-22.9878,-15.4878,-8.0488,-8.07,12.84,39.08,5,S02
29200,-16.68759,3.15316,2.65517,-5.0610,-39.2073,-9.7561,-8.07,12.84,39.08,5,S02
29220,-14.64054,2.03028,2.24816,1.7073,-56.1585,-3.5976,-8.72,10.37,39.54,5,S02
29240,-12.97657,0.41180,3.44286,-3.3537,-49.1463,13.8415,-8.72,10.37,39.54,5,S02
29260,-11.77229,0.61292,3.00951,-4.7561,-35.9756,13.1707,-8.72,10.37,39.54,5,S02
29280,-10.83616,1.07260,2.45885,8.7805,-14.6341,2.1341,-8.72,10.00,39.08,5,S02
29300,-9.83059,1.46286,1.70467,25.6098,-1.7073,-6.0366,-9.63,10.00,39.08,5,S02
29320,-8.48984,1.43413,1.17555,37.6829,9.2683,-4.0244,-9.63,10.00,39.08,5,S02
29340,-7.68539,1.22344,0.71587,41.5854,22.1341,0.2439,-9.63,10.00,39.08,5,S02
29360,-7.64708,1.07739,0.93853,34.2683,31.7683,0.7927,-11.93,11.56,37.61,5,S02
29380,-8.46111,1.03669,1.36230,22.0122,32.4390,-0.8537,-11.93,11.56,37.61,5,S02
29400,-8.91122,0.88107,1.26414,12.6829,28.9024,-0.9756,-11.93,11.56,37.61,5,S02
29420,-8.88967,0.81163,0.87867,7.7439,27.5000,0.7927,-12.48,12.94,36.88,5,S02
29440,-8.87770,0.76614,0.68474,6.4634,26.3415,2.6829,-12.48,12.94,36.88,5,S02
29460,-9.13149,0.63686,0.82839,7.8049,23.9634,2.6829,-12.48,12.94,36.88,5,S02
29480,-9.26077,0.54827,1.07500,10.7927,21.5244,1.3415,-13.30,13.85,36.06,5,S02
29500,-9.27274,0.72065,1.26893,12.9268,18.3537,-0.4268,-13.30,13.85,36.06,5,S02
29520,-9.26317,1.07260,1.29526,11.5244,14.1463,-1.3415,-13.30,13.85,36.06,5,S02
29540,-9.15064,1.26414,1.28090,6.7073,10.3659,-0.8537,-13.30,13.85,36.06,5,S02
29560,-8.99980,1.12049,1.24977,2.8659,9.1463,-0.9756,-13.49,14.40,35.78,5,S02
29580,-9.14346,1.01993,1.06781,2.0122,11.4024,-3.2317,-13.49,14.40,35.78,5,S02
29600,-9.28711,1.17076,1.03430,0.3049,14.6951,-4.7561,-13.49,14.40,35.78,5,S02
29620,-9.22965,1.18752,0.87867,-2.2561,15.7927,-4.5122,-13.58,15.23,35.32,5,S02
29640,-9.15064,1.24259,0.69671,-5.0000,16.7683,-4.9390,-13.58,15.23,35.32,5,S02
29660,-9.13867,1.26893,0.83318,-10.2439,16.7073,-6.4024,-13.58,15.23,35.32,5,S02
29680,-9.34218,1.11091,1.14203,-14.5122,14.7561,-7.5000,-12.94,16.15,35.32,5,S02
29700,-9.47864,0.92895,1.24738,-15.8537,12.7439,-7.3780,-12.94,16.15,35.32,5,S02
29720,-9.49780,0.86431,1.27850,-15.6098,11.5244,-7.0122,-12.94,16.15,35.32,5,S02
29740,-9.45710,0.90980,1.25935,-14.5732,8.6585,-7.0732,-12.94,16.15,35.32,5,S02
29760,-9.38527,0.96007,1.26174,-13.6585,5.1829,-7.3171,-12.57,16.33,35.41,5,S02
29780,-9.31344,1.06542,1.29047,-14.6951,2.6829,-7.5610,-12.57,16.33,35.41,5,S02
29800,-9.24401,1.17555,1.24738,-17.9268,0.3659,-7.4390,-12.57,16.33,35.41,5,S02
29820,-9.20571,1.23541,1.21865,-21.3415,-0.8537,-7.0122,-11.83,16.61,35.87,5,S02
29840,-9.01656,1.06303,1.21386,-21.8902,-1.2195,-6.7073,-11.83,16.61,35.87,5,S02
29860,-8.76757,0.83797,1.25935,-19.1463,-1.0976,-6.8902,-11.83,16.61,35.87,5,S02
